"view_history","rt","trial_type","trial_index","time_elapsed","internal_node_id","subject","stimulus_type","trial_stimulus","key_press","minimum_viewing_duration","trial_looking_time","block_deviant","block_background","stimulus","wall_pref","location","location_percent","block_number","block_type","stimulus_displayed","position_displayed","stim_type_selected"
"[{""page_index"":0,""viewing_time"":118226.9999999553}]","118228.99999993388","instructions","0","118242","0.0-0.0","SS1613080065292","","","","","","","","","","","","","","","",""
"[{""page_index"":0,""viewing_time"":3818.000000086613},{""page_index"":1,""viewing_time"":5952.999999979511}]","9773.000000044703","instructions","1","130755","0.0-1.0","SS1613080065292","instructions","","","","","","","","","","","","","","",""
"","5977.000000071712","sequential-stimulus-presentation","2","137665","0.0-2.0","SS1613080065292","","","40","800","6777.000000071712","null","null","","","","","","","","",""
"","586.9999999413267","sequential-stimulus-presentation","3","139163","0.0-3.0","SS1613080065292","","","40","800","1386.9999999413267","null","null","","","","","","","","",""
"[{""page_index"":0,""viewing_time"":1454.0000000270084}]","1456.000000005588","instructions","4","140642","0.0-4.0","SS1613080065292","instructions","","","","","","","","","","","","","","",""
"","7525.000000023283","html-keyboard-response","5","148181","0.0-5.0","SS1613080065292","instructions","","99","","","","","<video width ='960' height = '540' autoplay muted><source src='images/stimuli/wall_pref.mp4' type='video/mp4'></video>","3","right","66%","","","","",""
"","1371.999999973923","sequential-stimulus-presentation","6","150385","0.0-6.0","SS1613080065292","pref_reveal","","40","800","2171.999999973923","null","null","","","","","","","","",""
"[{""page_index"":0,""viewing_time"":1766.0000000614673},{""page_index"":1,""viewing_time"":1437.999999965541},{""page_index"":2,""viewing_time"":797.0000000204891},{""page_index"":3,""viewing_time"":1000}]","5004.0000000735745","instructions","7","155393","0.0-7.0","SS1613080065292","instructions","","","","","","","","","","","","","","",""
"","null","html-keyboard-response","8","156423","0.0-8.0-0.0","SS1613080065292","","","null","","","","","<p><img src= images/blank.png width =""200"" height = ""200"" style = ""float:right""></p><p><img src=images/blank.png width =""800"" height = ""200""></p>","","","","","","","",""
"","2334.000000031665","sequential-stimulus-presentation","9","159599","0.0-8.0-1.0","SS1613080065292","trial","","40","800","3134.000000031665","images/stimuli/spore_stims/complex_08_A_c.gif","images/stimuli/spore_stims/complex_20_A_d.gif","","","","","0","complex_dissimilar","images/stimuli/spore_stims/complex_20_A_d.gif","left",""
"","null","html-keyboard-response","10","160554","0.0-8.0-0.1","SS1613080065292","","","null","","","","","<p><img src= images/blank.png width =""200"" height = ""200"" style = ""float:right""></p><p><img src=images/blank.png width =""800"" height = ""200""></p>","","","","","","","",""
"","2513.0000000353903","sequential-stimulus-presentation","11","163900","0.0-8.0-1.1","SS1613080065292","trial","","40","800","3313.0000000353903","images/stimuli/spore_stims/complex_08_A_c.gif","images/stimuli/spore_stims/complex_20_A_d.gif","","","","","0","complex_dissimilar","images/stimuli/spore_stims/complex_20_A_d.gif","left",""
"","null","html-keyboard-response","12","165011","0.0-8.0-0.2","SS1613080065292","","","null","","","","","<p><img src= images/blank.png width =""200"" height = ""200"" style = ""float:right""></p><p><img src=images/blank.png width =""800"" height = ""200""></p>","","","","","","","",""
"","21163.000000058673","sequential-stimulus-presentation","13","186992","0.0-8.0-1.2","SS1613080065292","trial","","40","800","21963.000000058673","images/stimuli/spore_stims/complex_08_A_c.gif","images/stimuli/spore_stims/complex_20_A_d.gif","","","","","0","complex_dissimilar","images/stimuli/spore_stims/complex_20_A_d.gif","left",""
"","null","html-keyboard-response","14","188026","0.0-8.0-0.3","SS1613080065292","","","null","","","","","<p><img src= images/blank.png width =""200"" height = ""200"" style = ""float:right""></p><p><img src=images/blank.png width =""800"" height = ""200""></p>","","","","","","","",""
"","253.00000002607703","sequential-stimulus-presentation","15","189133","0.0-8.0-1.3","SS1613080065292","trial","","40","800","1053.000000026077","images/stimuli/spore_stims/complex_08_A_c.gif","images/stimuli/spore_stims/complex_20_A_d.gif","","","","","0","complex_dissimilar","images/stimuli/spore_stims/complex_20_A_d.gif","left",""
"","null","html-keyboard-response","16","190260","0.0-8.0-0.4","SS1613080065292","","","null","","","","","<p><img src= images/blank.png width =""200"" height = ""200"" style = ""float:right""></p><p><img src=images/blank.png width =""800"" height = ""200""></p>","","","","","","","",""
"","945.0000000651926","sequential-stimulus-presentation","17","192019","0.0-8.0-1.4","SS1613080065292","trial","","40","800","1745.0000000651926","images/stimuli/spore_stims/complex_08_A_c.gif","images/stimuli/spore_stims/complex_20_A_d.gif","","","","","0","complex_dissimilar","images/stimuli/spore_stims/complex_20_A_d.gif","left",""
"","null","html-keyboard-response","18","193301","0.0-8.0-0.5","SS1613080065292","","","null","","","","","<p><img src= images/blank.png width =""200"" height = ""200"" style = ""float:right""></p><p><img src=images/blank.png width =""800"" height = ""200""></p>","","","","","","","",""
"","599.9999999767169","sequential-stimulus-presentation","19","194741","0.0-8.0-1.5","SS1613080065292","trial","","40","800","1399.999999976717","images/stimuli/spore_stims/complex_08_A_c.gif","images/stimuli/spore_stims/complex_20_A_d.gif","","","","","0","complex_dissimilar","images/stimuli/spore_stims/complex_20_A_d.gif","left",""
"","null","html-keyboard-response","20","195852","0.0-8.0-0.6","SS1613080065292","","","null","","","","","<p><img src= images/blank.png width =""200"" height = ""200"" style = ""float:right""></p><p><img src=images/blank.png width =""800"" height = ""200""></p>","","","","","","","",""
"","100.99999990779907","sequential-stimulus-presentation","21","196829","0.0-8.0-1.6","SS1613080065292","trial","","40","800","900.9999999077991","images/stimuli/spore_stims/complex_08_A_c.gif","images/stimuli/spore_stims/complex_20_A_d.gif","","","","","0","complex_dissimilar","images/stimuli/spore_stims/complex_08_A_c.gif","middle",""
"","null","html-keyboard-response","22","197660","0.0-8.0-0.7","SS1613080065292","","","null","","","","","<p><img src= images/blank.png width =""200"" height = ""200"" style = ""float:right""></p><p><img src=images/blank.png width =""800"" height = ""200""></p>","","","","","","","",""
"","123.99999995250255","sequential-stimulus-presentation","23","198612","0.0-8.0-1.7","SS1613080065292","trial","","40","800","923.9999999525025","images/stimuli/spore_stims/complex_08_A_c.gif","images/stimuli/spore_stims/complex_20_A_d.gif","","","","","0","complex_dissimilar","images/stimuli/spore_stims/complex_20_A_d.gif","left",""
"","2422.999999951571","html-keyboard-response","24","201206","0.0-9.0","SS1613080065292","pref_question","","97","","","","","<video width ='960' height = '540' style='padding-top:8%' autoplay muted><source src='images/stimuli/wall_pref.mp4' type='video/mp4'></video>","1","left","25%","0","","","",""
"","523.9999999757856","sequential-stimulus-presentation","25","202571","0.0-10.0","SS1613080065292","pref_reveal","","40","800","1323.9999999757856","null","null","","","","","0","","","","background"
"","null","html-keyboard-response","26","203488","0.0-11.0-0.0","SS1613080065292","","","null","","","","","<p><img src= images/blank.png width =""200"" height = ""200"" style = ""float:right""></p><p><img src=images/blank.png width =""800"" height = ""200""></p>","","","","","","","",""
"","739.9999999906868","sequential-stimulus-presentation","27","205078","0.0-11.0-1.0","SS1613080065292","trial","","40","800","1539.9999999906868","images/stimuli/spore_stims/simple_19_B_d.gif","images/stimuli/spore_stims/simple_14_A_c.gif","","","","","1","simple_dissimilar","images/stimuli/spore_stims/simple_14_A_c.gif","left",""
"","null","html-keyboard-response","28","205901","0.0-11.0-0.1","SS1613080065292","","","null","","","","","<p><img src= images/blank.png width =""200"" height = ""200"" style = ""float:right""></p><p><img src=images/blank.png width =""800"" height = ""200""></p>","","","","","","","",""
"","2356.000000028871","sequential-stimulus-presentation","29","209109","0.0-11.0-1.1","SS1613080065292","trial","","40","800","3156.000000028871","images/stimuli/spore_stims/simple_19_B_d.gif","images/stimuli/spore_stims/simple_14_A_c.gif","","","","","1","simple_dissimilar","images/stimuli/spore_stims/simple_14_A_c.gif","left",""
"","null","html-keyboard-response","30","210149","0.0-11.0-0.2","SS1613080065292","","","null","","","","","<p><img src= images/blank.png width =""200"" height = ""200"" style = ""float:right""></p><p><img src=images/blank.png width =""800"" height = ""200""></p>","","","","","","","",""
"","415.99999996833503","sequential-stimulus-presentation","31","211423","0.0-11.0-1.2","SS1613080065292","trial","","40","800","1215.999999968335","images/stimuli/spore_stims/simple_19_B_d.gif","images/stimuli/spore_stims/simple_14_A_c.gif","","","","","1","simple_dissimilar","images/stimuli/spore_stims/simple_19_B_d.gif","middle",""
"","null","html-keyboard-response","32","212519","0.0-11.0-0.3","SS1613080065292","","","null","","","","","<p><img src= images/blank.png width =""200"" height = ""200"" style = ""float:right""></p><p><img src=images/blank.png width =""800"" height = ""200""></p>","","","","","","","",""
"","21.999999997206032","sequential-stimulus-presentation","33","213452","0.0-11.0-1.3","SS1613080065292","trial","","40","800","821.999999997206","images/stimuli/spore_stims/simple_19_B_d.gif","images/stimuli/spore_stims/simple_14_A_c.gif","","","","","1","simple_dissimilar","images/stimuli/spore_stims/simple_14_A_c.gif","left",""
"","null","html-keyboard-response","34","214395","0.0-11.0-0.4","SS1613080065292","","","null","","","","","<p><img src= images/blank.png width =""200"" height = ""200"" style = ""float:right""></p><p><img src=images/blank.png width =""800"" height = ""200""></p>","","","","","","","",""
"","115.9999999217689","sequential-stimulus-presentation","35","215416","0.0-11.0-1.4","SS1613080065292","trial","","40","800","915.9999999217689","images/stimuli/spore_stims/simple_19_B_d.gif","images/stimuli/spore_stims/simple_14_A_c.gif","","","","","1","simple_dissimilar","images/stimuli/spore_stims/simple_14_A_c.gif","left",""
"","null","html-keyboard-response","36","216286","0.0-11.0-0.5","SS1613080065292","","","null","","","","","<p><img src= images/blank.png width =""200"" height = ""200"" style = ""float:right""></p><p><img src=images/blank.png width =""800"" height = ""200""></p>","","","","","","","",""
"","1597.0000000670552","sequential-stimulus-presentation","37","218706","0.0-11.0-1.5","SS1613080065292","trial","","40","800","2397.000000067055","images/stimuli/spore_stims/simple_19_B_d.gif","images/stimuli/spore_stims/simple_14_A_c.gif","","","","","1","simple_dissimilar","images/stimuli/spore_stims/simple_14_A_c.gif","left",""
"","null","html-keyboard-response","38","219942","0.0-11.0-0.6","SS1613080065292","","","null","","","","","<p><img src= images/blank.png width =""200"" height = ""200"" style = ""float:right""></p><p><img src=images/blank.png width =""800"" height = ""200""></p>","","","","","","","",""
"","108.99999993853271","sequential-stimulus-presentation","39","220880","0.0-11.0-1.6","SS1613080065292","trial","","40","800","908.9999999385327","images/stimuli/spore_stims/simple_19_B_d.gif","images/stimuli/spore_stims/simple_14_A_c.gif","","","","","1","simple_dissimilar","images/stimuli/spore_stims/simple_14_A_c.gif","left",""
"","null","html-keyboard-response","40","221817","0.0-11.0-0.7","SS1613080065292","","","null","","","","","<p><img src= images/blank.png width =""200"" height = ""200"" style = ""float:right""></p><p><img src=images/blank.png width =""800"" height = ""200""></p>","","","","","","","",""
"","2574.0000000223517","sequential-stimulus-presentation","41","225250","0.0-11.0-1.7","SS1613080065292","trial","","40","800","3374.0000000223517","images/stimuli/spore_stims/simple_19_B_d.gif","images/stimuli/spore_stims/simple_14_A_c.gif","","","","","1","simple_dissimilar","images/stimuli/spore_stims/simple_14_A_c.gif","left",""
"","2120.9999999264255","html-keyboard-response","42","227382","0.0-12.0","SS1613080065292","pref_question","","97","","","","","<video width ='960' height = '540' style='padding-top:8%' autoplay muted><source src='images/stimuli/wall_pref.mp4' type='video/mp4'></video>","1","left","25%","1","","","",""
"","619.9999999953434","sequential-stimulus-presentation","43","228822","0.0-13.0","SS1613080065292","pref_reveal","","40","800","1419.9999999953434","null","null","","","","","1","","","","background"
"","null","html-keyboard-response","44","229739","0.0-14.0-0.0","SS1613080065292","","","null","","","","","<p><img src= images/blank.png width =""200"" height = ""200"" style = ""float:right""></p><p><img src=images/blank.png width =""800"" height = ""200""></p>","","","","","","","",""
"","107.00000007636845","sequential-stimulus-presentation","45","230685","0.0-14.0-1.0","SS1613080065292","trial","","40","800","907.0000000763685","images/stimuli/spore_stims/simple_03_B_a.gif","images/stimuli/spore_stims/simple_01_A_a.gif","","","","","2","simple_dissimilar","images/stimuli/spore_stims/simple_01_A_a.gif","middle",""
"","null","html-keyboard-response","46","231801","0.0-14.0-0.1","SS1613080065292","","","null","","","","","<p><img src= images/blank.png width =""200"" height = ""200"" style = ""float:right""></p><p><img src=images/blank.png width =""800"" height = ""200""></p>","","","","","","","",""
"","13792.999999946915","sequential-stimulus-presentation","47","246439","0.0-14.0-1.1","SS1613080065292","trial","","40","800","14592.999999946915","images/stimuli/spore_stims/simple_03_B_a.gif","images/stimuli/spore_stims/simple_01_A_a.gif","","","","","2","simple_dissimilar","images/stimuli/spore_stims/simple_01_A_a.gif","middle",""
"","null","html-keyboard-response","48","247262","0.0-14.0-0.2","SS1613080065292","","","null","","","","","<p><img src= images/blank.png width =""200"" height = ""200"" style = ""float:right""></p><p><img src=images/blank.png width =""800"" height = ""200""></p>","","","","","","","",""
"","16562.99999996554","sequential-stimulus-presentation","49","264680","0.0-14.0-1.2","SS1613080065292","trial","","40","800","17362.99999996554","images/stimuli/spore_stims/simple_03_B_a.gif","images/stimuli/spore_stims/simple_01_A_a.gif","","","","","2","simple_dissimilar","images/stimuli/spore_stims/simple_01_A_a.gif","middle",""
"","null","html-keyboard-response","50","265662","0.0-14.0-0.3","SS1613080065292","","","null","","","","","<p><img src= images/blank.png width =""200"" height = ""200"" style = ""float:right""></p><p><img src=images/blank.png width =""800"" height = ""200""></p>","","","","","","","",""
"","9693.99999990128","sequential-stimulus-presentation","51","276186","0.0-14.0-1.3","SS1613080065292","trial","","40","800","10493.99999990128","images/stimuli/spore_stims/simple_03_B_a.gif","images/stimuli/spore_stims/simple_01_A_a.gif","","","","","2","simple_dissimilar","images/stimuli/spore_stims/simple_01_A_a.gif","middle",""
"","null","html-keyboard-response","52","277050","0.0-14.0-0.4","SS1613080065292","","","null","","","","","<p><img src= images/blank.png width =""200"" height = ""200"" style = ""float:right""></p><p><img src=images/blank.png width =""800"" height = ""200""></p>","","","","","","","",""
"","167.9999999469146","sequential-stimulus-presentation","53","278062","0.0-14.0-1.4","SS1613080065292","trial","","40","800","967.9999999469146","images/stimuli/spore_stims/simple_03_B_a.gif","images/stimuli/spore_stims/simple_01_A_a.gif","","","","","2","simple_dissimilar","images/stimuli/spore_stims/simple_01_A_a.gif","middle",""
"","null","html-keyboard-response","54","279180","0.0-14.0-0.5","SS1613080065292","","","null","","","","","<p><img src= images/blank.png width =""200"" height = ""200"" style = ""float:right""></p><p><img src=images/blank.png width =""800"" height = ""200""></p>","","","","","","","",""
"","4126.99999997858","sequential-stimulus-presentation","55","284151","0.0-14.0-1.5","SS1613080065292","trial","","40","800","4926.99999997858","images/stimuli/spore_stims/simple_03_B_a.gif","images/stimuli/spore_stims/simple_01_A_a.gif","","","","","2","simple_dissimilar","images/stimuli/spore_stims/simple_01_A_a.gif","middle",""
"","null","html-keyboard-response","56","285276","0.0-14.0-0.6","SS1613080065292","","","null","","","","","<p><img src= images/blank.png width =""200"" height = ""200"" style = ""float:right""></p><p><img src=images/blank.png width =""800"" height = ""200""></p>","","","","","","","",""
"","1410.0000000325963","sequential-stimulus-presentation","57","287617","0.0-14.0-1.6","SS1613080065292","trial","","40","800","2210.0000000325963","images/stimuli/spore_stims/simple_03_B_a.gif","images/stimuli/spore_stims/simple_01_A_a.gif","","","","","2","simple_dissimilar","images/stimuli/spore_stims/simple_01_A_a.gif","middle",""
"","null","html-keyboard-response","58","288921","0.0-14.0-0.7","SS1613080065292","","","null","","","","","<p><img src= images/blank.png width =""200"" height = ""200"" style = ""float:right""></p><p><img src=images/blank.png width =""800"" height = ""200""></p>","","","","","","","",""
"","131.9999999832362","sequential-stimulus-presentation","59","289893","0.0-14.0-1.7","SS1613080065292","trial","","40","800","931.9999999832362","images/stimuli/spore_stims/simple_03_B_a.gif","images/stimuli/spore_stims/simple_01_A_a.gif","","","","","2","simple_dissimilar","images/stimuli/spore_stims/simple_03_B_a.gif","left",""
"","1591.0000000149012","html-keyboard-response","60","292233","0.0-15.0","SS1613080065292","pref_question","","97","","","","","<video width ='960' height = '540' style='padding-top:8%' autoplay muted><source src='images/stimuli/wall_pref.mp4' type='video/mp4'></video>","1","left","25%","2","","","",""
"","1146.999999997206","sequential-stimulus-presentation","61","294287","0.0-16.0","SS1613080065292","pref_reveal","","40","800","1946.999999997206","null","null","","","","","2","","","","deviant"
"","null","html-keyboard-response","62","295528","0.0-17.0-0.0","SS1613080065292","","","null","","","","","<p><img src= images/blank.png width =""200"" height = ""200"" style = ""float:right""></p><p><img src=images/blank.png width =""800"" height = ""200""></p>","","","","","","","",""
"","376.9999999785796","sequential-stimulus-presentation","63","296750","0.0-17.0-1.0","SS1613080065292","trial","","40","800","1176.9999999785796","images/stimuli/spore_stims/complex_16_B_a.gif","images/stimuli/spore_stims/complex_16_A_a.gif","","","","","3","complex_similar","images/stimuli/spore_stims/complex_16_A_a.gif","right",""
"","null","html-keyboard-response","64","297919","0.0-17.0-0.1","SS1613080065292","","","null","","","","","<p><img src= images/blank.png width =""200"" height = ""200"" style = ""float:right""></p><p><img src=images/blank.png width =""800"" height = ""200""></p>","","","","","","","",""
"","755.0000000046566","sequential-stimulus-presentation","65","299535","0.0-17.0-1.1","SS1613080065292","trial","","40","800","1555.0000000046566","images/stimuli/spore_stims/complex_16_B_a.gif","images/stimuli/spore_stims/complex_16_A_a.gif","","","","","3","complex_similar","images/stimuli/spore_stims/complex_16_A_a.gif","right",""
"","null","html-keyboard-response","66","300701","0.0-17.0-0.2","SS1613080065292","","","null","","","","","<p><img src= images/blank.png width =""200"" height = ""200"" style = ""float:right""></p><p><img src=images/blank.png width =""800"" height = ""200""></p>","","","","","","","",""
"","455.0000000745058","sequential-stimulus-presentation","67","301983","0.0-17.0-1.2","SS1613080065292","trial","","40","800","1255.0000000745058","images/stimuli/spore_stims/complex_16_B_a.gif","images/stimuli/spore_stims/complex_16_A_a.gif","","","","","3","complex_similar","images/stimuli/spore_stims/complex_16_A_a.gif","right",""
"","null","html-keyboard-response","68","303279","0.0-17.0-0.3","SS1613080065292","","","null","","","","","<p><img src= images/blank.png width =""200"" height = ""200"" style = ""float:right""></p><p><img src=images/blank.png width =""800"" height = ""200""></p>","","","","","","","",""
"","33892.99999992363","sequential-stimulus-presentation","69","338017","0.0-17.0-1.3","SS1613080065292","trial","","40","800","34692.99999992363","images/stimuli/spore_stims/complex_16_B_a.gif","images/stimuli/spore_stims/complex_16_A_a.gif","","","","","3","complex_similar","images/stimuli/spore_stims/complex_16_A_a.gif","right",""
"","null","html-keyboard-response","70","338969","0.0-17.0-0.4","SS1613080065292","","","null","","","","","<p><img src= images/blank.png width =""200"" height = ""200"" style = ""float:right""></p><p><img src=images/blank.png width =""800"" height = ""200""></p>","","","","","","","",""
"","52.99999995622784","sequential-stimulus-presentation","71","339832","0.0-17.0-1.4","SS1613080065292","trial","","40","800","852.9999999562278","images/stimuli/spore_stims/complex_16_B_a.gif","images/stimuli/spore_stims/complex_16_A_a.gif","","","","","3","complex_similar","images/stimuli/spore_stims/complex_16_A_a.gif","right",""
"","null","html-keyboard-response","72","341091","0.0-17.0-0.5","SS1613080065292","","","null","","","","","<p><img src= images/blank.png width =""200"" height = ""200"" style = ""float:right""></p><p><img src=images/blank.png width =""800"" height = ""200""></p>","","","","","","","",""
"","140.99999994505197","sequential-stimulus-presentation","73","342113","0.0-17.0-1.5","SS1613080065292","trial","","40","800","940.999999945052","images/stimuli/spore_stims/complex_16_B_a.gif","images/stimuli/spore_stims/complex_16_A_a.gif","","","","","3","complex_similar","images/stimuli/spore_stims/complex_16_B_a.gif","left",""
"","null","html-keyboard-response","74","343028","0.0-17.0-0.6","SS1613080065292","","","null","","","","","<p><img src= images/blank.png width =""200"" height = ""200"" style = ""float:right""></p><p><img src=images/blank.png width =""800"" height = ""200""></p>","","","","","","","",""
"","347.99999999813735","sequential-stimulus-presentation","75","344210","0.0-17.0-1.6","SS1613080065292","trial","","40","800","1147.9999999981374","images/stimuli/spore_stims/complex_16_B_a.gif","images/stimuli/spore_stims/complex_16_A_a.gif","","","","","3","complex_similar","images/stimuli/spore_stims/complex_16_A_a.gif","right",""
"","null","html-keyboard-response","76","345311","0.0-17.0-0.7","SS1613080065292","","","null","","","","","<p><img src= images/blank.png width =""200"" height = ""200"" style = ""float:right""></p><p><img src=images/blank.png width =""800"" height = ""200""></p>","","","","","","","",""
"","741.0000000381842","sequential-stimulus-presentation","77","346895","0.0-17.0-1.7","SS1613080065292","trial","","40","800","1541.0000000381842","images/stimuli/spore_stims/complex_16_B_a.gif","images/stimuli/spore_stims/complex_16_A_a.gif","","","","","3","complex_similar","images/stimuli/spore_stims/complex_16_A_a.gif","right",""
"","2969.000000040978","html-keyboard-response","78","349878","0.0-18.0","SS1613080065292","pref_question","","99","","","","","<video width ='960' height = '540' style='padding-top:8%' autoplay muted><source src='images/stimuli/wall_pref.mp4' type='video/mp4'></video>","3","right","66%","3","","","",""
"","4177.000000025146","sequential-stimulus-presentation","79","354883","0.0-19.0","SS1613080065292","pref_reveal","","40","800","4977.000000025146","null","null","","","","","3","","","","background"
"","null","html-keyboard-response","80","355868","0.0-20.0-0.0","SS1613080065292","","","null","","","","","<p><img src= images/blank.png width =""200"" height = ""200"" style = ""float:right""></p><p><img src=images/blank.png width =""800"" height = ""200""></p>","","","","","","","",""
"","122.00000009033829","sequential-stimulus-presentation","81","356860","0.0-20.0-1.0","SS1613080065292","trial","","40","800","922.0000000903383","images/stimuli/spore_stims/complex_19_A_d.gif","images/stimuli/spore_stims/complex_18_B_b.gif","","","","","4","complex_dissimilar","images/stimuli/spore_stims/complex_18_B_b.gif","left",""
"","null","html-keyboard-response","82","357736","0.0-20.0-0.1","SS1613080065292","","","null","","","","","<p><img src= images/blank.png width =""200"" height = ""200"" style = ""float:right""></p><p><img src=images/blank.png width =""800"" height = ""200""></p>","","","","","","","",""
"","47.0000000204891","sequential-stimulus-presentation","83","358610","0.0-20.0-1.1","SS1613080065292","trial","","40","800","847.0000000204891","images/stimuli/spore_stims/complex_19_A_d.gif","images/stimuli/spore_stims/complex_18_B_b.gif","","","","","4","complex_dissimilar","images/stimuli/spore_stims/complex_18_B_b.gif","left",""
"","null","html-keyboard-response","84","359627","0.0-20.0-0.2","SS1613080065292","","","null","","","","","<p><img src= images/blank.png width =""200"" height = ""200"" style = ""float:right""></p><p><img src=images/blank.png width =""800"" height = ""200""></p>","","","","","","","",""
"","2196.999999927357","sequential-stimulus-presentation","85","362688","0.0-20.0-1.2","SS1613080065292","trial","","40","800","2996.999999927357","images/stimuli/spore_stims/complex_19_A_d.gif","images/stimuli/spore_stims/complex_18_B_b.gif","","","","","4","complex_dissimilar","images/stimuli/spore_stims/complex_18_B_b.gif","left",""
"","null","html-keyboard-response","86","363811","0.0-20.0-0.3","SS1613080065292","","","null","","","","","<p><img src= images/blank.png width =""200"" height = ""200"" style = ""float:right""></p><p><img src=images/blank.png width =""800"" height = ""200""></p>","","","","","","","",""
"","119.00000006426126","sequential-stimulus-presentation","87","364773","0.0-20.0-1.3","SS1613080065292","trial","","40","800","919.0000000642613","images/stimuli/spore_stims/complex_19_A_d.gif","images/stimuli/spore_stims/complex_18_B_b.gif","","","","","4","complex_dissimilar","images/stimuli/spore_stims/complex_18_B_b.gif","left",""
"","null","html-keyboard-response","88","365783","0.0-20.0-0.4","SS1613080065292","","","null","","","","","<p><img src= images/blank.png width =""200"" height = ""200"" style = ""float:right""></p><p><img src=images/blank.png width =""800"" height = ""200""></p>","","","","","","","",""
"","736.9999999646097","sequential-stimulus-presentation","89","367348","0.0-20.0-1.4","SS1613080065292","trial","","40","800","1536.9999999646097","images/stimuli/spore_stims/complex_19_A_d.gif","images/stimuli/spore_stims/complex_18_B_b.gif","","","","","4","complex_dissimilar","images/stimuli/spore_stims/complex_18_B_b.gif","left",""
"","null","html-keyboard-response","90","368564","0.0-20.0-0.5","SS1613080065292","","","null","","","","","<p><img src= images/blank.png width =""200"" height = ""200"" style = ""float:right""></p><p><img src=images/blank.png width =""800"" height = ""200""></p>","","","","","","","",""
"","103.00000000279397","sequential-stimulus-presentation","91","369533","0.0-20.0-1.5","SS1613080065292","trial","","40","800","903.000000002794","images/stimuli/spore_stims/complex_19_A_d.gif","images/stimuli/spore_stims/complex_18_B_b.gif","","","","","4","complex_dissimilar","images/stimuli/spore_stims/complex_19_A_d.gif","right",""
"","null","html-keyboard-response","92","370439","0.0-20.0-0.6","SS1613080065292","","","null","","","","","<p><img src= images/blank.png width =""200"" height = ""200"" style = ""float:right""></p><p><img src=images/blank.png width =""800"" height = ""200""></p>","","","","","","","",""
"","0","sequential-stimulus-presentation","93","371313","0.0-20.0-1.6","SS1613080065292","trial","","40","800","800","images/stimuli/spore_stims/complex_19_A_d.gif","images/stimuli/spore_stims/complex_18_B_b.gif","","","","","4","complex_dissimilar","images/stimuli/spore_stims/complex_18_B_b.gif","left",""
"","null","html-keyboard-response","94","372221","0.0-20.0-0.7","SS1613080065292","","","null","","","","","<p><img src= images/blank.png width =""200"" height = ""200"" style = ""float:right""></p><p><img src=images/blank.png width =""800"" height = ""200""></p>","","","","","","","",""
"","160.0000000325963","sequential-stimulus-presentation","95","373220","0.0-20.0-1.7","SS1613080065292","trial","","40","800","960.0000000325963","images/stimuli/spore_stims/complex_19_A_d.gif","images/stimuli/spore_stims/complex_18_B_b.gif","","","","","4","complex_dissimilar","images/stimuli/spore_stims/complex_18_B_b.gif","left",""
"","3571.999999927357","html-keyboard-response","96","376804","0.0-21.0","SS1613080065292","pref_question","","97","","","","","<video width ='960' height = '540' style='padding-top:8%' autoplay muted><source src='images/stimuli/wall_pref.mp4' type='video/mp4'></video>","1","left","25%","4","","","",""
"","307.99999996088445","sequential-stimulus-presentation","97","377927","0.0-22.0","SS1613080065292","pref_reveal","","40","800","1107.9999999608845","null","null","","","","","4","","","","background"
"","null","html-keyboard-response","98","378861","0.0-23.0-0.0","SS1613080065292","","","null","","","","","<p><img src= images/blank.png width =""200"" height = ""200"" style = ""float:right""></p><p><img src=images/blank.png width =""800"" height = ""200""></p>","","","","","","","",""
"","185.99999998696148","sequential-stimulus-presentation","99","379898","0.0-23.0-1.0","SS1613080065292","trial","","40","800","985.9999999869615","images/stimuli/spore_stims/complex_15_A_c.gif","images/stimuli/spore_stims/complex_15_B_c.gif","","","","","5","complex_similar","images/stimuli/spore_stims/complex_15_B_c.gif","left",""
"","null","html-keyboard-response","100","380986","0.0-23.0-0.1","SS1613080065292","","","null","","","","","<p><img src= images/blank.png width =""200"" height = ""200"" style = ""float:right""></p><p><img src=images/blank.png width =""800"" height = ""200""></p>","","","","","","","",""
"","1993.0000000167638","sequential-stimulus-presentation","101","383812","0.0-23.0-1.1","SS1613080065292","trial","","40","800","2793.000000016764","images/stimuli/spore_stims/complex_15_A_c.gif","images/stimuli/spore_stims/complex_15_B_c.gif","","","","","5","complex_similar","images/stimuli/spore_stims/complex_15_B_c.gif","left",""
"","null","html-keyboard-response","102","384876","0.0-23.0-0.2","SS1613080065292","","","null","","","","","<p><img src= images/blank.png width =""200"" height = ""200"" style = ""float:right""></p><p><img src=images/blank.png width =""800"" height = ""200""></p>","","","","","","","",""
"","73089.00000003632","sequential-stimulus-presentation","103","458808","0.0-23.0-1.2","SS1613080065292","trial","","40","800","73889.00000003632","images/stimuli/spore_stims/complex_15_A_c.gif","images/stimuli/spore_stims/complex_15_B_c.gif","","","","","5","complex_similar","images/stimuli/spore_stims/complex_15_B_c.gif","left",""
"","null","html-keyboard-response","104","459945","0.0-23.0-0.3","SS1613080065292","","","null","","","","","<p><img src= images/blank.png width =""200"" height = ""200"" style = ""float:right""></p><p><img src=images/blank.png width =""800"" height = ""200""></p>","","","","","","","",""
"","533.9999999850988","sequential-stimulus-presentation","105","461323","0.0-23.0-1.3","SS1613080065292","trial","","40","800","1333.9999999850988","images/stimuli/spore_stims/complex_15_A_c.gif","images/stimuli/spore_stims/complex_15_B_c.gif","","","","","5","complex_similar","images/stimuli/spore_stims/complex_15_A_c.gif","right",""
"","null","html-keyboard-response","106","462335","0.0-23.0-0.4","SS1613080065292","","","null","","","","","<p><img src= images/blank.png width =""200"" height = ""200"" style = ""float:right""></p><p><img src=images/blank.png width =""800"" height = ""200""></p>","","","","","","","",""
"","189.99999994412065","sequential-stimulus-presentation","107","463377","0.0-23.0-1.4","SS1613080065292","trial","","40","800","989.9999999441206","images/stimuli/spore_stims/complex_15_A_c.gif","images/stimuli/spore_stims/complex_15_B_c.gif","","","","","5","complex_similar","images/stimuli/spore_stims/complex_15_B_c.gif","left",""
"","null","html-keyboard-response","108","464634","0.0-23.0-0.5","SS1613080065292","","","null","","","","","<p><img src= images/blank.png width =""200"" height = ""200"" style = ""float:right""></p><p><img src=images/blank.png width =""800"" height = ""200""></p>","","","","","","","",""
"","165.0000000372529","sequential-stimulus-presentation","109","465630","0.0-23.0-1.5","SS1613080065292","trial","","40","800","965.0000000372529","images/stimuli/spore_stims/complex_15_A_c.gif","images/stimuli/spore_stims/complex_15_B_c.gif","","","","","5","complex_similar","images/stimuli/spore_stims/complex_15_B_c.gif","left",""
"","null","html-keyboard-response","110","466850","0.0-23.0-0.6","SS1613080065292","","","null","","","","","<p><img src= images/blank.png width =""200"" height = ""200"" style = ""float:right""></p><p><img src=images/blank.png width =""800"" height = ""200""></p>","","","","","","","",""
"","901.0000000707805","sequential-stimulus-presentation","111","468583","0.0-23.0-1.6","SS1613080065292","trial","","40","800","1701.0000000707805","images/stimuli/spore_stims/complex_15_A_c.gif","images/stimuli/spore_stims/complex_15_B_c.gif","","","","","5","complex_similar","images/stimuli/spore_stims/complex_15_B_c.gif","left",""
"","null","html-keyboard-response","112","469491","0.0-23.0-0.7","SS1613080065292","","","null","","","","","<p><img src= images/blank.png width =""200"" height = ""200"" style = ""float:right""></p><p><img src=images/blank.png width =""800"" height = ""200""></p>","","","","","","","",""
"","375","sequential-stimulus-presentation","113","470713","0.0-23.0-1.7","SS1613080065292","trial","","40","800","1175","images/stimuli/spore_stims/complex_15_A_c.gif","images/stimuli/spore_stims/complex_15_B_c.gif","","","","","5","complex_similar","images/stimuli/spore_stims/complex_15_B_c.gif","left",""
"","4799.999999930151","html-keyboard-response","114","475530","0.0-24.0","SS1613080065292","pref_question","","97","","","","","<video width ='960' height = '540' style='padding-top:8%' autoplay muted><source src='images/stimuli/wall_pref.mp4' type='video/mp4'></video>","1","left","25%","5","","","",""
"","1280.0000000279397","sequential-stimulus-presentation","115","477624","0.0-25.0","SS1613080065292","pref_reveal","","40","800","2080.0000000279397","null","null","","","","","5","","","","background"
"","null","html-keyboard-response","116","478822","0.0-26.0-0.0","SS1613080065292","","","null","","","","","<p><img src= images/blank.png width =""200"" height = ""200"" style = ""float:right""></p><p><img src=images/blank.png width =""800"" height = ""200""></p>","","","","","","","",""
"","17662.999999942258","sequential-stimulus-presentation","117","497332","0.0-26.0-1.0","SS1613080065292","trial","","40","800","18462.999999942258","images/stimuli/spore_stims/complex_03_A_a.gif","images/stimuli/spore_stims/complex_01_A_c.gif","","","","","6","complex_dissimilar","images/stimuli/spore_stims/complex_01_A_c.gif","left",""
"","null","html-keyboard-response","118","498597","0.0-26.0-0.1","SS1613080065292","","","null","","","","","<p><img src= images/blank.png width =""200"" height = ""200"" style = ""float:right""></p><p><img src=images/blank.png width =""800"" height = ""200""></p>","","","","","","","",""
"","1483.0000000074506","sequential-stimulus-presentation","119","500989","0.0-26.0-1.1","SS1613080065292","trial","","40","800","2283.0000000074506","images/stimuli/spore_stims/complex_03_A_a.gif","images/stimuli/spore_stims/complex_01_A_c.gif","","","","","6","complex_dissimilar","images/stimuli/spore_stims/complex_01_A_c.gif","left",""
"","null","html-keyboard-response","120","502186","0.0-26.0-0.2","SS1613080065292","","","null","","","","","<p><img src= images/blank.png width =""200"" height = ""200"" style = ""float:right""></p><p><img src=images/blank.png width =""800"" height = ""200""></p>","","","","","","","",""
"","3135.000000009313","sequential-stimulus-presentation","121","506159","0.0-26.0-1.2","SS1613080065292","trial","","40","800","3935.000000009313","images/stimuli/spore_stims/complex_03_A_a.gif","images/stimuli/spore_stims/complex_01_A_c.gif","","","","","6","complex_dissimilar","images/stimuli/spore_stims/complex_01_A_c.gif","left",""
"","null","html-keyboard-response","122","507296","0.0-26.0-0.3","SS1613080065292","","","null","","","","","<p><img src= images/blank.png width =""200"" height = ""200"" style = ""float:right""></p><p><img src=images/blank.png width =""800"" height = ""200""></p>","","","","","","","",""
"","8.000000030733645","sequential-stimulus-presentation","123","508286","0.0-26.0-1.3","SS1613080065292","trial","","40","800","808.0000000307336","images/stimuli/spore_stims/complex_03_A_a.gif","images/stimuli/spore_stims/complex_01_A_c.gif","","","","","6","complex_dissimilar","images/stimuli/spore_stims/complex_01_A_c.gif","left",""
"","null","html-keyboard-response","124","509198","0.0-26.0-0.4","SS1613080065292","","","null","","","","","<p><img src= images/blank.png width =""200"" height = ""200"" style = ""float:right""></p><p><img src=images/blank.png width =""800"" height = ""200""></p>","","","","","","","",""
"","15.000000013969839","sequential-stimulus-presentation","125","510109","0.0-26.0-1.4","SS1613080065292","trial","","40","800","815.0000000139698","images/stimuli/spore_stims/complex_03_A_a.gif","images/stimuli/spore_stims/complex_01_A_c.gif","","","","","6","complex_dissimilar","images/stimuli/spore_stims/complex_01_A_c.gif","left",""
"","null","html-keyboard-response","126","511108","0.0-26.0-0.5","SS1613080065292","","","null","","","","","<p><img src= images/blank.png width =""200"" height = ""200"" style = ""float:right""></p><p><img src=images/blank.png width =""800"" height = ""200""></p>","","","","","","","",""
"","20005.99999993574","sequential-stimulus-presentation","127","532013","0.0-26.0-1.5","SS1613080065292","trial","","40","800","20805.99999993574","images/stimuli/spore_stims/complex_03_A_a.gif","images/stimuli/spore_stims/complex_01_A_c.gif","","","","","6","complex_dissimilar","images/stimuli/spore_stims/complex_03_A_a.gif","right",""
"","null","html-keyboard-response","128","532948","0.0-26.0-0.6","SS1613080065292","","","null","","","","","<p><img src= images/blank.png width =""200"" height = ""200"" style = ""float:right""></p><p><img src=images/blank.png width =""800"" height = ""200""></p>","","","","","","","",""
"","4422.999999951571","sequential-stimulus-presentation","129","538246","0.0-26.0-1.6","SS1613080065292","trial","","40","800","5222.999999951571","images/stimuli/spore_stims/complex_03_A_a.gif","images/stimuli/spore_stims/complex_01_A_c.gif","","","","","6","complex_dissimilar","images/stimuli/spore_stims/complex_01_A_c.gif","left",""
"","null","html-keyboard-response","130","539077","0.0-26.0-0.7","SS1613080065292","","","null","","","","","<p><img src= images/blank.png width =""200"" height = ""200"" style = ""float:right""></p><p><img src=images/blank.png width =""800"" height = ""200""></p>","","","","","","","",""
"","3.9999999571591616","sequential-stimulus-presentation","131","539925","0.0-26.0-1.7","SS1613080065292","trial","","40","800","803.9999999571592","images/stimuli/spore_stims/complex_03_A_a.gif","images/stimuli/spore_stims/complex_01_A_c.gif","","","","","6","complex_dissimilar","images/stimuli/spore_stims/complex_01_A_c.gif","left",""
"","1861.9999999646097","html-keyboard-response","132","541795","0.0-27.0","SS1613080065292","pref_question","","97","","","","","<video width ='960' height = '540' style='padding-top:8%' autoplay muted><source src='images/stimuli/wall_pref.mp4' type='video/mp4'></video>","1","left","25%","6","","","",""
"","194.00000001769513","sequential-stimulus-presentation","133","542797","0.0-28.0","SS1613080065292","pref_reveal","","40","800","994.0000000176951","null","null","","","","","6","","","","background"
"","null","html-keyboard-response","134","544030","0.0-29.0-0.0","SS1613080065292","","","null","","","","","<p><img src= images/blank.png width =""200"" height = ""200"" style = ""float:right""></p><p><img src=images/blank.png width =""800"" height = ""200""></p>","","","","","","","",""
"","189.00000001303852","sequential-stimulus-presentation","135","545105","0.0-29.0-1.0","SS1613080065292","trial","","40","800","989.0000000130385","images/stimuli/spore_stims/simple_06_A_a.gif","images/stimuli/spore_stims/simple_06_B_a.gif","","","","","7","simple_similar","images/stimuli/spore_stims/simple_06_B_a.gif","middle",""
"","null","html-keyboard-response","136","545970","0.0-29.0-0.1","SS1613080065292","","","null","","","","","<p><img src= images/blank.png width =""200"" height = ""200"" style = ""float:right""></p><p><img src=images/blank.png width =""800"" height = ""200""></p>","","","","","","","",""
"","50.99999997764826","sequential-stimulus-presentation","137","546875","0.0-29.0-1.1","SS1613080065292","trial","","40","800","850.9999999776483","images/stimuli/spore_stims/simple_06_A_a.gif","images/stimuli/spore_stims/simple_06_B_a.gif","","","","","7","simple_similar","images/stimuli/spore_stims/simple_06_B_a.gif","middle",""
"","null","html-keyboard-response","138","547973","0.0-29.0-0.2","SS1613080065292","","","null","","","","","<p><img src= images/blank.png width =""200"" height = ""200"" style = ""float:right""></p><p><img src=images/blank.png width =""800"" height = ""200""></p>","","","","","","","",""
"","30.999999959021807","sequential-stimulus-presentation","139","548821","0.0-29.0-1.2","SS1613080065292","trial","","40","800","830.9999999590218","images/stimuli/spore_stims/simple_06_A_a.gif","images/stimuli/spore_stims/simple_06_B_a.gif","","","","","7","simple_similar","images/stimuli/spore_stims/simple_06_B_a.gif","middle",""
"","null","html-keyboard-response","140","550060","0.0-29.0-0.3","SS1613080065292","","","null","","","","","<p><img src= images/blank.png width =""200"" height = ""200"" style = ""float:right""></p><p><img src=images/blank.png width =""800"" height = ""200""></p>","","","","","","","",""
"","128.99999995715916","sequential-stimulus-presentation","141","551008","0.0-29.0-1.3","SS1613080065292","trial","","40","800","928.9999999571592","images/stimuli/spore_stims/simple_06_A_a.gif","images/stimuli/spore_stims/simple_06_B_a.gif","","","","","7","simple_similar","images/stimuli/spore_stims/simple_06_B_a.gif","middle",""
"","null","html-keyboard-response","142","552107","0.0-29.0-0.4","SS1613080065292","","","null","","","","","<p><img src= images/blank.png width =""200"" height = ""200"" style = ""float:right""></p><p><img src=images/blank.png width =""800"" height = ""200""></p>","","","","","","","",""
"","2315.999999991618","sequential-stimulus-presentation","143","555298","0.0-29.0-1.4","SS1613080065292","trial","","40","800","3115.999999991618","images/stimuli/spore_stims/simple_06_A_a.gif","images/stimuli/spore_stims/simple_06_B_a.gif","","","","","7","simple_similar","images/stimuli/spore_stims/simple_06_B_a.gif","middle",""
"","null","html-keyboard-response","144","556295","0.0-29.0-0.5","SS1613080065292","","","null","","","","","<p><img src= images/blank.png width =""200"" height = ""200"" style = ""float:right""></p><p><img src=images/blank.png width =""800"" height = ""200""></p>","","","","","","","",""
"","175.99999997764826","sequential-stimulus-presentation","145","557283","0.0-29.0-1.5","SS1613080065292","trial","","40","800","975.9999999776483","images/stimuli/spore_stims/simple_06_A_a.gif","images/stimuli/spore_stims/simple_06_B_a.gif","","","","","7","simple_similar","images/stimuli/spore_stims/simple_06_B_a.gif","middle",""
"","null","html-keyboard-response","146","558624","0.0-29.0-0.6","SS1613080065292","","","null","","","","","<p><img src= images/blank.png width =""200"" height = ""200"" style = ""float:right""></p><p><img src=images/blank.png width =""800"" height = ""200""></p>","","","","","","","",""
"","92.00000006239861","sequential-stimulus-presentation","147","559537","0.0-29.0-1.6","SS1613080065292","trial","","40","800","892.0000000623986","images/stimuli/spore_stims/simple_06_A_a.gif","images/stimuli/spore_stims/simple_06_B_a.gif","","","","","7","simple_similar","images/stimuli/spore_stims/simple_06_B_a.gif","middle",""
"","null","html-keyboard-response","148","560686","0.0-29.0-0.7","SS1613080065292","","","null","","","","","<p><img src= images/blank.png width =""200"" height = ""200"" style = ""float:right""></p><p><img src=images/blank.png width =""800"" height = ""200""></p>","","","","","","","",""
"","166.00000008475035","sequential-stimulus-presentation","149","561692","0.0-29.0-1.7","SS1613080065292","trial","","40","800","966.0000000847504","images/stimuli/spore_stims/simple_06_A_a.gif","images/stimuli/spore_stims/simple_06_B_a.gif","","","","","7","simple_similar","images/stimuli/spore_stims/simple_06_A_a.gif","right",""
"","2201.9999999320135","html-keyboard-response","150","563908","0.0-30.0","SS1613080065292","pref_question","","99","","","","","<video width ='960' height = '540' style='padding-top:8%' autoplay muted><source src='images/stimuli/wall_pref.mp4' type='video/mp4'></video>","3","right","66%","7","","","",""
"","863.0000000121072","sequential-stimulus-presentation","151","565586","0.0-31.0","SS1613080065292","pref_reveal","","40","800","1663.0000000121072","null","null","","","","","7","","","","deviant"
"","null","html-keyboard-response","152","566544","0.0-32.0-0.0","SS1613080065292","","","null","","","","","<p><img src= images/blank.png width =""200"" height = ""200"" style = ""float:right""></p><p><img src=images/blank.png width =""800"" height = ""200""></p>","","","","","","","",""
"","38.00000005867332","sequential-stimulus-presentation","153","567416","0.0-32.0-1.0","SS1613080065292","trial","","40","800","838.0000000586733","images/stimuli/spore_stims/simple_04_B_d.gif","images/stimuli/spore_stims/simple_04_A_d.gif","","","","","8","simple_similar","images/stimuli/spore_stims/simple_04_A_d.gif","middle",""
"","null","html-keyboard-response","154","568232","0.0-32.0-0.1","SS1613080065292","","","null","","","","","<p><img src= images/blank.png width =""200"" height = ""200"" style = ""float:right""></p><p><img src=images/blank.png width =""800"" height = ""200""></p>","","","","","","","",""
"","84.9999999627471","sequential-stimulus-presentation","155","569150","0.0-32.0-1.1","SS1613080065292","trial","","40","800","884.9999999627471","images/stimuli/spore_stims/simple_04_B_d.gif","images/stimuli/spore_stims/simple_04_A_d.gif","","","","","8","simple_similar","images/stimuli/spore_stims/simple_04_A_d.gif","middle",""
"","null","html-keyboard-response","156","570061","0.0-32.0-0.2","SS1613080065292","","","null","","","","","<p><img src= images/blank.png width =""200"" height = ""200"" style = ""float:right""></p><p><img src=images/blank.png width =""800"" height = ""200""></p>","","","","","","","",""
"","4366.000000038184","sequential-stimulus-presentation","157","575279","0.0-32.0-1.2","SS1613080065292","trial","","40","800","5166.000000038184","images/stimuli/spore_stims/simple_04_B_d.gif","images/stimuli/spore_stims/simple_04_A_d.gif","","","","","8","simple_similar","images/stimuli/spore_stims/simple_04_A_d.gif","middle",""
"","null","html-keyboard-response","158","576326","0.0-32.0-0.3","SS1613080065292","","","null","","","","","<p><img src= images/blank.png width =""200"" height = ""200"" style = ""float:right""></p><p><img src=images/blank.png width =""800"" height = ""200""></p>","","","","","","","",""
"","43.999999994412065","sequential-stimulus-presentation","159","577198","0.0-32.0-1.3","SS1613080065292","trial","","40","800","843.9999999944121","images/stimuli/spore_stims/simple_04_B_d.gif","images/stimuli/spore_stims/simple_04_A_d.gif","","","","","8","simple_similar","images/stimuli/spore_stims/simple_04_A_d.gif","middle",""
"","null","html-keyboard-response","160","578232","0.0-32.0-0.4","SS1613080065292","","","null","","","","","<p><img src= images/blank.png width =""200"" height = ""200"" style = ""float:right""></p><p><img src=images/blank.png width =""800"" height = ""200""></p>","","","","","","","",""
"","38.99999998975545","sequential-stimulus-presentation","161","579105","0.0-32.0-1.4","SS1613080065292","trial","","40","800","838.9999999897555","images/stimuli/spore_stims/simple_04_B_d.gif","images/stimuli/spore_stims/simple_04_A_d.gif","","","","","8","simple_similar","images/stimuli/spore_stims/simple_04_A_d.gif","middle",""
"","null","html-keyboard-response","162","580341","0.0-32.0-0.5","SS1613080065292","","","null","","","","","<p><img src= images/blank.png width =""200"" height = ""200"" style = ""float:right""></p><p><img src=images/blank.png width =""800"" height = ""200""></p>","","","","","","","",""
"","173.00000006798655","sequential-stimulus-presentation","163","581343","0.0-32.0-1.5","SS1613080065292","trial","","40","800","973.0000000679865","images/stimuli/spore_stims/simple_04_B_d.gif","images/stimuli/spore_stims/simple_04_A_d.gif","","","","","8","simple_similar","images/stimuli/spore_stims/simple_04_B_d.gif","left",""
"","null","html-keyboard-response","164","582638","0.0-32.0-0.6","SS1613080065292","","","null","","","","","<p><img src= images/blank.png width =""200"" height = ""200"" style = ""float:right""></p><p><img src=images/blank.png width =""800"" height = ""200""></p>","","","","","","","",""
"","2388.9999999664724","sequential-stimulus-presentation","165","585863","0.0-32.0-1.6","SS1613080065292","trial","","40","800","3188.9999999664724","images/stimuli/spore_stims/simple_04_B_d.gif","images/stimuli/spore_stims/simple_04_A_d.gif","","","","","8","simple_similar","images/stimuli/spore_stims/simple_04_A_d.gif","middle",""
"","null","html-keyboard-response","166","587091","0.0-32.0-0.7","SS1613080065292","","","null","","","","","<p><img src= images/blank.png width =""200"" height = ""200"" style = ""float:right""></p><p><img src=images/blank.png width =""800"" height = ""200""></p>","","","","","","","",""
"","1126.9999999785796","sequential-stimulus-presentation","167","589047","0.0-32.0-1.7","SS1613080065292","trial","","40","800","1926.9999999785796","images/stimuli/spore_stims/simple_04_B_d.gif","images/stimuli/spore_stims/simple_04_A_d.gif","","","","","8","simple_similar","images/stimuli/spore_stims/simple_04_A_d.gif","middle",""
"","33023.999999975786","html-keyboard-response","168","622106","0.0-33.0","SS1613080065292","pref_question","","98","","","","","<video width ='960' height = '540' style='padding-top:8%' autoplay muted><source src='images/stimuli/wall_pref.mp4' type='video/mp4'></video>","2","middle","45%","8","","","",""
"","461.9999999413267","sequential-stimulus-presentation","169","623441","0.0-34.0","SS1613080065292","pref_reveal","","40","800","1261.9999999413267","null","null","","","","","8","","","","background"
"","null","html-keyboard-response","170","624536","0.0-35.0-0.0","SS1613080065292","","","null","","","","","<p><img src= images/blank.png width =""200"" height = ""200"" style = ""float:right""></p><p><img src=images/blank.png width =""800"" height = ""200""></p>","","","","","","","",""
"","484.99999998603016","sequential-stimulus-presentation","171","625880","0.0-35.0-1.0","SS1613080065292","trial","","40","800","1284.9999999860302","images/stimuli/spore_stims/simple_02_B_c.gif","images/stimuli/spore_stims/simple_12_A_d.gif","","","","","9","simple_dissimilar","images/stimuli/spore_stims/simple_12_A_d.gif","right",""
"","null","html-keyboard-response","172","627021","0.0-35.0-0.1","SS1613080065292","","","null","","","","","<p><img src= images/blank.png width =""200"" height = ""200"" style = ""float:right""></p><p><img src=images/blank.png width =""800"" height = ""200""></p>","","","","","","","",""
"","111.00000003352761","sequential-stimulus-presentation","173","627971","0.0-35.0-1.1","SS1613080065292","trial","","40","800","911.0000000335276","images/stimuli/spore_stims/simple_02_B_c.gif","images/stimuli/spore_stims/simple_12_A_d.gif","","","","","9","simple_dissimilar","images/stimuli/spore_stims/simple_12_A_d.gif","right",""
"","null","html-keyboard-response","174","629178","0.0-35.0-0.2","SS1613080065292","","","null","","","","","<p><img src= images/blank.png width =""200"" height = ""200"" style = ""float:right""></p><p><img src=images/blank.png width =""800"" height = ""200""></p>","","","","","","","",""
"","222.00000006705523","sequential-stimulus-presentation","175","630268","0.0-35.0-1.2","SS1613080065292","trial","","40","800","1022.0000000670552","images/stimuli/spore_stims/simple_02_B_c.gif","images/stimuli/spore_stims/simple_12_A_d.gif","","","","","9","simple_dissimilar","images/stimuli/spore_stims/simple_02_B_c.gif","middle",""
"","null","html-keyboard-response","176","631583","0.0-35.0-0.3","SS1613080065292","","","null","","","","","<p><img src= images/blank.png width =""200"" height = ""200"" style = ""float:right""></p><p><img src=images/blank.png width =""800"" height = ""200""></p>","","","","","","","",""
"","204.99999995809048","sequential-stimulus-presentation","177","632662","0.0-35.0-1.3","SS1613080065292","trial","","40","800","1004.9999999580905","images/stimuli/spore_stims/simple_02_B_c.gif","images/stimuli/spore_stims/simple_12_A_d.gif","","","","","9","simple_dissimilar","images/stimuli/spore_stims/simple_12_A_d.gif","right",""
"","null","html-keyboard-response","178","633929","0.0-35.0-0.4","SS1613080065292","","","null","","","","","<p><img src= images/blank.png width =""200"" height = ""200"" style = ""float:right""></p><p><img src=images/blank.png width =""800"" height = ""200""></p>","","","","","","","",""
"","0.9999999310821295","sequential-stimulus-presentation","179","634771","0.0-35.0-1.4","SS1613080065292","trial","","40","800","800.9999999310821","images/stimuli/spore_stims/simple_02_B_c.gif","images/stimuli/spore_stims/simple_12_A_d.gif","","","","","9","simple_dissimilar","images/stimuli/spore_stims/simple_12_A_d.gif","right",""
"","null","html-keyboard-response","180","635802","0.0-35.0-0.5","SS1613080065292","","","null","","","","","<p><img src= images/blank.png width =""200"" height = ""200"" style = ""float:right""></p><p><img src=images/blank.png width =""800"" height = ""200""></p>","","","","","","","",""
"","94.0000000409782","sequential-stimulus-presentation","181","636733","0.0-35.0-1.5","SS1613080065292","trial","","40","800","894.0000000409782","images/stimuli/spore_stims/simple_02_B_c.gif","images/stimuli/spore_stims/simple_12_A_d.gif","","","","","9","simple_dissimilar","images/stimuli/spore_stims/simple_12_A_d.gif","right",""
"","null","html-keyboard-response","182","637895","0.0-35.0-0.6","SS1613080065292","","","null","","","","","<p><img src= images/blank.png width =""200"" height = ""200"" style = ""float:right""></p><p><img src=images/blank.png width =""800"" height = ""200""></p>","","","","","","","",""
"","126.00000004749745","sequential-stimulus-presentation","183","638863","0.0-35.0-1.6","SS1613080065292","trial","","40","800","926.0000000474975","images/stimuli/spore_stims/simple_02_B_c.gif","images/stimuli/spore_stims/simple_12_A_d.gif","","","","","9","simple_dissimilar","images/stimuli/spore_stims/simple_12_A_d.gif","right",""
"","null","html-keyboard-response","184","640052","0.0-35.0-0.7","SS1613080065292","","","null","","","","","<p><img src= images/blank.png width =""200"" height = ""200"" style = ""float:right""></p><p><img src=images/blank.png width =""800"" height = ""200""></p>","","","","","","","",""
"","0","sequential-stimulus-presentation","185","640894","0.0-35.0-1.7","SS1613080065292","trial","","40","800","800","images/stimuli/spore_stims/simple_02_B_c.gif","images/stimuli/spore_stims/simple_12_A_d.gif","","","","","9","simple_dissimilar","images/stimuli/spore_stims/simple_12_A_d.gif","right",""
"","2378.999999957159","html-keyboard-response","186","643291","0.0-36.0","SS1613080065292","pref_question","","99","","","","","<video width ='960' height = '540' style='padding-top:8%' autoplay muted><source src='images/stimuli/wall_pref.mp4' type='video/mp4'></video>","3","right","66%","9","","","",""
"","766.0000000614673","sequential-stimulus-presentation","187","644873","0.0-37.0","SS1613080065292","pref_reveal","","40","800","1566.0000000614673","null","null","","","","","9","","","","background"
"","null","html-keyboard-response","188","645958","0.0-38.0-0.0","SS1613080065292","","","null","","","","","<p><img src= images/blank.png width =""200"" height = ""200"" style = ""float:right""></p><p><img src=images/blank.png width =""800"" height = ""200""></p>","","","","","","","",""
"","3638.0000000353903","sequential-stimulus-presentation","189","650458","0.0-38.0-1.0","SS1613080065292","trial","","40","800","4438.00000003539","images/stimuli/spore_stims/complex_14_A_c.gif","images/stimuli/spore_stims/complex_14_B_c.gif","","","","","10","complex_similar","images/stimuli/spore_stims/complex_14_B_c.gif","middle",""
"","null","html-keyboard-response","190","651521","0.0-38.0-0.1","SS1613080065292","","","null","","","","","<p><img src= images/blank.png width =""200"" height = ""200"" style = ""float:right""></p><p><img src=images/blank.png width =""800"" height = ""200""></p>","","","","","","","",""
"","175.00000004656613","sequential-stimulus-presentation","191","652538","0.0-38.0-1.1","SS1613080065292","trial","","40","800","975.0000000465661","images/stimuli/spore_stims/complex_14_A_c.gif","images/stimuli/spore_stims/complex_14_B_c.gif","","","","","10","complex_similar","images/stimuli/spore_stims/complex_14_B_c.gif","middle",""
"","null","html-keyboard-response","192","653848","0.0-38.0-0.2","SS1613080065292","","","null","","","","","<p><img src= images/blank.png width =""200"" height = ""200"" style = ""float:right""></p><p><img src=images/blank.png width =""800"" height = ""200""></p>","","","","","","","",""
"","101.00000002421439","sequential-stimulus-presentation","193","654799","0.0-38.0-1.2","SS1613080065292","trial","","40","800","901.0000000242144","images/stimuli/spore_stims/complex_14_A_c.gif","images/stimuli/spore_stims/complex_14_B_c.gif","","","","","10","complex_similar","images/stimuli/spore_stims/complex_14_B_c.gif","middle",""
"","null","html-keyboard-response","194","655662","0.0-38.0-0.3","SS1613080065292","","","null","","","","","<p><img src= images/blank.png width =""200"" height = ""200"" style = ""float:right""></p><p><img src=images/blank.png width =""800"" height = ""200""></p>","","","","","","","",""
"","113.0000000121072","sequential-stimulus-presentation","195","656626","0.0-38.0-1.3","SS1613080065292","trial","","40","800","913.0000000121072","images/stimuli/spore_stims/complex_14_A_c.gif","images/stimuli/spore_stims/complex_14_B_c.gif","","","","","10","complex_similar","images/stimuli/spore_stims/complex_14_A_c.gif","right",""
"","null","html-keyboard-response","196","657489","0.0-38.0-0.4","SS1613080065292","","","null","","","","","<p><img src= images/blank.png width =""200"" height = ""200"" style = ""float:right""></p><p><img src=images/blank.png width =""800"" height = ""200""></p>","","","","","","","",""
"","219.0000000409782","sequential-stimulus-presentation","197","658521","0.0-38.0-1.4","SS1613080065292","trial","","40","800","1019.0000000409782","images/stimuli/spore_stims/complex_14_A_c.gif","images/stimuli/spore_stims/complex_14_B_c.gif","","","","","10","complex_similar","images/stimuli/spore_stims/complex_14_B_c.gif","middle",""
"","null","html-keyboard-response","198","659661","0.0-38.0-0.5","SS1613080065292","","","null","","","","","<p><img src= images/blank.png width =""200"" height = ""200"" style = ""float:right""></p><p><img src=images/blank.png width =""800"" height = ""200""></p>","","","","","","","",""
"","134.0000000782311","sequential-stimulus-presentation","199","660642","0.0-38.0-1.5","SS1613080065292","trial","","40","800","934.0000000782311","images/stimuli/spore_stims/complex_14_A_c.gif","images/stimuli/spore_stims/complex_14_B_c.gif","","","","","10","complex_similar","images/stimuli/spore_stims/complex_14_B_c.gif","middle",""
"","null","html-keyboard-response","200","661520","0.0-38.0-0.6","SS1613080065292","","","null","","","","","<p><img src= images/blank.png width =""200"" height = ""200"" style = ""float:right""></p><p><img src=images/blank.png width =""800"" height = ""200""></p>","","","","","","","",""
"","48.99999999906868","sequential-stimulus-presentation","201","662377","0.0-38.0-1.6","SS1613080065292","trial","","40","800","848.9999999990687","images/stimuli/spore_stims/complex_14_A_c.gif","images/stimuli/spore_stims/complex_14_B_c.gif","","","","","10","complex_similar","images/stimuli/spore_stims/complex_14_B_c.gif","middle",""
"","null","html-keyboard-response","202","663614","0.0-38.0-0.7","SS1613080065292","","","null","","","","","<p><img src= images/blank.png width =""200"" height = ""200"" style = ""float:right""></p><p><img src=images/blank.png width =""800"" height = ""200""></p>","","","","","","","",""
"","1443.000000086613","sequential-stimulus-presentation","203","665868","0.0-38.0-1.7","SS1613080065292","trial","","40","800","2243.000000086613","images/stimuli/spore_stims/complex_14_A_c.gif","images/stimuli/spore_stims/complex_14_B_c.gif","","","","","10","complex_similar","images/stimuli/spore_stims/complex_14_B_c.gif","middle",""
"","7287.000000011176","html-keyboard-response","204","673179","0.0-39.0","SS1613080065292","pref_question","","97","","","","","<video width ='960' height = '540' style='padding-top:8%' autoplay muted><source src='images/stimuli/wall_pref.mp4' type='video/mp4'></video>","1","left","25%","10","","","",""
"","293.00000006332994","sequential-stimulus-presentation","205","674330","0.0-40.0","SS1613080065292","pref_reveal","","40","800","1093.00000006333","null","null","","","","","10","","","","novel"
"","null","html-keyboard-response","206","675209","0.0-41.0-0.0","SS1613080065292","","","null","","","","","<p><img src= images/blank.png width =""200"" height = ""200"" style = ""float:right""></p><p><img src=images/blank.png width =""800"" height = ""200""></p>","","","","","","","",""
"","2187.000000034459","sequential-stimulus-presentation","207","678251","0.0-41.0-1.0","SS1613080065292","trial","","40","800","2987.000000034459","images/stimuli/spore_stims/complex_11_B_a.gif","images/stimuli/spore_stims/complex_11_A_a.gif","","","","","11","complex_similar","images/stimuli/spore_stims/complex_11_A_a.gif","right",""
"","null","html-keyboard-response","208","679430","0.0-41.0-0.1","SS1613080065292","","","null","","","","","<p><img src= images/blank.png width =""200"" height = ""200"" style = ""float:right""></p><p><img src=images/blank.png width =""800"" height = ""200""></p>","","","","","","","",""
"","1010.0000000093132","sequential-stimulus-presentation","209","681282","0.0-41.0-1.1","SS1613080065292","trial","","40","800","1810.0000000093132","images/stimuli/spore_stims/complex_11_B_a.gif","images/stimuli/spore_stims/complex_11_A_a.gif","","","","","11","complex_similar","images/stimuli/spore_stims/complex_11_A_a.gif","right",""
"","null","html-keyboard-response","210","682280","0.0-41.0-0.2","SS1613080065292","","","null","","","","","<p><img src= images/blank.png width =""200"" height = ""200"" style = ""float:right""></p><p><img src=images/blank.png width =""800"" height = ""200""></p>","","","","","","","",""
"","21.000000066123903","sequential-stimulus-presentation","211","683137","0.0-41.0-1.2","SS1613080065292","trial","","40","800","821.0000000661239","images/stimuli/spore_stims/complex_11_B_a.gif","images/stimuli/spore_stims/complex_11_A_a.gif","","","","","11","complex_similar","images/stimuli/spore_stims/complex_11_A_a.gif","right",""
"","null","html-keyboard-response","212","684415","0.0-41.0-0.3","SS1613080065292","","","null","","","","","<p><img src= images/blank.png width =""200"" height = ""200"" style = ""float:right""></p><p><img src=images/blank.png width =""800"" height = ""200""></p>","","","","","","","",""
"","4148.999999975786","sequential-stimulus-presentation","213","689390","0.0-41.0-1.3","SS1613080065292","trial","","40","800","4948.999999975786","images/stimuli/spore_stims/complex_11_B_a.gif","images/stimuli/spore_stims/complex_11_A_a.gif","","","","","11","complex_similar","images/stimuli/spore_stims/complex_11_A_a.gif","right",""
"","null","html-keyboard-response","214","690603","0.0-41.0-0.4","SS1613080065292","","","null","","","","","<p><img src= images/blank.png width =""200"" height = ""200"" style = ""float:right""></p><p><img src=images/blank.png width =""800"" height = ""200""></p>","","","","","","","",""
"","94.99999997206032","sequential-stimulus-presentation","215","691526","0.0-41.0-1.4","SS1613080065292","trial","","40","800","894.9999999720603","images/stimuli/spore_stims/complex_11_B_a.gif","images/stimuli/spore_stims/complex_11_A_a.gif","","","","","11","complex_similar","images/stimuli/spore_stims/complex_11_A_a.gif","right",""
"","null","html-keyboard-response","216","692509","0.0-41.0-0.5","SS1613080065292","","","null","","","","","<p><img src= images/blank.png width =""200"" height = ""200"" style = ""float:right""></p><p><img src=images/blank.png width =""800"" height = ""200""></p>","","","","","","","",""
"","3.000000026077032","sequential-stimulus-presentation","217","693489","0.0-41.0-1.5","SS1613080065292","trial","","40","800","803.000000026077","images/stimuli/spore_stims/complex_11_B_a.gif","images/stimuli/spore_stims/complex_11_A_a.gif","","","","","11","complex_similar","images/stimuli/spore_stims/complex_11_A_a.gif","right",""
"","null","html-keyboard-response","218","694699","0.0-41.0-0.6","SS1613080065292","","","null","","","","","<p><img src= images/blank.png width =""200"" height = ""200"" style = ""float:right""></p><p><img src=images/blank.png width =""800"" height = ""200""></p>","","","","","","","",""
"","214.9999999674037","sequential-stimulus-presentation","219","695801","0.0-41.0-1.6","SS1613080065292","trial","","40","800","1014.9999999674037","images/stimuli/spore_stims/complex_11_B_a.gif","images/stimuli/spore_stims/complex_11_A_a.gif","","","","","11","complex_similar","images/stimuli/spore_stims/complex_11_B_a.gif","middle",""
"","null","html-keyboard-response","220","696869","0.0-41.0-0.7","SS1613080065292","","","null","","","","","<p><img src= images/blank.png width =""200"" height = ""200"" style = ""float:right""></p><p><img src=images/blank.png width =""800"" height = ""200""></p>","","","","","","","",""
"","153.99999998044223","sequential-stimulus-presentation","221","697859","0.0-41.0-1.7","SS1613080065292","trial","","40","800","953.9999999804422","images/stimuli/spore_stims/complex_11_B_a.gif","images/stimuli/spore_stims/complex_11_A_a.gif","","","","","11","complex_similar","images/stimuli/spore_stims/complex_11_A_a.gif","right",""
"","12278.00000004936","html-keyboard-response","222","710148","0.0-42.0","SS1613080065292","pref_question","","98","","","","","<video width ='960' height = '540' style='padding-top:8%' autoplay muted><source src='images/stimuli/wall_pref.mp4' type='video/mp4'></video>","2","middle","45%","11","","","",""
"","45626.99999997858","sequential-stimulus-presentation","223","756591","0.0-43.0","SS1613080065292","pref_reveal","","40","800","46426.99999997858","null","null","","","","","11","","","","deviant"
"","null","html-keyboard-response","224","757841","0.0-44.0-0.0","SS1613080065292","","","null","","","","","<p><img src= images/blank.png width =""200"" height = ""200"" style = ""float:right""></p><p><img src=images/blank.png width =""800"" height = ""200""></p>","","","","","","","",""
"","71.99999992735684","sequential-stimulus-presentation","225","758770","0.0-44.0-1.0","SS1613080065292","trial","","40","800","871.9999999273568","images/stimuli/spore_stims/simple_05_A_c.gif","images/stimuli/spore_stims/simple_13_B_c.gif","","","","","12","simple_dissimilar","images/stimuli/spore_stims/simple_13_B_c.gif","middle",""
"","null","html-keyboard-response","226","759748","0.0-44.0-0.1","SS1613080065292","","","null","","","","","<p><img src= images/blank.png width =""200"" height = ""200"" style = ""float:right""></p><p><img src=images/blank.png width =""800"" height = ""200""></p>","","","","","","","",""
"","4001.9999999785796","sequential-stimulus-presentation","227","764589","0.0-44.0-1.1","SS1613080065292","trial","","40","800","4801.99999997858","images/stimuli/spore_stims/simple_05_A_c.gif","images/stimuli/spore_stims/simple_13_B_c.gif","","","","","12","simple_dissimilar","images/stimuli/spore_stims/simple_13_B_c.gif","middle",""
"","null","html-keyboard-response","228","765592","0.0-44.0-0.2","SS1613080065292","","","null","","","","","<p><img src= images/blank.png width =""200"" height = ""200"" style = ""float:right""></p><p><img src=images/blank.png width =""800"" height = ""200""></p>","","","","","","","",""
"","4000","sequential-stimulus-presentation","229","770542","0.0-44.0-1.2","SS1613080065292","trial","","40","800","4800","images/stimuli/spore_stims/simple_05_A_c.gif","images/stimuli/spore_stims/simple_13_B_c.gif","","","","","12","simple_dissimilar","images/stimuli/spore_stims/simple_13_B_c.gif","middle",""
"","null","html-keyboard-response","230","771795","0.0-44.0-0.3","SS1613080065292","","","null","","","","","<p><img src= images/blank.png width =""200"" height = ""200"" style = ""float:right""></p><p><img src=images/blank.png width =""800"" height = ""200""></p>","","","","","","","",""
"","202.9999999795109","sequential-stimulus-presentation","231","772816","0.0-44.0-1.3","SS1613080065292","trial","","40","800","1002.9999999795109","images/stimuli/spore_stims/simple_05_A_c.gif","images/stimuli/spore_stims/simple_13_B_c.gif","","","","","12","simple_dissimilar","images/stimuli/spore_stims/simple_13_B_c.gif","middle",""
"","null","html-keyboard-response","232","773717","0.0-44.0-0.4","SS1613080065292","","","null","","","","","<p><img src= images/blank.png width =""200"" height = ""200"" style = ""float:right""></p><p><img src=images/blank.png width =""800"" height = ""200""></p>","","","","","","","",""
"","216.00000001490116","sequential-stimulus-presentation","233","774770","0.0-44.0-1.4","SS1613080065292","trial","","40","800","1016.0000000149012","images/stimuli/spore_stims/simple_05_A_c.gif","images/stimuli/spore_stims/simple_13_B_c.gif","","","","","12","simple_dissimilar","images/stimuli/spore_stims/simple_05_A_c.gif","right",""
"","null","html-keyboard-response","234","775950","0.0-44.0-0.5","SS1613080065292","","","null","","","","","<p><img src= images/blank.png width =""200"" height = ""200"" style = ""float:right""></p><p><img src=images/blank.png width =""800"" height = ""200""></p>","","","","","","","",""
"","61.99999991804361","sequential-stimulus-presentation","235","776842","0.0-44.0-1.5","SS1613080065292","trial","","40","800","861.9999999180436","images/stimuli/spore_stims/simple_05_A_c.gif","images/stimuli/spore_stims/simple_13_B_c.gif","","","","","12","simple_dissimilar","images/stimuli/spore_stims/simple_13_B_c.gif","middle",""
"","null","html-keyboard-response","236","778157","0.0-44.0-0.6","SS1613080065292","","","null","","","","","<p><img src= images/blank.png width =""200"" height = ""200"" style = ""float:right""></p><p><img src=images/blank.png width =""800"" height = ""200""></p>","","","","","","","",""
"","2613.000000012107","sequential-stimulus-presentation","237","781685","0.0-44.0-1.6","SS1613080065292","trial","","40","800","3413.000000012107","images/stimuli/spore_stims/simple_05_A_c.gif","images/stimuli/spore_stims/simple_13_B_c.gif","","","","","12","simple_dissimilar","images/stimuli/spore_stims/simple_13_B_c.gif","middle",""
"","null","html-keyboard-response","238","782591","0.0-44.0-0.7","SS1613080065292","","","null","","","","","<p><img src= images/blank.png width =""200"" height = ""200"" style = ""float:right""></p><p><img src=images/blank.png width =""800"" height = ""200""></p>","","","","","","","",""
"","5607.000000076368","sequential-stimulus-presentation","239","789040","0.0-44.0-1.7","SS1613080065292","trial","","40","800","6407.000000076368","images/stimuli/spore_stims/simple_05_A_c.gif","images/stimuli/spore_stims/simple_13_B_c.gif","","","","","12","simple_dissimilar","images/stimuli/spore_stims/simple_13_B_c.gif","middle",""
"","4060.0000000558794","html-keyboard-response","240","793124","0.0-45.0","SS1613080065292","pref_question","","98","","","","","<video width ='960' height = '540' style='padding-top:8%' autoplay muted><source src='images/stimuli/wall_pref.mp4' type='video/mp4'></video>","2","middle","45%","12","","","",""
"","1883.9999999618158","sequential-stimulus-presentation","241","795822","0.0-46.0","SS1613080065292","pref_reveal","","40","800","2683.999999961816","null","null","","","","","12","","","","background"
"","null","html-keyboard-response","242","797154","0.0-47.0-0.0","SS1613080065292","","","null","","","","","<p><img src= images/blank.png width =""200"" height = ""200"" style = ""float:right""></p><p><img src=images/blank.png width =""800"" height = ""200""></p>","","","","","","","",""
"","207.0000000530854","sequential-stimulus-presentation","243","798203","0.0-47.0-1.0","SS1613080065292","trial","","40","800","1007.0000000530854","images/stimuli/spore_stims/simple_14_A_b.gif","images/stimuli/spore_stims/simple_14_B_b.gif","","","","","13","simple_similar","images/stimuli/spore_stims/simple_14_B_b.gif","middle",""
"","null","html-keyboard-response","244","799060","0.0-47.0-0.1","SS1613080065292","","","null","","","","","<p><img src= images/blank.png width =""200"" height = ""200"" style = ""float:right""></p><p><img src=images/blank.png width =""800"" height = ""200""></p>","","","","","","","",""
"","197.9999999748543","sequential-stimulus-presentation","245","800185","0.0-47.0-1.1","SS1613080065292","trial","","40","800","997.9999999748543","images/stimuli/spore_stims/simple_14_A_b.gif","images/stimuli/spore_stims/simple_14_B_b.gif","","","","","13","simple_similar","images/stimuli/spore_stims/simple_14_B_b.gif","middle",""
"","null","html-keyboard-response","246","801156","0.0-47.0-0.2","SS1613080065292","","","null","","","","","<p><img src= images/blank.png width =""200"" height = ""200"" style = ""float:right""></p><p><img src=images/blank.png width =""800"" height = ""200""></p>","","","","","","","",""
"","111.00000003352761","sequential-stimulus-presentation","247","802105","0.0-47.0-1.2","SS1613080065292","trial","","40","800","911.0000000335276","images/stimuli/spore_stims/simple_14_A_b.gif","images/stimuli/spore_stims/simple_14_B_b.gif","","","","","13","simple_similar","images/stimuli/spore_stims/simple_14_B_b.gif","middle",""
"","null","html-keyboard-response","248","803145","0.0-47.0-0.3","SS1613080065292","","","null","","","","","<p><img src= images/blank.png width =""200"" height = ""200"" style = ""float:right""></p><p><img src=images/blank.png width =""800"" height = ""200""></p>","","","","","","","",""
"","159.99999991618097","sequential-stimulus-presentation","249","804150","0.0-47.0-1.3","SS1613080065292","trial","","40","800","959.999999916181","images/stimuli/spore_stims/simple_14_A_b.gif","images/stimuli/spore_stims/simple_14_B_b.gif","","","","","13","simple_similar","images/stimuli/spore_stims/simple_14_B_b.gif","middle",""
"","null","html-keyboard-response","250","805003","0.0-47.0-0.4","SS1613080065292","","","null","","","","","<p><img src= images/blank.png width =""200"" height = ""200"" style = ""float:right""></p><p><img src=images/blank.png width =""800"" height = ""200""></p>","","","","","","","",""
"","10.000000009313226","sequential-stimulus-presentation","251","805910","0.0-47.0-1.4","SS1613080065292","trial","","40","800","810.0000000093132","images/stimuli/spore_stims/simple_14_A_b.gif","images/stimuli/spore_stims/simple_14_B_b.gif","","","","","13","simple_similar","images/stimuli/spore_stims/simple_14_A_b.gif","right",""
"","null","html-keyboard-response","252","806972","0.0-47.0-0.5","SS1613080065292","","","null","","","","","<p><img src= images/blank.png width =""200"" height = ""200"" style = ""float:right""></p><p><img src=images/blank.png width =""800"" height = ""200""></p>","","","","","","","",""
"","177.99999995622784","sequential-stimulus-presentation","253","807985","0.0-47.0-1.5","SS1613080065292","trial","","40","800","977.9999999562278","images/stimuli/spore_stims/simple_14_A_b.gif","images/stimuli/spore_stims/simple_14_B_b.gif","","","","","13","simple_similar","images/stimuli/spore_stims/simple_14_B_b.gif","middle",""
"","null","html-keyboard-response","254","808894","0.0-47.0-0.6","SS1613080065292","","","null","","","","","<p><img src= images/blank.png width =""200"" height = ""200"" style = ""float:right""></p><p><img src=images/blank.png width =""800"" height = ""200""></p>","","","","","","","",""
"","20.99999994970858","sequential-stimulus-presentation","255","809735","0.0-47.0-1.6","SS1613080065292","trial","","40","800","820.9999999497086","images/stimuli/spore_stims/simple_14_A_b.gif","images/stimuli/spore_stims/simple_14_B_b.gif","","","","","13","simple_similar","images/stimuli/spore_stims/simple_14_B_b.gif","middle",""
"","null","html-keyboard-response","256","810690","0.0-47.0-0.7","SS1613080065292","","","null","","","","","<p><img src= images/blank.png width =""200"" height = ""200"" style = ""float:right""></p><p><img src=images/blank.png width =""800"" height = ""200""></p>","","","","","","","",""
"","59.0000000083819","sequential-stimulus-presentation","257","811840","0.0-47.0-1.7","SS1613080065292","trial","","40","800","859.0000000083819","images/stimuli/spore_stims/simple_14_A_b.gif","images/stimuli/spore_stims/simple_14_B_b.gif","","","","","13","simple_similar","images/stimuli/spore_stims/simple_14_B_b.gif","middle",""
"","5655.999999959022","html-keyboard-response","258","817529","0.0-48.0","SS1613080065292","pref_question","","98","","","","","<video width ='960' height = '540' style='padding-top:8%' autoplay muted><source src='images/stimuli/wall_pref.mp4' type='video/mp4'></video>","2","middle","45%","13","","","",""
"","15.999999945051968","sequential-stimulus-presentation","259","818378","0.0-49.0","SS1613080065292","pref_reveal","","40","800","815.999999945052","null","null","","","","","13","","","","background"
"","null","html-keyboard-response","260","819367","0.0-50.0-0.0","SS1613080065292","","","null","","","","","<p><img src= images/blank.png width =""200"" height = ""200"" style = ""float:right""></p><p><img src=images/blank.png width =""800"" height = ""200""></p>","","","","","","","",""
"","155.9999999590218","sequential-stimulus-presentation","261","820375","0.0-50.0-1.0","SS1613080065292","trial","","40","800","955.9999999590218","images/stimuli/spore_stims/simple_09_A_b.gif","images/stimuli/spore_stims/simple_09_B_b.gif","","","","","14","simple_similar","images/stimuli/spore_stims/simple_09_B_b.gif","left",""
"","null","html-keyboard-response","262","821612","0.0-50.0-0.1","SS1613080065292","","","null","","","","","<p><img src= images/blank.png width =""200"" height = ""200"" style = ""float:right""></p><p><img src=images/blank.png width =""800"" height = ""200""></p>","","","","","","","",""
"","108.00000000745058","sequential-stimulus-presentation","263","822534","0.0-50.0-1.1","SS1613080065292","trial","","40","800","908.0000000074506","images/stimuli/spore_stims/simple_09_A_b.gif","images/stimuli/spore_stims/simple_09_B_b.gif","","","","","14","simple_similar","images/stimuli/spore_stims/simple_09_B_b.gif","left",""
"","null","html-keyboard-response","264","823645","0.0-50.0-0.2","SS1613080065292","","","null","","","","","<p><img src= images/blank.png width =""200"" height = ""200"" style = ""float:right""></p><p><img src=images/blank.png width =""800"" height = ""200""></p>","","","","","","","",""
"","141.99999999254942","sequential-stimulus-presentation","265","824705","0.0-50.0-1.2","SS1613080065292","trial","","40","800","941.9999999925494","images/stimuli/spore_stims/simple_09_A_b.gif","images/stimuli/spore_stims/simple_09_B_b.gif","","","","","14","simple_similar","images/stimuli/spore_stims/simple_09_B_b.gif","left",""
"","null","html-keyboard-response","266","825601","0.0-50.0-0.3","SS1613080065292","","","null","","","","","<p><img src= images/blank.png width =""200"" height = ""200"" style = ""float:right""></p><p><img src=images/blank.png width =""800"" height = ""200""></p>","","","","","","","",""
"","74.99999995343387","sequential-stimulus-presentation","267","826517","0.0-50.0-1.3","SS1613080065292","trial","","40","800","874.9999999534339","images/stimuli/spore_stims/simple_09_A_b.gif","images/stimuli/spore_stims/simple_09_B_b.gif","","","","","14","simple_similar","images/stimuli/spore_stims/simple_09_B_b.gif","left",""
"","null","html-keyboard-response","268","827346","0.0-50.0-0.4","SS1613080065292","","","null","","","","","<p><img src= images/blank.png width =""200"" height = ""200"" style = ""float:right""></p><p><img src=images/blank.png width =""800"" height = ""200""></p>","","","","","","","",""
"","88.99999991990626","sequential-stimulus-presentation","269","828270","0.0-50.0-1.4","SS1613080065292","trial","","40","800","888.9999999199063","images/stimuli/spore_stims/simple_09_A_b.gif","images/stimuli/spore_stims/simple_09_B_b.gif","","","","","14","simple_similar","images/stimuli/spore_stims/simple_09_B_b.gif","left",""
"","null","html-keyboard-response","270","829533","0.0-50.0-0.5","SS1613080065292","","","null","","","","","<p><img src= images/blank.png width =""200"" height = ""200"" style = ""float:right""></p><p><img src=images/blank.png width =""800"" height = ""200""></p>","","","","","","","",""
"","69.99999994877726","sequential-stimulus-presentation","271","830440","0.0-50.0-1.5","SS1613080065292","trial","","40","800","869.9999999487773","images/stimuli/spore_stims/simple_09_A_b.gif","images/stimuli/spore_stims/simple_09_B_b.gif","","","","","14","simple_similar","images/stimuli/spore_stims/simple_09_B_b.gif","left",""
"","null","html-keyboard-response","272","831487","0.0-50.0-0.6","SS1613080065292","","","null","","","","","<p><img src= images/blank.png width =""200"" height = ""200"" style = ""float:right""></p><p><img src=images/blank.png width =""800"" height = ""200""></p>","","","","","","","",""
"","104594.00000004098","sequential-stimulus-presentation","273","936914","0.0-50.0-1.6","SS1613080065292","trial","","40","800","105394.00000004098","images/stimuli/spore_stims/simple_09_A_b.gif","images/stimuli/spore_stims/simple_09_B_b.gif","","","","","14","simple_similar","images/stimuli/spore_stims/simple_09_B_b.gif","left",""
"","null","html-keyboard-response","274","937902","0.0-50.0-0.7","SS1613080065292","","","null","","","","","<p><img src= images/blank.png width =""200"" height = ""200"" style = ""float:right""></p><p><img src=images/blank.png width =""800"" height = ""200""></p>","","","","","","","",""
"","63518.99999997113","sequential-stimulus-presentation","275","1002264","0.0-50.0-1.7","SS1613080065292","trial","","40","800","64318.99999997113","images/stimuli/spore_stims/simple_09_A_b.gif","images/stimuli/spore_stims/simple_09_B_b.gif","","","","","14","simple_similar","images/stimuli/spore_stims/simple_09_A_b.gif","middle",""
"","13227.000000071712","html-keyboard-response","276","1015512","0.0-51.0","SS1613080065292","pref_question","","98","","","","","<video width ='960' height = '540' style='padding-top:8%' autoplay muted><source src='images/stimuli/wall_pref.mp4' type='video/mp4'></video>","2","middle","45%","14","","","",""
"","69.00000001769513","sequential-stimulus-presentation","277","1016394","0.0-52.0","SS1613080065292","pref_reveal","","40","800","869.0000000176951","null","null","","","","","14","","","","deviant"
"","null","html-keyboard-response","278","1017281","0.0-53.0-0.0","SS1613080065292","","","null","","","","","<p><img src= images/blank.png width =""200"" height = ""200"" style = ""float:right""></p><p><img src=images/blank.png width =""800"" height = ""200""></p>","","","","","","","",""
"","20575.00000006985","sequential-stimulus-presentation","279","1038727","0.0-53.0-1.0","SS1613080065292","trial","","40","800","21375.00000006985","images/stimuli/spore_stims/simple_20_A_a.gif","images/stimuli/spore_stims/simple_17_A_d.gif","","","","","15","simple_dissimilar","images/stimuli/spore_stims/simple_17_A_d.gif","middle",""
"","null","html-keyboard-response","280","1039561","0.0-53.0-0.1","SS1613080065292","","","null","","","","","<p><img src= images/blank.png width =""200"" height = ""200"" style = ""float:right""></p><p><img src=images/blank.png width =""800"" height = ""200""></p>","","","","","","","",""
"","37.00000001117587","sequential-stimulus-presentation","281","1040412","0.0-53.0-1.1","SS1613080065292","trial","","40","800","837.0000000111759","images/stimuli/spore_stims/simple_20_A_a.gif","images/stimuli/spore_stims/simple_17_A_d.gif","","","","","15","simple_dissimilar","images/stimuli/spore_stims/simple_17_A_d.gif","middle",""
"","null","html-keyboard-response","282","1041389","0.0-53.0-0.2","SS1613080065292","","","null","","","","","<p><img src= images/blank.png width =""200"" height = ""200"" style = ""float:right""></p><p><img src=images/blank.png width =""800"" height = ""200""></p>","","","","","","","",""
"","92.99999999348074","sequential-stimulus-presentation","283","1042325","0.0-53.0-1.2","SS1613080065292","trial","","40","800","892.9999999934807","images/stimuli/spore_stims/simple_20_A_a.gif","images/stimuli/spore_stims/simple_17_A_d.gif","","","","","15","simple_dissimilar","images/stimuli/spore_stims/simple_20_A_a.gif","left",""
"","null","html-keyboard-response","284","1043644","0.0-53.0-0.3","SS1613080065292","","","null","","","","","<p><img src= images/blank.png width =""200"" height = ""200"" style = ""float:right""></p><p><img src=images/blank.png width =""800"" height = ""200""></p>","","","","","","","",""
"","378.99999995715916","sequential-stimulus-presentation","285","1044882","0.0-53.0-1.3","SS1613080065292","trial","","40","800","1178.9999999571592","images/stimuli/spore_stims/simple_20_A_a.gif","images/stimuli/spore_stims/simple_17_A_d.gif","","","","","15","simple_dissimilar","images/stimuli/spore_stims/simple_17_A_d.gif","middle",""
"","null","html-keyboard-response","286","1045878","0.0-53.0-0.4","SS1613080065292","","","null","","","","","<p><img src= images/blank.png width =""200"" height = ""200"" style = ""float:right""></p><p><img src=images/blank.png width =""800"" height = ""200""></p>","","","","","","","",""
"","16714.00000003632","sequential-stimulus-presentation","287","1063547","0.0-53.0-1.4","SS1613080065292","trial","","40","800","17514.00000003632","images/stimuli/spore_stims/simple_20_A_a.gif","images/stimuli/spore_stims/simple_17_A_d.gif","","","","","15","simple_dissimilar","images/stimuli/spore_stims/simple_17_A_d.gif","middle",""
"","null","html-keyboard-response","288","1064534","0.0-53.0-0.5","SS1613080065292","","","null","","","","","<p><img src= images/blank.png width =""200"" height = ""200"" style = ""float:right""></p><p><img src=images/blank.png width =""800"" height = ""200""></p>","","","","","","","",""
"","59.0000000083819","sequential-stimulus-presentation","289","1065418","0.0-53.0-1.5","SS1613080065292","trial","","40","800","859.0000000083819","images/stimuli/spore_stims/simple_20_A_a.gif","images/stimuli/spore_stims/simple_17_A_d.gif","","","","","15","simple_dissimilar","images/stimuli/spore_stims/simple_17_A_d.gif","middle",""
"","null","html-keyboard-response","290","1066363","0.0-53.0-0.6","SS1613080065292","","","null","","","","","<p><img src= images/blank.png width =""200"" height = ""200"" style = ""float:right""></p><p><img src=images/blank.png width =""800"" height = ""200""></p>","","","","","","","",""
"","179.99999993480742","sequential-stimulus-presentation","291","1067387","0.0-53.0-1.6","SS1613080065292","trial","","40","800","979.9999999348074","images/stimuli/spore_stims/simple_20_A_a.gif","images/stimuli/spore_stims/simple_17_A_d.gif","","","","","15","simple_dissimilar","images/stimuli/spore_stims/simple_17_A_d.gif","middle",""
"","null","html-keyboard-response","292","1068394","0.0-53.0-0.7","SS1613080065292","","","null","","","","","<p><img src= images/blank.png width =""200"" height = ""200"" style = ""float:right""></p><p><img src=images/blank.png width =""800"" height = ""200""></p>","","","","","","","",""
"","62.000000034458935","sequential-stimulus-presentation","293","1069268","0.0-53.0-1.7","SS1613080065292","trial","","40","800","862.0000000344589","images/stimuli/spore_stims/simple_20_A_a.gif","images/stimuli/spore_stims/simple_17_A_d.gif","","","","","15","simple_dissimilar","images/stimuli/spore_stims/simple_17_A_d.gif","middle",""
"","3454.9999999580905","html-keyboard-response","294","1072748","0.0-54.0","SS1613080065292","pref_question","","98","","","","","<video width ='960' height = '540' style='padding-top:8%' autoplay muted><source src='images/stimuli/wall_pref.mp4' type='video/mp4'></video>","2","middle","45%","15","","","",""
"","339.0000000363216","sequential-stimulus-presentation","295","1073917","0.0-55.0","SS1613080065292","pref_reveal","","40","800","1139.0000000363216","null","null","","","","","15","","","","background"
"","null","html-keyboard-response","296","1074893","0.0-56.0-0.0","SS1613080065292","","","null","","","","","<p><img src= images/blank.png width =""200"" height = ""200"" style = ""float:right""></p><p><img src=images/blank.png width =""800"" height = ""200""></p>","","","","","","","",""
"","32.99999993760139","sequential-stimulus-presentation","297","1075816","0.0-56.0-1.0","SS1613080065292","trial","","40","800","832.9999999376014","images/stimuli/spore_stims/complex_06_B_c.gif","images/stimuli/spore_stims/complex_20_B_c.gif","","","","","16","complex_dissimilar","images/stimuli/spore_stims/complex_20_B_c.gif","left",""
"","null","html-keyboard-response","298","1076910","0.0-56.0-0.1","SS1613080065292","","","null","","","","","<p><img src= images/blank.png width =""200"" height = ""200"" style = ""float:right""></p><p><img src=images/blank.png width =""800"" height = ""200""></p>","","","","","","","",""
"","85.00000007916242","sequential-stimulus-presentation","299","1077834","0.0-56.0-1.1","SS1613080065292","trial","","40","800","885.0000000791624","images/stimuli/spore_stims/complex_06_B_c.gif","images/stimuli/spore_stims/complex_20_B_c.gif","","","","","16","complex_dissimilar","images/stimuli/spore_stims/complex_20_B_c.gif","left",""
"","null","html-keyboard-response","300","1079113","0.0-56.0-0.2","SS1613080065292","","","null","","","","","<p><img src= images/blank.png width =""200"" height = ""200"" style = ""float:right""></p><p><img src=images/blank.png width =""800"" height = ""200""></p>","","","","","","","",""
"","57.99999996088445","sequential-stimulus-presentation","301","1080015","0.0-56.0-1.2","SS1613080065292","trial","","40","800","857.9999999608845","images/stimuli/spore_stims/complex_06_B_c.gif","images/stimuli/spore_stims/complex_20_B_c.gif","","","","","16","complex_dissimilar","images/stimuli/spore_stims/complex_20_B_c.gif","left",""
"","null","html-keyboard-response","302","1081350","0.0-56.0-0.3","SS1613080065292","","","null","","","","","<p><img src= images/blank.png width =""200"" height = ""200"" style = ""float:right""></p><p><img src=images/blank.png width =""800"" height = ""200""></p>","","","","","","","",""
"","94.0000000409782","sequential-stimulus-presentation","303","1082283","0.0-56.0-1.3","SS1613080065292","trial","","40","800","894.0000000409782","images/stimuli/spore_stims/complex_06_B_c.gif","images/stimuli/spore_stims/complex_20_B_c.gif","","","","","16","complex_dissimilar","images/stimuli/spore_stims/complex_20_B_c.gif","left",""
"","null","html-keyboard-response","304","1083237","0.0-56.0-0.4","SS1613080065292","","","null","","","","","<p><img src= images/blank.png width =""200"" height = ""200"" style = ""float:right""></p><p><img src=images/blank.png width =""800"" height = ""200""></p>","","","","","","","",""
"","250","sequential-stimulus-presentation","305","1084314","0.0-56.0-1.4","SS1613080065292","trial","","40","800","1050","images/stimuli/spore_stims/complex_06_B_c.gif","images/stimuli/spore_stims/complex_20_B_c.gif","","","","","16","complex_dissimilar","images/stimuli/spore_stims/complex_20_B_c.gif","left",""
"","null","html-keyboard-response","306","1085270","0.0-56.0-0.5","SS1613080065292","","","null","","","","","<p><img src= images/blank.png width =""200"" height = ""200"" style = ""float:right""></p><p><img src=images/blank.png width =""800"" height = ""200""></p>","","","","","","","",""
"","86.00000001024455","sequential-stimulus-presentation","307","1086265","0.0-56.0-1.5","SS1613080065292","trial","","40","800","886.0000000102445","images/stimuli/spore_stims/complex_06_B_c.gif","images/stimuli/spore_stims/complex_20_B_c.gif","","","","","16","complex_dissimilar","images/stimuli/spore_stims/complex_06_B_c.gif","right",""
"","null","html-keyboard-response","308","1087334","0.0-56.0-0.6","SS1613080065292","","","null","","","","","<p><img src= images/blank.png width =""200"" height = ""200"" style = ""float:right""></p><p><img src=images/blank.png width =""800"" height = ""200""></p>","","","","","","","",""
"","5704.9999999580905","sequential-stimulus-presentation","309","1093868","0.0-56.0-1.6","SS1613080065292","trial","","40","800","6504.9999999580905","images/stimuli/spore_stims/complex_06_B_c.gif","images/stimuli/spore_stims/complex_20_B_c.gif","","","","","16","complex_dissimilar","images/stimuli/spore_stims/complex_20_B_c.gif","left",""
"","null","html-keyboard-response","310","1095097","0.0-56.0-0.7","SS1613080065292","","","null","","","","","<p><img src= images/blank.png width =""200"" height = ""200"" style = ""float:right""></p><p><img src=images/blank.png width =""800"" height = ""200""></p>","","","","","","","",""
"","130.0000000046566","sequential-stimulus-presentation","311","1096068","0.0-56.0-1.7","SS1613080065292","trial","","40","800","930.0000000046566","images/stimuli/spore_stims/complex_06_B_c.gif","images/stimuli/spore_stims/complex_20_B_c.gif","","","","","16","complex_dissimilar","images/stimuli/spore_stims/complex_20_B_c.gif","left",""
"","46827.00000004843","html-keyboard-response","312","1142966","0.0-57.0","SS1613080065292","pref_question","","98","","","","","<video width ='960' height = '540' style='padding-top:8%' autoplay muted><source src='images/stimuli/wall_pref.mp4' type='video/mp4'></video>","2","middle","45%","16","","","",""
"","17898.999999975786","sequential-stimulus-presentation","313","1161706","0.0-58.0","SS1613080065292","pref_reveal","","40","800","18698.999999975786","null","null","","","","","16","","","","novel"
"","null","html-keyboard-response","314","1162926","0.0-59.0-0.0","SS1613080065292","","","null","","","","","<p><img src= images/blank.png width =""200"" height = ""200"" style = ""float:right""></p><p><img src=images/blank.png width =""800"" height = ""200""></p>","","","","","","","",""
"","189.99999994412065","sequential-stimulus-presentation","315","1163960","0.0-59.0-1.0","SS1613080065292","trial","","40","800","989.9999999441206","images/stimuli/spore_stims/complex_10_A_a.gif","images/stimuli/spore_stims/complex_04_B_d.gif","","","","","17","complex_dissimilar","images/stimuli/spore_stims/complex_04_B_d.gif","right",""
"","null","html-keyboard-response","316","1165067","0.0-59.0-0.1","SS1613080065292","","","null","","","","","<p><img src= images/blank.png width =""200"" height = ""200"" style = ""float:right""></p><p><img src=images/blank.png width =""800"" height = ""200""></p>","","","","","","","",""
"","226.0000000242144","sequential-stimulus-presentation","317","1166161","0.0-59.0-1.1","SS1613080065292","trial","","40","800","1026.0000000242144","images/stimuli/spore_stims/complex_10_A_a.gif","images/stimuli/spore_stims/complex_04_B_d.gif","","","","","17","complex_dissimilar","images/stimuli/spore_stims/complex_04_B_d.gif","right",""
"","null","html-keyboard-response","318","1167338","0.0-59.0-0.2","SS1613080065292","","","null","","","","","<p><img src= images/blank.png width =""200"" height = ""200"" style = ""float:right""></p><p><img src=images/blank.png width =""800"" height = ""200""></p>","","","","","","","",""
"","104.99999998137355","sequential-stimulus-presentation","319","1168318","0.0-59.0-1.2","SS1613080065292","trial","","40","800","904.9999999813735","images/stimuli/spore_stims/complex_10_A_a.gif","images/stimuli/spore_stims/complex_04_B_d.gif","","","","","17","complex_dissimilar","images/stimuli/spore_stims/complex_04_B_d.gif","right",""
"","null","html-keyboard-response","320","1169274","0.0-59.0-0.3","SS1613080065292","","","null","","","","","<p><img src= images/blank.png width =""200"" height = ""200"" style = ""float:right""></p><p><img src=images/blank.png width =""800"" height = ""200""></p>","","","","","","","",""
"","104.00000005029142","sequential-stimulus-presentation","321","1170199","0.0-59.0-1.3","SS1613080065292","trial","","40","800","904.0000000502914","images/stimuli/spore_stims/complex_10_A_a.gif","images/stimuli/spore_stims/complex_04_B_d.gif","","","","","17","complex_dissimilar","images/stimuli/spore_stims/complex_04_B_d.gif","right",""
"","null","html-keyboard-response","322","1171447","0.0-59.0-0.4","SS1613080065292","","","null","","","","","<p><img src= images/blank.png width =""200"" height = ""200"" style = ""float:right""></p><p><img src=images/blank.png width =""800"" height = ""200""></p>","","","","","","","",""
"","1231.9999999599531","sequential-stimulus-presentation","323","1173506","0.0-59.0-1.4","SS1613080065292","trial","","40","800","2031.9999999599531","images/stimuli/spore_stims/complex_10_A_a.gif","images/stimuli/spore_stims/complex_04_B_d.gif","","","","","17","complex_dissimilar","images/stimuli/spore_stims/complex_04_B_d.gif","right",""
"","null","html-keyboard-response","324","1174822","0.0-59.0-0.5","SS1613080065292","","","null","","","","","<p><img src= images/blank.png width =""200"" height = ""200"" style = ""float:right""></p><p><img src=images/blank.png width =""800"" height = ""200""></p>","","","","","","","",""
