"view_history","rt","trial_type","trial_index","time_elapsed","internal_node_id","subject","stimulus_type","trial_stimulus","key_press","minimum_viewing_duration","trial_looking_time","block_deviant","block_background","stimulus","wall_pref","location","location_percent","block_number","block_type","stimulus_displayed","position_displayed","stim_type_selected","responses","question_order","stimulus_left","stimulus_right"
"[{""page_index"":0,""viewing_time"":1968.7100000010105}]","1969.9749999999767","instructions","0","1972","0.0-0.0","SS1613080113578","","","","","","","","","","","","","","","","","","","",""
"[{""page_index"":0,""viewing_time"":1956.754999999248},{""page_index"":1,""viewing_time"":8087.995000001683}]","10045.06499999843","instructions","1","14032","0.0-1.0","SS1613080113578","instructions","","","","","","","","","","","","","","","","","","",""
"","8465.510000001814","sequential-stimulus-presentation","2","23335","0.0-2.0","SS1613080113578","","","40","800","9265.510000001814","null","null","","","","","","","","","","","","",""
"","7398.07500000461","sequential-stimulus-presentation","3","31546","0.0-3.0","SS1613080113578","","","40","800","8198.07500000461","null","null","","","","","","","","","","","","",""
"[{""page_index"":0,""viewing_time"":2970.4249999995227}]","2970.8299999983865","instructions","4","34522","0.0-4.0","SS1613080113578","instructions","","","","","","","","","","","","","","","","","","",""
"","4601.804999998421","html-keyboard-response","5","39130","0.0-5.0","SS1613080113578","instructions","","49","","","","","<video width ='960' height = '540' autoplay muted><source src='images/stimuli/wall_pref.mp4' type='video/mp4'></video>","1","left","25%","","","","","","","","",""
"","9649.814999997034","sequential-stimulus-presentation","6","49605","0.0-6.0","SS1613080113578","pref_reveal","","40","800","10449.814999997034","null","null","","","","","","","","","","","","",""
"[{""page_index"":0,""viewing_time"":2023.1199999980163},{""page_index"":1,""viewing_time"":1265.9600000042701},{""page_index"":2,""viewing_time"":1139.9899999960326},{""page_index"":3,""viewing_time"":1954.04000000417}]","6383.525000004738","instructions","7","55990","0.0-7.0","SS1613080113578","instructions","","","","","","","","","","","","","","","","","","",""
"","null","html-keyboard-response","8","56921","0.0-8.0-0.0","SS1613080113578","","","null","","","","","<p><img src= images/blank.png width =""200"" height = ""200"" style = ""float:right""></p><p><img src=images/blank.png width =""800"" height = ""200""></p>","","","","","","","","","","","",""
"","8285.400000000664","sequential-stimulus-presentation","9","66018","0.0-8.0-1.0","SS1613080113578","trial","","40","800","9085.400000000664","images/stimuli/spore_stims/complex_12_A_b.gif","images/stimuli/spore_stims/complex_17_B_a.gif","","","","","0","complex_dissimilar","images/stimuli/spore_stims/complex_17_B_a.gif","middle","","","","",""
"","null","html-keyboard-response","10","67126","0.0-8.0-0.1","SS1613080113578","","","null","","","","","<p><img src= images/blank.png width =""200"" height = ""200"" style = ""float:right""></p><p><img src=images/blank.png width =""800"" height = ""200""></p>","","","","","","","","","","","",""
"","11312.480000000505","sequential-stimulus-presentation","11","79251","0.0-8.0-1.1","SS1613080113578","trial","","40","800","12112.480000000505","images/stimuli/spore_stims/complex_12_A_b.gif","images/stimuli/spore_stims/complex_17_B_a.gif","","","","","0","complex_dissimilar","images/stimuli/spore_stims/complex_17_B_a.gif","middle","","","","",""
"","null","html-keyboard-response","12","80340","0.0-8.0-0.2","SS1613080113578","","","null","","","","","<p><img src= images/blank.png width =""200"" height = ""200"" style = ""float:right""></p><p><img src=images/blank.png width =""800"" height = ""200""></p>","","","","","","","","","","","",""
"","20462.854999997944","sequential-stimulus-presentation","13","101613","0.0-8.0-1.2","SS1613080113578","trial","","40","800","21262.854999997944","images/stimuli/spore_stims/complex_12_A_b.gif","images/stimuli/spore_stims/complex_17_B_a.gif","","","","","0","complex_dissimilar","images/stimuli/spore_stims/complex_17_B_a.gif","middle","","","","",""
"","null","html-keyboard-response","14","102472","0.0-8.0-0.3","SS1613080113578","","","null","","","","","<p><img src= images/blank.png width =""200"" height = ""200"" style = ""float:right""></p><p><img src=images/blank.png width =""800"" height = ""200""></p>","","","","","","","","","","","",""
"","4712.410000000091","sequential-stimulus-presentation","15","107994","0.0-8.0-1.3","SS1613080113578","trial","","40","800","5512.410000000091","images/stimuli/spore_stims/complex_12_A_b.gif","images/stimuli/spore_stims/complex_17_B_a.gif","","","","","0","complex_dissimilar","images/stimuli/spore_stims/complex_17_B_a.gif","middle","","","","",""
"","null","html-keyboard-response","16","108977","0.0-8.0-0.4","SS1613080113578","","","null","","","","","<p><img src= images/blank.png width =""200"" height = ""200"" style = ""float:right""></p><p><img src=images/blank.png width =""800"" height = ""200""></p>","","","","","","","","","","","",""
"","2321.4650000008987","sequential-stimulus-presentation","17","112111","0.0-8.0-1.4","SS1613080113578","trial","","40","800","3121.4650000008987","images/stimuli/spore_stims/complex_12_A_b.gif","images/stimuli/spore_stims/complex_17_B_a.gif","","","","","0","complex_dissimilar","images/stimuli/spore_stims/complex_12_A_b.gif","left","","","","",""
"","null","html-keyboard-response","18","112920","0.0-8.0-0.5","SS1613080113578","","","null","","","","","<p><img src= images/blank.png width =""200"" height = ""200"" style = ""float:right""></p><p><img src=images/blank.png width =""800"" height = ""200""></p>","","","","","","","","","","","",""
"","4024.265000000014","sequential-stimulus-presentation","19","117752","0.0-8.0-1.5","SS1613080113578","trial","","40","800","4824.265000000014","images/stimuli/spore_stims/complex_12_A_b.gif","images/stimuli/spore_stims/complex_17_B_a.gif","","","","","0","complex_dissimilar","images/stimuli/spore_stims/complex_17_B_a.gif","middle","","","","",""
"","null","html-keyboard-response","20","118949","0.0-8.0-0.6","SS1613080113578","","","null","","","","","<p><img src= images/blank.png width =""200"" height = ""200"" style = ""float:right""></p><p><img src=images/blank.png width =""800"" height = ""200""></p>","","","","","","","","","","","",""
"","264.64000000123633","sequential-stimulus-presentation","21","120034","0.0-8.0-1.6","SS1613080113578","trial","","40","800","1064.6400000012363","images/stimuli/spore_stims/complex_12_A_b.gif","images/stimuli/spore_stims/complex_17_B_a.gif","","","","","0","complex_dissimilar","images/stimuli/spore_stims/complex_17_B_a.gif","middle","","","","",""
"","null","html-keyboard-response","22","121182","0.0-8.0-0.7","SS1613080113578","","","null","","","","","<p><img src= images/blank.png width =""200"" height = ""200"" style = ""float:right""></p><p><img src=images/blank.png width =""800"" height = ""200""></p>","","","","","","","","","","","",""
"","257.7999999994063","sequential-stimulus-presentation","23","122261","0.0-8.0-1.7","SS1613080113578","trial","","40","800","1057.7999999994063","images/stimuli/spore_stims/complex_12_A_b.gif","images/stimuli/spore_stims/complex_17_B_a.gif","","","","","0","complex_dissimilar","images/stimuli/spore_stims/complex_17_B_a.gif","middle","","","","",""
"","32.51500000624219","html-keyboard-response","24","122300","0.0-9.0","SS1613080113578","pref_question","","51","","","","","<video width ='960' height = '540' style='padding-top:8%' autoplay muted><source src='images/stimuli/wall_pref.mp4' type='video/mp4'></video>","3","right","66%","0","","","","","","","",""
"","276.52499999385327","sequential-stimulus-presentation","25","123385","0.0-10.0","SS1613080113578","pref_reveal","","40","800","1076.5249999938533","null","null","","","","","0","","","","novel","","","",""
"","null","html-keyboard-response","26","124327","0.0-11.0-0.0","SS1613080113578","","","null","","","","","<p><img src= images/blank.png width =""200"" height = ""200"" style = ""float:right""></p><p><img src=images/blank.png width =""800"" height = ""200""></p>","","","","","","","","","","","",""
"","252.17999999586027","sequential-stimulus-presentation","27","125409","0.0-11.0-1.0","SS1613080113578","trial","","40","800","1052.1799999958603","images/stimuli/spore_stims/complex_02_A_a.gif","images/stimuli/spore_stims/complex_02_B_a.gif","","","","","1","complex_similar","images/stimuli/spore_stims/complex_02_B_a.gif","middle","","","","",""
"","null","html-keyboard-response","28","126222","0.0-11.0-0.1","SS1613080113578","","","null","","","","","<p><img src= images/blank.png width =""200"" height = ""200"" style = ""float:right""></p><p><img src=images/blank.png width =""800"" height = ""200""></p>","","","","","","","","","","","",""
"","611.9699999981094","sequential-stimulus-presentation","29","127643","0.0-11.0-1.1","SS1613080113578","trial","","40","800","1411.9699999981094","images/stimuli/spore_stims/complex_02_A_a.gif","images/stimuli/spore_stims/complex_02_B_a.gif","","","","","1","complex_similar","images/stimuli/spore_stims/complex_02_B_a.gif","middle","","","","",""
"","null","html-keyboard-response","30","128563","0.0-11.0-0.2","SS1613080113578","","","null","","","","","<p><img src= images/blank.png width =""200"" height = ""200"" style = ""float:right""></p><p><img src=images/blank.png width =""800"" height = ""200""></p>","","","","","","","","","","","",""
"","237.82499999651918","sequential-stimulus-presentation","31","129609","0.0-11.0-1.2","SS1613080113578","trial","","40","800","1037.8249999965192","images/stimuli/spore_stims/complex_02_A_a.gif","images/stimuli/spore_stims/complex_02_B_a.gif","","","","","1","complex_similar","images/stimuli/spore_stims/complex_02_B_a.gif","middle","","","","",""
"","null","html-keyboard-response","32","130819","0.0-11.0-0.3","SS1613080113578","","","null","","","","","<p><img src= images/blank.png width =""200"" height = ""200"" style = ""float:right""></p><p><img src=images/blank.png width =""800"" height = ""200""></p>","","","","","","","","","","","",""
"","121.24000000039814","sequential-stimulus-presentation","33","131779","0.0-11.0-1.3","SS1613080113578","trial","","40","800","921.2400000003981","images/stimuli/spore_stims/complex_02_A_a.gif","images/stimuli/spore_stims/complex_02_B_a.gif","","","","","1","complex_similar","images/stimuli/spore_stims/complex_02_B_a.gif","middle","","","","",""
"","null","html-keyboard-response","34","132875","0.0-11.0-0.4","SS1613080113578","","","null","","","","","<p><img src= images/blank.png width =""200"" height = ""200"" style = ""float:right""></p><p><img src=images/blank.png width =""800"" height = ""200""></p>","","","","","","","","","","","",""
"","182.43999999685911","sequential-stimulus-presentation","35","133873","0.0-11.0-1.4","SS1613080113578","trial","","40","800","982.4399999968591","images/stimuli/spore_stims/complex_02_A_a.gif","images/stimuli/spore_stims/complex_02_B_a.gif","","","","","1","complex_similar","images/stimuli/spore_stims/complex_02_A_a.gif","right","","","","",""
"","null","html-keyboard-response","36","134911","0.0-11.0-0.5","SS1613080113578","","","null","","","","","<p><img src= images/blank.png width =""200"" height = ""200"" style = ""float:right""></p><p><img src=images/blank.png width =""800"" height = ""200""></p>","","","","","","","","","","","",""
"","100.64999999303836","sequential-stimulus-presentation","37","135827","0.0-11.0-1.5","SS1613080113578","trial","","40","800","900.6499999930384","images/stimuli/spore_stims/complex_02_A_a.gif","images/stimuli/spore_stims/complex_02_B_a.gif","","","","","1","complex_similar","images/stimuli/spore_stims/complex_02_B_a.gif","middle","","","","",""
"","null","html-keyboard-response","38","136675","0.0-11.0-0.6","SS1613080113578","","","null","","","","","<p><img src= images/blank.png width =""200"" height = ""200"" style = ""float:right""></p><p><img src=images/blank.png width =""800"" height = ""200""></p>","","","","","","","","","","","",""
"","24.600000004284084","sequential-stimulus-presentation","39","137515","0.0-11.0-1.6","SS1613080113578","trial","","40","800","824.6000000042841","images/stimuli/spore_stims/complex_02_A_a.gif","images/stimuli/spore_stims/complex_02_B_a.gif","","","","","1","complex_similar","images/stimuli/spore_stims/complex_02_B_a.gif","middle","","","","",""
"","null","html-keyboard-response","40","138516","0.0-11.0-0.7","SS1613080113578","","","null","","","","","<p><img src= images/blank.png width =""200"" height = ""200"" style = ""float:right""></p><p><img src=images/blank.png width =""800"" height = ""200""></p>","","","","","","","","","","","",""
"","1224.0399999936926","sequential-stimulus-presentation","41","140563","0.0-11.0-1.7","SS1613080113578","trial","","40","800","2024.0399999936926","images/stimuli/spore_stims/complex_02_A_a.gif","images/stimuli/spore_stims/complex_02_B_a.gif","","","","","1","complex_similar","images/stimuli/spore_stims/complex_02_B_a.gif","middle","","","","",""
"","0.37000000156695023","html-keyboard-response","42","140567","0.0-12.0","SS1613080113578","pref_question","","50","","","","","<video width ='960' height = '540' style='padding-top:8%' autoplay muted><source src='images/stimuli/wall_pref.mp4' type='video/mp4'></video>","2","middle","45%","1","","","","","","","",""
"","59.670000002370216","sequential-stimulus-presentation","43","141433","0.0-13.0","SS1613080113578","pref_reveal","","40","800","859.6700000023702","null","null","","","","","1","","","","background","","","",""
"","null","html-keyboard-response","44","142546","0.0-14.0-0.0","SS1613080113578","","","null","","","","","<p><img src= images/blank.png width =""200"" height = ""200"" style = ""float:right""></p><p><img src=images/blank.png width =""800"" height = ""200""></p>","","","","","","","","","","","",""
"","148.8199999948847","sequential-stimulus-presentation","45","143504","0.0-14.0-1.0","SS1613080113578","trial","","40","800","948.8199999948847","images/stimuli/spore_stims/complex_20_B_b.gif","images/stimuli/spore_stims/complex_16_A_d.gif","","","","","2","complex_dissimilar","images/stimuli/spore_stims/complex_16_A_d.gif","right","","","","",""
"","null","html-keyboard-response","46","144409","0.0-14.0-0.1","SS1613080113578","","","null","","","","","<p><img src= images/blank.png width =""200"" height = ""200"" style = ""float:right""></p><p><img src=images/blank.png width =""800"" height = ""200""></p>","","","","","","","","","","","",""
"","573.5500000009779","sequential-stimulus-presentation","47","145792","0.0-14.0-1.1","SS1613080113578","trial","","40","800","1373.550000000978","images/stimuli/spore_stims/complex_20_B_b.gif","images/stimuli/spore_stims/complex_16_A_d.gif","","","","","2","complex_dissimilar","images/stimuli/spore_stims/complex_16_A_d.gif","right","","","","",""
"","null","html-keyboard-response","48","146881","0.0-14.0-0.2","SS1613080113578","","","null","","","","","<p><img src= images/blank.png width =""200"" height = ""200"" style = ""float:right""></p><p><img src=images/blank.png width =""800"" height = ""200""></p>","","","","","","","","","","","",""
"","24.294999995618127","sequential-stimulus-presentation","49","147715","0.0-14.0-1.2","SS1613080113578","trial","","40","800","824.2949999956181","images/stimuli/spore_stims/complex_20_B_b.gif","images/stimuli/spore_stims/complex_16_A_d.gif","","","","","2","complex_dissimilar","images/stimuli/spore_stims/complex_16_A_d.gif","right","","","","",""
"","null","html-keyboard-response","50","149013","0.0-14.0-0.3","SS1613080113578","","","null","","","","","<p><img src= images/blank.png width =""200"" height = ""200"" style = ""float:right""></p><p><img src=images/blank.png width =""800"" height = ""200""></p>","","","","","","","","","","","",""
"","37.01500000170199","sequential-stimulus-presentation","51","149858","0.0-14.0-1.3","SS1613080113578","trial","","40","800","837.015000001702","images/stimuli/spore_stims/complex_20_B_b.gif","images/stimuli/spore_stims/complex_16_A_d.gif","","","","","2","complex_dissimilar","images/stimuli/spore_stims/complex_16_A_d.gif","right","","","","",""
"","null","html-keyboard-response","52","151013","0.0-14.0-0.4","SS1613080113578","","","null","","","","","<p><img src= images/blank.png width =""200"" height = ""200"" style = ""float:right""></p><p><img src=images/blank.png width =""800"" height = ""200""></p>","","","","","","","","","","","",""
"","711.5600000033737","sequential-stimulus-presentation","53","152542","0.0-14.0-1.4","SS1613080113578","trial","","40","800","1511.5600000033737","images/stimuli/spore_stims/complex_20_B_b.gif","images/stimuli/spore_stims/complex_16_A_d.gif","","","","","2","complex_dissimilar","images/stimuli/spore_stims/complex_20_B_b.gif","left","","","","",""
"","null","html-keyboard-response","54","153403","0.0-14.0-0.5","SS1613080113578","","","null","","","","","<p><img src= images/blank.png width =""200"" height = ""200"" style = ""float:right""></p><p><img src=images/blank.png width =""800"" height = ""200""></p>","","","","","","","","","","","",""
"","349.1400000057183","sequential-stimulus-presentation","55","154561","0.0-14.0-1.5","SS1613080113578","trial","","40","800","1149.1400000057183","images/stimuli/spore_stims/complex_20_B_b.gif","images/stimuli/spore_stims/complex_16_A_d.gif","","","","","2","complex_dissimilar","images/stimuli/spore_stims/complex_16_A_d.gif","right","","","","",""
"","null","html-keyboard-response","56","155802","0.0-14.0-0.6","SS1613080113578","","","null","","","","","<p><img src= images/blank.png width =""200"" height = ""200"" style = ""float:right""></p><p><img src=images/blank.png width =""800"" height = ""200""></p>","","","","","","","","","","","",""
"","715.9199999950943","sequential-stimulus-presentation","57","157332","0.0-14.0-1.6","SS1613080113578","trial","","40","800","1515.9199999950943","images/stimuli/spore_stims/complex_20_B_b.gif","images/stimuli/spore_stims/complex_16_A_d.gif","","","","","2","complex_dissimilar","images/stimuli/spore_stims/complex_16_A_d.gif","right","","","","",""
"","null","html-keyboard-response","58","158313","0.0-14.0-0.7","SS1613080113578","","","null","","","","","<p><img src= images/blank.png width =""200"" height = ""200"" style = ""float:right""></p><p><img src=images/blank.png width =""800"" height = ""200""></p>","","","","","","","","","","","",""
"","2290.37000000244","sequential-stimulus-presentation","59","161413","0.0-14.0-1.7","SS1613080113578","trial","","40","800","3090.37000000244","images/stimuli/spore_stims/complex_20_B_b.gif","images/stimuli/spore_stims/complex_16_A_d.gif","","","","","2","complex_dissimilar","images/stimuli/spore_stims/complex_16_A_d.gif","right","","","","",""
"","97.54500000417465","html-keyboard-response","60","161521","0.0-15.0","SS1613080113578","pref_question","","49","","","","","<video width ='960' height = '540' style='padding-top:8%' autoplay muted><source src='images/stimuli/wall_pref.mp4' type='video/mp4'></video>","1","left","25%","2","","","","","","","",""
"","87.95000000100117","sequential-stimulus-presentation","61","162403","0.0-16.0","SS1613080113578","pref_reveal","","40","800","887.9500000010012","null","null","","","","","2","","","","deviant","","","",""
"","null","html-keyboard-response","62","163513","0.0-17.0-0.0","SS1613080113578","","","null","","","","","<p><img src= images/blank.png width =""200"" height = ""200"" style = ""float:right""></p><p><img src=images/blank.png width =""800"" height = ""200""></p>","","","","","","","","","","","",""
"","1228.6199999944074","sequential-stimulus-presentation","63","165550","0.0-17.0-1.0","SS1613080113578","trial","","40","800","2028.6199999944074","images/stimuli/spore_stims/simple_12_B_c.gif","images/stimuli/spore_stims/simple_12_A_c.gif","","","","","3","simple_similar","images/stimuli/spore_stims/simple_12_A_c.gif","left","","","","",""
"","null","html-keyboard-response","64","166705","0.0-17.0-0.1","SS1613080113578","","","null","","","","","<p><img src= images/blank.png width =""200"" height = ""200"" style = ""float:right""></p><p><img src=images/blank.png width =""800"" height = ""200""></p>","","","","","","","","","","","",""
"","245.46000000555068","sequential-stimulus-presentation","65","167767","0.0-17.0-1.1","SS1613080113578","trial","","40","800","1045.4600000055507","images/stimuli/spore_stims/simple_12_B_c.gif","images/stimuli/spore_stims/simple_12_A_c.gif","","","","","3","simple_similar","images/stimuli/spore_stims/simple_12_A_c.gif","left","","","","",""
"","null","html-keyboard-response","66","168803","0.0-17.0-0.2","SS1613080113578","","","null","","","","","<p><img src= images/blank.png width =""200"" height = ""200"" style = ""float:right""></p><p><img src=images/blank.png width =""800"" height = ""200""></p>","","","","","","","","","","","",""
"","112.939999999071","sequential-stimulus-presentation","67","169724","0.0-17.0-1.2","SS1613080113578","trial","","40","800","912.939999999071","images/stimuli/spore_stims/simple_12_B_c.gif","images/stimuli/spore_stims/simple_12_A_c.gif","","","","","3","simple_similar","images/stimuli/spore_stims/simple_12_A_c.gif","left","","","","",""
"","null","html-keyboard-response","68","170887","0.0-17.0-0.3","SS1613080113578","","","null","","","","","<p><img src= images/blank.png width =""200"" height = ""200"" style = ""float:right""></p><p><img src=images/blank.png width =""800"" height = ""200""></p>","","","","","","","","","","","",""
"","4975.194999999076","sequential-stimulus-presentation","69","176673","0.0-17.0-1.3","SS1613080113578","trial","","40","800","5775.194999999076","images/stimuli/spore_stims/simple_12_B_c.gif","images/stimuli/spore_stims/simple_12_A_c.gif","","","","","3","simple_similar","images/stimuli/spore_stims/simple_12_B_c.gif","middle","","","","",""
"","null","html-keyboard-response","70","177586","0.0-17.0-0.4","SS1613080113578","","","null","","","","","<p><img src= images/blank.png width =""200"" height = ""200"" style = ""float:right""></p><p><img src=images/blank.png width =""800"" height = ""200""></p>","","","","","","","","","","","",""
"","140.63000000169268","sequential-stimulus-presentation","71","178552","0.0-17.0-1.4","SS1613080113578","trial","","40","800","940.6300000016927","images/stimuli/spore_stims/simple_12_B_c.gif","images/stimuli/spore_stims/simple_12_A_c.gif","","","","","3","simple_similar","images/stimuli/spore_stims/simple_12_A_c.gif","left","","","","",""
"","null","html-keyboard-response","72","179632","0.0-17.0-0.5","SS1613080113578","","","null","","","","","<p><img src= images/blank.png width =""200"" height = ""200"" style = ""float:right""></p><p><img src=images/blank.png width =""800"" height = ""200""></p>","","","","","","","","","","","",""
"","303.25500000617467","sequential-stimulus-presentation","73","180744","0.0-17.0-1.5","SS1613080113578","trial","","40","800","1103.2550000061747","images/stimuli/spore_stims/simple_12_B_c.gif","images/stimuli/spore_stims/simple_12_A_c.gif","","","","","3","simple_similar","images/stimuli/spore_stims/simple_12_A_c.gif","left","","","","",""
"","null","html-keyboard-response","74","181807","0.0-17.0-0.6","SS1613080113578","","","null","","","","","<p><img src= images/blank.png width =""200"" height = ""200"" style = ""float:right""></p><p><img src=images/blank.png width =""800"" height = ""200""></p>","","","","","","","","","","","",""
"","494.03999999776715","sequential-stimulus-presentation","75","183114","0.0-17.0-1.6","SS1613080113578","trial","","40","800","1294.0399999977672","images/stimuli/spore_stims/simple_12_B_c.gif","images/stimuli/spore_stims/simple_12_A_c.gif","","","","","3","simple_similar","images/stimuli/spore_stims/simple_12_A_c.gif","left","","","","",""
"","null","html-keyboard-response","76","184176","0.0-17.0-0.7","SS1613080113578","","","null","","","","","<p><img src= images/blank.png width =""200"" height = ""200"" style = ""float:right""></p><p><img src=images/blank.png width =""800"" height = ""200""></p>","","","","","","","","","","","",""
"","62.545000000682194","sequential-stimulus-presentation","77","185047","0.0-17.0-1.7","SS1613080113578","trial","","40","800","862.5450000006822","images/stimuli/spore_stims/simple_12_B_c.gif","images/stimuli/spore_stims/simple_12_A_c.gif","","","","","3","simple_similar","images/stimuli/spore_stims/simple_12_A_c.gif","left","","","","",""
"","254.82500000362052","html-keyboard-response","78","185313","0.0-18.0","SS1613080113578","pref_question","","51","","","","","<video width ='960' height = '540' style='padding-top:8%' autoplay muted><source src='images/stimuli/wall_pref.mp4' type='video/mp4'></video>","3","right","66%","3","","","","","","","",""
"","267.2600000005332","sequential-stimulus-presentation","79","186395","0.0-19.0","SS1613080113578","pref_reveal","","40","800","1067.2600000005332","null","null","","","","","3","","","","novel","","","",""
"","null","html-keyboard-response","80","187455","0.0-20.0-0.0","SS1613080113578","","","null","","","","","<p><img src= images/blank.png width =""200"" height = ""200"" style = ""float:right""></p><p><img src=images/blank.png width =""800"" height = ""200""></p>","","","","","","","","","","","",""
"","7.709999998041894","sequential-stimulus-presentation","81","188274","0.0-20.0-1.0","SS1613080113578","trial","","40","800","807.7099999980419","images/stimuli/spore_stims/complex_13_B_b.gif","images/stimuli/spore_stims/complex_08_A_a.gif","","","","","4","complex_dissimilar","images/stimuli/spore_stims/complex_08_A_a.gif","middle","","","","",""
"","null","html-keyboard-response","82","189386","0.0-20.0-0.1","SS1613080113578","","","null","","","","","<p><img src= images/blank.png width =""200"" height = ""200"" style = ""float:right""></p><p><img src=images/blank.png width =""800"" height = ""200""></p>","","","","","","","","","","","",""
"","854.6149999965564","sequential-stimulus-presentation","83","191050","0.0-20.0-1.1","SS1613080113578","trial","","40","800","1654.6149999965564","images/stimuli/spore_stims/complex_13_B_b.gif","images/stimuli/spore_stims/complex_08_A_a.gif","","","","","4","complex_dissimilar","images/stimuli/spore_stims/complex_08_A_a.gif","middle","","","","",""
"","null","html-keyboard-response","84","192057","0.0-20.0-0.2","SS1613080113578","","","null","","","","","<p><img src= images/blank.png width =""200"" height = ""200"" style = ""float:right""></p><p><img src=images/blank.png width =""800"" height = ""200""></p>","","","","","","","","","","","",""
"","189.1650000034133","sequential-stimulus-presentation","85","193054","0.0-20.0-1.2","SS1613080113578","trial","","40","800","989.1650000034133","images/stimuli/spore_stims/complex_13_B_b.gif","images/stimuli/spore_stims/complex_08_A_a.gif","","","","","4","complex_dissimilar","images/stimuli/spore_stims/complex_08_A_a.gif","middle","","","","",""
"","null","html-keyboard-response","86","194301","0.0-20.0-0.3","SS1613080113578","","","null","","","","","<p><img src= images/blank.png width =""200"" height = ""200"" style = ""float:right""></p><p><img src=images/blank.png width =""800"" height = ""200""></p>","","","","","","","","","","","",""
"","228.42999999556923","sequential-stimulus-presentation","87","195337","0.0-20.0-1.3","SS1613080113578","trial","","40","800","1028.4299999955692","images/stimuli/spore_stims/complex_13_B_b.gif","images/stimuli/spore_stims/complex_08_A_a.gif","","","","","4","complex_dissimilar","images/stimuli/spore_stims/complex_08_A_a.gif","middle","","","","",""
"","null","html-keyboard-response","88","196585","0.0-20.0-0.4","SS1613080113578","","","null","","","","","<p><img src= images/blank.png width =""200"" height = ""200"" style = ""float:right""></p><p><img src=images/blank.png width =""800"" height = ""200""></p>","","","","","","","","","","","",""
"","932.2850000025937","sequential-stimulus-presentation","89","198327","0.0-20.0-1.4","SS1613080113578","trial","","40","800","1732.2850000025937","images/stimuli/spore_stims/complex_13_B_b.gif","images/stimuli/spore_stims/complex_08_A_a.gif","","","","","4","complex_dissimilar","images/stimuli/spore_stims/complex_08_A_a.gif","middle","","","","",""
"","null","html-keyboard-response","90","199614","0.0-20.0-0.5","SS1613080113578","","","null","","","","","<p><img src= images/blank.png width =""200"" height = ""200"" style = ""float:right""></p><p><img src=images/blank.png width =""800"" height = ""200""></p>","","","","","","","","","","","",""
"","1077.420000001439","sequential-stimulus-presentation","91","201500","0.0-20.0-1.5","SS1613080113578","trial","","40","800","1877.420000001439","images/stimuli/spore_stims/complex_13_B_b.gif","images/stimuli/spore_stims/complex_08_A_a.gif","","","","","4","complex_dissimilar","images/stimuli/spore_stims/complex_13_B_b.gif","right","","","","",""
"","null","html-keyboard-response","92","202566","0.0-20.0-0.6","SS1613080113578","","","null","","","","","<p><img src= images/blank.png width =""200"" height = ""200"" style = ""float:right""></p><p><img src=images/blank.png width =""800"" height = ""200""></p>","","","","","","","","","","","",""
"","472.86999999778345","sequential-stimulus-presentation","93","203849","0.0-20.0-1.6","SS1613080113578","trial","","40","800","1272.8699999977835","images/stimuli/spore_stims/complex_13_B_b.gif","images/stimuli/spore_stims/complex_08_A_a.gif","","","","","4","complex_dissimilar","images/stimuli/spore_stims/complex_08_A_a.gif","middle","","","","",""
"","null","html-keyboard-response","94","204706","0.0-20.0-0.7","SS1613080113578","","","null","","","","","<p><img src= images/blank.png width =""200"" height = ""200"" style = ""float:right""></p><p><img src=images/blank.png width =""800"" height = ""200""></p>","","","","","","","","","","","",""
"","2314.3249999993714","sequential-stimulus-presentation","95","207839","0.0-20.0-1.7","SS1613080113578","trial","","40","800","3114.3249999993714","images/stimuli/spore_stims/complex_13_B_b.gif","images/stimuli/spore_stims/complex_08_A_a.gif","","","","","4","complex_dissimilar","images/stimuli/spore_stims/complex_08_A_a.gif","middle","","","","",""
"","185.88499999896158","html-keyboard-response","96","208036","0.0-21.0","SS1613080113578","pref_question","","50","","","","","<video width ='960' height = '540' style='padding-top:8%' autoplay muted><source src='images/stimuli/wall_pref.mp4' type='video/mp4'></video>","2","middle","45%","4","","","","","","","",""
"","242.8799999979674","sequential-stimulus-presentation","97","209092","0.0-22.0","SS1613080113578","pref_reveal","","40","800","1042.8799999979674","null","null","","","","","4","","","","background","","","",""
"","null","html-keyboard-response","98","209987","0.0-23.0-0.0","SS1613080113578","","","null","","","","","<p><img src= images/blank.png width =""200"" height = ""200"" style = ""float:right""></p><p><img src=images/blank.png width =""800"" height = ""200""></p>","","","","","","","","","","","",""
"","1108.9049999936833","sequential-stimulus-presentation","99","211920","0.0-23.0-1.0","SS1613080113578","trial","","40","800","1908.9049999936833","images/stimuli/spore_stims/complex_10_B_a.gif","images/stimuli/spore_stims/complex_04_B_b.gif","","","","","5","complex_dissimilar","images/stimuli/spore_stims/complex_04_B_b.gif","left","","","","",""
"","null","html-keyboard-response","100","212819","0.0-23.0-0.1","SS1613080113578","","","null","","","","","<p><img src= images/blank.png width =""200"" height = ""200"" style = ""float:right""></p><p><img src=images/blank.png width =""800"" height = ""200""></p>","","","","","","","","","","","",""
"","799.605000000156","sequential-stimulus-presentation","101","214428","0.0-23.0-1.1","SS1613080113578","trial","","40","800","1599.605000000156","images/stimuli/spore_stims/complex_10_B_a.gif","images/stimuli/spore_stims/complex_04_B_b.gif","","","","","5","complex_dissimilar","images/stimuli/spore_stims/complex_04_B_b.gif","left","","","","",""
"","null","html-keyboard-response","102","215585","0.0-23.0-0.2","SS1613080113578","","","null","","","","","<p><img src= images/blank.png width =""200"" height = ""200"" style = ""float:right""></p><p><img src=images/blank.png width =""800"" height = ""200""></p>","","","","","","","","","","","",""
"","283.4950000033132","sequential-stimulus-presentation","103","216678","0.0-23.0-1.2","SS1613080113578","trial","","40","800","1083.4950000033132","images/stimuli/spore_stims/complex_10_B_a.gif","images/stimuli/spore_stims/complex_04_B_b.gif","","","","","5","complex_dissimilar","images/stimuli/spore_stims/complex_04_B_b.gif","left","","","","",""
"","null","html-keyboard-response","104","217698","0.0-23.0-0.3","SS1613080113578","","","null","","","","","<p><img src= images/blank.png width =""200"" height = ""200"" style = ""float:right""></p><p><img src=images/blank.png width =""800"" height = ""200""></p>","","","","","","","","","","","",""
"","656.7399999985355","sequential-stimulus-presentation","105","219162","0.0-23.0-1.3","SS1613080113578","trial","","40","800","1456.7399999985355","images/stimuli/spore_stims/complex_10_B_a.gif","images/stimuli/spore_stims/complex_04_B_b.gif","","","","","5","complex_dissimilar","images/stimuli/spore_stims/complex_10_B_a.gif","middle","","","","",""
"","null","html-keyboard-response","106","220332","0.0-23.0-0.4","SS1613080113578","","","null","","","","","<p><img src= images/blank.png width =""200"" height = ""200"" style = ""float:right""></p><p><img src=images/blank.png width =""800"" height = ""200""></p>","","","","","","","","","","","",""
"","955.5699999982608","sequential-stimulus-presentation","107","222107","0.0-23.0-1.4","SS1613080113578","trial","","40","800","1755.5699999982608","images/stimuli/spore_stims/complex_10_B_a.gif","images/stimuli/spore_stims/complex_04_B_b.gif","","","","","5","complex_dissimilar","images/stimuli/spore_stims/complex_04_B_b.gif","left","","","","",""
"","null","html-keyboard-response","108","223282","0.0-23.0-0.5","SS1613080113578","","","null","","","","","<p><img src= images/blank.png width =""200"" height = ""200"" style = ""float:right""></p><p><img src=images/blank.png width =""800"" height = ""200""></p>","","","","","","","","","","","",""
"","111.00999999325722","sequential-stimulus-presentation","109","224202","0.0-23.0-1.5","SS1613080113578","trial","","40","800","911.0099999932572","images/stimuli/spore_stims/complex_10_B_a.gif","images/stimuli/spore_stims/complex_04_B_b.gif","","","","","5","complex_dissimilar","images/stimuli/spore_stims/complex_04_B_b.gif","left","","","","",""
"","null","html-keyboard-response","110","225395","0.0-23.0-0.6","SS1613080113578","","","null","","","","","<p><img src= images/blank.png width =""200"" height = ""200"" style = ""float:right""></p><p><img src=images/blank.png width =""800"" height = ""200""></p>","","","","","","","","","","","",""
"","84.75999999791384","sequential-stimulus-presentation","111","226290","0.0-23.0-1.6","SS1613080113578","trial","","40","800","884.7599999979138","images/stimuli/spore_stims/complex_10_B_a.gif","images/stimuli/spore_stims/complex_04_B_b.gif","","","","","5","complex_dissimilar","images/stimuli/spore_stims/complex_04_B_b.gif","left","","","","",""
"","null","html-keyboard-response","112","227240","0.0-23.0-0.7","SS1613080113578","","","null","","","","","<p><img src= images/blank.png width =""200"" height = ""200"" style = ""float:right""></p><p><img src=images/blank.png width =""800"" height = ""200""></p>","","","","","","","","","","","",""
"","307.7400000038324","sequential-stimulus-presentation","113","228357","0.0-23.0-1.7","SS1613080113578","trial","","40","800","1107.7400000038324","images/stimuli/spore_stims/complex_10_B_a.gif","images/stimuli/spore_stims/complex_04_B_b.gif","","","","","5","complex_dissimilar","images/stimuli/spore_stims/complex_04_B_b.gif","left","","","","",""
"","0.8999999990919605","html-keyboard-response","114","228369","0.0-24.0","SS1613080113578","pref_question","","50","","","","","<video width ='960' height = '540' style='padding-top:8%' autoplay muted><source src='images/stimuli/wall_pref.mp4' type='video/mp4'></video>","2","middle","45%","5","","","","","","","",""
"","176.22499999561114","sequential-stimulus-presentation","115","229357","0.0-25.0","SS1613080113578","pref_reveal","","40","800","976.2249999956111","null","null","","","","","5","","","","deviant","","","",""
"","null","html-keyboard-response","116","230484","0.0-26.0-0.0","SS1613080113578","","","null","","","","","<p><img src= images/blank.png width =""200"" height = ""200"" style = ""float:right""></p><p><img src=images/blank.png width =""800"" height = ""200""></p>","","","","","","","","","","","",""
"","109.35500000050524","sequential-stimulus-presentation","117","231411","0.0-26.0-1.0","SS1613080113578","trial","","40","800","909.3550000005052","images/stimuli/spore_stims/complex_11_A_b.gif","images/stimuli/spore_stims/complex_11_B_b.gif","","","","","6","complex_similar","images/stimuli/spore_stims/complex_11_B_b.gif","right","","","","",""
"","null","html-keyboard-response","118","232390","0.0-26.0-0.1","SS1613080113578","","","null","","","","","<p><img src= images/blank.png width =""200"" height = ""200"" style = ""float:right""></p><p><img src=images/blank.png width =""800"" height = ""200""></p>","","","","","","","","","","","",""
"","2570.3649999995832","sequential-stimulus-presentation","119","235770","0.0-26.0-1.1","SS1613080113578","trial","","40","800","3370.3649999995832","images/stimuli/spore_stims/complex_11_A_b.gif","images/stimuli/spore_stims/complex_11_B_b.gif","","","","","6","complex_similar","images/stimuli/spore_stims/complex_11_B_b.gif","right","","","","",""
"","null","html-keyboard-response","120","236967","0.0-26.0-0.2","SS1613080113578","","","null","","","","","<p><img src= images/blank.png width =""200"" height = ""200"" style = ""float:right""></p><p><img src=images/blank.png width =""800"" height = ""200""></p>","","","","","","","","","","","",""
"","346.1800000004587","sequential-stimulus-presentation","121","238131","0.0-26.0-1.2","SS1613080113578","trial","","40","800","1146.1800000004587","images/stimuli/spore_stims/complex_11_A_b.gif","images/stimuli/spore_stims/complex_11_B_b.gif","","","","","6","complex_similar","images/stimuli/spore_stims/complex_11_B_b.gif","right","","","","",""
"","null","html-keyboard-response","122","239133","0.0-26.0-0.3","SS1613080113578","","","null","","","","","<p><img src= images/blank.png width =""200"" height = ""200"" style = ""float:right""></p><p><img src=images/blank.png width =""800"" height = ""200""></p>","","","","","","","","","","","",""
"","315.7199999986915","sequential-stimulus-presentation","123","240257","0.0-26.0-1.3","SS1613080113578","trial","","40","800","1115.7199999986915","images/stimuli/spore_stims/complex_11_A_b.gif","images/stimuli/spore_stims/complex_11_B_b.gif","","","","","6","complex_similar","images/stimuli/spore_stims/complex_11_B_b.gif","right","","","","",""
"","null","html-keyboard-response","124","241226","0.0-26.0-0.4","SS1613080113578","","","null","","","","","<p><img src= images/blank.png width =""200"" height = ""200"" style = ""float:right""></p><p><img src=images/blank.png width =""800"" height = ""200""></p>","","","","","","","","","","","",""
"","1815.5100000003586","sequential-stimulus-presentation","125","243852","0.0-26.0-1.4","SS1613080113578","trial","","40","800","2615.5100000003586","images/stimuli/spore_stims/complex_11_A_b.gif","images/stimuli/spore_stims/complex_11_B_b.gif","","","","","6","complex_similar","images/stimuli/spore_stims/complex_11_B_b.gif","right","","","","",""
"","null","html-keyboard-response","126","244913","0.0-26.0-0.5","SS1613080113578","","","null","","","","","<p><img src= images/blank.png width =""200"" height = ""200"" style = ""float:right""></p><p><img src=images/blank.png width =""800"" height = ""200""></p>","","","","","","","","","","","",""
"","49.33000000164611","sequential-stimulus-presentation","127","245771","0.0-26.0-1.5","SS1613080113578","trial","","40","800","849.3300000016461","images/stimuli/spore_stims/complex_11_A_b.gif","images/stimuli/spore_stims/complex_11_B_b.gif","","","","","6","complex_similar","images/stimuli/spore_stims/complex_11_A_b.gif","left","","","","",""
"","null","html-keyboard-response","128","246809","0.0-26.0-0.6","SS1613080113578","","","null","","","","","<p><img src= images/blank.png width =""200"" height = ""200"" style = ""float:right""></p><p><img src=images/blank.png width =""800"" height = ""200""></p>","","","","","","","","","","","",""
"","278.72999999817694","sequential-stimulus-presentation","129","247901","0.0-26.0-1.6","SS1613080113578","trial","","40","800","1078.729999998177","images/stimuli/spore_stims/complex_11_A_b.gif","images/stimuli/spore_stims/complex_11_B_b.gif","","","","","6","complex_similar","images/stimuli/spore_stims/complex_11_B_b.gif","right","","","","",""
"","null","html-keyboard-response","130","248827","0.0-26.0-0.7","SS1613080113578","","","null","","","","","<p><img src= images/blank.png width =""200"" height = ""200"" style = ""float:right""></p><p><img src=images/blank.png width =""800"" height = ""200""></p>","","","","","","","","","","","",""
"","41.53999999834923","sequential-stimulus-presentation","131","249685","0.0-26.0-1.7","SS1613080113578","trial","","40","800","841.5399999983492","images/stimuli/spore_stims/complex_11_A_b.gif","images/stimuli/spore_stims/complex_11_B_b.gif","","","","","6","complex_similar","images/stimuli/spore_stims/complex_11_B_b.gif","right","","","","",""
"","389.02999999845633","html-keyboard-response","132","250086","0.0-27.0","SS1613080113578","pref_question","","50","","","","","<video width ='960' height = '540' style='padding-top:8%' autoplay muted><source src='images/stimuli/wall_pref.mp4' type='video/mp4'></video>","2","middle","45%","6","","","","","","","",""
"","666.2199999991572","sequential-stimulus-presentation","133","251585","0.0-28.0","SS1613080113578","pref_reveal","","40","800","1466.2199999991572","null","null","","","","","6","","","","novel","","","",""
"","null","html-keyboard-response","134","252435","0.0-29.0-0.0","SS1613080113578","","","null","","","","","<p><img src= images/blank.png width =""200"" height = ""200"" style = ""float:right""></p><p><img src=images/blank.png width =""800"" height = ""200""></p>","","","","","","","","","","","",""
"","294.38500000105705","sequential-stimulus-presentation","135","253547","0.0-29.0-1.0","SS1613080113578","trial","","40","800","1094.385000001057","images/stimuli/spore_stims/simple_02_B_c.gif","images/stimuli/spore_stims/simple_18_B_a.gif","","","","","7","simple_dissimilar","images/stimuli/spore_stims/simple_18_B_a.gif","middle","","","","",""
"","null","html-keyboard-response","136","254628","0.0-29.0-0.1","SS1613080113578","","","null","","","","","<p><img src= images/blank.png width =""200"" height = ""200"" style = ""float:right""></p><p><img src=images/blank.png width =""800"" height = ""200""></p>","","","","","","","","","","","",""
"","225.65000000031432","sequential-stimulus-presentation","137","255683","0.0-29.0-1.1","SS1613080113578","trial","","40","800","1025.6500000003143","images/stimuli/spore_stims/simple_02_B_c.gif","images/stimuli/spore_stims/simple_18_B_a.gif","","","","","7","simple_dissimilar","images/stimuli/spore_stims/simple_18_B_a.gif","middle","","","","",""
"","null","html-keyboard-response","138","256825","0.0-29.0-0.2","SS1613080113578","","","null","","","","","<p><img src= images/blank.png width =""200"" height = ""200"" style = ""float:right""></p><p><img src=images/blank.png width =""800"" height = ""200""></p>","","","","","","","","","","","",""
"","606.3349999967613","sequential-stimulus-presentation","139","258259","0.0-29.0-1.2","SS1613080113578","trial","","40","800","1406.3349999967613","images/stimuli/spore_stims/simple_02_B_c.gif","images/stimuli/spore_stims/simple_18_B_a.gif","","","","","7","simple_dissimilar","images/stimuli/spore_stims/simple_18_B_a.gif","middle","","","","",""
"","null","html-keyboard-response","140","259322","0.0-29.0-0.3","SS1613080113578","","","null","","","","","<p><img src= images/blank.png width =""200"" height = ""200"" style = ""float:right""></p><p><img src=images/blank.png width =""800"" height = ""200""></p>","","","","","","","","","","","",""
"","90.73499999794876","sequential-stimulus-presentation","141","260232","0.0-29.0-1.3","SS1613080113578","trial","","40","800","890.7349999979488","images/stimuli/spore_stims/simple_02_B_c.gif","images/stimuli/spore_stims/simple_18_B_a.gif","","","","","7","simple_dissimilar","images/stimuli/spore_stims/simple_18_B_a.gif","middle","","","","",""
"","null","html-keyboard-response","142","261443","0.0-29.0-0.4","SS1613080113578","","","null","","","","","<p><img src= images/blank.png width =""200"" height = ""200"" style = ""float:right""></p><p><img src=images/blank.png width =""800"" height = ""200""></p>","","","","","","","","","","","",""
"","793.020000004617","sequential-stimulus-presentation","143","263045","0.0-29.0-1.4","SS1613080113578","trial","","40","800","1593.020000004617","images/stimuli/spore_stims/simple_02_B_c.gif","images/stimuli/spore_stims/simple_18_B_a.gif","","","","","7","simple_dissimilar","images/stimuli/spore_stims/simple_02_B_c.gif","left","","","","",""
"","null","html-keyboard-response","144","264232","0.0-29.0-0.5","SS1613080113578","","","null","","","","","<p><img src= images/blank.png width =""200"" height = ""200"" style = ""float:right""></p><p><img src=images/blank.png width =""800"" height = ""200""></p>","","","","","","","","","","","",""
"","3713.1200000003446","sequential-stimulus-presentation","145","268756","0.0-29.0-1.5","SS1613080113578","trial","","40","800","4513.120000000345","images/stimuli/spore_stims/simple_02_B_c.gif","images/stimuli/spore_stims/simple_18_B_a.gif","","","","","7","simple_dissimilar","images/stimuli/spore_stims/simple_18_B_a.gif","middle","","","","",""
"","null","html-keyboard-response","146","269594","0.0-29.0-0.6","SS1613080113578","","","null","","","","","<p><img src= images/blank.png width =""200"" height = ""200"" style = ""float:right""></p><p><img src=images/blank.png width =""800"" height = ""200""></p>","","","","","","","","","","","",""
"","487.6250000015716","sequential-stimulus-presentation","147","270893","0.0-29.0-1.6","SS1613080113578","trial","","40","800","1287.6250000015716","images/stimuli/spore_stims/simple_02_B_c.gif","images/stimuli/spore_stims/simple_18_B_a.gif","","","","","7","simple_dissimilar","images/stimuli/spore_stims/simple_18_B_a.gif","middle","","","","",""
"","null","html-keyboard-response","148","272098","0.0-29.0-0.7","SS1613080113578","","","null","","","","","<p><img src= images/blank.png width =""200"" height = ""200"" style = ""float:right""></p><p><img src=images/blank.png width =""800"" height = ""200""></p>","","","","","","","","","","","",""
"","268.5300000011921","sequential-stimulus-presentation","149","273179","0.0-29.0-1.7","SS1613080113578","trial","","40","800","1068.530000001192","images/stimuli/spore_stims/simple_02_B_c.gif","images/stimuli/spore_stims/simple_18_B_a.gif","","","","","7","simple_dissimilar","images/stimuli/spore_stims/simple_18_B_a.gif","middle","","","","",""
"","278.5250000015367","html-keyboard-response","150","273490","0.0-30.0","SS1613080113578","pref_question","","49","","","","","<video width ='960' height = '540' style='padding-top:8%' autoplay muted><source src='images/stimuli/wall_pref.mp4' type='video/mp4'></video>","1","left","25%","7","","","","","","","",""
"","155.2499999961583","sequential-stimulus-presentation","151","274474","0.0-31.0","SS1613080113578","pref_reveal","","40","800","955.2499999961583","null","null","","","","","7","","","","deviant","","","",""
"","null","html-keyboard-response","152","275356","0.0-32.0-0.0","SS1613080113578","","","null","","","","","<p><img src= images/blank.png width =""200"" height = ""200"" style = ""float:right""></p><p><img src=images/blank.png width =""800"" height = ""200""></p>","","","","","","","","","","","",""
"","155.74000000196975","sequential-stimulus-presentation","153","276321","0.0-32.0-1.0","SS1613080113578","trial","","40","800","955.7400000019697","images/stimuli/spore_stims/simple_14_B_b.gif","images/stimuli/spore_stims/simple_14_A_b.gif","","","","","8","simple_similar","images/stimuli/spore_stims/simple_14_A_b.gif","middle","","","","",""
"","null","html-keyboard-response","154","277407","0.0-32.0-0.1","SS1613080113578","","","null","","","","","<p><img src= images/blank.png width =""200"" height = ""200"" style = ""float:right""></p><p><img src=images/blank.png width =""800"" height = ""200""></p>","","","","","","","","","","","",""
"","357.06999999820255","sequential-stimulus-presentation","155","278575","0.0-32.0-1.1","SS1613080113578","trial","","40","800","1157.0699999982025","images/stimuli/spore_stims/simple_14_B_b.gif","images/stimuli/spore_stims/simple_14_A_b.gif","","","","","8","simple_similar","images/stimuli/spore_stims/simple_14_A_b.gif","middle","","","","",""
"","null","html-keyboard-response","156","279522","0.0-32.0-0.2","SS1613080113578","","","null","","","","","<p><img src= images/blank.png width =""200"" height = ""200"" style = ""float:right""></p><p><img src=images/blank.png width =""800"" height = ""200""></p>","","","","","","","","","","","",""
"","1551.2549999984913","sequential-stimulus-presentation","157","281894","0.0-32.0-1.2","SS1613080113578","trial","","40","800","2351.2549999984913","images/stimuli/spore_stims/simple_14_B_b.gif","images/stimuli/spore_stims/simple_14_A_b.gif","","","","","8","simple_similar","images/stimuli/spore_stims/simple_14_A_b.gif","middle","","","","",""
"","null","html-keyboard-response","158","283140","0.0-32.0-0.3","SS1613080113578","","","null","","","","","<p><img src= images/blank.png width =""200"" height = ""200"" style = ""float:right""></p><p><img src=images/blank.png width =""800"" height = ""200""></p>","","","","","","","","","","","",""
"","384.93499999458436","sequential-stimulus-presentation","159","284335","0.0-32.0-1.3","SS1613080113578","trial","","40","800","1184.9349999945844","images/stimuli/spore_stims/simple_14_B_b.gif","images/stimuli/spore_stims/simple_14_A_b.gif","","","","","8","simple_similar","images/stimuli/spore_stims/simple_14_A_b.gif","middle","","","","",""
"","null","html-keyboard-response","160","285262","0.0-32.0-0.4","SS1613080113578","","","null","","","","","<p><img src= images/blank.png width =""200"" height = ""200"" style = ""float:right""></p><p><img src=images/blank.png width =""800"" height = ""200""></p>","","","","","","","","","","","",""
"","270.79500000400003","sequential-stimulus-presentation","161","286342","0.0-32.0-1.4","SS1613080113578","trial","","40","800","1070.795000004","images/stimuli/spore_stims/simple_14_B_b.gif","images/stimuli/spore_stims/simple_14_A_b.gif","","","","","8","simple_similar","images/stimuli/spore_stims/simple_14_B_b.gif","left","","","","",""
"","null","html-keyboard-response","162","287565","0.0-32.0-0.5","SS1613080113578","","","null","","","","","<p><img src= images/blank.png width =""200"" height = ""200"" style = ""float:right""></p><p><img src=images/blank.png width =""800"" height = ""200""></p>","","","","","","","","","","","",""
"","109.81499999616062","sequential-stimulus-presentation","163","288484","0.0-32.0-1.5","SS1613080113578","trial","","40","800","909.8149999961606","images/stimuli/spore_stims/simple_14_B_b.gif","images/stimuli/spore_stims/simple_14_A_b.gif","","","","","8","simple_similar","images/stimuli/spore_stims/simple_14_A_b.gif","middle","","","","",""
"","null","html-keyboard-response","164","289697","0.0-32.0-0.6","SS1613080113578","","","null","","","","","<p><img src= images/blank.png width =""200"" height = ""200"" style = ""float:right""></p><p><img src=images/blank.png width =""800"" height = ""200""></p>","","","","","","","","","","","",""
"","73.32499999756692","sequential-stimulus-presentation","165","290579","0.0-32.0-1.6","SS1613080113578","trial","","40","800","873.3249999975669","images/stimuli/spore_stims/simple_14_B_b.gif","images/stimuli/spore_stims/simple_14_A_b.gif","","","","","8","simple_similar","images/stimuli/spore_stims/simple_14_A_b.gif","middle","","","","",""
"","null","html-keyboard-response","166","291558","0.0-32.0-0.7","SS1613080113578","","","null","","","","","<p><img src= images/blank.png width =""200"" height = ""200"" style = ""float:right""></p><p><img src=images/blank.png width =""800"" height = ""200""></p>","","","","","","","","","","","",""
"","3.904999997757841","sequential-stimulus-presentation","167","292372","0.0-32.0-1.7","SS1613080113578","trial","","40","800","803.9049999977578","images/stimuli/spore_stims/simple_14_B_b.gif","images/stimuli/spore_stims/simple_14_A_b.gif","","","","","8","simple_similar","images/stimuli/spore_stims/simple_14_A_b.gif","middle","","","","",""
"","14.520000004267786","html-keyboard-response","168","292400","0.0-33.0","SS1613080113578","pref_question","","50","","","","","<video width ='960' height = '540' style='padding-top:8%' autoplay muted><source src='images/stimuli/wall_pref.mp4' type='video/mp4'></video>","2","middle","45%","8","","","","","","","",""
"","106.71499999443768","sequential-stimulus-presentation","169","293319","0.0-34.0","SS1613080113578","pref_reveal","","40","800","906.7149999944377","null","null","","","","","8","","","","background","","","",""
"","null","html-keyboard-response","170","294279","0.0-35.0-0.0","SS1613080113578","","","null","","","","","<p><img src= images/blank.png width =""200"" height = ""200"" style = ""float:right""></p><p><img src=images/blank.png width =""800"" height = ""200""></p>","","","","","","","","","","","",""
"","361.45000000396976","sequential-stimulus-presentation","171","295450","0.0-35.0-1.0","SS1613080113578","trial","","40","800","1161.4500000039698","images/stimuli/spore_stims/simple_01_B_d.gif","images/stimuli/spore_stims/simple_01_A_d.gif","","","","","9","simple_similar","images/stimuli/spore_stims/simple_01_A_d.gif","left","","","","",""
"","null","html-keyboard-response","172","296565","0.0-35.0-0.1","SS1613080113578","","","null","","","","","<p><img src= images/blank.png width =""200"" height = ""200"" style = ""float:right""></p><p><img src=images/blank.png width =""800"" height = ""200""></p>","","","","","","","","","","","",""
"","808.3449999976438","sequential-stimulus-presentation","173","298192","0.0-35.0-1.1","SS1613080113578","trial","","40","800","1608.3449999976438","images/stimuli/spore_stims/simple_01_B_d.gif","images/stimuli/spore_stims/simple_01_A_d.gif","","","","","9","simple_similar","images/stimuli/spore_stims/simple_01_A_d.gif","left","","","","",""
"","null","html-keyboard-response","174","299089","0.0-35.0-0.2","SS1613080113578","","","null","","","","","<p><img src= images/blank.png width =""200"" height = ""200"" style = ""float:right""></p><p><img src=images/blank.png width =""800"" height = ""200""></p>","","","","","","","","","","","",""
"","381.8650000030175","sequential-stimulus-presentation","175","300280","0.0-35.0-1.2","SS1613080113578","trial","","40","800","1181.8650000030175","images/stimuli/spore_stims/simple_01_B_d.gif","images/stimuli/spore_stims/simple_01_A_d.gif","","","","","9","simple_similar","images/stimuli/spore_stims/simple_01_A_d.gif","left","","","","",""
"","null","html-keyboard-response","176","301193","0.0-35.0-0.3","SS1613080113578","","","null","","","","","<p><img src= images/blank.png width =""200"" height = ""200"" style = ""float:right""></p><p><img src=images/blank.png width =""800"" height = ""200""></p>","","","","","","","","","","","",""
"","380.08999999874504","sequential-stimulus-presentation","177","302398","0.0-35.0-1.3","SS1613080113578","trial","","40","800","1180.089999998745","images/stimuli/spore_stims/simple_01_B_d.gif","images/stimuli/spore_stims/simple_01_A_d.gif","","","","","9","simple_similar","images/stimuli/spore_stims/simple_01_A_d.gif","left","","","","",""
"","null","html-keyboard-response","178","303552","0.0-35.0-0.4","SS1613080113578","","","null","","","","","<p><img src= images/blank.png width =""200"" height = ""200"" style = ""float:right""></p><p><img src=images/blank.png width =""800"" height = ""200""></p>","","","","","","","","","","","",""
"","240.81999999907566","sequential-stimulus-presentation","179","304604","0.0-35.0-1.4","SS1613080113578","trial","","40","800","1040.8199999990757","images/stimuli/spore_stims/simple_01_B_d.gif","images/stimuli/spore_stims/simple_01_A_d.gif","","","","","9","simple_similar","images/stimuli/spore_stims/simple_01_A_d.gif","left","","","","",""
"","null","html-keyboard-response","180","305857","0.0-35.0-0.5","SS1613080113578","","","null","","","","","<p><img src= images/blank.png width =""200"" height = ""200"" style = ""float:right""></p><p><img src=images/blank.png width =""800"" height = ""200""></p>","","","","","","","","","","","",""
"","475.77499999897555","sequential-stimulus-presentation","181","307144","0.0-35.0-1.5","SS1613080113578","trial","","40","800","1275.7749999989755","images/stimuli/spore_stims/simple_01_B_d.gif","images/stimuli/spore_stims/simple_01_A_d.gif","","","","","9","simple_similar","images/stimuli/spore_stims/simple_01_A_d.gif","left","","","","",""
"","null","html-keyboard-response","182","308407","0.0-35.0-0.6","SS1613080113578","","","null","","","","","<p><img src= images/blank.png width =""200"" height = ""200"" style = ""float:right""></p><p><img src=images/blank.png width =""800"" height = ""200""></p>","","","","","","","","","","","",""
"","317.8600000028382","sequential-stimulus-presentation","183","309533","0.0-35.0-1.6","SS1613080113578","trial","","40","800","1117.8600000028382","images/stimuli/spore_stims/simple_01_B_d.gif","images/stimuli/spore_stims/simple_01_A_d.gif","","","","","9","simple_similar","images/stimuli/spore_stims/simple_01_A_d.gif","left","","","","",""
"","null","html-keyboard-response","184","310681","0.0-35.0-0.7","SS1613080113578","","","null","","","","","<p><img src= images/blank.png width =""200"" height = ""200"" style = ""float:right""></p><p><img src=images/blank.png width =""800"" height = ""200""></p>","","","","","","","","","","","",""
"","1416.4600000003702","sequential-stimulus-presentation","185","312904","0.0-35.0-1.7","SS1613080113578","trial","","40","800","2216.46000000037","images/stimuli/spore_stims/simple_01_B_d.gif","images/stimuli/spore_stims/simple_01_A_d.gif","","","","","9","simple_similar","images/stimuli/spore_stims/simple_01_B_d.gif","right","","","","",""
"","365.68999999872176","html-keyboard-response","186","313289","0.0-36.0","SS1613080113578","pref_question","","50","","","","","<video width ='960' height = '540' style='padding-top:8%' autoplay muted><source src='images/stimuli/wall_pref.mp4' type='video/mp4'></video>","2","middle","45%","9","","","","","","","",""
"","1301.0900000008405","sequential-stimulus-presentation","187","315411","0.0-37.0","SS1613080113578","pref_reveal","","40","800","2101.0900000008405","null","null","","","","","9","","","","novel","","","",""
"","null","html-keyboard-response","188","316526","0.0-38.0-0.0","SS1613080113578","","","null","","","","","<p><img src= images/blank.png width =""200"" height = ""200"" style = ""float:right""></p><p><img src=images/blank.png width =""800"" height = ""200""></p>","","","","","","","","","","","",""
"","2058.485000001383","sequential-stimulus-presentation","189","319402","0.0-38.0-1.0","SS1613080113578","trial","","40","800","2858.485000001383","images/stimuli/spore_stims/simple_06_A_a.gif","images/stimuli/spore_stims/simple_19_B_c.gif","","","","","10","simple_dissimilar","images/stimuli/spore_stims/simple_19_B_c.gif","middle","","","","",""
"","null","html-keyboard-response","190","320521","0.0-38.0-0.1","SS1613080113578","","","null","","","","","<p><img src= images/blank.png width =""200"" height = ""200"" style = ""float:right""></p><p><img src=images/blank.png width =""800"" height = ""200""></p>","","","","","","","","","","","",""
"","2258.9349999980186","sequential-stimulus-presentation","191","323602","0.0-38.0-1.1","SS1613080113578","trial","","40","800","3058.9349999980186","images/stimuli/spore_stims/simple_06_A_a.gif","images/stimuli/spore_stims/simple_19_B_c.gif","","","","","10","simple_dissimilar","images/stimuli/spore_stims/simple_19_B_c.gif","middle","","","","",""
"","null","html-keyboard-response","192","324442","0.0-38.0-0.2","SS1613080113578","","","null","","","","","<p><img src= images/blank.png width =""200"" height = ""200"" style = ""float:right""></p><p><img src=images/blank.png width =""800"" height = ""200""></p>","","","","","","","","","","","",""
"","2696.0800000015297","sequential-stimulus-presentation","193","327948","0.0-38.0-1.2","SS1613080113578","trial","","40","800","3496.0800000015297","images/stimuli/spore_stims/simple_06_A_a.gif","images/stimuli/spore_stims/simple_19_B_c.gif","","","","","10","simple_dissimilar","images/stimuli/spore_stims/simple_19_B_c.gif","middle","","","","",""
"","null","html-keyboard-response","194","328905","0.0-38.0-0.3","SS1613080113578","","","null","","","","","<p><img src= images/blank.png width =""200"" height = ""200"" style = ""float:right""></p><p><img src=images/blank.png width =""800"" height = ""200""></p>","","","","","","","","","","","",""
"","761.7600000012317","sequential-stimulus-presentation","195","330476","0.0-38.0-1.3","SS1613080113578","trial","","40","800","1561.7600000012317","images/stimuli/spore_stims/simple_06_A_a.gif","images/stimuli/spore_stims/simple_19_B_c.gif","","","","","10","simple_dissimilar","images/stimuli/spore_stims/simple_19_B_c.gif","middle","","","","",""
"","null","html-keyboard-response","196","331308","0.0-38.0-0.4","SS1613080113578","","","null","","","","","<p><img src= images/blank.png width =""200"" height = ""200"" style = ""float:right""></p><p><img src=images/blank.png width =""800"" height = ""200""></p>","","","","","","","","","","","",""
"","267.02499999373686","sequential-stimulus-presentation","197","332386","0.0-38.0-1.4","SS1613080113578","trial","","40","800","1067.0249999937369","images/stimuli/spore_stims/simple_06_A_a.gif","images/stimuli/spore_stims/simple_19_B_c.gif","","","","","10","simple_dissimilar","images/stimuli/spore_stims/simple_19_B_c.gif","middle","","","","",""
"","null","html-keyboard-response","198","333646","0.0-38.0-0.5","SS1613080113578","","","null","","","","","<p><img src= images/blank.png width =""200"" height = ""200"" style = ""float:right""></p><p><img src=images/blank.png width =""800"" height = ""200""></p>","","","","","","","","","","","",""
"","1677.0250000045053","sequential-stimulus-presentation","199","336144","0.0-38.0-1.5","SS1613080113578","trial","","40","800","2477.0250000045053","images/stimuli/spore_stims/simple_06_A_a.gif","images/stimuli/spore_stims/simple_19_B_c.gif","","","","","10","simple_dissimilar","images/stimuli/spore_stims/simple_19_B_c.gif","middle","","","","",""
"","null","html-keyboard-response","200","337437","0.0-38.0-0.6","SS1613080113578","","","null","","","","","<p><img src= images/blank.png width =""200"" height = ""200"" style = ""float:right""></p><p><img src=images/blank.png width =""800"" height = ""200""></p>","","","","","","","","","","","",""
"","215.61500000098022","sequential-stimulus-presentation","201","338463","0.0-38.0-1.6","SS1613080113578","trial","","40","800","1015.6150000009802","images/stimuli/spore_stims/simple_06_A_a.gif","images/stimuli/spore_stims/simple_19_B_c.gif","","","","","10","simple_dissimilar","images/stimuli/spore_stims/simple_19_B_c.gif","middle","","","","",""
"","null","html-keyboard-response","202","339452","0.0-38.0-0.7","SS1613080113578","","","null","","","","","<p><img src= images/blank.png width =""200"" height = ""200"" style = ""float:right""></p><p><img src=images/blank.png width =""800"" height = ""200""></p>","","","","","","","","","","","",""
"","35.48499999305932","sequential-stimulus-presentation","203","340299","0.0-38.0-1.7","SS1613080113578","trial","","40","800","835.4849999930593","images/stimuli/spore_stims/simple_06_A_a.gif","images/stimuli/spore_stims/simple_19_B_c.gif","","","","","10","simple_dissimilar","images/stimuli/spore_stims/simple_06_A_a.gif","left","","","","",""
"","8.054999998421408","html-keyboard-response","204","340329","0.0-39.0","SS1613080113578","pref_question","","51","","","","","<video width ='960' height = '540' style='padding-top:8%' autoplay muted><source src='images/stimuli/wall_pref.mp4' type='video/mp4'></video>","3","right","66%","10","","","","","","","",""
"","307.31999999989057","sequential-stimulus-presentation","205","341451","0.0-40.0","SS1613080113578","pref_reveal","","40","800","1107.3199999998906","null","null","","","","","10","","","","novel","","","",""
"","null","html-keyboard-response","206","342618","0.0-41.0-0.0","SS1613080113578","","","null","","","","","<p><img src= images/blank.png width =""200"" height = ""200"" style = ""float:right""></p><p><img src=images/blank.png width =""800"" height = ""200""></p>","","","","","","","","","","","",""
"","30.220000000554137","sequential-stimulus-presentation","207","343469","0.0-41.0-1.0","SS1613080113578","trial","","40","800","830.2200000005541","images/stimuli/spore_stims/complex_14_A_d.gif","images/stimuli/spore_stims/complex_14_B_d.gif","","","","","11","complex_similar","images/stimuli/spore_stims/complex_14_B_d.gif","left","","","","",""
"","null","html-keyboard-response","208","344652","0.0-41.0-0.1","SS1613080113578","","","null","","","","","<p><img src= images/blank.png width =""200"" height = ""200"" style = ""float:right""></p><p><img src=images/blank.png width =""800"" height = ""200""></p>","","","","","","","","","","","",""
"","470.5699999976787","sequential-stimulus-presentation","209","345940","0.0-41.0-1.1","SS1613080113578","trial","","40","800","1270.5699999976787","images/stimuli/spore_stims/complex_14_A_d.gif","images/stimuli/spore_stims/complex_14_B_d.gif","","","","","11","complex_similar","images/stimuli/spore_stims/complex_14_B_d.gif","left","","","","",""
"","null","html-keyboard-response","210","347121","0.0-41.0-0.2","SS1613080113578","","","null","","","","","<p><img src= images/blank.png width =""200"" height = ""200"" style = ""float:right""></p><p><img src=images/blank.png width =""800"" height = ""200""></p>","","","","","","","","","","","",""
"","1247.6499999975204","sequential-stimulus-presentation","211","349182","0.0-41.0-1.2","SS1613080113578","trial","","40","800","2047.6499999975204","images/stimuli/spore_stims/complex_14_A_d.gif","images/stimuli/spore_stims/complex_14_B_d.gif","","","","","11","complex_similar","images/stimuli/spore_stims/complex_14_B_d.gif","left","","","","",""
"","null","html-keyboard-response","212","350479","0.0-41.0-0.3","SS1613080113578","","","null","","","","","<p><img src= images/blank.png width =""200"" height = ""200"" style = ""float:right""></p><p><img src=images/blank.png width =""800"" height = ""200""></p>","","","","","","","","","","","",""
"","37.70000000076834","sequential-stimulus-presentation","213","351329","0.0-41.0-1.3","SS1613080113578","trial","","40","800","837.7000000007683","images/stimuli/spore_stims/complex_14_A_d.gif","images/stimuli/spore_stims/complex_14_B_d.gif","","","","","11","complex_similar","images/stimuli/spore_stims/complex_14_A_d.gif","middle","","","","",""
"","null","html-keyboard-response","214","352521","0.0-41.0-0.4","SS1613080113578","","","null","","","","","<p><img src= images/blank.png width =""200"" height = ""200"" style = ""float:right""></p><p><img src=images/blank.png width =""800"" height = ""200""></p>","","","","","","","","","","","",""
"","1941.5499999959138","sequential-stimulus-presentation","215","355286","0.0-41.0-1.4","SS1613080113578","trial","","40","800","2741.549999995914","images/stimuli/spore_stims/complex_14_A_d.gif","images/stimuli/spore_stims/complex_14_B_d.gif","","","","","11","complex_similar","images/stimuli/spore_stims/complex_14_B_d.gif","left","","","","",""
"","null","html-keyboard-response","216","356336","0.0-41.0-0.5","SS1613080113578","","","null","","","","","<p><img src= images/blank.png width =""200"" height = ""200"" style = ""float:right""></p><p><img src=images/blank.png width =""800"" height = ""200""></p>","","","","","","","","","","","",""
"","152.19499999511754","sequential-stimulus-presentation","217","357301","0.0-41.0-1.5","SS1613080113578","trial","","40","800","952.1949999951175","images/stimuli/spore_stims/complex_14_A_d.gif","images/stimuli/spore_stims/complex_14_B_d.gif","","","","","11","complex_similar","images/stimuli/spore_stims/complex_14_B_d.gif","left","","","","",""
"","null","html-keyboard-response","218","358534","0.0-41.0-0.6","SS1613080113578","","","null","","","","","<p><img src= images/blank.png width =""200"" height = ""200"" style = ""float:right""></p><p><img src=images/blank.png width =""800"" height = ""200""></p>","","","","","","","","","","","",""
"","1186.2499999988358","sequential-stimulus-presentation","219","360529","0.0-41.0-1.6","SS1613080113578","trial","","40","800","1986.2499999988358","images/stimuli/spore_stims/complex_14_A_d.gif","images/stimuli/spore_stims/complex_14_B_d.gif","","","","","11","complex_similar","images/stimuli/spore_stims/complex_14_B_d.gif","left","","","","",""
"","null","html-keyboard-response","220","361646","0.0-41.0-0.7","SS1613080113578","","","null","","","","","<p><img src= images/blank.png width =""200"" height = ""200"" style = ""float:right""></p><p><img src=images/blank.png width =""800"" height = ""200""></p>","","","","","","","","","","","",""
"","223.35500000190223","sequential-stimulus-presentation","221","362680","0.0-41.0-1.7","SS1613080113578","trial","","40","800","1023.3550000019022","images/stimuli/spore_stims/complex_14_A_d.gif","images/stimuli/spore_stims/complex_14_B_d.gif","","","","","11","complex_similar","images/stimuli/spore_stims/complex_14_B_d.gif","left","","","","",""
"","0.8149999994202517","html-keyboard-response","222","362702","0.0-42.0","SS1613080113578","pref_question","","50","","","","","<video width ='960' height = '540' style='padding-top:8%' autoplay muted><source src='images/stimuli/wall_pref.mp4' type='video/mp4'></video>","2","middle","45%","11","","","","","","","",""
"","2995.7800000047428","sequential-stimulus-presentation","223","366511","0.0-43.0","SS1613080113578","pref_reveal","","40","800","3795.7800000047428","null","null","","","","","11","","","","deviant","","","",""
"","null","html-keyboard-response","224","367515","0.0-44.0-0.0","SS1613080113578","","","null","","","","","<p><img src= images/blank.png width =""200"" height = ""200"" style = ""float:right""></p><p><img src=images/blank.png width =""800"" height = ""200""></p>","","","","","","","","","","","",""
"","100.33500000281492","sequential-stimulus-presentation","225","368440","0.0-44.0-1.0","SS1613080113578","trial","","40","800","900.3350000028149","images/stimuli/spore_stims/simple_11_B_c.gif","images/stimuli/spore_stims/simple_04_A_b.gif","","","","","12","simple_dissimilar","images/stimuli/spore_stims/simple_04_A_b.gif","middle","","","","",""
"","null","html-keyboard-response","226","369388","0.0-44.0-0.1","SS1613080113578","","","null","","","","","<p><img src= images/blank.png width =""200"" height = ""200"" style = ""float:right""></p><p><img src=images/blank.png width =""800"" height = ""200""></p>","","","","","","","","","","","",""
"","364.46499999874504","sequential-stimulus-presentation","227","370563","0.0-44.0-1.1","SS1613080113578","trial","","40","800","1164.464999998745","images/stimuli/spore_stims/simple_11_B_c.gif","images/stimuli/spore_stims/simple_04_A_b.gif","","","","","12","simple_dissimilar","images/stimuli/spore_stims/simple_04_A_b.gif","middle","","","","",""
"","null","html-keyboard-response","228","371885","0.0-44.0-0.2","SS1613080113578","","","null","","","","","<p><img src= images/blank.png width =""200"" height = ""200"" style = ""float:right""></p><p><img src=images/blank.png width =""800"" height = ""200""></p>","","","","","","","","","","","",""
"","200.29000000067754","sequential-stimulus-presentation","229","372897","0.0-44.0-1.2","SS1613080113578","trial","","40","800","1000.2900000006775","images/stimuli/spore_stims/simple_11_B_c.gif","images/stimuli/spore_stims/simple_04_A_b.gif","","","","","12","simple_dissimilar","images/stimuli/spore_stims/simple_04_A_b.gif","middle","","","","",""
"","null","html-keyboard-response","230","374180","0.0-44.0-0.3","SS1613080113578","","","null","","","","","<p><img src= images/blank.png width =""200"" height = ""200"" style = ""float:right""></p><p><img src=images/blank.png width =""800"" height = ""200""></p>","","","","","","","","","","","",""
"","349.70500000054017","sequential-stimulus-presentation","231","375341","0.0-44.0-1.3","SS1613080113578","trial","","40","800","1149.7050000005402","images/stimuli/spore_stims/simple_11_B_c.gif","images/stimuli/spore_stims/simple_04_A_b.gif","","","","","12","simple_dissimilar","images/stimuli/spore_stims/simple_11_B_c.gif","left","","","","",""
"","null","html-keyboard-response","232","376502","0.0-44.0-0.4","SS1613080113578","","","null","","","","","<p><img src= images/blank.png width =""200"" height = ""200"" style = ""float:right""></p><p><img src=images/blank.png width =""800"" height = ""200""></p>","","","","","","","","","","","",""
"","123.48000000201864","sequential-stimulus-presentation","233","377444","0.0-44.0-1.4","SS1613080113578","trial","","40","800","923.4800000020186","images/stimuli/spore_stims/simple_11_B_c.gif","images/stimuli/spore_stims/simple_04_A_b.gif","","","","","12","simple_dissimilar","images/stimuli/spore_stims/simple_04_A_b.gif","middle","","","","",""
"","null","html-keyboard-response","234","378409","0.0-44.0-0.5","SS1613080113578","","","null","","","","","<p><img src= images/blank.png width =""200"" height = ""200"" style = ""float:right""></p><p><img src=images/blank.png width =""800"" height = ""200""></p>","","","","","","","","","","","",""
"","785.8249999990221","sequential-stimulus-presentation","235","380005","0.0-44.0-1.5","SS1613080113578","trial","","40","800","1585.824999999022","images/stimuli/spore_stims/simple_11_B_c.gif","images/stimuli/spore_stims/simple_04_A_b.gif","","","","","12","simple_dissimilar","images/stimuli/spore_stims/simple_04_A_b.gif","middle","","","","",""
"","null","html-keyboard-response","236","380856","0.0-44.0-0.6","SS1613080113578","","","null","","","","","<p><img src= images/blank.png width =""200"" height = ""200"" style = ""float:right""></p><p><img src=images/blank.png width =""800"" height = ""200""></p>","","","","","","","","","","","",""
"","537.9950000060489","sequential-stimulus-presentation","237","382216","0.0-44.0-1.6","SS1613080113578","trial","","40","800","1337.995000006049","images/stimuli/spore_stims/simple_11_B_c.gif","images/stimuli/spore_stims/simple_04_A_b.gif","","","","","12","simple_dissimilar","images/stimuli/spore_stims/simple_04_A_b.gif","middle","","","","",""
"","null","html-keyboard-response","238","383464","0.0-44.0-0.7","SS1613080113578","","","null","","","","","<p><img src= images/blank.png width =""200"" height = ""200"" style = ""float:right""></p><p><img src=images/blank.png width =""800"" height = ""200""></p>","","","","","","","","","","","",""
"","315.86500000412343","sequential-stimulus-presentation","239","384591","0.0-44.0-1.7","SS1613080113578","trial","","40","800","1115.8650000041234","images/stimuli/spore_stims/simple_11_B_c.gif","images/stimuli/spore_stims/simple_04_A_b.gif","","","","","12","simple_dissimilar","images/stimuli/spore_stims/simple_04_A_b.gif","middle","","","","",""
"","0.6349999966914766","html-keyboard-response","240","384610","0.0-45.0","SS1613080113578","pref_question","","50","","","","","<video width ='960' height = '540' style='padding-top:8%' autoplay muted><source src='images/stimuli/wall_pref.mp4' type='video/mp4'></video>","2","middle","45%","12","","","","","","","",""
"","285.00000000349246","sequential-stimulus-presentation","241","385714","0.0-46.0","SS1613080113578","pref_reveal","","40","800","1085.0000000034925","null","null","","","","","12","","","","background","","","",""
"","null","html-keyboard-response","242","386647","0.0-47.0-0.0","SS1613080113578","","","null","","","","","<p><img src= images/blank.png width =""200"" height = ""200"" style = ""float:right""></p><p><img src=images/blank.png width =""800"" height = ""200""></p>","","","","","","","","","","","",""
"","206.37999999598833","sequential-stimulus-presentation","243","387673","0.0-47.0-1.0","SS1613080113578","trial","","40","800","1006.3799999959883","images/stimuli/spore_stims/simple_20_B_a.gif","images/stimuli/spore_stims/simple_20_A_a.gif","","","","","13","simple_similar","images/stimuli/spore_stims/simple_20_A_a.gif","left","","","","",""
"","null","html-keyboard-response","244","388923","0.0-47.0-0.1","SS1613080113578","","","null","","","","","<p><img src= images/blank.png width =""200"" height = ""200"" style = ""float:right""></p><p><img src=images/blank.png width =""800"" height = ""200""></p>","","","","","","","","","","","",""
"","193.0350000038743","sequential-stimulus-presentation","245","389928","0.0-47.0-1.1","SS1613080113578","trial","","40","800","993.0350000038743","images/stimuli/spore_stims/simple_20_B_a.gif","images/stimuli/spore_stims/simple_20_A_a.gif","","","","","13","simple_similar","images/stimuli/spore_stims/simple_20_A_a.gif","left","","","","",""
"","null","html-keyboard-response","246","391101","0.0-47.0-0.2","SS1613080113578","","","null","","","","","<p><img src= images/blank.png width =""200"" height = ""200"" style = ""float:right""></p><p><img src=images/blank.png width =""800"" height = ""200""></p>","","","","","","","","","","","",""
"","306.5950000018347","sequential-stimulus-presentation","247","392234","0.0-47.0-1.2","SS1613080113578","trial","","40","800","1106.5950000018347","images/stimuli/spore_stims/simple_20_B_a.gif","images/stimuli/spore_stims/simple_20_A_a.gif","","","","","13","simple_similar","images/stimuli/spore_stims/simple_20_A_a.gif","left","","","","",""
"","null","html-keyboard-response","248","393102","0.0-47.0-0.3","SS1613080113578","","","null","","","","","<p><img src= images/blank.png width =""200"" height = ""200"" style = ""float:right""></p><p><img src=images/blank.png width =""800"" height = ""200""></p>","","","","","","","","","","","",""
"","1326.5699999974458","sequential-stimulus-presentation","249","395255","0.0-47.0-1.3","SS1613080113578","trial","","40","800","2126.569999997446","images/stimuli/spore_stims/simple_20_B_a.gif","images/stimuli/spore_stims/simple_20_A_a.gif","","","","","13","simple_similar","images/stimuli/spore_stims/simple_20_A_a.gif","left","","","","",""
"","null","html-keyboard-response","250","396261","0.0-47.0-0.4","SS1613080113578","","","null","","","","","<p><img src= images/blank.png width =""200"" height = ""200"" style = ""float:right""></p><p><img src=images/blank.png width =""800"" height = ""200""></p>","","","","","","","","","","","",""
"","70.14499999786494","sequential-stimulus-presentation","251","397143","0.0-47.0-1.4","SS1613080113578","trial","","40","800","870.1449999978649","images/stimuli/spore_stims/simple_20_B_a.gif","images/stimuli/spore_stims/simple_20_A_a.gif","","","","","13","simple_similar","images/stimuli/spore_stims/simple_20_A_a.gif","left","","","","",""
"","null","html-keyboard-response","252","398254","0.0-47.0-0.5","SS1613080113578","","","null","","","","","<p><img src= images/blank.png width =""200"" height = ""200"" style = ""float:right""></p><p><img src=images/blank.png width =""800"" height = ""200""></p>","","","","","","","","","","","",""
"","15.935000003082678","sequential-stimulus-presentation","253","399084","0.0-47.0-1.5","SS1613080113578","trial","","40","800","815.9350000030827","images/stimuli/spore_stims/simple_20_B_a.gif","images/stimuli/spore_stims/simple_20_A_a.gif","","","","","13","simple_similar","images/stimuli/spore_stims/simple_20_A_a.gif","left","","","","",""
"","null","html-keyboard-response","254","400172","0.0-47.0-0.6","SS1613080113578","","","null","","","","","<p><img src= images/blank.png width =""200"" height = ""200"" style = ""float:right""></p><p><img src=images/blank.png width =""800"" height = ""200""></p>","","","","","","","","","","","",""
"","716.710000000603","sequential-stimulus-presentation","255","401704","0.0-47.0-1.6","SS1613080113578","trial","","40","800","1516.710000000603","images/stimuli/spore_stims/simple_20_B_a.gif","images/stimuli/spore_stims/simple_20_A_a.gif","","","","","13","simple_similar","images/stimuli/spore_stims/simple_20_A_a.gif","left","","","","",""
"","null","html-keyboard-response","256","402982","0.0-47.0-0.7","SS1613080113578","","","null","","","","","<p><img src= images/blank.png width =""200"" height = ""200"" style = ""float:right""></p><p><img src=images/blank.png width =""800"" height = ""200""></p>","","","","","","","","","","","",""
"","5167.809999999008","sequential-stimulus-presentation","257","408962","0.0-47.0-1.7","SS1613080113578","trial","","40","800","5967.809999999008","images/stimuli/spore_stims/simple_20_B_a.gif","images/stimuli/spore_stims/simple_20_A_a.gif","","","","","13","simple_similar","images/stimuli/spore_stims/simple_20_B_a.gif","middle","","","","",""
"","0.8950000046752393","html-keyboard-response","258","408982","0.0-48.0","SS1613080113578","pref_question","","50","","","","","<video width ='960' height = '540' style='padding-top:8%' autoplay muted><source src='images/stimuli/wall_pref.mp4' type='video/mp4'></video>","2","middle","45%","13","","","","","","","",""
"","787.915000000794","sequential-stimulus-presentation","259","410584","0.0-49.0","SS1613080113578","pref_reveal","","40","800","1587.915000000794","null","null","","","","","13","","","","deviant","","","",""
"","null","html-keyboard-response","260","411591","0.0-50.0-0.0","SS1613080113578","","","null","","","","","<p><img src= images/blank.png width =""200"" height = ""200"" style = ""float:right""></p><p><img src=images/blank.png width =""800"" height = ""200""></p>","","","","","","","","","","","",""
"","126.00499999825843","sequential-stimulus-presentation","261","412529","0.0-50.0-1.0","SS1613080113578","trial","","40","800","926.0049999982584","images/stimuli/spore_stims/simple_13_A_c.gif","images/stimuli/spore_stims/simple_07_B_d.gif","","","","","14","simple_dissimilar","images/stimuli/spore_stims/simple_07_B_d.gif","middle","","","","",""
"","null","html-keyboard-response","262","413763","0.0-50.0-0.1","SS1613080113578","","","null","","","","","<p><img src= images/blank.png width =""200"" height = ""200"" style = ""float:right""></p><p><img src=images/blank.png width =""800"" height = ""200""></p>","","","","","","","","","","","",""
"","1079.8349999968195","sequential-stimulus-presentation","263","415655","0.0-50.0-1.1","SS1613080113578","trial","","40","800","1879.8349999968195","images/stimuli/spore_stims/simple_13_A_c.gif","images/stimuli/spore_stims/simple_07_B_d.gif","","","","","14","simple_dissimilar","images/stimuli/spore_stims/simple_07_B_d.gif","middle","","","","",""
"","null","html-keyboard-response","264","416695","0.0-50.0-0.2","SS1613080113578","","","null","","","","","<p><img src= images/blank.png width =""200"" height = ""200"" style = ""float:right""></p><p><img src=images/blank.png width =""800"" height = ""200""></p>","","","","","","","","","","","",""
"","787.0450000045821","sequential-stimulus-presentation","265","418331","0.0-50.0-1.2","SS1613080113578","trial","","40","800","1587.045000004582","images/stimuli/spore_stims/simple_13_A_c.gif","images/stimuli/spore_stims/simple_07_B_d.gif","","","","","14","simple_dissimilar","images/stimuli/spore_stims/simple_07_B_d.gif","middle","","","","",""
"","null","html-keyboard-response","266","419344","0.0-50.0-0.3","SS1613080113578","","","null","","","","","<p><img src= images/blank.png width =""200"" height = ""200"" style = ""float:right""></p><p><img src=images/blank.png width =""800"" height = ""200""></p>","","","","","","","","","","","",""
"","2484.694999999192","sequential-stimulus-presentation","267","422643","0.0-50.0-1.3","SS1613080113578","trial","","40","800","3284.694999999192","images/stimuli/spore_stims/simple_13_A_c.gif","images/stimuli/spore_stims/simple_07_B_d.gif","","","","","14","simple_dissimilar","images/stimuli/spore_stims/simple_07_B_d.gif","middle","","","","",""
"","null","html-keyboard-response","268","423890","0.0-50.0-0.4","SS1613080113578","","","null","","","","","<p><img src= images/blank.png width =""200"" height = ""200"" style = ""float:right""></p><p><img src=images/blank.png width =""800"" height = ""200""></p>","","","","","","","","","","","",""
"","47.890000001643784","sequential-stimulus-presentation","269","424746","0.0-50.0-1.4","SS1613080113578","trial","","40","800","847.8900000016438","images/stimuli/spore_stims/simple_13_A_c.gif","images/stimuli/spore_stims/simple_07_B_d.gif","","","","","14","simple_dissimilar","images/stimuli/spore_stims/simple_13_A_c.gif","right","","","","",""
"","null","html-keyboard-response","270","425699","0.0-50.0-0.5","SS1613080113578","","","null","","","","","<p><img src= images/blank.png width =""200"" height = ""200"" style = ""float:right""></p><p><img src=images/blank.png width =""800"" height = ""200""></p>","","","","","","","","","","","",""
"","243.20499999885214","sequential-stimulus-presentation","271","426765","0.0-50.0-1.5","SS1613080113578","trial","","40","800","1043.2049999988521","images/stimuli/spore_stims/simple_13_A_c.gif","images/stimuli/spore_stims/simple_07_B_d.gif","","","","","14","simple_dissimilar","images/stimuli/spore_stims/simple_07_B_d.gif","middle","","","","",""
"","null","html-keyboard-response","272","428014","0.0-50.0-0.6","SS1613080113578","","","null","","","","","<p><img src= images/blank.png width =""200"" height = ""200"" style = ""float:right""></p><p><img src=images/blank.png width =""800"" height = ""200""></p>","","","","","","","","","","","",""
"","380.44000000081724","sequential-stimulus-presentation","273","429207","0.0-50.0-1.6","SS1613080113578","trial","","40","800","1180.4400000008172","images/stimuli/spore_stims/simple_13_A_c.gif","images/stimuli/spore_stims/simple_07_B_d.gif","","","","","14","simple_dissimilar","images/stimuli/spore_stims/simple_07_B_d.gif","middle","","","","",""
"","null","html-keyboard-response","274","430528","0.0-50.0-0.7","SS1613080113578","","","null","","","","","<p><img src= images/blank.png width =""200"" height = ""200"" style = ""float:right""></p><p><img src=images/blank.png width =""800"" height = ""200""></p>","","","","","","","","","","","",""
"","53.08499999955529","sequential-stimulus-presentation","275","431410","0.0-50.0-1.7","SS1613080113578","trial","","40","800","853.0849999995553","images/stimuli/spore_stims/simple_13_A_c.gif","images/stimuli/spore_stims/simple_07_B_d.gif","","","","","14","simple_dissimilar","images/stimuli/spore_stims/simple_07_B_d.gif","middle","","","","",""
"","369.2749999972875","html-keyboard-response","276","431797","0.0-51.0","SS1613080113578","pref_question","","50","","","","","<video width ='960' height = '540' style='padding-top:8%' autoplay muted><source src='images/stimuli/wall_pref.mp4' type='video/mp4'></video>","2","middle","45%","14","","","","","","","",""
"","956.9199999968987","sequential-stimulus-presentation","277","433592","0.0-52.0","SS1613080113578","pref_reveal","","40","800","1756.9199999968987","null","null","","","","","14","","","","background","","","",""
"","null","html-keyboard-response","278","434822","0.0-53.0-0.0","SS1613080113578","","","null","","","","","<p><img src= images/blank.png width =""200"" height = ""200"" style = ""float:right""></p><p><img src=images/blank.png width =""800"" height = ""200""></p>","","","","","","","","","","","",""
"","858.3049999942887","sequential-stimulus-presentation","279","436493","0.0-53.0-1.0","SS1613080113578","trial","","40","800","1658.3049999942887","images/stimuli/spore_stims/simple_17_B_c.gif","images/stimuli/spore_stims/simple_17_A_c.gif","","","","","15","simple_similar","images/stimuli/spore_stims/simple_17_A_c.gif","left","","","","",""
"","null","html-keyboard-response","280","437444","0.0-53.0-0.1","SS1613080113578","","","null","","","","","<p><img src= images/blank.png width =""200"" height = ""200"" style = ""float:right""></p><p><img src=images/blank.png width =""800"" height = ""200""></p>","","","","","","","","","","","",""
"","1482.0550000004005","sequential-stimulus-presentation","281","439737","0.0-53.0-1.1","SS1613080113578","trial","","40","800","2282.0550000004005","images/stimuli/spore_stims/simple_17_B_c.gif","images/stimuli/spore_stims/simple_17_A_c.gif","","","","","15","simple_similar","images/stimuli/spore_stims/simple_17_A_c.gif","left","","","","",""
"","null","html-keyboard-response","282","440813","0.0-53.0-0.2","SS1613080113578","","","null","","","","","<p><img src= images/blank.png width =""200"" height = ""200"" style = ""float:right""></p><p><img src=images/blank.png width =""800"" height = ""200""></p>","","","","","","","","","","","",""
"","608.9700000011362","sequential-stimulus-presentation","283","442241","0.0-53.0-1.2","SS1613080113578","trial","","40","800","1408.9700000011362","images/stimuli/spore_stims/simple_17_B_c.gif","images/stimuli/spore_stims/simple_17_A_c.gif","","","","","15","simple_similar","images/stimuli/spore_stims/simple_17_A_c.gif","left","","","","",""
"","null","html-keyboard-response","284","443544","0.0-53.0-0.3","SS1613080113578","","","null","","","","","<p><img src= images/blank.png width =""200"" height = ""200"" style = ""float:right""></p><p><img src=images/blank.png width =""800"" height = ""200""></p>","","","","","","","","","","","",""
"","2039.2500000016298","sequential-stimulus-presentation","285","446397","0.0-53.0-1.3","SS1613080113578","trial","","40","800","2839.25000000163","images/stimuli/spore_stims/simple_17_B_c.gif","images/stimuli/spore_stims/simple_17_A_c.gif","","","","","15","simple_similar","images/stimuli/spore_stims/simple_17_A_c.gif","left","","","","",""
"","null","html-keyboard-response","286","447470","0.0-53.0-0.4","SS1613080113578","","","null","","","","","<p><img src= images/blank.png width =""200"" height = ""200"" style = ""float:right""></p><p><img src=images/blank.png width =""800"" height = ""200""></p>","","","","","","","","","","","",""
"","19.324999993899837","sequential-stimulus-presentation","287","448301","0.0-53.0-1.4","SS1613080113578","trial","","40","800","819.3249999938998","images/stimuli/spore_stims/simple_17_B_c.gif","images/stimuli/spore_stims/simple_17_A_c.gif","","","","","15","simple_similar","images/stimuli/spore_stims/simple_17_B_c.gif","right","","","","",""
"","null","html-keyboard-response","288","449376","0.0-53.0-0.5","SS1613080113578","","","null","","","","","<p><img src= images/blank.png width =""200"" height = ""200"" style = ""float:right""></p><p><img src=images/blank.png width =""800"" height = ""200""></p>","","","","","","","","","","","",""
"","3019.4449999982025","sequential-stimulus-presentation","289","453215","0.0-53.0-1.5","SS1613080113578","trial","","40","800","3819.4449999982025","images/stimuli/spore_stims/simple_17_B_c.gif","images/stimuli/spore_stims/simple_17_A_c.gif","","","","","15","simple_similar","images/stimuli/spore_stims/simple_17_A_c.gif","left","","","","",""
"","null","html-keyboard-response","290","454064","0.0-53.0-0.6","SS1613080113578","","","null","","","","","<p><img src= images/blank.png width =""200"" height = ""200"" style = ""float:right""></p><p><img src=images/blank.png width =""800"" height = ""200""></p>","","","","","","","","","","","",""
"","2986.7599999997765","sequential-stimulus-presentation","291","457865","0.0-53.0-1.6","SS1613080113578","trial","","40","800","3786.7599999997765","images/stimuli/spore_stims/simple_17_B_c.gif","images/stimuli/spore_stims/simple_17_A_c.gif","","","","","15","simple_similar","images/stimuli/spore_stims/simple_17_A_c.gif","left","","","","",""
"","null","html-keyboard-response","292","459122","0.0-53.0-0.7","SS1613080113578","","","null","","","","","<p><img src= images/blank.png width =""200"" height = ""200"" style = ""float:right""></p><p><img src=images/blank.png width =""800"" height = ""200""></p>","","","","","","","","","","","",""
"","1747.6700000043493","sequential-stimulus-presentation","293","461681","0.0-53.0-1.7","SS1613080113578","trial","","40","800","2547.6700000043493","images/stimuli/spore_stims/simple_17_B_c.gif","images/stimuli/spore_stims/simple_17_A_c.gif","","","","","15","simple_similar","images/stimuli/spore_stims/simple_17_A_c.gif","left","","","","",""
"","26.369999999529682","html-keyboard-response","294","461716","0.0-54.0","SS1613080113578","pref_question","","50","","","","","<video width ='960' height = '540' style='padding-top:8%' autoplay muted><source src='images/stimuli/wall_pref.mp4' type='video/mp4'></video>","2","middle","45%","15","","","","","","","",""
"","3170.9300000001676","sequential-stimulus-presentation","295","465702","0.0-55.0","SS1613080113578","pref_reveal","","40","800","3970.9300000001676","null","null","","","","","15","","","","novel","","","",""
"","null","html-keyboard-response","296","466862","0.0-56.0-0.0","SS1613080113578","","","null","","","","","<p><img src= images/blank.png width =""200"" height = ""200"" style = ""float:right""></p><p><img src=images/blank.png width =""800"" height = ""200""></p>","","","","","","","","","","","",""
"","133.75999999698251","sequential-stimulus-presentation","297","467814","0.0-56.0-1.0","SS1613080113578","trial","","40","800","933.7599999969825","images/stimuli/spore_stims/simple_11_A_d.gif","images/stimuli/spore_stims/simple_13_B_a.gif","","","","","16","simple_dissimilar","images/stimuli/spore_stims/simple_13_B_a.gif","left","","","","",""
"","null","html-keyboard-response","298","468743","0.0-56.0-0.1","SS1613080113578","","","null","","","","","<p><img src= images/blank.png width =""200"" height = ""200"" style = ""float:right""></p><p><img src=images/blank.png width =""800"" height = ""200""></p>","","","","","","","","","","","",""
"","316.56000000657514","sequential-stimulus-presentation","299","469872","0.0-56.0-1.1","SS1613080113578","trial","","40","800","1116.5600000065751","images/stimuli/spore_stims/simple_11_A_d.gif","images/stimuli/spore_stims/simple_13_B_a.gif","","","","","16","simple_dissimilar","images/stimuli/spore_stims/simple_13_B_a.gif","left","","","","",""
"","null","html-keyboard-response","300","470862","0.0-56.0-0.2","SS1613080113578","","","null","","","","","<p><img src= images/blank.png width =""200"" height = ""200"" style = ""float:right""></p><p><img src=images/blank.png width =""800"" height = ""200""></p>","","","","","","","","","","","",""
"","381.0200000007171","sequential-stimulus-presentation","301","472055","0.0-56.0-1.2","SS1613080113578","trial","","40","800","1181.0200000007171","images/stimuli/spore_stims/simple_11_A_d.gif","images/stimuli/spore_stims/simple_13_B_a.gif","","","","","16","simple_dissimilar","images/stimuli/spore_stims/simple_13_B_a.gif","left","","","","",""
"","null","html-keyboard-response","302","473234","0.0-56.0-0.3","SS1613080113578","","","null","","","","","<p><img src= images/blank.png width =""200"" height = ""200"" style = ""float:right""></p><p><img src=images/blank.png width =""800"" height = ""200""></p>","","","","","","","","","","","",""
"","446.9850000021979","sequential-stimulus-presentation","303","474500","0.0-56.0-1.3","SS1613080113578","trial","","40","800","1246.985000002198","images/stimuli/spore_stims/simple_11_A_d.gif","images/stimuli/spore_stims/simple_13_B_a.gif","","","","","16","simple_dissimilar","images/stimuli/spore_stims/simple_13_B_a.gif","left","","","","",""
"","null","html-keyboard-response","304","475688","0.0-56.0-0.4","SS1613080113578","","","null","","","","","<p><img src= images/blank.png width =""200"" height = ""200"" style = ""float:right""></p><p><img src=images/blank.png width =""800"" height = ""200""></p>","","","","","","","","","","","",""
"","3314.2299999963725","sequential-stimulus-presentation","305","479832","0.0-56.0-1.4","SS1613080113578","trial","","40","800","4114.2299999963725","images/stimuli/spore_stims/simple_11_A_d.gif","images/stimuli/spore_stims/simple_13_B_a.gif","","","","","16","simple_dissimilar","images/stimuli/spore_stims/simple_13_B_a.gif","left","","","","",""
"","null","html-keyboard-response","306","480816","0.0-56.0-0.5","SS1613080113578","","","null","","","","","<p><img src= images/blank.png width =""200"" height = ""200"" style = ""float:right""></p><p><img src=images/blank.png width =""800"" height = ""200""></p>","","","","","","","","","","","",""
"","811.1399999979185","sequential-stimulus-presentation","307","482439","0.0-56.0-1.5","SS1613080113578","trial","","40","800","1611.1399999979185","images/stimuli/spore_stims/simple_11_A_d.gif","images/stimuli/spore_stims/simple_13_B_a.gif","","","","","16","simple_dissimilar","images/stimuli/spore_stims/simple_13_B_a.gif","left","","","","",""
"","null","html-keyboard-response","308","483532","0.0-56.0-0.6","SS1613080113578","","","null","","","","","<p><img src= images/blank.png width =""200"" height = ""200"" style = ""float:right""></p><p><img src=images/blank.png width =""800"" height = ""200""></p>","","","","","","","","","","","",""
"","374.5500000005122","sequential-stimulus-presentation","309","484718","0.0-56.0-1.6","SS1613080113578","trial","","40","800","1174.5500000005122","images/stimuli/spore_stims/simple_11_A_d.gif","images/stimuli/spore_stims/simple_13_B_a.gif","","","","","16","simple_dissimilar","images/stimuli/spore_stims/simple_13_B_a.gif","left","","","","",""
"","null","html-keyboard-response","310","485596","0.0-56.0-0.7","SS1613080113578","","","null","","","","","<p><img src= images/blank.png width =""200"" height = ""200"" style = ""float:right""></p><p><img src=images/blank.png width =""800"" height = ""200""></p>","","","","","","","","","","","",""
"","289.10999999800697","sequential-stimulus-presentation","311","486697","0.0-56.0-1.7","SS1613080113578","trial","","40","800","1089.109999998007","images/stimuli/spore_stims/simple_11_A_d.gif","images/stimuli/spore_stims/simple_13_B_a.gif","","","","","16","simple_dissimilar","images/stimuli/spore_stims/simple_11_A_d.gif","right","","","","",""
"","420.63499999488704","html-keyboard-response","312","487137","0.0-57.0","SS1613080113578","pref_question","","50","","","","","<video width ='960' height = '540' style='padding-top:8%' autoplay muted><source src='images/stimuli/wall_pref.mp4' type='video/mp4'></video>","2","middle","45%","16","","","","","","","",""
