"view_history","rt","trial_type","trial_index","time_elapsed","internal_node_id","subject","stimulus_type","trial_stimulus","key_press","minimum_viewing_duration","trial_looking_time","block_deviant","block_background","stimulus","wall_pref","location","location_percent","block_number","block_type","stimulus_displayed","position_displayed","stim_type_selected","responses","question_order","stimulus_left","stimulus_right"
"[{""page_index"":0,""viewing_time"":2149.470000000292}]","2150.195000000167","instructions","0","2153","0.0-0.0","SS1613139982515","","","","","","","","","","","","","","","","","","","",""
"[{""page_index"":0,""viewing_time"":3105.735000000095},{""page_index"":1,""viewing_time"":12183.689999999842}]","15289.859999999862","instructions","1","19447","0.0-1.0","SS1613139982515","instructions","","","","","","","","","","","","","","","","","","",""
"","10379.07499999983","sequential-stimulus-presentation","2","30639","0.0-2.0","SS1613139982515","","","40","800","11179.07499999983","null","null","","","","","","","","","","","","",""
"","6014.834999999948","sequential-stimulus-presentation","3","37462","0.0-3.0","SS1613139982515","","","40","800","6814.834999999948","null","null","","","","","","","","","","","","",""
"[{""page_index"":0,""viewing_time"":4863.10500000036}]","4863.514999999999","instructions","4","42328","0.0-4.0","SS1613139982515","instructions","","","","","","","","","","","","","","","","","","",""
"","13080.960000000225","html-keyboard-response","5","55414","0.0-5.0","SS1613139982515","instructions","","98","","","","","<video width ='960' height = '540' autoplay muted><source src='images/stimuli/wall_pref.mp4' type='video/mp4'></video>","2","middle","45%","","","","","","","","",""
"","2926.405000000159","sequential-stimulus-presentation","6","59149","0.0-6.0","SS1613139982515","pref_reveal","","40","800","3726.405000000159","null","null","","","","","","","","","","","","",""
"[{""page_index"":0,""viewing_time"":1936.1000000008062},{""page_index"":1,""viewing_time"":1271.8449999993027},{""page_index"":2,""viewing_time"":3128.370000000359},{""page_index"":3,""viewing_time"":1215.680000000255}]","7552.650000000547","instructions","7","66703","0.0-7.0","SS1613139982515","instructions","","","","","","","","","","","","","","","","","","",""
"","null","html-keyboard-response","8","67907","0.0-8.0-0.0","SS1613139982515","","","null","","","","","<p><img src= images/blank.png width =""200"" height = ""200"" style = ""float:right""></p><p><img src=images/blank.png width =""800"" height = ""200""></p>","","","","","","","","","","","",""
"","1722.015000000276","sequential-stimulus-presentation","9","70437","0.0-8.0-1.0","SS1613139982515","trial","","40","800","2522.015000000276","images/stimuli/spore_stims/complex_13_A_d.gif","images/stimuli/spore_stims/complex_13_B_d.gif","","","","","0","complex_similar","images/stimuli/spore_stims/complex_13_B_d.gif","left","","","","",""
"","null","html-keyboard-response","10","71647","0.0-8.0-0.1","SS1613139982515","","","null","","","","","<p><img src= images/blank.png width =""200"" height = ""200"" style = ""float:right""></p><p><img src=images/blank.png width =""800"" height = ""200""></p>","","","","","","","","","","","",""
"","798.4850000002625","sequential-stimulus-presentation","11","73252","0.0-8.0-1.1","SS1613139982515","trial","","40","800","1598.4850000002625","images/stimuli/spore_stims/complex_13_A_d.gif","images/stimuli/spore_stims/complex_13_B_d.gif","","","","","0","complex_similar","images/stimuli/spore_stims/complex_13_B_d.gif","left","","","","",""
"","null","html-keyboard-response","12","74162","0.0-8.0-0.2","SS1613139982515","","","null","","","","","<p><img src= images/blank.png width =""200"" height = ""200"" style = ""float:right""></p><p><img src=images/blank.png width =""800"" height = ""200""></p>","","","","","","","","","","","",""
"","1459.425000000003","sequential-stimulus-presentation","13","76429","0.0-8.0-1.2","SS1613139982515","trial","","40","800","2259.425000000003","images/stimuli/spore_stims/complex_13_A_d.gif","images/stimuli/spore_stims/complex_13_B_d.gif","","","","","0","complex_similar","images/stimuli/spore_stims/complex_13_B_d.gif","left","","","","",""
"","null","html-keyboard-response","14","77538","0.0-8.0-0.3","SS1613139982515","","","null","","","","","<p><img src= images/blank.png width =""200"" height = ""200"" style = ""float:right""></p><p><img src=images/blank.png width =""800"" height = ""200""></p>","","","","","","","","","","","",""
"","2930.2500000003492","sequential-stimulus-presentation","15","81278","0.0-8.0-1.3","SS1613139982515","trial","","40","800","3730.2500000003492","images/stimuli/spore_stims/complex_13_A_d.gif","images/stimuli/spore_stims/complex_13_B_d.gif","","","","","0","complex_similar","images/stimuli/spore_stims/complex_13_B_d.gif","left","","","","",""
"","null","html-keyboard-response","16","82547","0.0-8.0-0.4","SS1613139982515","","","null","","","","","<p><img src= images/blank.png width =""200"" height = ""200"" style = ""float:right""></p><p><img src=images/blank.png width =""800"" height = ""200""></p>","","","","","","","","","","","",""
"","459.929999999993","sequential-stimulus-presentation","17","83814","0.0-8.0-1.4","SS1613139982515","trial","","40","800","1259.929999999993","images/stimuli/spore_stims/complex_13_A_d.gif","images/stimuli/spore_stims/complex_13_B_d.gif","","","","","0","complex_similar","images/stimuli/spore_stims/complex_13_B_d.gif","left","","","","",""
"","null","html-keyboard-response","18","84708","0.0-8.0-0.5","SS1613139982515","","","null","","","","","<p><img src= images/blank.png width =""200"" height = ""200"" style = ""float:right""></p><p><img src=images/blank.png width =""800"" height = ""200""></p>","","","","","","","","","","","",""
"","396.57500000068103","sequential-stimulus-presentation","19","85911","0.0-8.0-1.5","SS1613139982515","trial","","40","800","1196.575000000681","images/stimuli/spore_stims/complex_13_A_d.gif","images/stimuli/spore_stims/complex_13_B_d.gif","","","","","0","complex_similar","images/stimuli/spore_stims/complex_13_A_d.gif","middle","","","","",""
"","null","html-keyboard-response","20","87139","0.0-8.0-0.6","SS1613139982515","","","null","","","","","<p><img src= images/blank.png width =""200"" height = ""200"" style = ""float:right""></p><p><img src=images/blank.png width =""800"" height = ""200""></p>","","","","","","","","","","","",""
"","106.60000000006403","sequential-stimulus-presentation","21","88054","0.0-8.0-1.6","SS1613139982515","trial","","40","800","906.600000000064","images/stimuli/spore_stims/complex_13_A_d.gif","images/stimuli/spore_stims/complex_13_B_d.gif","","","","","0","complex_similar","images/stimuli/spore_stims/complex_13_B_d.gif","left","","","","",""
"","null","html-keyboard-response","22","89203","0.0-8.0-0.7","SS1613139982515","","","null","","","","","<p><img src= images/blank.png width =""200"" height = ""200"" style = ""float:right""></p><p><img src=images/blank.png width =""800"" height = ""200""></p>","","","","","","","","","","","",""
"","449.3050000000949","sequential-stimulus-presentation","23","90478","0.0-8.0-1.7","SS1613139982515","trial","","40","800","1249.3050000000949","images/stimuli/spore_stims/complex_13_A_d.gif","images/stimuli/spore_stims/complex_13_B_d.gif","","","","","0","complex_similar","images/stimuli/spore_stims/complex_13_B_d.gif","left","","","","",""
"","3338.5749999997643","html-keyboard-response","24","93822","0.0-9.0","SS1613139982515","pref_question","","98","","","","","<video width ='960' height = '540' style='padding-top:8%' autoplay muted><source src='images/stimuli/wall_pref.mp4' type='video/mp4'></video>","2","middle","45%","0","","","","","","","",""
"","2542.059999999765","sequential-stimulus-presentation","25","97174","0.0-10.0","SS1613139982515","pref_reveal","","40","800","3342.059999999765","null","null","","","","","0","","","","deviant","","","",""
"","null","html-keyboard-response","26","98147","0.0-11.0-0.0","SS1613139982515","","","null","","","","","<p><img src= images/blank.png width =""200"" height = ""200"" style = ""float:right""></p><p><img src=images/blank.png width =""800"" height = ""200""></p>","","","","","","","","","","","",""
"","804.1599999996834","sequential-stimulus-presentation","27","99758","0.0-11.0-1.0","SS1613139982515","trial","","40","800","1604.1599999996834","images/stimuli/spore_stims/simple_06_A_b.gif","images/stimuli/spore_stims/simple_03_B_d.gif","","","","","1","simple_dissimilar","images/stimuli/spore_stims/simple_03_B_d.gif","right","","","","",""
"","null","html-keyboard-response","28","100996","0.0-11.0-0.1","SS1613139982515","","","null","","","","","<p><img src= images/blank.png width =""200"" height = ""200"" style = ""float:right""></p><p><img src=images/blank.png width =""800"" height = ""200""></p>","","","","","","","","","","","",""
"","610.0599999999977","sequential-stimulus-presentation","29","102413","0.0-11.0-1.1","SS1613139982515","trial","","40","800","1410.0599999999977","images/stimuli/spore_stims/simple_06_A_b.gif","images/stimuli/spore_stims/simple_03_B_d.gif","","","","","1","simple_dissimilar","images/stimuli/spore_stims/simple_03_B_d.gif","right","","","","",""
"","null","html-keyboard-response","30","103420","0.0-11.0-0.2","SS1613139982515","","","null","","","","","<p><img src= images/blank.png width =""200"" height = ""200"" style = ""float:right""></p><p><img src=images/blank.png width =""800"" height = ""200""></p>","","","","","","","","","","","",""
"","674.9399999998568","sequential-stimulus-presentation","31","104901","0.0-11.0-1.2","SS1613139982515","trial","","40","800","1474.9399999998568","images/stimuli/spore_stims/simple_06_A_b.gif","images/stimuli/spore_stims/simple_03_B_d.gif","","","","","1","simple_dissimilar","images/stimuli/spore_stims/simple_06_A_b.gif","left","","","","",""
"","null","html-keyboard-response","32","106023","0.0-11.0-0.3","SS1613139982515","","","null","","","","","<p><img src= images/blank.png width =""200"" height = ""200"" style = ""float:right""></p><p><img src=images/blank.png width =""800"" height = ""200""></p>","","","","","","","","","","","",""
"","519.9300000004005","sequential-stimulus-presentation","33","107349","0.0-11.0-1.3","SS1613139982515","trial","","40","800","1319.9300000004005","images/stimuli/spore_stims/simple_06_A_b.gif","images/stimuli/spore_stims/simple_03_B_d.gif","","","","","1","simple_dissimilar","images/stimuli/spore_stims/simple_03_B_d.gif","right","","","","",""
"","null","html-keyboard-response","34","108223","0.0-11.0-0.4","SS1613139982515","","","null","","","","","<p><img src= images/blank.png width =""200"" height = ""200"" style = ""float:right""></p><p><img src=images/blank.png width =""800"" height = ""200""></p>","","","","","","","","","","","",""
"","487.4049999998533","sequential-stimulus-presentation","35","109517","0.0-11.0-1.4","SS1613139982515","trial","","40","800","1287.4049999998533","images/stimuli/spore_stims/simple_06_A_b.gif","images/stimuli/spore_stims/simple_03_B_d.gif","","","","","1","simple_dissimilar","images/stimuli/spore_stims/simple_03_B_d.gif","right","","","","",""
"","null","html-keyboard-response","36","110563","0.0-11.0-0.5","SS1613139982515","","","null","","","","","<p><img src= images/blank.png width =""200"" height = ""200"" style = ""float:right""></p><p><img src=images/blank.png width =""800"" height = ""200""></p>","","","","","","","","","","","",""
"","507.74999999976717","sequential-stimulus-presentation","37","111878","0.0-11.0-1.5","SS1613139982515","trial","","40","800","1307.7499999997672","images/stimuli/spore_stims/simple_06_A_b.gif","images/stimuli/spore_stims/simple_03_B_d.gif","","","","","1","simple_dissimilar","images/stimuli/spore_stims/simple_03_B_d.gif","right","","","","",""
"","null","html-keyboard-response","38","112728","0.0-11.0-0.6","SS1613139982515","","","null","","","","","<p><img src= images/blank.png width =""200"" height = ""200"" style = ""float:right""></p><p><img src=images/blank.png width =""800"" height = ""200""></p>","","","","","","","","","","","",""
"","429.38500000035856","sequential-stimulus-presentation","39","113965","0.0-11.0-1.6","SS1613139982515","trial","","40","800","1229.3850000003586","images/stimuli/spore_stims/simple_06_A_b.gif","images/stimuli/spore_stims/simple_03_B_d.gif","","","","","1","simple_dissimilar","images/stimuli/spore_stims/simple_03_B_d.gif","right","","","","",""
"","null","html-keyboard-response","40","115111","0.0-11.0-0.7","SS1613139982515","","","null","","","","","<p><img src= images/blank.png width =""200"" height = ""200"" style = ""float:right""></p><p><img src=images/blank.png width =""800"" height = ""200""></p>","","","","","","","","","","","",""
"","448.045000000071","sequential-stimulus-presentation","41","116365","0.0-11.0-1.7","SS1613139982515","trial","","40","800","1248.045000000071","images/stimuli/spore_stims/simple_06_A_b.gif","images/stimuli/spore_stims/simple_03_B_d.gif","","","","","1","simple_dissimilar","images/stimuli/spore_stims/simple_03_B_d.gif","right","","","","",""
"","2506.804999999993","html-keyboard-response","42","118877","0.0-12.0","SS1613139982515","pref_question","","98","","","","","<video width ='960' height = '540' style='padding-top:8%' autoplay muted><source src='images/stimuli/wall_pref.mp4' type='video/mp4'></video>","2","middle","45%","1","","","","","","","",""
"","1136.6549999993294","sequential-stimulus-presentation","43","120821","0.0-13.0","SS1613139982515","pref_reveal","","40","800","1936.6549999993294","null","null","","","","","1","","","","novel","","","",""
"","null","html-keyboard-response","44","121750","0.0-14.0-0.0","SS1613139982515","","","null","","","","","<p><img src= images/blank.png width =""200"" height = ""200"" style = ""float:right""></p><p><img src=images/blank.png width =""800"" height = ""200""></p>","","","","","","","","","","","",""
"","428.9750000007334","sequential-stimulus-presentation","45","123005","0.0-14.0-1.0","SS1613139982515","trial","","40","800","1228.9750000007334","images/stimuli/spore_stims/simple_19_B_a.gif","images/stimuli/spore_stims/simple_20_A_d.gif","","","","","2","simple_dissimilar","images/stimuli/spore_stims/simple_20_A_d.gif","left","","","","",""
"","null","html-keyboard-response","46","124118","0.0-14.0-0.1","SS1613139982515","","","null","","","","","<p><img src= images/blank.png width =""200"" height = ""200"" style = ""float:right""></p><p><img src=images/blank.png width =""800"" height = ""200""></p>","","","","","","","","","","","",""
"","569.5600000008126","sequential-stimulus-presentation","47","125501","0.0-14.0-1.1","SS1613139982515","trial","","40","800","1369.5600000008126","images/stimuli/spore_stims/simple_19_B_a.gif","images/stimuli/spore_stims/simple_20_A_d.gif","","","","","2","simple_dissimilar","images/stimuli/spore_stims/simple_20_A_d.gif","left","","","","",""
"","null","html-keyboard-response","48","126306","0.0-14.0-0.2","SS1613139982515","","","null","","","","","<p><img src= images/blank.png width =""200"" height = ""200"" style = ""float:right""></p><p><img src=images/blank.png width =""800"" height = ""200""></p>","","","","","","","","","","","",""
"","355.38999999972293","sequential-stimulus-presentation","49","127469","0.0-14.0-1.2","SS1613139982515","trial","","40","800","1155.389999999723","images/stimuli/spore_stims/simple_19_B_a.gif","images/stimuli/spore_stims/simple_20_A_d.gif","","","","","2","simple_dissimilar","images/stimuli/spore_stims/simple_20_A_d.gif","left","","","","",""
"","null","html-keyboard-response","50","128568","0.0-14.0-0.3","SS1613139982515","","","null","","","","","<p><img src= images/blank.png width =""200"" height = ""200"" style = ""float:right""></p><p><img src=images/blank.png width =""800"" height = ""200""></p>","","","","","","","","","","","",""
"","325.3350000004575","sequential-stimulus-presentation","51","129701","0.0-14.0-1.3","SS1613139982515","trial","","40","800","1125.3350000004575","images/stimuli/spore_stims/simple_19_B_a.gif","images/stimuli/spore_stims/simple_20_A_d.gif","","","","","2","simple_dissimilar","images/stimuli/spore_stims/simple_20_A_d.gif","left","","","","",""
"","null","html-keyboard-response","52","130974","0.0-14.0-0.4","SS1613139982515","","","null","","","","","<p><img src= images/blank.png width =""200"" height = ""200"" style = ""float:right""></p><p><img src=images/blank.png width =""800"" height = ""200""></p>","","","","","","","","","","","",""
"","206.1899999998859","sequential-stimulus-presentation","53","131989","0.0-14.0-1.4","SS1613139982515","trial","","40","800","1006.1899999998859","images/stimuli/spore_stims/simple_19_B_a.gif","images/stimuli/spore_stims/simple_20_A_d.gif","","","","","2","simple_dissimilar","images/stimuli/spore_stims/simple_20_A_d.gif","left","","","","",""
"","null","html-keyboard-response","54","133103","0.0-14.0-0.5","SS1613139982515","","","null","","","","","<p><img src= images/blank.png width =""200"" height = ""200"" style = ""float:right""></p><p><img src=images/blank.png width =""800"" height = ""200""></p>","","","","","","","","","","","",""
"","605.9450000002398","sequential-stimulus-presentation","55","134518","0.0-14.0-1.5","SS1613139982515","trial","","40","800","1405.9450000002398","images/stimuli/spore_stims/simple_19_B_a.gif","images/stimuli/spore_stims/simple_20_A_d.gif","","","","","2","simple_dissimilar","images/stimuli/spore_stims/simple_19_B_a.gif","right","","","","",""
"","null","html-keyboard-response","56","135571","0.0-14.0-0.6","SS1613139982515","","","null","","","","","<p><img src= images/blank.png width =""200"" height = ""200"" style = ""float:right""></p><p><img src=images/blank.png width =""800"" height = ""200""></p>","","","","","","","","","","","",""
"","9.519999999611173","sequential-stimulus-presentation","57","136388","0.0-14.0-1.6","SS1613139982515","trial","","40","800","809.5199999996112","images/stimuli/spore_stims/simple_19_B_a.gif","images/stimuli/spore_stims/simple_20_A_d.gif","","","","","2","simple_dissimilar","images/stimuli/spore_stims/simple_20_A_d.gif","left","","","","",""
"","null","html-keyboard-response","58","137348","0.0-14.0-0.7","SS1613139982515","","","null","","","","","<p><img src= images/blank.png width =""200"" height = ""200"" style = ""float:right""></p><p><img src=images/blank.png width =""800"" height = ""200""></p>","","","","","","","","","","","",""
"","269.7950000001583","sequential-stimulus-presentation","59","138446","0.0-14.0-1.7","SS1613139982515","trial","","40","800","1069.7950000001583","images/stimuli/spore_stims/simple_19_B_a.gif","images/stimuli/spore_stims/simple_20_A_d.gif","","","","","2","simple_dissimilar","images/stimuli/spore_stims/simple_20_A_d.gif","left","","","","",""
"","1485.625000000262","html-keyboard-response","60","139941","0.0-15.0","SS1613139982515","pref_question","","97","","","","","<video width ='960' height = '540' style='padding-top:8%' autoplay muted><source src='images/stimuli/wall_pref.mp4' type='video/mp4'></video>","1","left","25%","2","","","","","","","",""
"","5440.010000000242","sequential-stimulus-presentation","61","146190","0.0-16.0","SS1613139982515","pref_reveal","","40","800","6240.010000000242","null","null","","","","","2","","","","background","","","",""
"","null","html-keyboard-response","62","147033","0.0-17.0-0.0","SS1613139982515","","","null","","","","","<p><img src= images/blank.png width =""200"" height = ""200"" style = ""float:right""></p><p><img src=images/blank.png width =""800"" height = ""200""></p>","","","","","","","","","","","",""
"","3242.2850000002654","sequential-stimulus-presentation","63","151085","0.0-17.0-1.0","SS1613139982515","trial","","40","800","4042.2850000002654","images/stimuli/spore_stims/complex_01_A_b.gif","images/stimuli/spore_stims/complex_14_A_c.gif","","","","","3","complex_dissimilar","images/stimuli/spore_stims/complex_14_A_c.gif","left","","","","",""
"","null","html-keyboard-response","64","152359","0.0-17.0-0.1","SS1613139982515","","","null","","","","","<p><img src= images/blank.png width =""200"" height = ""200"" style = ""float:right""></p><p><img src=images/blank.png width =""800"" height = ""200""></p>","","","","","","","","","","","",""
"","781.4550000002782","sequential-stimulus-presentation","65","153950","0.0-17.0-1.1","SS1613139982515","trial","","40","800","1581.4550000002782","images/stimuli/spore_stims/complex_01_A_b.gif","images/stimuli/spore_stims/complex_14_A_c.gif","","","","","3","complex_dissimilar","images/stimuli/spore_stims/complex_14_A_c.gif","left","","","","",""
"","null","html-keyboard-response","66","155199","0.0-17.0-0.2","SS1613139982515","","","null","","","","","<p><img src= images/blank.png width =""200"" height = ""200"" style = ""float:right""></p><p><img src=images/blank.png width =""800"" height = ""200""></p>","","","","","","","","","","","",""
"","709.5899999994726","sequential-stimulus-presentation","67","156718","0.0-17.0-1.2","SS1613139982515","trial","","40","800","1509.5899999994726","images/stimuli/spore_stims/complex_01_A_b.gif","images/stimuli/spore_stims/complex_14_A_c.gif","","","","","3","complex_dissimilar","images/stimuli/spore_stims/complex_14_A_c.gif","left","","","","",""
"","null","html-keyboard-response","68","157582","0.0-17.0-0.3","SS1613139982515","","","null","","","","","<p><img src= images/blank.png width =""200"" height = ""200"" style = ""float:right""></p><p><img src=images/blank.png width =""800"" height = ""200""></p>","","","","","","","","","","","",""
"","854.6399999995483","sequential-stimulus-presentation","69","159245","0.0-17.0-1.3","SS1613139982515","trial","","40","800","1654.6399999995483","images/stimuli/spore_stims/complex_01_A_b.gif","images/stimuli/spore_stims/complex_14_A_c.gif","","","","","3","complex_dissimilar","images/stimuli/spore_stims/complex_14_A_c.gif","left","","","","",""
"","null","html-keyboard-response","70","160438","0.0-17.0-0.4","SS1613139982515","","","null","","","","","<p><img src= images/blank.png width =""200"" height = ""200"" style = ""float:right""></p><p><img src=images/blank.png width =""800"" height = ""200""></p>","","","","","","","","","","","",""
"","62.380000000295695","sequential-stimulus-presentation","71","161308","0.0-17.0-1.4","SS1613139982515","trial","","40","800","862.3800000002957","images/stimuli/spore_stims/complex_01_A_b.gif","images/stimuli/spore_stims/complex_14_A_c.gif","","","","","3","complex_dissimilar","images/stimuli/spore_stims/complex_01_A_b.gif","middle","","","","",""
"","null","html-keyboard-response","72","162151","0.0-17.0-0.5","SS1613139982515","","","null","","","","","<p><img src= images/blank.png width =""200"" height = ""200"" style = ""float:right""></p><p><img src=images/blank.png width =""800"" height = ""200""></p>","","","","","","","","","","","",""
"","341.4800000000396","sequential-stimulus-presentation","73","163301","0.0-17.0-1.5","SS1613139982515","trial","","40","800","1141.4800000000396","images/stimuli/spore_stims/complex_01_A_b.gif","images/stimuli/spore_stims/complex_14_A_c.gif","","","","","3","complex_dissimilar","images/stimuli/spore_stims/complex_14_A_c.gif","left","","","","",""
"","null","html-keyboard-response","74","164216","0.0-17.0-0.6","SS1613139982515","","","null","","","","","<p><img src= images/blank.png width =""200"" height = ""200"" style = ""float:right""></p><p><img src=images/blank.png width =""800"" height = ""200""></p>","","","","","","","","","","","",""
"","476.36500000042724","sequential-stimulus-presentation","75","165500","0.0-17.0-1.6","SS1613139982515","trial","","40","800","1276.3650000004272","images/stimuli/spore_stims/complex_01_A_b.gif","images/stimuli/spore_stims/complex_14_A_c.gif","","","","","3","complex_dissimilar","images/stimuli/spore_stims/complex_14_A_c.gif","left","","","","",""
"","null","html-keyboard-response","76","166653","0.0-17.0-0.7","SS1613139982515","","","null","","","","","<p><img src= images/blank.png width =""200"" height = ""200"" style = ""float:right""></p><p><img src=images/blank.png width =""800"" height = ""200""></p>","","","","","","","","","","","",""
"","594.7499999993015","sequential-stimulus-presentation","77","168061","0.0-17.0-1.7","SS1613139982515","trial","","40","800","1394.7499999993015","images/stimuli/spore_stims/complex_01_A_b.gif","images/stimuli/spore_stims/complex_14_A_c.gif","","","","","3","complex_dissimilar","images/stimuli/spore_stims/complex_14_A_c.gif","left","","","","",""
"","1908.779999999766","html-keyboard-response","78","169997","0.0-18.0","SS1613139982515","pref_question","","99","","","","","<video width ='960' height = '540' style='padding-top:8%' autoplay muted><source src='images/stimuli/wall_pref.mp4' type='video/mp4'></video>","3","right","66%","3","","","","","","","",""
"","7205.315000000148","sequential-stimulus-presentation","79","178012","0.0-19.0","SS1613139982515","pref_reveal","","40","800","8005.315000000148","null","null","","","","","3","","","","novel","","","",""
"","null","html-keyboard-response","80","179642","0.0-20.0-0.0","SS1613139982515","","","null","","","","","<p><img src= images/blank.png width =""200"" height = ""200"" style = ""float:right""></p><p><img src=images/blank.png width =""800"" height = ""200""></p>","","","","","","","","","","","",""
"","1200.2699999993492","sequential-stimulus-presentation","81","181845","0.0-20.0-1.0","SS1613139982515","trial","","40","800","2000.2699999993492","images/stimuli/spore_stims/simple_08_A_c.gif","images/stimuli/spore_stims/simple_04_B_a.gif","","","","","4","simple_dissimilar","images/stimuli/spore_stims/simple_04_B_a.gif","right","","","","",""
"","null","html-keyboard-response","82","182863","0.0-20.0-0.1","SS1613139982515","","","null","","","","","<p><img src= images/blank.png width =""200"" height = ""200"" style = ""float:right""></p><p><img src=images/blank.png width =""800"" height = ""200""></p>","","","","","","","","","","","",""
"","17977.5549999995","sequential-stimulus-presentation","83","202622","0.0-20.0-1.1","SS1613139982515","trial","","40","800","18777.5549999995","images/stimuli/spore_stims/simple_08_A_c.gif","images/stimuli/spore_stims/simple_04_B_a.gif","","","","","4","simple_dissimilar","images/stimuli/spore_stims/simple_04_B_a.gif","right","","","","",""
"","null","html-keyboard-response","84","204646","0.0-20.0-0.2","SS1613139982515","","","null","","","","","<p><img src= images/blank.png width =""200"" height = ""200"" style = ""float:right""></p><p><img src=images/blank.png width =""800"" height = ""200""></p>","","","","","","","","","","","",""
"","3065.010000000242","sequential-stimulus-presentation","85","208709","0.0-20.0-1.2","SS1613139982515","trial","","40","800","3865.010000000242","images/stimuli/spore_stims/simple_08_A_c.gif","images/stimuli/spore_stims/simple_04_B_a.gif","","","","","4","simple_dissimilar","images/stimuli/spore_stims/simple_08_A_c.gif","middle","","","","",""
"","null","html-keyboard-response","86","210644","0.0-20.0-0.3","SS1613139982515","","","null","","","","","<p><img src= images/blank.png width =""200"" height = ""200"" style = ""float:right""></p><p><img src=images/blank.png width =""800"" height = ""200""></p>","","","","","","","","","","","",""
"","347.60499999992317","sequential-stimulus-presentation","87","211805","0.0-20.0-1.3","SS1613139982515","trial","","40","800","1147.6049999999232","images/stimuli/spore_stims/simple_08_A_c.gif","images/stimuli/spore_stims/simple_04_B_a.gif","","","","","4","simple_dissimilar","images/stimuli/spore_stims/simple_04_B_a.gif","right","","","","",""
"","null","html-keyboard-response","88","212758","0.0-20.0-0.4","SS1613139982515","","","null","","","","","<p><img src= images/blank.png width =""200"" height = ""200"" style = ""float:right""></p><p><img src=images/blank.png width =""800"" height = ""200""></p>","","","","","","","","","","","",""
"","615.5349999999162","sequential-stimulus-presentation","89","214181","0.0-20.0-1.4","SS1613139982515","trial","","40","800","1415.5349999999162","images/stimuli/spore_stims/simple_08_A_c.gif","images/stimuli/spore_stims/simple_04_B_a.gif","","","","","4","simple_dissimilar","images/stimuli/spore_stims/simple_04_B_a.gif","right","","","","",""
"","null","html-keyboard-response","90","215231","0.0-20.0-0.5","SS1613139982515","","","null","","","","","<p><img src= images/blank.png width =""200"" height = ""200"" style = ""float:right""></p><p><img src=images/blank.png width =""800"" height = ""200""></p>","","","","","","","","","","","",""
"","387.87500000034925","sequential-stimulus-presentation","91","216430","0.0-20.0-1.5","SS1613139982515","trial","","40","800","1187.8750000003492","images/stimuli/spore_stims/simple_08_A_c.gif","images/stimuli/spore_stims/simple_04_B_a.gif","","","","","4","simple_dissimilar","images/stimuli/spore_stims/simple_04_B_a.gif","right","","","","",""
"","null","html-keyboard-response","92","217477","0.0-20.0-0.6","SS1613139982515","","","null","","","","","<p><img src= images/blank.png width =""200"" height = ""200"" style = ""float:right""></p><p><img src=images/blank.png width =""800"" height = ""200""></p>","","","","","","","","","","","",""
"","1070.1600000002072","sequential-stimulus-presentation","93","219357","0.0-20.0-1.6","SS1613139982515","trial","","40","800","1870.1600000002072","images/stimuli/spore_stims/simple_08_A_c.gif","images/stimuli/spore_stims/simple_04_B_a.gif","","","","","4","simple_dissimilar","images/stimuli/spore_stims/simple_04_B_a.gif","right","","","","",""
"","null","html-keyboard-response","94","220297","0.0-20.0-0.7","SS1613139982515","","","null","","","","","<p><img src= images/blank.png width =""200"" height = ""200"" style = ""float:right""></p><p><img src=images/blank.png width =""800"" height = ""200""></p>","","","","","","","","","","","",""
"","363.0549999997893","sequential-stimulus-presentation","95","221469","0.0-20.0-1.7","SS1613139982515","trial","","40","800","1163.0549999997893","images/stimuli/spore_stims/simple_08_A_c.gif","images/stimuli/spore_stims/simple_04_B_a.gif","","","","","4","simple_dissimilar","images/stimuli/spore_stims/simple_04_B_a.gif","right","","","","",""
"","1856.0000000006694","html-keyboard-response","96","223333","0.0-21.0","SS1613139982515","pref_question","","99","","","","","<video width ='960' height = '540' style='padding-top:8%' autoplay muted><source src='images/stimuli/wall_pref.mp4' type='video/mp4'></video>","3","right","66%","4","","","","","","","",""
"","4536.430000000109","sequential-stimulus-presentation","97","228677","0.0-22.0","SS1613139982515","pref_reveal","","40","800","5336.430000000109","null","null","","","","","4","","","","background","","","",""
"","null","html-keyboard-response","98","229977","0.0-23.0-0.0","SS1613139982515","","","null","","","","","<p><img src= images/blank.png width =""200"" height = ""200"" style = ""float:right""></p><p><img src=images/blank.png width =""800"" height = ""200""></p>","","","","","","","","","","","",""
"","337.1749999996391","sequential-stimulus-presentation","99","231125","0.0-23.0-1.0","SS1613139982515","trial","","40","800","1137.174999999639","images/stimuli/spore_stims/complex_16_A_c.gif","images/stimuli/spore_stims/complex_16_B_c.gif","","","","","5","complex_similar","images/stimuli/spore_stims/complex_16_B_c.gif","left","","","","",""
"","null","html-keyboard-response","100","232234","0.0-23.0-0.1","SS1613139982515","","","null","","","","","<p><img src= images/blank.png width =""200"" height = ""200"" style = ""float:right""></p><p><img src=images/blank.png width =""800"" height = ""200""></p>","","","","","","","","","","","",""
"","1506.1500000001397","sequential-stimulus-presentation","101","234549","0.0-23.0-1.1","SS1613139982515","trial","","40","800","2306.1500000001397","images/stimuli/spore_stims/complex_16_A_c.gif","images/stimuli/spore_stims/complex_16_B_c.gif","","","","","5","complex_similar","images/stimuli/spore_stims/complex_16_B_c.gif","left","","","","",""
"","null","html-keyboard-response","102","235662","0.0-23.0-0.2","SS1613139982515","","","null","","","","","<p><img src= images/blank.png width =""200"" height = ""200"" style = ""float:right""></p><p><img src=images/blank.png width =""800"" height = ""200""></p>","","","","","","","","","","","",""
"","1108.189999999886","sequential-stimulus-presentation","103","237580","0.0-23.0-1.2","SS1613139982515","trial","","40","800","1908.189999999886","images/stimuli/spore_stims/complex_16_A_c.gif","images/stimuli/spore_stims/complex_16_B_c.gif","","","","","5","complex_similar","images/stimuli/spore_stims/complex_16_B_c.gif","left","","","","",""
"","null","html-keyboard-response","104","238693","0.0-23.0-0.3","SS1613139982515","","","null","","","","","<p><img src= images/blank.png width =""200"" height = ""200"" style = ""float:right""></p><p><img src=images/blank.png width =""800"" height = ""200""></p>","","","","","","","","","","","",""
"","583.7000000001281","sequential-stimulus-presentation","105","240093","0.0-23.0-1.3","SS1613139982515","trial","","40","800","1383.700000000128","images/stimuli/spore_stims/complex_16_A_c.gif","images/stimuli/spore_stims/complex_16_B_c.gif","","","","","5","complex_similar","images/stimuli/spore_stims/complex_16_B_c.gif","left","","","","",""
"","null","html-keyboard-response","106","241035","0.0-23.0-0.4","SS1613139982515","","","null","","","","","<p><img src= images/blank.png width =""200"" height = ""200"" style = ""float:right""></p><p><img src=images/blank.png width =""800"" height = ""200""></p>","","","","","","","","","","","",""
"","3350.325000000361","sequential-stimulus-presentation","107","245196","0.0-23.0-1.4","SS1613139982515","trial","","40","800","4150.325000000361","images/stimuli/spore_stims/complex_16_A_c.gif","images/stimuli/spore_stims/complex_16_B_c.gif","","","","","5","complex_similar","images/stimuli/spore_stims/complex_16_B_c.gif","left","","","","",""
"","null","html-keyboard-response","108","246193","0.0-23.0-0.5","SS1613139982515","","","null","","","","","<p><img src= images/blank.png width =""200"" height = ""200"" style = ""float:right""></p><p><img src=images/blank.png width =""800"" height = ""200""></p>","","","","","","","","","","","",""
"","1304.979999999865","sequential-stimulus-presentation","109","248309","0.0-23.0-1.5","SS1613139982515","trial","","40","800","2104.979999999865","images/stimuli/spore_stims/complex_16_A_c.gif","images/stimuli/spore_stims/complex_16_B_c.gif","","","","","5","complex_similar","images/stimuli/spore_stims/complex_16_A_c.gif","middle","","","","",""
"","null","html-keyboard-response","110","249208","0.0-23.0-0.6","SS1613139982515","","","null","","","","","<p><img src= images/blank.png width =""200"" height = ""200"" style = ""float:right""></p><p><img src=images/blank.png width =""800"" height = ""200""></p>","","","","","","","","","","","",""
"","377.3399999999674","sequential-stimulus-presentation","111","250413","0.0-23.0-1.6","SS1613139982515","trial","","40","800","1177.3399999999674","images/stimuli/spore_stims/complex_16_A_c.gif","images/stimuli/spore_stims/complex_16_B_c.gif","","","","","5","complex_similar","images/stimuli/spore_stims/complex_16_B_c.gif","left","","","","",""
"","null","html-keyboard-response","112","251349","0.0-23.0-0.7","SS1613139982515","","","null","","","","","<p><img src= images/blank.png width =""200"" height = ""200"" style = ""float:right""></p><p><img src=images/blank.png width =""800"" height = ""200""></p>","","","","","","","","","","","",""
"","189.61999999923864","sequential-stimulus-presentation","113","252348","0.0-23.0-1.7","SS1613139982515","trial","","40","800","989.6199999992386","images/stimuli/spore_stims/complex_16_A_c.gif","images/stimuli/spore_stims/complex_16_B_c.gif","","","","","5","complex_similar","images/stimuli/spore_stims/complex_16_B_c.gif","left","","","","",""
"","1466.779999999737","html-keyboard-response","114","253820","0.0-24.0","SS1613139982515","pref_question","","99","","","","","<video width ='960' height = '540' style='padding-top:8%' autoplay muted><source src='images/stimuli/wall_pref.mp4' type='video/mp4'></video>","3","right","66%","5","","","","","","","",""
"","2670.485000000568","sequential-stimulus-presentation","115","257300","0.0-25.0","SS1613139982515","pref_reveal","","40","800","3470.485000000568","null","null","","","","","5","","","","novel","","","",""
"","null","html-keyboard-response","116","258297","0.0-26.0-0.0","SS1613139982515","","","null","","","","","<p><img src= images/blank.png width =""200"" height = ""200"" style = ""float:right""></p><p><img src=images/blank.png width =""800"" height = ""200""></p>","","","","","","","","","","","",""
"","263.9149999995134","sequential-stimulus-presentation","117","259372","0.0-26.0-1.0","SS1613139982515","trial","","40","800","1063.9149999995134","images/stimuli/spore_stims/complex_05_A_b.gif","images/stimuli/spore_stims/complex_17_A_c.gif","","","","","6","complex_dissimilar","images/stimuli/spore_stims/complex_17_A_c.gif","right","","","","",""
"","null","html-keyboard-response","118","260289","0.0-26.0-0.1","SS1613139982515","","","null","","","","","<p><img src= images/blank.png width =""200"" height = ""200"" style = ""float:right""></p><p><img src=images/blank.png width =""800"" height = ""200""></p>","","","","","","","","","","","",""
"","131.46499999950174","sequential-stimulus-presentation","119","261230","0.0-26.0-1.1","SS1613139982515","trial","","40","800","931.4649999995017","images/stimuli/spore_stims/complex_05_A_b.gif","images/stimuli/spore_stims/complex_17_A_c.gif","","","","","6","complex_dissimilar","images/stimuli/spore_stims/complex_17_A_c.gif","right","","","","",""
"","null","html-keyboard-response","120","262093","0.0-26.0-0.2","SS1613139982515","","","null","","","","","<p><img src= images/blank.png width =""200"" height = ""200"" style = ""float:right""></p><p><img src=images/blank.png width =""800"" height = ""200""></p>","","","","","","","","","","","",""
"","287.41999999963446","sequential-stimulus-presentation","121","263190","0.0-26.0-1.2","SS1613139982515","trial","","40","800","1087.4199999996345","images/stimuli/spore_stims/complex_05_A_b.gif","images/stimuli/spore_stims/complex_17_A_c.gif","","","","","6","complex_dissimilar","images/stimuli/spore_stims/complex_05_A_b.gif","middle","","","","",""
"","null","html-keyboard-response","122","264391","0.0-26.0-0.3","SS1613139982515","","","null","","","","","<p><img src= images/blank.png width =""200"" height = ""200"" style = ""float:right""></p><p><img src=images/blank.png width =""800"" height = ""200""></p>","","","","","","","","","","","",""
"","69.63999999966472","sequential-stimulus-presentation","123","265270","0.0-26.0-1.3","SS1613139982515","trial","","40","800","869.6399999996647","images/stimuli/spore_stims/complex_05_A_b.gif","images/stimuli/spore_stims/complex_17_A_c.gif","","","","","6","complex_dissimilar","images/stimuli/spore_stims/complex_17_A_c.gif","right","","","","",""
"","null","html-keyboard-response","124","266276","0.0-26.0-0.4","SS1613139982515","","","null","","","","","<p><img src= images/blank.png width =""200"" height = ""200"" style = ""float:right""></p><p><img src=images/blank.png width =""800"" height = ""200""></p>","","","","","","","","","","","",""
"","178.89999999984866","sequential-stimulus-presentation","125","267286","0.0-26.0-1.4","SS1613139982515","trial","","40","800","978.8999999998487","images/stimuli/spore_stims/complex_05_A_b.gif","images/stimuli/spore_stims/complex_17_A_c.gif","","","","","6","complex_dissimilar","images/stimuli/spore_stims/complex_17_A_c.gif","right","","","","",""
"","null","html-keyboard-response","126","268141","0.0-26.0-0.5","SS1613139982515","","","null","","","","","<p><img src= images/blank.png width =""200"" height = ""200"" style = ""float:right""></p><p><img src=images/blank.png width =""800"" height = ""200""></p>","","","","","","","","","","","",""
"","279.30999999993946","sequential-stimulus-presentation","127","269229","0.0-26.0-1.5","SS1613139982515","trial","","40","800","1079.3099999999395","images/stimuli/spore_stims/complex_05_A_b.gif","images/stimuli/spore_stims/complex_17_A_c.gif","","","","","6","complex_dissimilar","images/stimuli/spore_stims/complex_17_A_c.gif","right","","","","",""
"","null","html-keyboard-response","128","270167","0.0-26.0-0.6","SS1613139982515","","","null","","","","","<p><img src= images/blank.png width =""200"" height = ""200"" style = ""float:right""></p><p><img src=images/blank.png width =""800"" height = ""200""></p>","","","","","","","","","","","",""
"","100.40499999921303","sequential-stimulus-presentation","129","271077","0.0-26.0-1.6","SS1613139982515","trial","","40","800","900.404999999213","images/stimuli/spore_stims/complex_05_A_b.gif","images/stimuli/spore_stims/complex_17_A_c.gif","","","","","6","complex_dissimilar","images/stimuli/spore_stims/complex_17_A_c.gif","right","","","","",""
"","null","html-keyboard-response","130","272269","0.0-26.0-0.7","SS1613139982515","","","null","","","","","<p><img src= images/blank.png width =""200"" height = ""200"" style = ""float:right""></p><p><img src=images/blank.png width =""800"" height = ""200""></p>","","","","","","","","","","","",""
"","176.35499999963213","sequential-stimulus-presentation","131","273256","0.0-26.0-1.7","SS1613139982515","trial","","40","800","976.3549999996321","images/stimuli/spore_stims/complex_05_A_b.gif","images/stimuli/spore_stims/complex_17_A_c.gif","","","","","6","complex_dissimilar","images/stimuli/spore_stims/complex_17_A_c.gif","right","","","","",""
"","1527.6149999999325","html-keyboard-response","132","274790","0.0-27.0","SS1613139982515","pref_question","","98","","","","","<video width ='960' height = '540' style='padding-top:8%' autoplay muted><source src='images/stimuli/wall_pref.mp4' type='video/mp4'></video>","2","middle","45%","6","","","","","","","",""
"","2261.3100000007544","sequential-stimulus-presentation","133","277862","0.0-28.0","SS1613139982515","pref_reveal","","40","800","3061.3100000007544","null","null","","","","","6","","","","deviant","","","",""
"","null","html-keyboard-response","134","279105","0.0-29.0-0.0","SS1613139982515","","","null","","","","","<p><img src= images/blank.png width =""200"" height = ""200"" style = ""float:right""></p><p><img src=images/blank.png width =""800"" height = ""200""></p>","","","","","","","","","","","",""
"","193.9949999996461","sequential-stimulus-presentation","135","280109","0.0-29.0-1.0","SS1613139982515","trial","","40","800","993.9949999996461","images/stimuli/spore_stims/simple_11_B_d.gif","images/stimuli/spore_stims/simple_11_A_d.gif","","","","","7","simple_similar","images/stimuli/spore_stims/simple_11_A_d.gif","left","","","","",""
"","null","html-keyboard-response","136","281379","0.0-29.0-0.1","SS1613139982515","","","null","","","","","<p><img src= images/blank.png width =""200"" height = ""200"" style = ""float:right""></p><p><img src=images/blank.png width =""800"" height = ""200""></p>","","","","","","","","","","","",""
"","264.45500000042375","sequential-stimulus-presentation","137","282454","0.0-29.0-1.1","SS1613139982515","trial","","40","800","1064.4550000004238","images/stimuli/spore_stims/simple_11_B_d.gif","images/stimuli/spore_stims/simple_11_A_d.gif","","","","","7","simple_similar","images/stimuli/spore_stims/simple_11_A_d.gif","left","","","","",""
"","null","html-keyboard-response","138","283614","0.0-29.0-0.2","SS1613139982515","","","null","","","","","<p><img src= images/blank.png width =""200"" height = ""200"" style = ""float:right""></p><p><img src=images/blank.png width =""800"" height = ""200""></p>","","","","","","","","","","","",""
"","156.7399999994086","sequential-stimulus-presentation","139","284581","0.0-29.0-1.2","SS1613139982515","trial","","40","800","956.7399999994086","images/stimuli/spore_stims/simple_11_B_d.gif","images/stimuli/spore_stims/simple_11_A_d.gif","","","","","7","simple_similar","images/stimuli/spore_stims/simple_11_A_d.gif","left","","","","",""
"","null","html-keyboard-response","140","285500","0.0-29.0-0.3","SS1613139982515","","","null","","","","","<p><img src= images/blank.png width =""200"" height = ""200"" style = ""float:right""></p><p><img src=images/blank.png width =""800"" height = ""200""></p>","","","","","","","","","","","",""
"","251.24000000051456","sequential-stimulus-presentation","141","286573","0.0-29.0-1.3","SS1613139982515","trial","","40","800","1051.2400000005146","images/stimuli/spore_stims/simple_11_B_d.gif","images/stimuli/spore_stims/simple_11_A_d.gif","","","","","7","simple_similar","images/stimuli/spore_stims/simple_11_A_d.gif","left","","","","",""
"","null","html-keyboard-response","142","287487","0.0-29.0-0.4","SS1613139982515","","","null","","","","","<p><img src= images/blank.png width =""200"" height = ""200"" style = ""float:right""></p><p><img src=images/blank.png width =""800"" height = ""200""></p>","","","","","","","","","","","",""
"","282.47999999980675","sequential-stimulus-presentation","143","288581","0.0-29.0-1.4","SS1613139982515","trial","","40","800","1082.4799999998068","images/stimuli/spore_stims/simple_11_B_d.gif","images/stimuli/spore_stims/simple_11_A_d.gif","","","","","7","simple_similar","images/stimuli/spore_stims/simple_11_A_d.gif","left","","","","",""
"","null","html-keyboard-response","144","289585","0.0-29.0-0.5","SS1613139982515","","","null","","","","","<p><img src= images/blank.png width =""200"" height = ""200"" style = ""float:right""></p><p><img src=images/blank.png width =""800"" height = ""200""></p>","","","","","","","","","","","",""
"","312.074999999837","sequential-stimulus-presentation","145","290709","0.0-29.0-1.5","SS1613139982515","trial","","40","800","1112.074999999837","images/stimuli/spore_stims/simple_11_B_d.gif","images/stimuli/spore_stims/simple_11_A_d.gif","","","","","7","simple_similar","images/stimuli/spore_stims/simple_11_A_d.gif","left","","","","",""
"","null","html-keyboard-response","146","291902","0.0-29.0-0.6","SS1613139982515","","","null","","","","","<p><img src= images/blank.png width =""200"" height = ""200"" style = ""float:right""></p><p><img src=images/blank.png width =""800"" height = ""200""></p>","","","","","","","","","","","",""
"","171.26000000006752","sequential-stimulus-presentation","147","292885","0.0-29.0-1.6","SS1613139982515","trial","","40","800","971.2600000000675","images/stimuli/spore_stims/simple_11_B_d.gif","images/stimuli/spore_stims/simple_11_A_d.gif","","","","","7","simple_similar","images/stimuli/spore_stims/simple_11_A_d.gif","left","","","","",""
"","null","html-keyboard-response","148","293722","0.0-29.0-0.7","SS1613139982515","","","null","","","","","<p><img src= images/blank.png width =""200"" height = ""200"" style = ""float:right""></p><p><img src=images/blank.png width =""800"" height = ""200""></p>","","","","","","","","","","","",""
"","112.69000000087544","sequential-stimulus-presentation","149","294646","0.0-29.0-1.7","SS1613139982515","trial","","40","800","912.6900000008754","images/stimuli/spore_stims/simple_11_B_d.gif","images/stimuli/spore_stims/simple_11_A_d.gif","","","","","7","simple_similar","images/stimuli/spore_stims/simple_11_B_d.gif","right","","","","",""
"","1555.604999999574","html-keyboard-response","150","296221","0.0-30.0","SS1613139982515","pref_question","","98","","","","","<video width ='960' height = '540' style='padding-top:8%' autoplay muted><source src='images/stimuli/wall_pref.mp4' type='video/mp4'></video>","2","middle","45%","7","","","","","","","",""
"","948.0700000003562","sequential-stimulus-presentation","151","297981","0.0-31.0","SS1613139982515","pref_reveal","","40","800","1748.0700000003562","null","null","","","","","7","","","","novel","","","",""
"","null","html-keyboard-response","152","298798","0.0-32.0-0.0","SS1613139982515","","","null","","","","","<p><img src= images/blank.png width =""200"" height = ""200"" style = ""float:right""></p><p><img src=images/blank.png width =""800"" height = ""200""></p>","","","","","","","","","","","",""
"","1475.9349999994738","sequential-stimulus-presentation","153","301085","0.0-32.0-1.0","SS1613139982515","trial","","40","800","2275.934999999474","images/stimuli/spore_stims/complex_11_A_a.gif","images/stimuli/spore_stims/complex_10_B_c.gif","","","","","8","complex_dissimilar","images/stimuli/spore_stims/complex_10_B_c.gif","left","","","","",""
"","null","html-keyboard-response","154","301971","0.0-32.0-0.1","SS1613139982515","","","null","","","","","<p><img src= images/blank.png width =""200"" height = ""200"" style = ""float:right""></p><p><img src=images/blank.png width =""800"" height = ""200""></p>","","","","","","","","","","","",""
"","502.5199999999604","sequential-stimulus-presentation","155","303285","0.0-32.0-1.1","SS1613139982515","trial","","40","800","1302.5199999999604","images/stimuli/spore_stims/complex_11_A_a.gif","images/stimuli/spore_stims/complex_10_B_c.gif","","","","","8","complex_dissimilar","images/stimuli/spore_stims/complex_10_B_c.gif","left","","","","",""
"","null","html-keyboard-response","156","304320","0.0-32.0-0.2","SS1613139982515","","","null","","","","","<p><img src= images/blank.png width =""200"" height = ""200"" style = ""float:right""></p><p><img src=images/blank.png width =""800"" height = ""200""></p>","","","","","","","","","","","",""
"","227.05500000028405","sequential-stimulus-presentation","157","305357","0.0-32.0-1.2","SS1613139982515","trial","","40","800","1027.055000000284","images/stimuli/spore_stims/complex_11_A_a.gif","images/stimuli/spore_stims/complex_10_B_c.gif","","","","","8","complex_dissimilar","images/stimuli/spore_stims/complex_10_B_c.gif","left","","","","",""
"","null","html-keyboard-response","158","306412","0.0-32.0-0.3","SS1613139982515","","","null","","","","","<p><img src= images/blank.png width =""200"" height = ""200"" style = ""float:right""></p><p><img src=images/blank.png width =""800"" height = ""200""></p>","","","","","","","","","","","",""
"","406.76499999972293","sequential-stimulus-presentation","159","307629","0.0-32.0-1.3","SS1613139982515","trial","","40","800","1206.764999999723","images/stimuli/spore_stims/complex_11_A_a.gif","images/stimuli/spore_stims/complex_10_B_c.gif","","","","","8","complex_dissimilar","images/stimuli/spore_stims/complex_11_A_a.gif","middle","","","","",""
"","null","html-keyboard-response","160","308647","0.0-32.0-0.4","SS1613139982515","","","null","","","","","<p><img src= images/blank.png width =""200"" height = ""200"" style = ""float:right""></p><p><img src=images/blank.png width =""800"" height = ""200""></p>","","","","","","","","","","","",""
"","50.27499999955762","sequential-stimulus-presentation","161","309508","0.0-32.0-1.4","SS1613139982515","trial","","40","800","850.2749999995576","images/stimuli/spore_stims/complex_11_A_a.gif","images/stimuli/spore_stims/complex_10_B_c.gif","","","","","8","complex_dissimilar","images/stimuli/spore_stims/complex_10_B_c.gif","left","","","","",""
"","null","html-keyboard-response","162","310509","0.0-32.0-0.5","SS1613139982515","","","null","","","","","<p><img src= images/blank.png width =""200"" height = ""200"" style = ""float:right""></p><p><img src=images/blank.png width =""800"" height = ""200""></p>","","","","","","","","","","","",""
"","139.6750000003376","sequential-stimulus-presentation","163","311461","0.0-32.0-1.5","SS1613139982515","trial","","40","800","939.6750000003376","images/stimuli/spore_stims/complex_11_A_a.gif","images/stimuli/spore_stims/complex_10_B_c.gif","","","","","8","complex_dissimilar","images/stimuli/spore_stims/complex_10_B_c.gif","left","","","","",""
"","null","html-keyboard-response","164","312670","0.0-32.0-0.6","SS1613139982515","","","null","","","","","<p><img src= images/blank.png width =""200"" height = ""200"" style = ""float:right""></p><p><img src=images/blank.png width =""800"" height = ""200""></p>","","","","","","","","","","","",""
"","19.115000000048894","sequential-stimulus-presentation","165","313511","0.0-32.0-1.6","SS1613139982515","trial","","40","800","819.1150000000489","images/stimuli/spore_stims/complex_11_A_a.gif","images/stimuli/spore_stims/complex_10_B_c.gif","","","","","8","complex_dissimilar","images/stimuli/spore_stims/complex_10_B_c.gif","left","","","","",""
"","null","html-keyboard-response","166","314502","0.0-32.0-0.7","SS1613139982515","","","null","","","","","<p><img src= images/blank.png width =""200"" height = ""200"" style = ""float:right""></p><p><img src=images/blank.png width =""800"" height = ""200""></p>","","","","","","","","","","","",""
"","171.78500000044005","sequential-stimulus-presentation","167","315485","0.0-32.0-1.7","SS1613139982515","trial","","40","800","971.78500000044","images/stimuli/spore_stims/complex_11_A_a.gif","images/stimuli/spore_stims/complex_10_B_c.gif","","","","","8","complex_dissimilar","images/stimuli/spore_stims/complex_10_B_c.gif","left","","","","",""
"","1176.884999999893","html-keyboard-response","168","316669","0.0-33.0","SS1613139982515","pref_question","","99","","","","","<video width ='960' height = '540' style='padding-top:8%' autoplay muted><source src='images/stimuli/wall_pref.mp4' type='video/mp4'></video>","3","right","66%","8","","","","","","","",""
"","1236.210000000021","sequential-stimulus-presentation","169","318716","0.0-34.0","SS1613139982515","pref_reveal","","40","800","2036.210000000021","null","null","","","","","8","","","","novel","","","",""
"","null","html-keyboard-response","170","319650","0.0-35.0-0.0","SS1613139982515","","","null","","","","","<p><img src= images/blank.png width =""200"" height = ""200"" style = ""float:right""></p><p><img src=images/blank.png width =""800"" height = ""200""></p>","","","","","","","","","","","",""
"","82.9100000000908","sequential-stimulus-presentation","171","320550","0.0-35.0-1.0","SS1613139982515","trial","","40","800","882.9100000000908","images/stimuli/spore_stims/simple_09_B_d.gif","images/stimuli/spore_stims/simple_09_A_d.gif","","","","","9","simple_similar","images/stimuli/spore_stims/simple_09_A_d.gif","middle","","","","",""
"","null","html-keyboard-response","172","321739","0.0-35.0-0.1","SS1613139982515","","","null","","","","","<p><img src= images/blank.png width =""200"" height = ""200"" style = ""float:right""></p><p><img src=images/blank.png width =""800"" height = ""200""></p>","","","","","","","","","","","",""
"","222.93499999982305","sequential-stimulus-presentation","173","322774","0.0-35.0-1.1","SS1613139982515","trial","","40","800","1022.934999999823","images/stimuli/spore_stims/simple_09_B_d.gif","images/stimuli/spore_stims/simple_09_A_d.gif","","","","","9","simple_similar","images/stimuli/spore_stims/simple_09_A_d.gif","middle","","","","",""
"","null","html-keyboard-response","174","323823","0.0-35.0-0.2","SS1613139982515","","","null","","","","","<p><img src= images/blank.png width =""200"" height = ""200"" style = ""float:right""></p><p><img src=images/blank.png width =""800"" height = ""200""></p>","","","","","","","","","","","",""
"","281.86000000004424","sequential-stimulus-presentation","175","324934","0.0-35.0-1.2","SS1613139982515","trial","","40","800","1081.8600000000442","images/stimuli/spore_stims/simple_09_B_d.gif","images/stimuli/spore_stims/simple_09_A_d.gif","","","","","9","simple_similar","images/stimuli/spore_stims/simple_09_A_d.gif","middle","","","","",""
"","null","html-keyboard-response","176","325761","0.0-35.0-0.3","SS1613139982515","","","null","","","","","<p><img src= images/blank.png width =""200"" height = ""200"" style = ""float:right""></p><p><img src=images/blank.png width =""800"" height = ""200""></p>","","","","","","","","","","","",""
"","352.4150000003283","sequential-stimulus-presentation","177","326927","0.0-35.0-1.3","SS1613139982515","trial","","40","800","1152.4150000003283","images/stimuli/spore_stims/simple_09_B_d.gif","images/stimuli/spore_stims/simple_09_A_d.gif","","","","","9","simple_similar","images/stimuli/spore_stims/simple_09_A_d.gif","middle","","","","",""
"","null","html-keyboard-response","178","327989","0.0-35.0-0.4","SS1613139982515","","","null","","","","","<p><img src= images/blank.png width =""200"" height = ""200"" style = ""float:right""></p><p><img src=images/blank.png width =""800"" height = ""200""></p>","","","","","","","","","","","",""
"","222.51500000036322","sequential-stimulus-presentation","179","329022","0.0-35.0-1.4","SS1613139982515","trial","","40","800","1022.5150000003632","images/stimuli/spore_stims/simple_09_B_d.gif","images/stimuli/spore_stims/simple_09_A_d.gif","","","","","9","simple_similar","images/stimuli/spore_stims/simple_09_B_d.gif","right","","","","",""
"","null","html-keyboard-response","180","330116","0.0-35.0-0.5","SS1613139982515","","","null","","","","","<p><img src= images/blank.png width =""200"" height = ""200"" style = ""float:right""></p><p><img src=images/blank.png width =""800"" height = ""200""></p>","","","","","","","","","","","",""
"","219.17000000027474","sequential-stimulus-presentation","181","331166","0.0-35.0-1.5","SS1613139982515","trial","","40","800","1019.1700000002747","images/stimuli/spore_stims/simple_09_B_d.gif","images/stimuli/spore_stims/simple_09_A_d.gif","","","","","9","simple_similar","images/stimuli/spore_stims/simple_09_A_d.gif","middle","","","","",""
"","null","html-keyboard-response","182","332224","0.0-35.0-0.6","SS1613139982515","","","null","","","","","<p><img src= images/blank.png width =""200"" height = ""200"" style = ""float:right""></p><p><img src=images/blank.png width =""800"" height = ""200""></p>","","","","","","","","","","","",""
"","367.5050000001793","sequential-stimulus-presentation","183","333406","0.0-35.0-1.6","SS1613139982515","trial","","40","800","1167.5050000001793","images/stimuli/spore_stims/simple_09_B_d.gif","images/stimuli/spore_stims/simple_09_A_d.gif","","","","","9","simple_similar","images/stimuli/spore_stims/simple_09_A_d.gif","middle","","","","",""
"","null","html-keyboard-response","184","334215","0.0-35.0-0.7","SS1613139982515","","","null","","","","","<p><img src= images/blank.png width =""200"" height = ""200"" style = ""float:right""></p><p><img src=images/blank.png width =""800"" height = ""200""></p>","","","","","","","","","","","",""
"","242.96000000048662","sequential-stimulus-presentation","185","335270","0.0-35.0-1.7","SS1613139982515","trial","","40","800","1042.9600000004866","images/stimuli/spore_stims/simple_09_B_d.gif","images/stimuli/spore_stims/simple_09_A_d.gif","","","","","9","simple_similar","images/stimuli/spore_stims/simple_09_A_d.gif","middle","","","","",""
"","1400.9100000003236","html-keyboard-response","186","336678","0.0-36.0","SS1613139982515","pref_question","","97","","","","","<video width ='960' height = '540' style='padding-top:8%' autoplay muted><source src='images/stimuli/wall_pref.mp4' type='video/mp4'></video>","1","left","25%","9","","","","","","","",""
"","266.8000000003376","sequential-stimulus-presentation","187","337757","0.0-37.0","SS1613139982515","pref_reveal","","40","800","1066.8000000003376","null","null","","","","","9","","","","novel","","","",""
"","null","html-keyboard-response","188","338657","0.0-38.0-0.0","SS1613139982515","","","null","","","","","<p><img src= images/blank.png width =""200"" height = ""200"" style = ""float:right""></p><p><img src=images/blank.png width =""800"" height = ""200""></p>","","","","","","","","","","","",""
"","165.6300000004121","sequential-stimulus-presentation","189","339638","0.0-38.0-1.0","SS1613139982515","trial","","40","800","965.6300000004121","images/stimuli/spore_stims/complex_02_B_c.gif","images/stimuli/spore_stims/complex_06_A_d.gif","","","","","10","complex_dissimilar","images/stimuli/spore_stims/complex_06_A_d.gif","right","","","","",""
"","null","html-keyboard-response","190","340924","0.0-38.0-0.1","SS1613139982515","","","null","","","","","<p><img src= images/blank.png width =""200"" height = ""200"" style = ""float:right""></p><p><img src=images/blank.png width =""800"" height = ""200""></p>","","","","","","","","","","","",""
"","260.1999999997206","sequential-stimulus-presentation","191","341997","0.0-38.0-1.1","SS1613139982515","trial","","40","800","1060.1999999997206","images/stimuli/spore_stims/complex_02_B_c.gif","images/stimuli/spore_stims/complex_06_A_d.gif","","","","","10","complex_dissimilar","images/stimuli/spore_stims/complex_06_A_d.gif","right","","","","",""
"","null","html-keyboard-response","192","343205","0.0-38.0-0.2","SS1613139982515","","","null","","","","","<p><img src= images/blank.png width =""200"" height = ""200"" style = ""float:right""></p><p><img src=images/blank.png width =""800"" height = ""200""></p>","","","","","","","","","","","",""
"","234.70499999984168","sequential-stimulus-presentation","193","344253","0.0-38.0-1.2","SS1613139982515","trial","","40","800","1034.7049999998417","images/stimuli/spore_stims/complex_02_B_c.gif","images/stimuli/spore_stims/complex_06_A_d.gif","","","","","10","complex_dissimilar","images/stimuli/spore_stims/complex_06_A_d.gif","right","","","","",""
"","null","html-keyboard-response","194","345188","0.0-38.0-0.3","SS1613139982515","","","null","","","","","<p><img src= images/blank.png width =""200"" height = ""200"" style = ""float:right""></p><p><img src=images/blank.png width =""800"" height = ""200""></p>","","","","","","","","","","","",""
"","299.94499999977415","sequential-stimulus-presentation","195","346301","0.0-38.0-1.3","SS1613139982515","trial","","40","800","1099.9449999997742","images/stimuli/spore_stims/complex_02_B_c.gif","images/stimuli/spore_stims/complex_06_A_d.gif","","","","","10","complex_dissimilar","images/stimuli/spore_stims/complex_02_B_c.gif","left","","","","",""
"","null","html-keyboard-response","196","347129","0.0-38.0-0.4","SS1613139982515","","","null","","","","","<p><img src= images/blank.png width =""200"" height = ""200"" style = ""float:right""></p><p><img src=images/blank.png width =""800"" height = ""200""></p>","","","","","","","","","","","",""
"","422.5249999999651","sequential-stimulus-presentation","197","348366","0.0-38.0-1.4","SS1613139982515","trial","","40","800","1222.524999999965","images/stimuli/spore_stims/complex_02_B_c.gif","images/stimuli/spore_stims/complex_06_A_d.gif","","","","","10","complex_dissimilar","images/stimuli/spore_stims/complex_06_A_d.gif","right","","","","",""
"","null","html-keyboard-response","198","349413","0.0-38.0-0.5","SS1613139982515","","","null","","","","","<p><img src= images/blank.png width =""200"" height = ""200"" style = ""float:right""></p><p><img src=images/blank.png width =""800"" height = ""200""></p>","","","","","","","","","","","",""
"","202.75499999930616","sequential-stimulus-presentation","199","350430","0.0-38.0-1.5","SS1613139982515","trial","","40","800","1002.7549999993062","images/stimuli/spore_stims/complex_02_B_c.gif","images/stimuli/spore_stims/complex_06_A_d.gif","","","","","10","complex_dissimilar","images/stimuli/spore_stims/complex_06_A_d.gif","right","","","","",""
"","null","html-keyboard-response","200","351590","0.0-38.0-0.6","SS1613139982515","","","null","","","","","<p><img src= images/blank.png width =""200"" height = ""200"" style = ""float:right""></p><p><img src=images/blank.png width =""800"" height = ""200""></p>","","","","","","","","","","","",""
"","431.8099999999977","sequential-stimulus-presentation","201","352861","0.0-38.0-1.6","SS1613139982515","trial","","40","800","1231.8099999999977","images/stimuli/spore_stims/complex_02_B_c.gif","images/stimuli/spore_stims/complex_06_A_d.gif","","","","","10","complex_dissimilar","images/stimuli/spore_stims/complex_06_A_d.gif","right","","","","",""
"","null","html-keyboard-response","202","353870","0.0-38.0-0.7","SS1613139982515","","","null","","","","","<p><img src= images/blank.png width =""200"" height = ""200"" style = ""float:right""></p><p><img src=images/blank.png width =""800"" height = ""200""></p>","","","","","","","","","","","",""
"","217.4099999993341","sequential-stimulus-presentation","203","354901","0.0-38.0-1.7","SS1613139982515","trial","","40","800","1017.4099999993341","images/stimuli/spore_stims/complex_02_B_c.gif","images/stimuli/spore_stims/complex_06_A_d.gif","","","","","10","complex_dissimilar","images/stimuli/spore_stims/complex_06_A_d.gif","right","","","","",""
"","1224.0700000001816","html-keyboard-response","204","356133","0.0-39.0","SS1613139982515","pref_question","","98","","","","","<video width ='960' height = '540' style='padding-top:8%' autoplay muted><source src='images/stimuli/wall_pref.mp4' type='video/mp4'></video>","2","middle","45%","10","","","","","","","",""
"","690.7000000001281","sequential-stimulus-presentation","205","357637","0.0-40.0","SS1613139982515","pref_reveal","","40","800","1490.700000000128","null","null","","","","","10","","","","novel","","","",""
"","null","html-keyboard-response","206","358675","0.0-41.0-0.0","SS1613139982515","","","null","","","","","<p><img src= images/blank.png width =""200"" height = ""200"" style = ""float:right""></p><p><img src=images/blank.png width =""800"" height = ""200""></p>","","","","","","","","","","","",""
"","131.19000000006054","sequential-stimulus-presentation","207","359621","0.0-41.0-1.0","SS1613139982515","trial","","40","800","931.1900000000605","images/stimuli/spore_stims/complex_18_A_b.gif","images/stimuli/spore_stims/complex_18_B_b.gif","","","","","11","complex_similar","images/stimuli/spore_stims/complex_18_B_b.gif","right","","","","",""
"","null","html-keyboard-response","208","360875","0.0-41.0-0.1","SS1613139982515","","","null","","","","","<p><img src= images/blank.png width =""200"" height = ""200"" style = ""float:right""></p><p><img src=images/blank.png width =""800"" height = ""200""></p>","","","","","","","","","","","",""
"","25.619999999413267","sequential-stimulus-presentation","209","361716","0.0-41.0-1.1","SS1613139982515","trial","","40","800","825.6199999994133","images/stimuli/spore_stims/complex_18_A_b.gif","images/stimuli/spore_stims/complex_18_B_b.gif","","","","","11","complex_similar","images/stimuli/spore_stims/complex_18_B_b.gif","right","","","","",""
"","null","html-keyboard-response","210","362841","0.0-41.0-0.2","SS1613139982515","","","null","","","","","<p><img src= images/blank.png width =""200"" height = ""200"" style = ""float:right""></p><p><img src=images/blank.png width =""800"" height = ""200""></p>","","","","","","","","","","","",""
"","86.52499999973224","sequential-stimulus-presentation","211","363741","0.0-41.0-1.2","SS1613139982515","trial","","40","800","886.5249999997322","images/stimuli/spore_stims/complex_18_A_b.gif","images/stimuli/spore_stims/complex_18_B_b.gif","","","","","11","complex_similar","images/stimuli/spore_stims/complex_18_B_b.gif","right","","","","",""
"","null","html-keyboard-response","212","364657","0.0-41.0-0.3","SS1613139982515","","","null","","","","","<p><img src= images/blank.png width =""200"" height = ""200"" style = ""float:right""></p><p><img src=images/blank.png width =""800"" height = ""200""></p>","","","","","","","","","","","",""
"","397.8999999999651","sequential-stimulus-presentation","213","365869","0.0-41.0-1.3","SS1613139982515","trial","","40","800","1197.899999999965","images/stimuli/spore_stims/complex_18_A_b.gif","images/stimuli/spore_stims/complex_18_B_b.gif","","","","","11","complex_similar","images/stimuli/spore_stims/complex_18_B_b.gif","right","","","","",""
"","null","html-keyboard-response","214","366809","0.0-41.0-0.4","SS1613139982515","","","null","","","","","<p><img src= images/blank.png width =""200"" height = ""200"" style = ""float:right""></p><p><img src=images/blank.png width =""800"" height = ""200""></p>","","","","","","","","","","","",""
"","332.3749999999418","sequential-stimulus-presentation","215","367957","0.0-41.0-1.4","SS1613139982515","trial","","40","800","1132.3749999999418","images/stimuli/spore_stims/complex_18_A_b.gif","images/stimuli/spore_stims/complex_18_B_b.gif","","","","","11","complex_similar","images/stimuli/spore_stims/complex_18_B_b.gif","right","","","","",""
"","null","html-keyboard-response","216","368851","0.0-41.0-0.5","SS1613139982515","","","null","","","","","<p><img src= images/blank.png width =""200"" height = ""200"" style = ""float:right""></p><p><img src=images/blank.png width =""800"" height = ""200""></p>","","","","","","","","","","","",""
"","253.04500000039116","sequential-stimulus-presentation","217","369918","0.0-41.0-1.5","SS1613139982515","trial","","40","800","1053.0450000003912","images/stimuli/spore_stims/complex_18_A_b.gif","images/stimuli/spore_stims/complex_18_B_b.gif","","","","","11","complex_similar","images/stimuli/spore_stims/complex_18_A_b.gif","left","","","","",""
"","null","html-keyboard-response","218","370853","0.0-41.0-0.6","SS1613139982515","","","null","","","","","<p><img src= images/blank.png width =""200"" height = ""200"" style = ""float:right""></p><p><img src=images/blank.png width =""800"" height = ""200""></p>","","","","","","","","","","","",""
"","245.88500000030035","sequential-stimulus-presentation","219","371917","0.0-41.0-1.6","SS1613139982515","trial","","40","800","1045.8850000003004","images/stimuli/spore_stims/complex_18_A_b.gif","images/stimuli/spore_stims/complex_18_B_b.gif","","","","","11","complex_similar","images/stimuli/spore_stims/complex_18_B_b.gif","right","","","","",""
"","null","html-keyboard-response","220","372871","0.0-41.0-0.7","SS1613139982515","","","null","","","","","<p><img src= images/blank.png width =""200"" height = ""200"" style = ""float:right""></p><p><img src=images/blank.png width =""800"" height = ""200""></p>","","","","","","","","","","","",""
"","448.1249999998836","sequential-stimulus-presentation","221","374133","0.0-41.0-1.7","SS1613139982515","trial","","40","800","1248.1249999998836","images/stimuli/spore_stims/complex_18_A_b.gif","images/stimuli/spore_stims/complex_18_B_b.gif","","","","","11","complex_similar","images/stimuli/spore_stims/complex_18_B_b.gif","right","","","","",""
"","987.6149999999907","html-keyboard-response","222","375133","0.0-42.0","SS1613139982515","pref_question","","99","","","","","<video width ='960' height = '540' style='padding-top:8%' autoplay muted><source src='images/stimuli/wall_pref.mp4' type='video/mp4'></video>","3","right","66%","11","","","","","","","",""
"","768.9950000003446","sequential-stimulus-presentation","223","376716","0.0-43.0","SS1613139982515","pref_reveal","","40","800","1568.9950000003446","null","null","","","","","11","","","","background","","","",""
"","null","html-keyboard-response","224","377717","0.0-44.0-0.0","SS1613139982515","","","null","","","","","<p><img src= images/blank.png width =""200"" height = ""200"" style = ""float:right""></p><p><img src=images/blank.png width =""800"" height = ""200""></p>","","","","","","","","","","","",""
"","528.769999999844","sequential-stimulus-presentation","225","379060","0.0-44.0-1.0","SS1613139982515","trial","","40","800","1328.769999999844","images/stimuli/spore_stims/simple_16_B_a.gif","images/stimuli/spore_stims/simple_13_A_d.gif","","","","","12","simple_dissimilar","images/stimuli/spore_stims/simple_13_A_d.gif","middle","","","","",""
"","null","html-keyboard-response","226","380004","0.0-44.0-0.1","SS1613139982515","","","null","","","","","<p><img src= images/blank.png width =""200"" height = ""200"" style = ""float:right""></p><p><img src=images/blank.png width =""800"" height = ""200""></p>","","","","","","","","","","","",""
"","300.054999999702","sequential-stimulus-presentation","227","381118","0.0-44.0-1.1","SS1613139982515","trial","","40","800","1100.054999999702","images/stimuli/spore_stims/simple_16_B_a.gif","images/stimuli/spore_stims/simple_13_A_d.gif","","","","","12","simple_dissimilar","images/stimuli/spore_stims/simple_13_A_d.gif","middle","","","","",""
"","null","html-keyboard-response","228","382409","0.0-44.0-0.2","SS1613139982515","","","null","","","","","<p><img src= images/blank.png width =""200"" height = ""200"" style = ""float:right""></p><p><img src=images/blank.png width =""800"" height = ""200""></p>","","","","","","","","","","","",""
"","351.6949999993667","sequential-stimulus-presentation","229","383574","0.0-44.0-1.2","SS1613139982515","trial","","40","800","1151.6949999993667","images/stimuli/spore_stims/simple_16_B_a.gif","images/stimuli/spore_stims/simple_13_A_d.gif","","","","","12","simple_dissimilar","images/stimuli/spore_stims/simple_16_B_a.gif","right","","","","",""
"","null","html-keyboard-response","230","384413","0.0-44.0-0.3","SS1613139982515","","","null","","","","","<p><img src= images/blank.png width =""200"" height = ""200"" style = ""float:right""></p><p><img src=images/blank.png width =""800"" height = ""200""></p>","","","","","","","","","","","",""
"","523.4900000005146","sequential-stimulus-presentation","231","385750","0.0-44.0-1.3","SS1613139982515","trial","","40","800","1323.4900000005146","images/stimuli/spore_stims/simple_16_B_a.gif","images/stimuli/spore_stims/simple_13_A_d.gif","","","","","12","simple_dissimilar","images/stimuli/spore_stims/simple_13_A_d.gif","middle","","","","",""
"","null","html-keyboard-response","232","386642","0.0-44.0-0.4","SS1613139982515","","","null","","","","","<p><img src= images/blank.png width =""200"" height = ""200"" style = ""float:right""></p><p><img src=images/blank.png width =""800"" height = ""200""></p>","","","","","","","","","","","",""
"","468.394999999844","sequential-stimulus-presentation","233","387934","0.0-44.0-1.4","SS1613139982515","trial","","40","800","1268.394999999844","images/stimuli/spore_stims/simple_16_B_a.gif","images/stimuli/spore_stims/simple_13_A_d.gif","","","","","12","simple_dissimilar","images/stimuli/spore_stims/simple_13_A_d.gif","middle","","","","",""
"","null","html-keyboard-response","234","389095","0.0-44.0-0.5","SS1613139982515","","","null","","","","","<p><img src= images/blank.png width =""200"" height = ""200"" style = ""float:right""></p><p><img src=images/blank.png width =""800"" height = ""200""></p>","","","","","","","","","","","",""
"","624.4099999994505","sequential-stimulus-presentation","235","390533","0.0-44.0-1.5","SS1613139982515","trial","","40","800","1424.4099999994505","images/stimuli/spore_stims/simple_16_B_a.gif","images/stimuli/spore_stims/simple_13_A_d.gif","","","","","12","simple_dissimilar","images/stimuli/spore_stims/simple_13_A_d.gif","middle","","","","",""
"","null","html-keyboard-response","236","391819","0.0-44.0-0.6","SS1613139982515","","","null","","","","","<p><img src= images/blank.png width =""200"" height = ""200"" style = ""float:right""></p><p><img src=images/blank.png width =""800"" height = ""200""></p>","","","","","","","","","","","",""
"","315.9299999997602","sequential-stimulus-presentation","237","392949","0.0-44.0-1.6","SS1613139982515","trial","","40","800","1115.9299999997602","images/stimuli/spore_stims/simple_16_B_a.gif","images/stimuli/spore_stims/simple_13_A_d.gif","","","","","12","simple_dissimilar","images/stimuli/spore_stims/simple_13_A_d.gif","middle","","","","",""
"","null","html-keyboard-response","238","393854","0.0-44.0-0.7","SS1613139982515","","","null","","","","","<p><img src= images/blank.png width =""200"" height = ""200"" style = ""float:right""></p><p><img src=images/blank.png width =""800"" height = ""200""></p>","","","","","","","","","","","",""
"","196.94999999954598","sequential-stimulus-presentation","239","394869","0.0-44.0-1.7","SS1613139982515","trial","","40","800","996.949999999546","images/stimuli/spore_stims/simple_16_B_a.gif","images/stimuli/spore_stims/simple_13_A_d.gif","","","","","12","simple_dissimilar","images/stimuli/spore_stims/simple_13_A_d.gif","middle","","","","",""
"","615.0899999993271","html-keyboard-response","240","395509","0.0-45.0","SS1613139982515","pref_question","","99","","","","","<video width ='960' height = '540' style='padding-top:8%' autoplay muted><source src='images/stimuli/wall_pref.mp4' type='video/mp4'></video>","3","right","66%","12","","","","","","","",""
"","198.41999999969266","sequential-stimulus-presentation","241","396518","0.0-46.0","SS1613139982515","pref_reveal","","40","800","998.4199999996927","null","null","","","","","12","","","","deviant","","","",""
"","null","html-keyboard-response","242","397784","0.0-47.0-0.0","SS1613139982515","","","null","","","","","<p><img src= images/blank.png width =""200"" height = ""200"" style = ""float:right""></p><p><img src=images/blank.png width =""800"" height = ""200""></p>","","","","","","","","","","","",""
"","149.98999999987427","sequential-stimulus-presentation","243","398749","0.0-47.0-1.0","SS1613139982515","trial","","40","800","949.9899999998743","images/stimuli/spore_stims/simple_10_B_a.gif","images/stimuli/spore_stims/simple_10_A_a.gif","","","","","13","simple_similar","images/stimuli/spore_stims/simple_10_A_a.gif","left","","","","",""
"","null","html-keyboard-response","244","399738","0.0-47.0-0.1","SS1613139982515","","","null","","","","","<p><img src= images/blank.png width =""200"" height = ""200"" style = ""float:right""></p><p><img src=images/blank.png width =""800"" height = ""200""></p>","","","","","","","","","","","",""
"","349.0899999997346","sequential-stimulus-presentation","245","400901","0.0-47.0-1.1","SS1613139982515","trial","","40","800","1149.0899999997346","images/stimuli/spore_stims/simple_10_B_a.gif","images/stimuli/spore_stims/simple_10_A_a.gif","","","","","13","simple_similar","images/stimuli/spore_stims/simple_10_A_a.gif","left","","","","",""
"","null","html-keyboard-response","246","402077","0.0-47.0-0.2","SS1613139982515","","","null","","","","","<p><img src= images/blank.png width =""200"" height = ""200"" style = ""float:right""></p><p><img src=images/blank.png width =""800"" height = ""200""></p>","","","","","","","","","","","",""
"","304.9399999999441","sequential-stimulus-presentation","247","403198","0.0-47.0-1.2","SS1613139982515","trial","","40","800","1104.9399999999441","images/stimuli/spore_stims/simple_10_B_a.gif","images/stimuli/spore_stims/simple_10_A_a.gif","","","","","13","simple_similar","images/stimuli/spore_stims/simple_10_B_a.gif","middle","","","","",""
"","null","html-keyboard-response","248","404173","0.0-47.0-0.3","SS1613139982515","","","null","","","","","<p><img src= images/blank.png width =""200"" height = ""200"" style = ""float:right""></p><p><img src=images/blank.png width =""800"" height = ""200""></p>","","","","","","","","","","","",""
"","409.93500000063796","sequential-stimulus-presentation","249","405397","0.0-47.0-1.3","SS1613139982515","trial","","40","800","1209.935000000638","images/stimuli/spore_stims/simple_10_B_a.gif","images/stimuli/spore_stims/simple_10_A_a.gif","","","","","13","simple_similar","images/stimuli/spore_stims/simple_10_A_a.gif","left","","","","",""
"","null","html-keyboard-response","250","406443","0.0-47.0-0.4","SS1613139982515","","","null","","","","","<p><img src= images/blank.png width =""200"" height = ""200"" style = ""float:right""></p><p><img src=images/blank.png width =""800"" height = ""200""></p>","","","","","","","","","","","",""
"","155.29000000061933","sequential-stimulus-presentation","251","407413","0.0-47.0-1.4","SS1613139982515","trial","","40","800","955.2900000006193","images/stimuli/spore_stims/simple_10_B_a.gif","images/stimuli/spore_stims/simple_10_A_a.gif","","","","","13","simple_similar","images/stimuli/spore_stims/simple_10_A_a.gif","left","","","","",""
"","null","html-keyboard-response","252","408349","0.0-47.0-0.5","SS1613139982515","","","null","","","","","<p><img src= images/blank.png width =""200"" height = ""200"" style = ""float:right""></p><p><img src=images/blank.png width =""800"" height = ""200""></p>","","","","","","","","","","","",""
"","185.19000000017695","sequential-stimulus-presentation","253","409349","0.0-47.0-1.5","SS1613139982515","trial","","40","800","985.190000000177","images/stimuli/spore_stims/simple_10_B_a.gif","images/stimuli/spore_stims/simple_10_A_a.gif","","","","","13","simple_similar","images/stimuli/spore_stims/simple_10_A_a.gif","left","","","","",""
"","null","html-keyboard-response","254","410175","0.0-47.0-0.6","SS1613139982515","","","null","","","","","<p><img src= images/blank.png width =""200"" height = ""200"" style = ""float:right""></p><p><img src=images/blank.png width =""800"" height = ""200""></p>","","","","","","","","","","","",""
"","175.96500000031665","sequential-stimulus-presentation","255","411165","0.0-47.0-1.6","SS1613139982515","trial","","40","800","975.9650000003166","images/stimuli/spore_stims/simple_10_B_a.gif","images/stimuli/spore_stims/simple_10_A_a.gif","","","","","13","simple_similar","images/stimuli/spore_stims/simple_10_A_a.gif","left","","","","",""
"","null","html-keyboard-response","256","412394","0.0-47.0-0.7","SS1613139982515","","","null","","","","","<p><img src= images/blank.png width =""200"" height = ""200"" style = ""float:right""></p><p><img src=images/blank.png width =""800"" height = ""200""></p>","","","","","","","","","","","",""
"","179.4649999992689","sequential-stimulus-presentation","257","413389","0.0-47.0-1.7","SS1613139982515","trial","","40","800","979.4649999992689","images/stimuli/spore_stims/simple_10_B_a.gif","images/stimuli/spore_stims/simple_10_A_a.gif","","","","","13","simple_similar","images/stimuli/spore_stims/simple_10_A_a.gif","left","","","","",""
"","609.4749999993364","html-keyboard-response","258","414013","0.0-48.0","SS1613139982515","pref_question","","99","","","","","<video width ='960' height = '540' style='padding-top:8%' autoplay muted><source src='images/stimuli/wall_pref.mp4' type='video/mp4'></video>","3","right","66%","13","","","","","","","",""
"","319.5549999991199","sequential-stimulus-presentation","259","415141","0.0-49.0","SS1613139982515","pref_reveal","","40","800","1119.55499999912","null","null","","","","","13","","","","novel","","","",""
"","null","html-keyboard-response","260","416082","0.0-50.0-0.0","SS1613139982515","","","null","","","","","<p><img src= images/blank.png width =""200"" height = ""200"" style = ""float:right""></p><p><img src=images/blank.png width =""800"" height = ""200""></p>","","","","","","","","","","","",""
"","26.78999999986263","sequential-stimulus-presentation","261","416925","0.0-50.0-1.0","SS1613139982515","trial","","40","800","826.7899999998626","images/stimuli/spore_stims/simple_16_A_b.gif","images/stimuli/spore_stims/simple_12_A_b.gif","","","","","14","simple_dissimilar","images/stimuli/spore_stims/simple_12_A_b.gif","left","","","","",""
"","null","html-keyboard-response","262","417787","0.0-50.0-0.1","SS1613139982515","","","null","","","","","<p><img src= images/blank.png width =""200"" height = ""200"" style = ""float:right""></p><p><img src=images/blank.png width =""800"" height = ""200""></p>","","","","","","","","","","","",""
"","243.80999999993946","sequential-stimulus-presentation","263","418846","0.0-50.0-1.1","SS1613139982515","trial","","40","800","1043.8099999999395","images/stimuli/spore_stims/simple_16_A_b.gif","images/stimuli/spore_stims/simple_12_A_b.gif","","","","","14","simple_dissimilar","images/stimuli/spore_stims/simple_12_A_b.gif","left","","","","",""
"","null","html-keyboard-response","264","419958","0.0-50.0-0.2","SS1613139982515","","","null","","","","","<p><img src= images/blank.png width =""200"" height = ""200"" style = ""float:right""></p><p><img src=images/blank.png width =""800"" height = ""200""></p>","","","","","","","","","","","",""
"","271.22500000038417","sequential-stimulus-presentation","265","421045","0.0-50.0-1.2","SS1613139982515","trial","","40","800","1071.2250000003842","images/stimuli/spore_stims/simple_16_A_b.gif","images/stimuli/spore_stims/simple_12_A_b.gif","","","","","14","simple_dissimilar","images/stimuli/spore_stims/simple_12_A_b.gif","left","","","","",""
"","null","html-keyboard-response","266","422319","0.0-50.0-0.3","SS1613139982515","","","null","","","","","<p><img src= images/blank.png width =""200"" height = ""200"" style = ""float:right""></p><p><img src=images/blank.png width =""800"" height = ""200""></p>","","","","","","","","","","","",""
"","127.3999999994412","sequential-stimulus-presentation","267","423261","0.0-50.0-1.3","SS1613139982515","trial","","40","800","927.3999999994412","images/stimuli/spore_stims/simple_16_A_b.gif","images/stimuli/spore_stims/simple_12_A_b.gif","","","","","14","simple_dissimilar","images/stimuli/spore_stims/simple_16_A_b.gif","right","","","","",""
"","null","html-keyboard-response","268","424283","0.0-50.0-0.4","SS1613139982515","","","null","","","","","<p><img src= images/blank.png width =""200"" height = ""200"" style = ""float:right""></p><p><img src=images/blank.png width =""800"" height = ""200""></p>","","","","","","","","","","","",""
"","147.25","sequential-stimulus-presentation","269","425244","0.0-50.0-1.4","SS1613139982515","trial","","40","800","947.25","images/stimuli/spore_stims/simple_16_A_b.gif","images/stimuli/spore_stims/simple_12_A_b.gif","","","","","14","simple_dissimilar","images/stimuli/spore_stims/simple_12_A_b.gif","left","","","","",""
"","null","html-keyboard-response","270","426499","0.0-50.0-0.5","SS1613139982515","","","null","","","","","<p><img src= images/blank.png width =""200"" height = ""200"" style = ""float:right""></p><p><img src=images/blank.png width =""800"" height = ""200""></p>","","","","","","","","","","","",""
"","139.22999999974854","sequential-stimulus-presentation","271","427453","0.0-50.0-1.5","SS1613139982515","trial","","40","800","939.2299999997485","images/stimuli/spore_stims/simple_16_A_b.gif","images/stimuli/spore_stims/simple_12_A_b.gif","","","","","14","simple_dissimilar","images/stimuli/spore_stims/simple_12_A_b.gif","left","","","","",""
"","null","html-keyboard-response","272","428289","0.0-50.0-0.6","SS1613139982515","","","null","","","","","<p><img src= images/blank.png width =""200"" height = ""200"" style = ""float:right""></p><p><img src=images/blank.png width =""800"" height = ""200""></p>","","","","","","","","","","","",""
"","601.940000000468","sequential-stimulus-presentation","273","429725","0.0-50.0-1.6","SS1613139982515","trial","","40","800","1401.940000000468","images/stimuli/spore_stims/simple_16_A_b.gif","images/stimuli/spore_stims/simple_12_A_b.gif","","","","","14","simple_dissimilar","images/stimuli/spore_stims/simple_12_A_b.gif","left","","","","",""
"","null","html-keyboard-response","274","430759","0.0-50.0-0.7","SS1613139982515","","","null","","","","","<p><img src= images/blank.png width =""200"" height = ""200"" style = ""float:right""></p><p><img src=images/blank.png width =""800"" height = ""200""></p>","","","","","","","","","","","",""
"","155.9299999998766","sequential-stimulus-presentation","275","431732","0.0-50.0-1.7","SS1613139982515","trial","","40","800","955.9299999998766","images/stimuli/spore_stims/simple_16_A_b.gif","images/stimuli/spore_stims/simple_12_A_b.gif","","","","","14","simple_dissimilar","images/stimuli/spore_stims/simple_12_A_b.gif","left","","","","",""
"","919.3800000002957","html-keyboard-response","276","432665","0.0-51.0","SS1613139982515","pref_question","","99","","","","","<video width ='960' height = '540' style='padding-top:8%' autoplay muted><source src='images/stimuli/wall_pref.mp4' type='video/mp4'></video>","3","right","66%","14","","","","","","","",""
"","429.40500000072643","sequential-stimulus-presentation","277","433916","0.0-52.0","SS1613139982515","pref_reveal","","40","800","1229.4050000007264","null","null","","","","","14","","","","deviant","","","",""
"","null","html-keyboard-response","278","434994","0.0-53.0-0.0","SS1613139982515","","","null","","","","","<p><img src= images/blank.png width =""200"" height = ""200"" style = ""float:right""></p><p><img src=images/blank.png width =""800"" height = ""200""></p>","","","","","","","","","","","",""
"","2.0150000000721775","sequential-stimulus-presentation","279","435812","0.0-53.0-1.0","SS1613139982515","trial","","40","800","802.0150000000722","images/stimuli/spore_stims/complex_19_B_b.gif","images/stimuli/spore_stims/complex_19_A_b.gif","","","","","15","complex_similar","images/stimuli/spore_stims/complex_19_A_b.gif","left","","","","",""
"","null","html-keyboard-response","280","437055","0.0-53.0-0.1","SS1613139982515","","","null","","","","","<p><img src= images/blank.png width =""200"" height = ""200"" style = ""float:right""></p><p><img src=images/blank.png width =""800"" height = ""200""></p>","","","","","","","","","","","",""
"","112.2599999998929","sequential-stimulus-presentation","281","438004","0.0-53.0-1.1","SS1613139982515","trial","","40","800","912.2599999998929","images/stimuli/spore_stims/complex_19_B_b.gif","images/stimuli/spore_stims/complex_19_A_b.gif","","","","","15","complex_similar","images/stimuli/spore_stims/complex_19_A_b.gif","left","","","","",""
"","null","html-keyboard-response","282","438858","0.0-53.0-0.2","SS1613139982515","","","null","","","","","<p><img src= images/blank.png width =""200"" height = ""200"" style = ""float:right""></p><p><img src=images/blank.png width =""800"" height = ""200""></p>","","","","","","","","","","","",""
"","154.15500000020256","sequential-stimulus-presentation","283","439828","0.0-53.0-1.2","SS1613139982515","trial","","40","800","954.1550000002026","images/stimuli/spore_stims/complex_19_B_b.gif","images/stimuli/spore_stims/complex_19_A_b.gif","","","","","15","complex_similar","images/stimuli/spore_stims/complex_19_A_b.gif","left","","","","",""
"","null","html-keyboard-response","284","441023","0.0-53.0-0.3","SS1613139982515","","","null","","","","","<p><img src= images/blank.png width =""200"" height = ""200"" style = ""float:right""></p><p><img src=images/blank.png width =""800"" height = ""200""></p>","","","","","","","","","","","",""
"","190.87999999924796","sequential-stimulus-presentation","285","442029","0.0-53.0-1.3","SS1613139982515","trial","","40","800","990.879999999248","images/stimuli/spore_stims/complex_19_B_b.gif","images/stimuli/spore_stims/complex_19_A_b.gif","","","","","15","complex_similar","images/stimuli/spore_stims/complex_19_A_b.gif","left","","","","",""
"","null","html-keyboard-response","286","443097","0.0-53.0-0.4","SS1613139982515","","","null","","","","","<p><img src= images/blank.png width =""200"" height = ""200"" style = ""float:right""></p><p><img src=images/blank.png width =""800"" height = ""200""></p>","","","","","","","","","","","",""
"","142.55499999946915","sequential-stimulus-presentation","287","444070","0.0-53.0-1.4","SS1613139982515","trial","","40","800","942.5549999994691","images/stimuli/spore_stims/complex_19_B_b.gif","images/stimuli/spore_stims/complex_19_A_b.gif","","","","","15","complex_similar","images/stimuli/spore_stims/complex_19_A_b.gif","left","","","","",""
"","null","html-keyboard-response","288","445044","0.0-53.0-0.5","SS1613139982515","","","null","","","","","<p><img src= images/blank.png width =""200"" height = ""200"" style = ""float:right""></p><p><img src=images/blank.png width =""800"" height = ""200""></p>","","","","","","","","","","","",""
"","144.98999999981606","sequential-stimulus-presentation","289","446005","0.0-53.0-1.5","SS1613139982515","trial","","40","800","944.9899999998161","images/stimuli/spore_stims/complex_19_B_b.gif","images/stimuli/spore_stims/complex_19_A_b.gif","","","","","15","complex_similar","images/stimuli/spore_stims/complex_19_A_b.gif","left","","","","",""
"","null","html-keyboard-response","290","447313","0.0-53.0-0.6","SS1613139982515","","","null","","","","","<p><img src= images/blank.png width =""200"" height = ""200"" style = ""float:right""></p><p><img src=images/blank.png width =""800"" height = ""200""></p>","","","","","","","","","","","",""
"","158.7900000004447","sequential-stimulus-presentation","291","448287","0.0-53.0-1.6","SS1613139982515","trial","","40","800","958.7900000004447","images/stimuli/spore_stims/complex_19_B_b.gif","images/stimuli/spore_stims/complex_19_A_b.gif","","","","","15","complex_similar","images/stimuli/spore_stims/complex_19_A_b.gif","left","","","","",""
"","null","html-keyboard-response","292","449255","0.0-53.0-0.7","SS1613139982515","","","null","","","","","<p><img src= images/blank.png width =""200"" height = ""200"" style = ""float:right""></p><p><img src=images/blank.png width =""800"" height = ""200""></p>","","","","","","","","","","","",""
"","51.73000000009779","sequential-stimulus-presentation","293","450125","0.0-53.0-1.7","SS1613139982515","trial","","40","800","851.7300000000978","images/stimuli/spore_stims/complex_19_B_b.gif","images/stimuli/spore_stims/complex_19_A_b.gif","","","","","15","complex_similar","images/stimuli/spore_stims/complex_19_B_b.gif","middle","","","","",""
"","4361.5149999996065","html-keyboard-response","294","454501","0.0-54.0","SS1613139982515","pref_question","","99","","","","","<video width ='960' height = '540' style='padding-top:8%' autoplay muted><source src='images/stimuli/wall_pref.mp4' type='video/mp4'></video>","3","right","66%","15","","","","","","","",""
"","175.45499999960884","sequential-stimulus-presentation","295","455493","0.0-55.0","SS1613139982515","pref_reveal","","40","800","975.4549999996088","null","null","","","","","15","","","","novel","","","",""
"","null","html-keyboard-response","296","456666","0.0-56.0-0.0","SS1613139982515","","","null","","","","","<p><img src= images/blank.png width =""200"" height = ""200"" style = ""float:right""></p><p><img src=images/blank.png width =""800"" height = ""200""></p>","","","","","","","","","","","",""
"","147.2850000000326","sequential-stimulus-presentation","297","457629","0.0-56.0-1.0","SS1613139982515","trial","","40","800","947.2850000000326","images/stimuli/spore_stims/simple_15_A_c.gif","images/stimuli/spore_stims/simple_15_B_c.gif","","","","","16","simple_similar","images/stimuli/spore_stims/simple_15_B_c.gif","middle","","","","",""
"","null","html-keyboard-response","298","458724","0.0-56.0-0.1","SS1613139982515","","","null","","","","","<p><img src= images/blank.png width =""200"" height = ""200"" style = ""float:right""></p><p><img src=images/blank.png width =""800"" height = ""200""></p>","","","","","","","","","","","",""
"","99.05500000057509","sequential-stimulus-presentation","299","459645","0.0-56.0-1.1","SS1613139982515","trial","","40","800","899.0550000005751","images/stimuli/spore_stims/simple_15_A_c.gif","images/stimuli/spore_stims/simple_15_B_c.gif","","","","","16","simple_similar","images/stimuli/spore_stims/simple_15_B_c.gif","middle","","","","",""
"","null","html-keyboard-response","300","460736","0.0-56.0-0.2","SS1613139982515","","","null","","","","","<p><img src= images/blank.png width =""200"" height = ""200"" style = ""float:right""></p><p><img src=images/blank.png width =""800"" height = ""200""></p>","","","","","","","","","","","",""
"","124.9549999993178","sequential-stimulus-presentation","301","461677","0.0-56.0-1.2","SS1613139982515","trial","","40","800","924.9549999993178","images/stimuli/spore_stims/simple_15_A_c.gif","images/stimuli/spore_stims/simple_15_B_c.gif","","","","","16","simple_similar","images/stimuli/spore_stims/simple_15_B_c.gif","middle","","","","",""
"","null","html-keyboard-response","302","462606","0.0-56.0-0.3","SS1613139982515","","","null","","","","","<p><img src= images/blank.png width =""200"" height = ""200"" style = ""float:right""></p><p><img src=images/blank.png width =""800"" height = ""200""></p>","","","","","","","","","","","",""
"","23.834999999962747","sequential-stimulus-presentation","303","463445","0.0-56.0-1.3","SS1613139982515","trial","","40","800","823.8349999999627","images/stimuli/spore_stims/simple_15_A_c.gif","images/stimuli/spore_stims/simple_15_B_c.gif","","","","","16","simple_similar","images/stimuli/spore_stims/simple_15_A_c.gif","left","","","","",""
"","null","html-keyboard-response","304","464612","0.0-56.0-0.4","SS1613139982515","","","null","","","","","<p><img src= images/blank.png width =""200"" height = ""200"" style = ""float:right""></p><p><img src=images/blank.png width =""800"" height = ""200""></p>","","","","","","","","","","","",""
"","65.7050000000163","sequential-stimulus-presentation","305","465509","0.0-56.0-1.4","SS1613139982515","trial","","40","800","865.7050000000163","images/stimuli/spore_stims/simple_15_A_c.gif","images/stimuli/spore_stims/simple_15_B_c.gif","","","","","16","simple_similar","images/stimuli/spore_stims/simple_15_B_c.gif","middle","","","","",""
"","null","html-keyboard-response","306","466653","0.0-56.0-0.5","SS1613139982515","","","null","","","","","<p><img src= images/blank.png width =""200"" height = ""200"" style = ""float:right""></p><p><img src=images/blank.png width =""800"" height = ""200""></p>","","","","","","","","","","","",""
"","31.42000000027474","sequential-stimulus-presentation","307","467502","0.0-56.0-1.5","SS1613139982515","trial","","40","800","831.4200000002747","images/stimuli/spore_stims/simple_15_A_c.gif","images/stimuli/spore_stims/simple_15_B_c.gif","","","","","16","simple_similar","images/stimuli/spore_stims/simple_15_B_c.gif","middle","","","","",""
"","null","html-keyboard-response","308","468490","0.0-56.0-0.6","SS1613139982515","","","null","","","","","<p><img src= images/blank.png width =""200"" height = ""200"" style = ""float:right""></p><p><img src=images/blank.png width =""800"" height = ""200""></p>","","","","","","","","","","","",""
"","44.00499999971362","sequential-stimulus-presentation","309","469349","0.0-56.0-1.6","SS1613139982515","trial","","40","800","844.0049999997136","images/stimuli/spore_stims/simple_15_A_c.gif","images/stimuli/spore_stims/simple_15_B_c.gif","","","","","16","simple_similar","images/stimuli/spore_stims/simple_15_B_c.gif","middle","","","","",""
"","null","html-keyboard-response","310","470354","0.0-56.0-0.7","SS1613139982515","","","null","","","","","<p><img src= images/blank.png width =""200"" height = ""200"" style = ""float:right""></p><p><img src=images/blank.png width =""800"" height = ""200""></p>","","","","","","","","","","","",""
"","59.06500000040978","sequential-stimulus-presentation","311","471229","0.0-56.0-1.7","SS1613139982515","trial","","40","800","859.0650000004098","images/stimuli/spore_stims/simple_15_A_c.gif","images/stimuli/spore_stims/simple_15_B_c.gif","","","","","16","simple_similar","images/stimuli/spore_stims/simple_15_B_c.gif","middle","","","","",""
"","1660.8000000005704","html-keyboard-response","312","472901","0.0-57.0","SS1613139982515","pref_question","","99","","","","","<video width ='960' height = '540' style='padding-top:8%' autoplay muted><source src='images/stimuli/wall_pref.mp4' type='video/mp4'></video>","3","right","66%","16","","","","","","","",""
