"view_history","rt","trial_type","trial_index","time_elapsed","internal_node_id","subject","stimulus_type","trial_stimulus","key_press","minimum_viewing_duration","trial_looking_time","block_deviant","block_background","stimulus","wall_pref","location","location_percent","block_number","block_type","stimulus_displayed","position_displayed","stim_type_selected","responses","question_order","stimulus_left","stimulus_right"
"[{""page_index"":0,""viewing_time"":1695.7299999776296}]","1696.3699999905657","instructions","0","1698","0.0-0.0","SS1613098677457","","","","","","","","","","","","","","","","","","","",""
"[{""page_index"":0,""viewing_time"":11275.190000014845},{""page_index"":1,""viewing_time"":6036.024999979418}]","17311.539999995148","instructions","1","21013","0.0-1.0","SS1613098677457","instructions","","","","","","","","","","","","","","","","","","",""
"","6393.5700000147335","sequential-stimulus-presentation","2","28215","0.0-2.0","SS1613098677457","","","40","800","7193.5700000147335","null","null","","","","","","","","","","","","",""
"","7811.184999998659","sequential-stimulus-presentation","3","36830","0.0-3.0","SS1613098677457","","","40","800","8611.184999998659","null","null","","","","","","","","","","","","",""
"[{""page_index"":0,""viewing_time"":4190.325000003213}]","4190.71999998414","instructions","4","41022","0.0-4.0","SS1613098677457","instructions","","","","","","","","","","","","","","","","","","",""
"","14281.220000004396","html-keyboard-response","5","55308","0.0-5.0","SS1613098677457","instructions","","49","","","","","<video width ='960' height = '540' autoplay muted><source src='images/stimuli/wall_pref.mp4' type='video/mp4'></video>","1","left","25%","","","","","","","","",""
"","4024.810000002617","sequential-stimulus-presentation","6","60139","0.0-6.0","SS1613098677457","pref_reveal","","40","800","4824.810000002617","null","null","","","","","","","","","","","","",""
"[{""page_index"":0,""viewing_time"":9392.250000004424},{""page_index"":1,""viewing_time"":3733.745000005001},{""page_index"":2,""viewing_time"":1849.2200000036974},{""page_index"":3,""viewing_time"":1159.5650000090245}]","16135.120000020834","instructions","7","76276","0.0-7.0","SS1613098677457","instructions","","","","","","","","","","","","","","","","","","",""
"","null","html-keyboard-response","8","77378","0.0-8.0-0.0","SS1613098677457","","","null","","","","","<p><img src= images/blank.png width =""200"" height = ""200"" style = ""float:right""></p><p><img src=images/blank.png width =""800"" height = ""200""></p>","","","","","","","","","","","",""
"","6340.669999975944","sequential-stimulus-presentation","9","84527","0.0-8.0-1.0","SS1613098677457","trial","","40","800","7140.669999975944","images/stimuli/spore_stims/complex_17_B_c.gif","images/stimuli/spore_stims/complex_17_A_c.gif","","","","","0","complex_similar","images/stimuli/spore_stims/complex_17_A_c.gif","middle","","","","",""
"","null","html-keyboard-response","10","85527","0.0-8.0-0.1","SS1613098677457","","","null","","","","","<p><img src= images/blank.png width =""200"" height = ""200"" style = ""float:right""></p><p><img src=images/blank.png width =""800"" height = ""200""></p>","","","","","","","","","","","",""
"","3666.8899999931455","sequential-stimulus-presentation","11","90000","0.0-8.0-1.1","SS1613098677457","trial","","40","800","4466.8899999931455","images/stimuli/spore_stims/complex_17_B_c.gif","images/stimuli/spore_stims/complex_17_A_c.gif","","","","","0","complex_similar","images/stimuli/spore_stims/complex_17_A_c.gif","middle","","","","",""
"","null","html-keyboard-response","12","91017","0.0-8.0-0.2","SS1613098677457","","","null","","","","","<p><img src= images/blank.png width =""200"" height = ""200"" style = ""float:right""></p><p><img src=images/blank.png width =""800"" height = ""200""></p>","","","","","","","","","","","",""
"","3122.0199999806937","sequential-stimulus-presentation","13","94946","0.0-8.0-1.2","SS1613098677457","trial","","40","800","3922.0199999806937","images/stimuli/spore_stims/complex_17_B_c.gif","images/stimuli/spore_stims/complex_17_A_c.gif","","","","","0","complex_similar","images/stimuli/spore_stims/complex_17_A_c.gif","middle","","","","",""
"","null","html-keyboard-response","14","95980","0.0-8.0-0.3","SS1613098677457","","","null","","","","","<p><img src= images/blank.png width =""200"" height = ""200"" style = ""float:right""></p><p><img src=images/blank.png width =""800"" height = ""200""></p>","","","","","","","","","","","",""
"","1539.9899999902118","sequential-stimulus-presentation","15","98325","0.0-8.0-1.3","SS1613098677457","trial","","40","800","2339.989999990212","images/stimuli/spore_stims/complex_17_B_c.gif","images/stimuli/spore_stims/complex_17_A_c.gif","","","","","0","complex_similar","images/stimuli/spore_stims/complex_17_A_c.gif","middle","","","","",""
"","null","html-keyboard-response","16","99166","0.0-8.0-0.4","SS1613098677457","","","null","","","","","<p><img src= images/blank.png width =""200"" height = ""200"" style = ""float:right""></p><p><img src=images/blank.png width =""800"" height = ""200""></p>","","","","","","","","","","","",""
"","6814.004999992903","sequential-stimulus-presentation","17","106786","0.0-8.0-1.4","SS1613098677457","trial","","40","800","7614.004999992903","images/stimuli/spore_stims/complex_17_B_c.gif","images/stimuli/spore_stims/complex_17_A_c.gif","","","","","0","complex_similar","images/stimuli/spore_stims/complex_17_B_c.gif","left","","","","",""
"","null","html-keyboard-response","18","107839","0.0-8.0-0.5","SS1613098677457","","","null","","","","","<p><img src= images/blank.png width =""200"" height = ""200"" style = ""float:right""></p><p><img src=images/blank.png width =""800"" height = ""200""></p>","","","","","","","","","","","",""
"","7823.505000007572","sequential-stimulus-presentation","19","116468","0.0-8.0-1.5","SS1613098677457","trial","","40","800","8623.505000007572","images/stimuli/spore_stims/complex_17_B_c.gif","images/stimuli/spore_stims/complex_17_A_c.gif","","","","","0","complex_similar","images/stimuli/spore_stims/complex_17_A_c.gif","middle","","","","",""
"","null","html-keyboard-response","20","117763","0.0-8.0-0.6","SS1613098677457","","","null","","","","","<p><img src= images/blank.png width =""200"" height = ""200"" style = ""float:right""></p><p><img src=images/blank.png width =""800"" height = ""200""></p>","","","","","","","","","","","",""
"","1166.0400000109803","sequential-stimulus-presentation","21","119737","0.0-8.0-1.6","SS1613098677457","trial","","40","800","1966.0400000109803","images/stimuli/spore_stims/complex_17_B_c.gif","images/stimuli/spore_stims/complex_17_A_c.gif","","","","","0","complex_similar","images/stimuli/spore_stims/complex_17_A_c.gif","middle","","","","",""
"","null","html-keyboard-response","22","120669","0.0-8.0-0.7","SS1613098677457","","","null","","","","","<p><img src= images/blank.png width =""200"" height = ""200"" style = ""float:right""></p><p><img src=images/blank.png width =""800"" height = ""200""></p>","","","","","","","","","","","",""
"","2578.5999999789055","sequential-stimulus-presentation","23","124054","0.0-8.0-1.7","SS1613098677457","trial","","40","800","3378.5999999789055","images/stimuli/spore_stims/complex_17_B_c.gif","images/stimuli/spore_stims/complex_17_A_c.gif","","","","","0","complex_similar","images/stimuli/spore_stims/complex_17_A_c.gif","middle","","","","",""
"","1821.6049999755342","html-keyboard-response","24","125881","0.0-9.0","SS1613098677457","pref_question","","51","","","","","<video width ='960' height = '540' style='padding-top:8%' autoplay muted><source src='images/stimuli/wall_pref.mp4' type='video/mp4'></video>","3","right","66%","0","","","","","","","",""
"","7629.159999982221","sequential-stimulus-presentation","25","134317","0.0-10.0","SS1613098677457","pref_reveal","","40","800","8429.159999982221","null","null","","","","","0","","","","novel","","","",""
"","null","html-keyboard-response","26","135563","0.0-11.0-0.0","SS1613098677457","","","null","","","","","<p><img src= images/blank.png width =""200"" height = ""200"" style = ""float:right""></p><p><img src=images/blank.png width =""800"" height = ""200""></p>","","","","","","","","","","","",""
"","5915.3300000180025","sequential-stimulus-presentation","27","142288","0.0-11.0-1.0","SS1613098677457","trial","","40","800","6715.3300000180025","images/stimuli/spore_stims/complex_19_B_a.gif","images/stimuli/spore_stims/complex_11_A_c.gif","","","","","1","complex_dissimilar","images/stimuli/spore_stims/complex_11_A_c.gif","middle","","","","",""
"","null","html-keyboard-response","28","143314","0.0-11.0-0.1","SS1613098677457","","","null","","","","","<p><img src= images/blank.png width =""200"" height = ""200"" style = ""float:right""></p><p><img src=images/blank.png width =""800"" height = ""200""></p>","","","","","","","","","","","",""
"","4783.110000018496","sequential-stimulus-presentation","29","148902","0.0-11.0-1.1","SS1613098677457","trial","","40","800","5583.110000018496","images/stimuli/spore_stims/complex_19_B_a.gif","images/stimuli/spore_stims/complex_11_A_c.gif","","","","","1","complex_dissimilar","images/stimuli/spore_stims/complex_11_A_c.gif","middle","","","","",""
"","null","html-keyboard-response","30","149707","0.0-11.0-0.2","SS1613098677457","","","null","","","","","<p><img src= images/blank.png width =""200"" height = ""200"" style = ""float:right""></p><p><img src=images/blank.png width =""800"" height = ""200""></p>","","","","","","","","","","","",""
"","3550.5600000033155","sequential-stimulus-presentation","31","154063","0.0-11.0-1.2","SS1613098677457","trial","","40","800","4350.5600000033155","images/stimuli/spore_stims/complex_19_B_a.gif","images/stimuli/spore_stims/complex_11_A_c.gif","","","","","1","complex_dissimilar","images/stimuli/spore_stims/complex_11_A_c.gif","middle","","","","",""
"","null","html-keyboard-response","32","154917","0.0-11.0-0.3","SS1613098677457","","","null","","","","","<p><img src= images/blank.png width =""200"" height = ""200"" style = ""float:right""></p><p><img src=images/blank.png width =""800"" height = ""200""></p>","","","","","","","","","","","",""
"","5369.0500000084285","sequential-stimulus-presentation","33","161093","0.0-11.0-1.3","SS1613098677457","trial","","40","800","6169.0500000084285","images/stimuli/spore_stims/complex_19_B_a.gif","images/stimuli/spore_stims/complex_11_A_c.gif","","","","","1","complex_dissimilar","images/stimuli/spore_stims/complex_11_A_c.gif","middle","","","","",""
"","null","html-keyboard-response","34","162229","0.0-11.0-0.4","SS1613098677457","","","null","","","","","<p><img src= images/blank.png width =""200"" height = ""200"" style = ""float:right""></p><p><img src=images/blank.png width =""800"" height = ""200""></p>","","","","","","","","","","","",""
"","4720.0900000170805","sequential-stimulus-presentation","35","167796","0.0-11.0-1.4","SS1613098677457","trial","","40","800","5520.0900000170805","images/stimuli/spore_stims/complex_19_B_a.gif","images/stimuli/spore_stims/complex_11_A_c.gif","","","","","1","complex_dissimilar","images/stimuli/spore_stims/complex_19_B_a.gif","left","","","","",""
"","null","html-keyboard-response","36","168866","0.0-11.0-0.5","SS1613098677457","","","null","","","","","<p><img src= images/blank.png width =""200"" height = ""200"" style = ""float:right""></p><p><img src=images/blank.png width =""800"" height = ""200""></p>","","","","","","","","","","","",""
"","3608.8250000029802","sequential-stimulus-presentation","37","173281","0.0-11.0-1.5","SS1613098677457","trial","","40","800","4408.82500000298","images/stimuli/spore_stims/complex_19_B_a.gif","images/stimuli/spore_stims/complex_11_A_c.gif","","","","","1","complex_dissimilar","images/stimuli/spore_stims/complex_11_A_c.gif","middle","","","","",""
"","null","html-keyboard-response","38","174401","0.0-11.0-0.6","SS1613098677457","","","null","","","","","<p><img src= images/blank.png width =""200"" height = ""200"" style = ""float:right""></p><p><img src=images/blank.png width =""800"" height = ""200""></p>","","","","","","","","","","","",""
"","2383.269999991171","sequential-stimulus-presentation","39","177591","0.0-11.0-1.6","SS1613098677457","trial","","40","800","3183.269999991171","images/stimuli/spore_stims/complex_19_B_a.gif","images/stimuli/spore_stims/complex_11_A_c.gif","","","","","1","complex_dissimilar","images/stimuli/spore_stims/complex_11_A_c.gif","middle","","","","",""
"","null","html-keyboard-response","40","178824","0.0-11.0-0.7","SS1613098677457","","","null","","","","","<p><img src= images/blank.png width =""200"" height = ""200"" style = ""float:right""></p><p><img src=images/blank.png width =""800"" height = ""200""></p>","","","","","","","","","","","",""
"","3496.8799999915063","sequential-stimulus-presentation","41","183126","0.0-11.0-1.7","SS1613098677457","trial","","40","800","4296.879999991506","images/stimuli/spore_stims/complex_19_B_a.gif","images/stimuli/spore_stims/complex_11_A_c.gif","","","","","1","complex_dissimilar","images/stimuli/spore_stims/complex_11_A_c.gif","middle","","","","",""
"","1507.160000008298","html-keyboard-response","42","184665","0.0-12.0","SS1613098677457","pref_question","","51","","","","","<video width ='960' height = '540' style='padding-top:8%' autoplay muted><source src='images/stimuli/wall_pref.mp4' type='video/mp4'></video>","3","right","66%","1","","","","","","","",""
"","5613.884999998845","sequential-stimulus-presentation","43","191085","0.0-13.0","SS1613098677457","pref_reveal","","40","800","6413.884999998845","null","null","","","","","1","","","","novel","","","",""
"","null","html-keyboard-response","44","191932","0.0-14.0-0.0","SS1613098677457","","","null","","","","","<p><img src= images/blank.png width =""200"" height = ""200"" style = ""float:right""></p><p><img src=images/blank.png width =""800"" height = ""200""></p>","","","","","","","","","","","",""
"","5114.000000001397","sequential-stimulus-presentation","45","197854","0.0-14.0-1.0","SS1613098677457","trial","","40","800","5914.000000001397","images/stimuli/spore_stims/complex_12_A_c.gif","images/stimuli/spore_stims/complex_12_B_c.gif","","","","","2","complex_similar","images/stimuli/spore_stims/complex_12_B_c.gif","middle","","","","",""
"","null","html-keyboard-response","46","198823","0.0-14.0-0.1","SS1613098677457","","","null","","","","","<p><img src= images/blank.png width =""200"" height = ""200"" style = ""float:right""></p><p><img src=images/blank.png width =""800"" height = ""200""></p>","","","","","","","","","","","",""
"","3014.0949999913573","sequential-stimulus-presentation","47","202642","0.0-14.0-1.1","SS1613098677457","trial","","40","800","3814.0949999913573","images/stimuli/spore_stims/complex_12_A_c.gif","images/stimuli/spore_stims/complex_12_B_c.gif","","","","","2","complex_similar","images/stimuli/spore_stims/complex_12_B_c.gif","middle","","","","",""
"","null","html-keyboard-response","48","203456","0.0-14.0-0.2","SS1613098677457","","","null","","","","","<p><img src= images/blank.png width =""200"" height = ""200"" style = ""float:right""></p><p><img src=images/blank.png width =""800"" height = ""200""></p>","","","","","","","","","","","",""
"","3630.860000004759","sequential-stimulus-presentation","49","207894","0.0-14.0-1.2","SS1613098677457","trial","","40","800","4430.860000004759","images/stimuli/spore_stims/complex_12_A_c.gif","images/stimuli/spore_stims/complex_12_B_c.gif","","","","","2","complex_similar","images/stimuli/spore_stims/complex_12_B_c.gif","middle","","","","",""
"","null","html-keyboard-response","50","208757","0.0-14.0-0.3","SS1613098677457","","","null","","","","","<p><img src= images/blank.png width =""200"" height = ""200"" style = ""float:right""></p><p><img src=images/blank.png width =""800"" height = ""200""></p>","","","","","","","","","","","",""
"","3054.680000001099","sequential-stimulus-presentation","51","212619","0.0-14.0-1.3","SS1613098677457","trial","","40","800","3854.680000001099","images/stimuli/spore_stims/complex_12_A_c.gif","images/stimuli/spore_stims/complex_12_B_c.gif","","","","","2","complex_similar","images/stimuli/spore_stims/complex_12_B_c.gif","middle","","","","",""
"","null","html-keyboard-response","52","213699","0.0-14.0-0.4","SS1613098677457","","","null","","","","","<p><img src= images/blank.png width =""200"" height = ""200"" style = ""float:right""></p><p><img src=images/blank.png width =""800"" height = ""200""></p>","","","","","","","","","","","",""
"","3066.400000010617","sequential-stimulus-presentation","53","217572","0.0-14.0-1.4","SS1613098677457","trial","","40","800","3866.400000010617","images/stimuli/spore_stims/complex_12_A_c.gif","images/stimuli/spore_stims/complex_12_B_c.gif","","","","","2","complex_similar","images/stimuli/spore_stims/complex_12_B_c.gif","middle","","","","",""
"","null","html-keyboard-response","54","218708","0.0-14.0-0.5","SS1613098677457","","","null","","","","","<p><img src= images/blank.png width =""200"" height = ""200"" style = ""float:right""></p><p><img src=images/blank.png width =""800"" height = ""200""></p>","","","","","","","","","","","",""
"","1830.2350000012666","sequential-stimulus-presentation","55","221346","0.0-14.0-1.5","SS1613098677457","trial","","40","800","2630.2350000012666","images/stimuli/spore_stims/complex_12_A_c.gif","images/stimuli/spore_stims/complex_12_B_c.gif","","","","","2","complex_similar","images/stimuli/spore_stims/complex_12_B_c.gif","middle","","","","",""
"","null","html-keyboard-response","56","222348","0.0-14.0-0.6","SS1613098677457","","","null","","","","","<p><img src= images/blank.png width =""200"" height = ""200"" style = ""float:right""></p><p><img src=images/blank.png width =""800"" height = ""200""></p>","","","","","","","","","","","",""
"","204.03500000247732","sequential-stimulus-presentation","57","223357","0.0-14.0-1.6","SS1613098677457","trial","","40","800","1004.0350000024773","images/stimuli/spore_stims/complex_12_A_c.gif","images/stimuli/spore_stims/complex_12_B_c.gif","","","","","2","complex_similar","images/stimuli/spore_stims/complex_12_B_c.gif","middle","","","","",""
"","null","html-keyboard-response","58","224597","0.0-14.0-0.7","SS1613098677457","","","null","","","","","<p><img src= images/blank.png width =""200"" height = ""200"" style = ""float:right""></p><p><img src=images/blank.png width =""800"" height = ""200""></p>","","","","","","","","","","","",""
"","4027.879999979632","sequential-stimulus-presentation","59","229429","0.0-14.0-1.7","SS1613098677457","trial","","40","800","4827.879999979632","images/stimuli/spore_stims/complex_12_A_c.gif","images/stimuli/spore_stims/complex_12_B_c.gif","","","","","2","complex_similar","images/stimuli/spore_stims/complex_12_A_c.gif","left","","","","",""
"","1462.7999999793246","html-keyboard-response","60","230897","0.0-15.0","SS1613098677457","pref_question","","51","","","","","<video width ='960' height = '540' style='padding-top:8%' autoplay muted><source src='images/stimuli/wall_pref.mp4' type='video/mp4'></video>","3","right","66%","2","","","","","","","",""
"","6860.149999993155","sequential-stimulus-presentation","61","238564","0.0-16.0","SS1613098677457","pref_reveal","","40","800","7660.149999993155","null","null","","","","","2","","","","novel","","","",""
"","null","html-keyboard-response","62","239507","0.0-17.0-0.0","SS1613098677457","","","null","","","","","<p><img src= images/blank.png width =""200"" height = ""200"" style = ""float:right""></p><p><img src=images/blank.png width =""800"" height = ""200""></p>","","","","","","","","","","","",""
"","5748.824999987846","sequential-stimulus-presentation","63","246063","0.0-17.0-1.0","SS1613098677457","trial","","40","800","6548.824999987846","images/stimuli/spore_stims/complex_18_A_b.gif","images/stimuli/spore_stims/complex_20_A_b.gif","","","","","3","complex_dissimilar","images/stimuli/spore_stims/complex_20_A_b.gif","left","","","","",""
"","null","html-keyboard-response","64","246980","0.0-17.0-0.1","SS1613098677457","","","null","","","","","<p><img src= images/blank.png width =""200"" height = ""200"" style = ""float:right""></p><p><img src=images/blank.png width =""800"" height = ""200""></p>","","","","","","","","","","","",""
"","4223.774999991292","sequential-stimulus-presentation","65","252013","0.0-17.0-1.1","SS1613098677457","trial","","40","800","5023.774999991292","images/stimuli/spore_stims/complex_18_A_b.gif","images/stimuli/spore_stims/complex_20_A_b.gif","","","","","3","complex_dissimilar","images/stimuli/spore_stims/complex_20_A_b.gif","left","","","","",""
"","null","html-keyboard-response","66","253084","0.0-17.0-0.2","SS1613098677457","","","null","","","","","<p><img src= images/blank.png width =""200"" height = ""200"" style = ""float:right""></p><p><img src=images/blank.png width =""800"" height = ""200""></p>","","","","","","","","","","","",""
"","4990.310000022873","sequential-stimulus-presentation","67","258882","0.0-17.0-1.2","SS1613098677457","trial","","40","800","5790.310000022873","images/stimuli/spore_stims/complex_18_A_b.gif","images/stimuli/spore_stims/complex_20_A_b.gif","","","","","3","complex_dissimilar","images/stimuli/spore_stims/complex_20_A_b.gif","left","","","","",""
"","null","html-keyboard-response","68","259884","0.0-17.0-0.3","SS1613098677457","","","null","","","","","<p><img src= images/blank.png width =""200"" height = ""200"" style = ""float:right""></p><p><img src=images/blank.png width =""800"" height = ""200""></p>","","","","","","","","","","","",""
"","3455.2700000058394","sequential-stimulus-presentation","69","264147","0.0-17.0-1.3","SS1613098677457","trial","","40","800","4255.270000005839","images/stimuli/spore_stims/complex_18_A_b.gif","images/stimuli/spore_stims/complex_20_A_b.gif","","","","","3","complex_dissimilar","images/stimuli/spore_stims/complex_20_A_b.gif","left","","","","",""
"","null","html-keyboard-response","70","265167","0.0-17.0-0.4","SS1613098677457","","","null","","","","","<p><img src= images/blank.png width =""200"" height = ""200"" style = ""float:right""></p><p><img src=images/blank.png width =""800"" height = ""200""></p>","","","","","","","","","","","",""
"","1091.950000001816","sequential-stimulus-presentation","71","267065","0.0-17.0-1.4","SS1613098677457","trial","","40","800","1891.950000001816","images/stimuli/spore_stims/complex_18_A_b.gif","images/stimuli/spore_stims/complex_20_A_b.gif","","","","","3","complex_dissimilar","images/stimuli/spore_stims/complex_20_A_b.gif","left","","","","",""
"","null","html-keyboard-response","72","268300","0.0-17.0-0.5","SS1613098677457","","","null","","","","","<p><img src= images/blank.png width =""200"" height = ""200"" style = ""float:right""></p><p><img src=images/blank.png width =""800"" height = ""200""></p>","","","","","","","","","","","",""
"","2421.330000011949","sequential-stimulus-presentation","73","271527","0.0-17.0-1.5","SS1613098677457","trial","","40","800","3221.330000011949","images/stimuli/spore_stims/complex_18_A_b.gif","images/stimuli/spore_stims/complex_20_A_b.gif","","","","","3","complex_dissimilar","images/stimuli/spore_stims/complex_20_A_b.gif","left","","","","",""
"","null","html-keyboard-response","74","272430","0.0-17.0-0.6","SS1613098677457","","","null","","","","","<p><img src= images/blank.png width =""200"" height = ""200"" style = ""float:right""></p><p><img src=images/blank.png width =""800"" height = ""200""></p>","","","","","","","","","","","",""
"","4110.14500001329","sequential-stimulus-presentation","75","277349","0.0-17.0-1.6","SS1613098677457","trial","","40","800","4910.14500001329","images/stimuli/spore_stims/complex_18_A_b.gif","images/stimuli/spore_stims/complex_20_A_b.gif","","","","","3","complex_dissimilar","images/stimuli/spore_stims/complex_18_A_b.gif","right","","","","",""
"","null","html-keyboard-response","76","278328","0.0-17.0-0.7","SS1613098677457","","","null","","","","","<p><img src= images/blank.png width =""200"" height = ""200"" style = ""float:right""></p><p><img src=images/blank.png width =""800"" height = ""200""></p>","","","","","","","","","","","",""
"","3195.240000000922","sequential-stimulus-presentation","77","282331","0.0-17.0-1.7","SS1613098677457","trial","","40","800","3995.240000000922","images/stimuli/spore_stims/complex_18_A_b.gif","images/stimuli/spore_stims/complex_20_A_b.gif","","","","","3","complex_dissimilar","images/stimuli/spore_stims/complex_20_A_b.gif","left","","","","",""
"","1248.6949999874923","html-keyboard-response","78","283585","0.0-18.0","SS1613098677457","pref_question","","50","","","","","<video width ='960' height = '540' style='padding-top:8%' autoplay muted><source src='images/stimuli/wall_pref.mp4' type='video/mp4'></video>","2","middle","45%","3","","","","","","","",""
"","5527.594999992289","sequential-stimulus-presentation","79","289919","0.0-19.0","SS1613098677457","pref_reveal","","40","800","6327.594999992289","null","null","","","","","3","","","","novel","","","",""
"","null","html-keyboard-response","80","291219","0.0-20.0-0.0","SS1613098677457","","","null","","","","","<p><img src= images/blank.png width =""200"" height = ""200"" style = ""float:right""></p><p><img src=images/blank.png width =""800"" height = ""200""></p>","","","","","","","","","","","",""
"","5799.100000003818","sequential-stimulus-presentation","81","297825","0.0-20.0-1.0","SS1613098677457","trial","","40","800","6599.100000003818","images/stimuli/spore_stims/simple_19_B_b.gif","images/stimuli/spore_stims/simple_19_A_b.gif","","","","","4","simple_similar","images/stimuli/spore_stims/simple_19_A_b.gif","right","","","","",""
"","null","html-keyboard-response","82","298806","0.0-20.0-0.1","SS1613098677457","","","null","","","","","<p><img src= images/blank.png width =""200"" height = ""200"" style = ""float:right""></p><p><img src=images/blank.png width =""800"" height = ""200""></p>","","","","","","","","","","","",""
"","3098.4450000105426","sequential-stimulus-presentation","83","302710","0.0-20.0-1.1","SS1613098677457","trial","","40","800","3898.4450000105426","images/stimuli/spore_stims/simple_19_B_b.gif","images/stimuli/spore_stims/simple_19_A_b.gif","","","","","4","simple_similar","images/stimuli/spore_stims/simple_19_A_b.gif","right","","","","",""
"","null","html-keyboard-response","84","303827","0.0-20.0-0.2","SS1613098677457","","","null","","","","","<p><img src= images/blank.png width =""200"" height = ""200"" style = ""float:right""></p><p><img src=images/blank.png width =""800"" height = ""200""></p>","","","","","","","","","","","",""
"","3104.4800000090618","sequential-stimulus-presentation","85","307740","0.0-20.0-1.2","SS1613098677457","trial","","40","800","3904.4800000090618","images/stimuli/spore_stims/simple_19_B_b.gif","images/stimuli/spore_stims/simple_19_A_b.gif","","","","","4","simple_similar","images/stimuli/spore_stims/simple_19_A_b.gif","right","","","","",""
"","null","html-keyboard-response","86","308941","0.0-20.0-0.3","SS1613098677457","","","null","","","","","<p><img src= images/blank.png width =""200"" height = ""200"" style = ""float:right""></p><p><img src=images/blank.png width =""800"" height = ""200""></p>","","","","","","","","","","","",""
"","553.169999999227","sequential-stimulus-presentation","87","310301","0.0-20.0-1.3","SS1613098677457","trial","","40","800","1353.169999999227","images/stimuli/spore_stims/simple_19_B_b.gif","images/stimuli/spore_stims/simple_19_A_b.gif","","","","","4","simple_similar","images/stimuli/spore_stims/simple_19_A_b.gif","right","","","","",""
"","null","html-keyboard-response","88","311444","0.0-20.0-0.4","SS1613098677457","","","null","","","","","<p><img src= images/blank.png width =""200"" height = ""200"" style = ""float:right""></p><p><img src=images/blank.png width =""800"" height = ""200""></p>","","","","","","","","","","","",""
"","4406.014999985928","sequential-stimulus-presentation","89","316655","0.0-20.0-1.4","SS1613098677457","trial","","40","800","5206.014999985928","images/stimuli/spore_stims/simple_19_B_b.gif","images/stimuli/spore_stims/simple_19_A_b.gif","","","","","4","simple_similar","images/stimuli/spore_stims/simple_19_B_b.gif","left","","","","",""
"","null","html-keyboard-response","90","317870","0.0-20.0-0.5","SS1613098677457","","","null","","","","","<p><img src= images/blank.png width =""200"" height = ""200"" style = ""float:right""></p><p><img src=images/blank.png width =""800"" height = ""200""></p>","","","","","","","","","","","",""
"","2400.564999989001","sequential-stimulus-presentation","91","321077","0.0-20.0-1.5","SS1613098677457","trial","","40","800","3200.564999989001","images/stimuli/spore_stims/simple_19_B_b.gif","images/stimuli/spore_stims/simple_19_A_b.gif","","","","","4","simple_similar","images/stimuli/spore_stims/simple_19_A_b.gif","right","","","","",""
"","null","html-keyboard-response","92","322034","0.0-20.0-0.6","SS1613098677457","","","null","","","","","<p><img src= images/blank.png width =""200"" height = ""200"" style = ""float:right""></p><p><img src=images/blank.png width =""800"" height = ""200""></p>","","","","","","","","","","","",""
"","597.2449999826495","sequential-stimulus-presentation","93","323442","0.0-20.0-1.6","SS1613098677457","trial","","40","800","1397.2449999826495","images/stimuli/spore_stims/simple_19_B_b.gif","images/stimuli/spore_stims/simple_19_A_b.gif","","","","","4","simple_similar","images/stimuli/spore_stims/simple_19_A_b.gif","right","","","","",""
"","null","html-keyboard-response","94","324702","0.0-20.0-0.7","SS1613098677457","","","null","","","","","<p><img src= images/blank.png width =""200"" height = ""200"" style = ""float:right""></p><p><img src=images/blank.png width =""800"" height = ""200""></p>","","","","","","","","","","","",""
"","426.30999998073094","sequential-stimulus-presentation","95","325935","0.0-20.0-1.7","SS1613098677457","trial","","40","800","1226.309999980731","images/stimuli/spore_stims/simple_19_B_b.gif","images/stimuli/spore_stims/simple_19_A_b.gif","","","","","4","simple_similar","images/stimuli/spore_stims/simple_19_A_b.gif","right","","","","",""
"","529.4250000151806","html-keyboard-response","96","326470","0.0-21.0","SS1613098677457","pref_question","","50","","","","","<video width ='960' height = '540' style='padding-top:8%' autoplay muted><source src='images/stimuli/wall_pref.mp4' type='video/mp4'></video>","2","middle","45%","4","","","","","","","",""
"","4938.080000021728","sequential-stimulus-presentation","97","332214","0.0-22.0","SS1613098677457","pref_reveal","","40","800","5738.080000021728","null","null","","","","","4","","","","novel","","","",""
"","null","html-keyboard-response","98","333518","0.0-23.0-0.0","SS1613098677457","","","null","","","","","<p><img src= images/blank.png width =""200"" height = ""200"" style = ""float:right""></p><p><img src=images/blank.png width =""800"" height = ""200""></p>","","","","","","","","","","","",""
"","6723.4300000127405","sequential-stimulus-presentation","99","341049","0.0-23.0-1.0","SS1613098677457","trial","","40","800","7523.4300000127405","images/stimuli/spore_stims/complex_01_B_d.gif","images/stimuli/spore_stims/complex_09_A_a.gif","","","","","5","complex_dissimilar","images/stimuli/spore_stims/complex_09_A_a.gif","right","","","","",""
"","null","html-keyboard-response","100","341987","0.0-23.0-0.1","SS1613098677457","","","null","","","","","<p><img src= images/blank.png width =""200"" height = ""200"" style = ""float:right""></p><p><img src=images/blank.png width =""800"" height = ""200""></p>","","","","","","","","","","","",""
"","912.4599999922793","sequential-stimulus-presentation","101","343742","0.0-23.0-1.1","SS1613098677457","trial","","40","800","1712.4599999922793","images/stimuli/spore_stims/complex_01_B_d.gif","images/stimuli/spore_stims/complex_09_A_a.gif","","","","","5","complex_dissimilar","images/stimuli/spore_stims/complex_09_A_a.gif","right","","","","",""
"","null","html-keyboard-response","102","344851","0.0-23.0-0.2","SS1613098677457","","","null","","","","","<p><img src= images/blank.png width =""200"" height = ""200"" style = ""float:right""></p><p><img src=images/blank.png width =""800"" height = ""200""></p>","","","","","","","","","","","",""
"","1520.264999999199","sequential-stimulus-presentation","103","347180","0.0-23.0-1.2","SS1613098677457","trial","","40","800","2320.264999999199","images/stimuli/spore_stims/complex_01_B_d.gif","images/stimuli/spore_stims/complex_09_A_a.gif","","","","","5","complex_dissimilar","images/stimuli/spore_stims/complex_09_A_a.gif","right","","","","",""
"","null","html-keyboard-response","104","348304","0.0-23.0-0.3","SS1613098677457","","","null","","","","","<p><img src= images/blank.png width =""200"" height = ""200"" style = ""float:right""></p><p><img src=images/blank.png width =""800"" height = ""200""></p>","","","","","","","","","","","",""
"","4301.200000016252","sequential-stimulus-presentation","105","353420","0.0-23.0-1.3","SS1613098677457","trial","","40","800","5101.200000016252","images/stimuli/spore_stims/complex_01_B_d.gif","images/stimuli/spore_stims/complex_09_A_a.gif","","","","","5","complex_dissimilar","images/stimuli/spore_stims/complex_01_B_d.gif","middle","","","","",""
"","null","html-keyboard-response","106","354675","0.0-23.0-0.4","SS1613098677457","","","null","","","","","<p><img src= images/blank.png width =""200"" height = ""200"" style = ""float:right""></p><p><img src=images/blank.png width =""800"" height = ""200""></p>","","","","","","","","","","","",""
"","3167.974999989383","sequential-stimulus-presentation","107","358651","0.0-23.0-1.4","SS1613098677457","trial","","40","800","3967.974999989383","images/stimuli/spore_stims/complex_01_B_d.gif","images/stimuli/spore_stims/complex_09_A_a.gif","","","","","5","complex_dissimilar","images/stimuli/spore_stims/complex_09_A_a.gif","right","","","","",""
"","null","html-keyboard-response","108","359899","0.0-23.0-0.5","SS1613098677457","","","null","","","","","<p><img src= images/blank.png width =""200"" height = ""200"" style = ""float:right""></p><p><img src=images/blank.png width =""800"" height = ""200""></p>","","","","","","","","","","","",""
"","541.1399999866262","sequential-stimulus-presentation","109","361249","0.0-23.0-1.5","SS1613098677457","trial","","40","800","1341.1399999866262","images/stimuli/spore_stims/complex_01_B_d.gif","images/stimuli/spore_stims/complex_09_A_a.gif","","","","","5","complex_dissimilar","images/stimuli/spore_stims/complex_09_A_a.gif","right","","","","",""
"","null","html-keyboard-response","110","362223","0.0-23.0-0.6","SS1613098677457","","","null","","","","","<p><img src= images/blank.png width =""200"" height = ""200"" style = ""float:right""></p><p><img src=images/blank.png width =""800"" height = ""200""></p>","","","","","","","","","","","",""
"","642.6249999785796","sequential-stimulus-presentation","111","363673","0.0-23.0-1.6","SS1613098677457","trial","","40","800","1442.6249999785796","images/stimuli/spore_stims/complex_01_B_d.gif","images/stimuli/spore_stims/complex_09_A_a.gif","","","","","5","complex_dissimilar","images/stimuli/spore_stims/complex_09_A_a.gif","right","","","","",""
"","null","html-keyboard-response","112","364501","0.0-23.0-0.7","SS1613098677457","","","null","","","","","<p><img src= images/blank.png width =""200"" height = ""200"" style = ""float:right""></p><p><img src=images/blank.png width =""800"" height = ""200""></p>","","","","","","","","","","","",""
"","525.2899999904912","sequential-stimulus-presentation","113","365833","0.0-23.0-1.7","SS1613098677457","trial","","40","800","1325.2899999904912","images/stimuli/spore_stims/complex_01_B_d.gif","images/stimuli/spore_stims/complex_09_A_a.gif","","","","","5","complex_dissimilar","images/stimuli/spore_stims/complex_09_A_a.gif","right","","","","",""
"","702.7100000123028","html-keyboard-response","114","366541","0.0-24.0","SS1613098677457","pref_question","","49","","","","","<video width ='960' height = '540' style='padding-top:8%' autoplay muted><source src='images/stimuli/wall_pref.mp4' type='video/mp4'></video>","1","left","25%","5","","","","","","","",""
"","5771.820000023581","sequential-stimulus-presentation","115","373119","0.0-25.0","SS1613098677457","pref_reveal","","40","800","6571.820000023581","null","null","","","","","5","","","","novel","","","",""
"","null","html-keyboard-response","116","374210","0.0-26.0-0.0","SS1613098677457","","","null","","","","","<p><img src= images/blank.png width =""200"" height = ""200"" style = ""float:right""></p><p><img src=images/blank.png width =""800"" height = ""200""></p>","","","","","","","","","","","",""
"","9534.474999993108","sequential-stimulus-presentation","117","384552","0.0-26.0-1.0","SS1613098677457","trial","","40","800","10334.474999993108","images/stimuli/spore_stims/simple_13_A_d.gif","images/stimuli/spore_stims/simple_13_B_d.gif","","","","","6","simple_similar","images/stimuli/spore_stims/simple_13_B_d.gif","left","","","","",""
"","null","html-keyboard-response","118","385566","0.0-26.0-0.1","SS1613098677457","","","null","","","","","<p><img src= images/blank.png width =""200"" height = ""200"" style = ""float:right""></p><p><img src=images/blank.png width =""800"" height = ""200""></p>","","","","","","","","","","","",""
"","1116.535000008298","sequential-stimulus-presentation","119","387503","0.0-26.0-1.1","SS1613098677457","trial","","40","800","1916.535000008298","images/stimuli/spore_stims/simple_13_A_d.gif","images/stimuli/spore_stims/simple_13_B_d.gif","","","","","6","simple_similar","images/stimuli/spore_stims/simple_13_B_d.gif","left","","","","",""
"","null","html-keyboard-response","120","388766","0.0-26.0-0.2","SS1613098677457","","","null","","","","","<p><img src= images/blank.png width =""200"" height = ""200"" style = ""float:right""></p><p><img src=images/blank.png width =""800"" height = ""200""></p>","","","","","","","","","","","",""
"","3421.9800000137184","sequential-stimulus-presentation","121","392995","0.0-26.0-1.2","SS1613098677457","trial","","40","800","4221.980000013718","images/stimuli/spore_stims/simple_13_A_d.gif","images/stimuli/spore_stims/simple_13_B_d.gif","","","","","6","simple_similar","images/stimuli/spore_stims/simple_13_A_d.gif","right","","","","",""
"","null","html-keyboard-response","122","393988","0.0-26.0-0.3","SS1613098677457","","","null","","","","","<p><img src= images/blank.png width =""200"" height = ""200"" style = ""float:right""></p><p><img src=images/blank.png width =""800"" height = ""200""></p>","","","","","","","","","","","",""
"","2438.84999997681","sequential-stimulus-presentation","123","397234","0.0-26.0-1.3","SS1613098677457","trial","","40","800","3238.84999997681","images/stimuli/spore_stims/simple_13_A_d.gif","images/stimuli/spore_stims/simple_13_B_d.gif","","","","","6","simple_similar","images/stimuli/spore_stims/simple_13_B_d.gif","left","","","","",""
"","null","html-keyboard-response","124","398168","0.0-26.0-0.4","SS1613098677457","","","null","","","","","<p><img src= images/blank.png width =""200"" height = ""200"" style = ""float:right""></p><p><img src=images/blank.png width =""800"" height = ""200""></p>","","","","","","","","","","","",""
"","394.8600000003353","sequential-stimulus-presentation","125","399370","0.0-26.0-1.4","SS1613098677457","trial","","40","800","1194.8600000003353","images/stimuli/spore_stims/simple_13_A_d.gif","images/stimuli/spore_stims/simple_13_B_d.gif","","","","","6","simple_similar","images/stimuli/spore_stims/simple_13_B_d.gif","left","","","","",""
"","null","html-keyboard-response","126","400476","0.0-26.0-0.5","SS1613098677457","","","null","","","","","<p><img src= images/blank.png width =""200"" height = ""200"" style = ""float:right""></p><p><img src=images/blank.png width =""800"" height = ""200""></p>","","","","","","","","","","","",""
"","641.2450000061654","sequential-stimulus-presentation","127","401963","0.0-26.0-1.5","SS1613098677457","trial","","40","800","1441.2450000061654","images/stimuli/spore_stims/simple_13_A_d.gif","images/stimuli/spore_stims/simple_13_B_d.gif","","","","","6","simple_similar","images/stimuli/spore_stims/simple_13_B_d.gif","left","","","","",""
"","null","html-keyboard-response","128","402947","0.0-26.0-0.6","SS1613098677457","","","null","","","","","<p><img src= images/blank.png width =""200"" height = ""200"" style = ""float:right""></p><p><img src=images/blank.png width =""800"" height = ""200""></p>","","","","","","","","","","","",""
"","471.4349999849219","sequential-stimulus-presentation","129","404225","0.0-26.0-1.6","SS1613098677457","trial","","40","800","1271.434999984922","images/stimuli/spore_stims/simple_13_A_d.gif","images/stimuli/spore_stims/simple_13_B_d.gif","","","","","6","simple_similar","images/stimuli/spore_stims/simple_13_B_d.gif","left","","","","",""
"","null","html-keyboard-response","130","405382","0.0-26.0-0.7","SS1613098677457","","","null","","","","","<p><img src= images/blank.png width =""200"" height = ""200"" style = ""float:right""></p><p><img src=images/blank.png width =""800"" height = ""200""></p>","","","","","","","","","","","",""
"","453.1450000067707","sequential-stimulus-presentation","131","406646","0.0-26.0-1.7","SS1613098677457","trial","","40","800","1253.1450000067707","images/stimuli/spore_stims/simple_13_A_d.gif","images/stimuli/spore_stims/simple_13_B_d.gif","","","","","6","simple_similar","images/stimuli/spore_stims/simple_13_B_d.gif","left","","","","",""
"","638.5599999921396","html-keyboard-response","132","407290","0.0-27.0","SS1613098677457","pref_question","","50","","","","","<video width ='960' height = '540' style='padding-top:8%' autoplay muted><source src='images/stimuli/wall_pref.mp4' type='video/mp4'></video>","2","middle","45%","6","","","","","","","",""
"","3927.2000000055414","sequential-stimulus-presentation","133","412024","0.0-28.0","SS1613098677457","pref_reveal","","40","800","4727.200000005541","null","null","","","","","6","","","","novel","","","",""
"","null","html-keyboard-response","134","413050","0.0-29.0-0.0","SS1613098677457","","","null","","","","","<p><img src= images/blank.png width =""200"" height = ""200"" style = ""float:right""></p><p><img src=images/blank.png width =""800"" height = ""200""></p>","","","","","","","","","","","",""
"","2357.589999999618","sequential-stimulus-presentation","135","416217","0.0-29.0-1.0","SS1613098677457","trial","","40","800","3157.589999999618","images/stimuli/spore_stims/simple_15_B_a.gif","images/stimuli/spore_stims/simple_15_A_a.gif","","","","","7","simple_similar","images/stimuli/spore_stims/simple_15_A_a.gif","middle","","","","",""
"","null","html-keyboard-response","136","417156","0.0-29.0-0.1","SS1613098677457","","","null","","","","","<p><img src= images/blank.png width =""200"" height = ""200"" style = ""float:right""></p><p><img src=images/blank.png width =""800"" height = ""200""></p>","","","","","","","","","","","",""
"","3046.9750000047497","sequential-stimulus-presentation","137","421013","0.0-29.0-1.1","SS1613098677457","trial","","40","800","3846.9750000047497","images/stimuli/spore_stims/simple_15_B_a.gif","images/stimuli/spore_stims/simple_15_A_a.gif","","","","","7","simple_similar","images/stimuli/spore_stims/simple_15_A_a.gif","middle","","","","",""
"","null","html-keyboard-response","138","422225","0.0-29.0-0.2","SS1613098677457","","","null","","","","","<p><img src= images/blank.png width =""200"" height = ""200"" style = ""float:right""></p><p><img src=images/blank.png width =""800"" height = ""200""></p>","","","","","","","","","","","",""
"","2751.3749999925494","sequential-stimulus-presentation","139","425784","0.0-29.0-1.2","SS1613098677457","trial","","40","800","3551.3749999925494","images/stimuli/spore_stims/simple_15_B_a.gif","images/stimuli/spore_stims/simple_15_A_a.gif","","","","","7","simple_similar","images/stimuli/spore_stims/simple_15_A_a.gif","middle","","","","",""
"","null","html-keyboard-response","140","426620","0.0-29.0-0.3","SS1613098677457","","","null","","","","","<p><img src= images/blank.png width =""200"" height = ""200"" style = ""float:right""></p><p><img src=images/blank.png width =""800"" height = ""200""></p>","","","","","","","","","","","",""
"","1390.0750000029802","sequential-stimulus-presentation","141","428819","0.0-29.0-1.3","SS1613098677457","trial","","40","800","2190.0750000029802","images/stimuli/spore_stims/simple_15_B_a.gif","images/stimuli/spore_stims/simple_15_A_a.gif","","","","","7","simple_similar","images/stimuli/spore_stims/simple_15_A_a.gif","middle","","","","",""
"","null","html-keyboard-response","142","429923","0.0-29.0-0.4","SS1613098677457","","","null","","","","","<p><img src= images/blank.png width =""200"" height = ""200"" style = ""float:right""></p><p><img src=images/blank.png width =""800"" height = ""200""></p>","","","","","","","","","","","",""
"","3742.674999986775","sequential-stimulus-presentation","143","434474","0.0-29.0-1.4","SS1613098677457","trial","","40","800","4542.674999986775","images/stimuli/spore_stims/simple_15_B_a.gif","images/stimuli/spore_stims/simple_15_A_a.gif","","","","","7","simple_similar","images/stimuli/spore_stims/simple_15_B_a.gif","right","","","","",""
"","null","html-keyboard-response","144","435688","0.0-29.0-0.5","SS1613098677457","","","null","","","","","<p><img src= images/blank.png width =""200"" height = ""200"" style = ""float:right""></p><p><img src=images/blank.png width =""800"" height = ""200""></p>","","","","","","","","","","","",""
"","2707.494999980554","sequential-stimulus-presentation","145","439203","0.0-29.0-1.5","SS1613098677457","trial","","40","800","3507.494999980554","images/stimuli/spore_stims/simple_15_B_a.gif","images/stimuli/spore_stims/simple_15_A_a.gif","","","","","7","simple_similar","images/stimuli/spore_stims/simple_15_A_a.gif","middle","","","","",""
"","null","html-keyboard-response","146","440055","0.0-29.0-0.6","SS1613098677457","","","null","","","","","<p><img src= images/blank.png width =""200"" height = ""200"" style = ""float:right""></p><p><img src=images/blank.png width =""800"" height = ""200""></p>","","","","","","","","","","","",""
"","651.2199999997392","sequential-stimulus-presentation","147","441515","0.0-29.0-1.6","SS1613098677457","trial","","40","800","1451.2199999997392","images/stimuli/spore_stims/simple_15_B_a.gif","images/stimuli/spore_stims/simple_15_A_a.gif","","","","","7","simple_similar","images/stimuli/spore_stims/simple_15_A_a.gif","middle","","","","",""
"","null","html-keyboard-response","148","442706","0.0-29.0-0.7","SS1613098677457","","","null","","","","","<p><img src= images/blank.png width =""200"" height = ""200"" style = ""float:right""></p><p><img src=images/blank.png width =""800"" height = ""200""></p>","","","","","","","","","","","",""
"","801.3050000008661","sequential-stimulus-presentation","149","444318","0.0-29.0-1.7","SS1613098677457","trial","","40","800","1601.3050000008661","images/stimuli/spore_stims/simple_15_B_a.gif","images/stimuli/spore_stims/simple_15_A_a.gif","","","","","7","simple_similar","images/stimuli/spore_stims/simple_15_A_a.gif","middle","","","","",""
"","502.3849999997765","html-keyboard-response","150","444827","0.0-30.0","SS1613098677457","pref_question","","49","","","","","<video width ='960' height = '540' style='padding-top:8%' autoplay muted><source src='images/stimuli/wall_pref.mp4' type='video/mp4'></video>","1","left","25%","7","","","","","","","",""
"","3035.474999982398","sequential-stimulus-presentation","151","448726","0.0-31.0","SS1613098677457","pref_reveal","","40","800","3835.474999982398","null","null","","","","","7","","","","novel","","","",""
"","null","html-keyboard-response","152","449986","0.0-32.0-0.0","SS1613098677457","","","null","","","","","<p><img src= images/blank.png width =""200"" height = ""200"" style = ""float:right""></p><p><img src=images/blank.png width =""800"" height = ""200""></p>","","","","","","","","","","","",""
"","4676.815000013448","sequential-stimulus-presentation","153","455473","0.0-32.0-1.0","SS1613098677457","trial","","40","800","5476.815000013448","images/stimuli/spore_stims/simple_06_A_b.gif","images/stimuli/spore_stims/simple_04_B_b.gif","","","","","8","simple_dissimilar","images/stimuli/spore_stims/simple_04_B_b.gif","left","","","","",""
"","null","html-keyboard-response","154","456345","0.0-32.0-0.1","SS1613098677457","","","null","","","","","<p><img src= images/blank.png width =""200"" height = ""200"" style = ""float:right""></p><p><img src=images/blank.png width =""800"" height = ""200""></p>","","","","","","","","","","","",""
"","2142.7400000102352","sequential-stimulus-presentation","155","459297","0.0-32.0-1.1","SS1613098677457","trial","","40","800","2942.7400000102352","images/stimuli/spore_stims/simple_06_A_b.gif","images/stimuli/spore_stims/simple_04_B_b.gif","","","","","8","simple_dissimilar","images/stimuli/spore_stims/simple_04_B_b.gif","left","","","","",""
"","null","html-keyboard-response","156","460448","0.0-32.0-0.2","SS1613098677457","","","null","","","","","<p><img src= images/blank.png width =""200"" height = ""200"" style = ""float:right""></p><p><img src=images/blank.png width =""800"" height = ""200""></p>","","","","","","","","","","","",""
"","824.6000000217464","sequential-stimulus-presentation","157","462083","0.0-32.0-1.2","SS1613098677457","trial","","40","800","1624.6000000217464","images/stimuli/spore_stims/simple_06_A_b.gif","images/stimuli/spore_stims/simple_04_B_b.gif","","","","","8","simple_dissimilar","images/stimuli/spore_stims/simple_04_B_b.gif","left","","","","",""
"","null","html-keyboard-response","158","463047","0.0-32.0-0.3","SS1613098677457","","","null","","","","","<p><img src= images/blank.png width =""200"" height = ""200"" style = ""float:right""></p><p><img src=images/blank.png width =""800"" height = ""200""></p>","","","","","","","","","","","",""
"","2951.7700000142213","sequential-stimulus-presentation","159","466806","0.0-32.0-1.3","SS1613098677457","trial","","40","800","3751.7700000142213","images/stimuli/spore_stims/simple_06_A_b.gif","images/stimuli/spore_stims/simple_04_B_b.gif","","","","","8","simple_dissimilar","images/stimuli/spore_stims/simple_04_B_b.gif","left","","","","",""
"","null","html-keyboard-response","160","467835","0.0-32.0-0.4","SS1613098677457","","","null","","","","","<p><img src= images/blank.png width =""200"" height = ""200"" style = ""float:right""></p><p><img src=images/blank.png width =""800"" height = ""200""></p>","","","","","","","","","","","",""
"","4522.069999977248","sequential-stimulus-presentation","161","473169","0.0-32.0-1.4","SS1613098677457","trial","","40","800","5322.069999977248","images/stimuli/spore_stims/simple_06_A_b.gif","images/stimuli/spore_stims/simple_04_B_b.gif","","","","","8","simple_dissimilar","images/stimuli/spore_stims/simple_06_A_b.gif","middle","","","","",""
"","null","html-keyboard-response","162","474139","0.0-32.0-0.5","SS1613098677457","","","null","","","","","<p><img src= images/blank.png width =""200"" height = ""200"" style = ""float:right""></p><p><img src=images/blank.png width =""800"" height = ""200""></p>","","","","","","","","","","","",""
"","34.21499999240041","sequential-stimulus-presentation","163","474982","0.0-32.0-1.5","SS1613098677457","trial","","40","800","834.2149999924004","images/stimuli/spore_stims/simple_06_A_b.gif","images/stimuli/spore_stims/simple_04_B_b.gif","","","","","8","simple_dissimilar","images/stimuli/spore_stims/simple_04_B_b.gif","left","","","","",""
"","null","html-keyboard-response","164","475963","0.0-32.0-0.6","SS1613098677457","","","null","","","","","<p><img src= images/blank.png width =""200"" height = ""200"" style = ""float:right""></p><p><img src=images/blank.png width =""800"" height = ""200""></p>","","","","","","","","","","","",""
"","250.45999998110346","sequential-stimulus-presentation","165","477023","0.0-32.0-1.6","SS1613098677457","trial","","40","800","1050.4599999811035","images/stimuli/spore_stims/simple_06_A_b.gif","images/stimuli/spore_stims/simple_04_B_b.gif","","","","","8","simple_dissimilar","images/stimuli/spore_stims/simple_04_B_b.gif","left","","","","",""
"","null","html-keyboard-response","166","477856","0.0-32.0-0.7","SS1613098677457","","","null","","","","","<p><img src= images/blank.png width =""200"" height = ""200"" style = ""float:right""></p><p><img src=images/blank.png width =""800"" height = ""200""></p>","","","","","","","","","","","",""
"","554.7749999968801","sequential-stimulus-presentation","167","479221","0.0-32.0-1.7","SS1613098677457","trial","","40","800","1354.77499999688","images/stimuli/spore_stims/simple_06_A_b.gif","images/stimuli/spore_stims/simple_04_B_b.gif","","","","","8","simple_dissimilar","images/stimuli/spore_stims/simple_04_B_b.gif","left","","","","",""
"","727.2450000164099","html-keyboard-response","168","479957","0.0-33.0","SS1613098677457","pref_question","","51","","","","","<video width ='960' height = '540' style='padding-top:8%' autoplay muted><source src='images/stimuli/wall_pref.mp4' type='video/mp4'></video>","3","right","66%","8","","","","","","","",""
"","5860.880000022007","sequential-stimulus-presentation","169","486626","0.0-34.0","SS1613098677457","pref_reveal","","40","800","6660.880000022007","null","null","","","","","8","","","","novel","","","",""
"","null","html-keyboard-response","170","487759","0.0-35.0-0.0","SS1613098677457","","","null","","","","","<p><img src= images/blank.png width =""200"" height = ""200"" style = ""float:right""></p><p><img src=images/blank.png width =""800"" height = ""200""></p>","","","","","","","","","","","",""
"","2916.014999995241","sequential-stimulus-presentation","171","491484","0.0-35.0-1.0","SS1613098677457","trial","","40","800","3716.014999995241","images/stimuli/spore_stims/simple_08_A_d.gif","images/stimuli/spore_stims/simple_18_A_a.gif","","","","","9","simple_dissimilar","images/stimuli/spore_stims/simple_18_A_a.gif","middle","","","","",""
"","null","html-keyboard-response","172","492457","0.0-35.0-0.1","SS1613098677457","","","null","","","","","<p><img src= images/blank.png width =""200"" height = ""200"" style = ""float:right""></p><p><img src=images/blank.png width =""800"" height = ""200""></p>","","","","","","","","","","","",""
"","2529.9250000098255","sequential-stimulus-presentation","173","495796","0.0-35.0-1.1","SS1613098677457","trial","","40","800","3329.9250000098255","images/stimuli/spore_stims/simple_08_A_d.gif","images/stimuli/spore_stims/simple_18_A_a.gif","","","","","9","simple_dissimilar","images/stimuli/spore_stims/simple_18_A_a.gif","middle","","","","",""
"","null","html-keyboard-response","174","496855","0.0-35.0-0.2","SS1613098677457","","","null","","","","","<p><img src= images/blank.png width =""200"" height = ""200"" style = ""float:right""></p><p><img src=images/blank.png width =""800"" height = ""200""></p>","","","","","","","","","","","",""
"","608.894999983022","sequential-stimulus-presentation","175","498278","0.0-35.0-1.2","SS1613098677457","trial","","40","800","1408.894999983022","images/stimuli/spore_stims/simple_08_A_d.gif","images/stimuli/spore_stims/simple_18_A_a.gif","","","","","9","simple_dissimilar","images/stimuli/spore_stims/simple_18_A_a.gif","middle","","","","",""
"","null","html-keyboard-response","176","499373","0.0-35.0-0.3","SS1613098677457","","","null","","","","","<p><img src= images/blank.png width =""200"" height = ""200"" style = ""float:right""></p><p><img src=images/blank.png width =""800"" height = ""200""></p>","","","","","","","","","","","",""
"","1103.3299999835435","sequential-stimulus-presentation","177","501317","0.0-35.0-1.3","SS1613098677457","trial","","40","800","1903.3299999835435","images/stimuli/spore_stims/simple_08_A_d.gif","images/stimuli/spore_stims/simple_18_A_a.gif","","","","","9","simple_dissimilar","images/stimuli/spore_stims/simple_18_A_a.gif","middle","","","","",""
"","null","html-keyboard-response","178","502503","0.0-35.0-0.4","SS1613098677457","","","null","","","","","<p><img src= images/blank.png width =""200"" height = ""200"" style = ""float:right""></p><p><img src=images/blank.png width =""800"" height = ""200""></p>","","","","","","","","","","","",""
"","1061.2200000032317","sequential-stimulus-presentation","179","504371","0.0-35.0-1.4","SS1613098677457","trial","","40","800","1861.2200000032317","images/stimuli/spore_stims/simple_08_A_d.gif","images/stimuli/spore_stims/simple_18_A_a.gif","","","","","9","simple_dissimilar","images/stimuli/spore_stims/simple_18_A_a.gif","middle","","","","",""
"","null","html-keyboard-response","180","505226","0.0-35.0-0.5","SS1613098677457","","","null","","","","","<p><img src= images/blank.png width =""200"" height = ""200"" style = ""float:right""></p><p><img src=images/blank.png width =""800"" height = ""200""></p>","","","","","","","","","","","",""
"","528.3650000055786","sequential-stimulus-presentation","181","506562","0.0-35.0-1.5","SS1613098677457","trial","","40","800","1328.3650000055786","images/stimuli/spore_stims/simple_08_A_d.gif","images/stimuli/spore_stims/simple_18_A_a.gif","","","","","9","simple_dissimilar","images/stimuli/spore_stims/simple_18_A_a.gif","middle","","","","",""
"","null","html-keyboard-response","182","507799","0.0-35.0-0.6","SS1613098677457","","","null","","","","","<p><img src= images/blank.png width =""200"" height = ""200"" style = ""float:right""></p><p><img src=images/blank.png width =""800"" height = ""200""></p>","","","","","","","","","","","",""
"","641.8750000011642","sequential-stimulus-presentation","183","509249","0.0-35.0-1.6","SS1613098677457","trial","","40","800","1441.8750000011642","images/stimuli/spore_stims/simple_08_A_d.gif","images/stimuli/spore_stims/simple_18_A_a.gif","","","","","9","simple_dissimilar","images/stimuli/spore_stims/simple_18_A_a.gif","middle","","","","",""
"","null","html-keyboard-response","184","510508","0.0-35.0-0.7","SS1613098677457","","","null","","","","","<p><img src= images/blank.png width =""200"" height = ""200"" style = ""float:right""></p><p><img src=images/blank.png width =""800"" height = ""200""></p>","","","","","","","","","","","",""
"","2279.934999998659","sequential-stimulus-presentation","185","513633","0.0-35.0-1.7","SS1613098677457","trial","","40","800","3079.934999998659","images/stimuli/spore_stims/simple_08_A_d.gif","images/stimuli/spore_stims/simple_18_A_a.gif","","","","","9","simple_dissimilar","images/stimuli/spore_stims/simple_08_A_d.gif","left","","","","",""
"","1497.445000015432","html-keyboard-response","186","515138","0.0-36.0","SS1613098677457","pref_question","","51","","","","","<video width ='960' height = '540' style='padding-top:8%' autoplay muted><source src='images/stimuli/wall_pref.mp4' type='video/mp4'></video>","3","right","66%","9","","","","","","","",""
"","3865.449999982957","sequential-stimulus-presentation","187","519812","0.0-37.0","SS1613098677457","pref_reveal","","40","800","4665.449999982957","null","null","","","","","9","","","","novel","","","",""
"","null","html-keyboard-response","188","520631","0.0-38.0-0.0","SS1613098677457","","","null","","","","","<p><img src= images/blank.png width =""200"" height = ""200"" style = ""float:right""></p><p><img src=images/blank.png width =""800"" height = ""200""></p>","","","","","","","","","","","",""
"","2038.6799999978393","sequential-stimulus-presentation","189","523479","0.0-38.0-1.0","SS1613098677457","trial","","40","800","2838.6799999978393","images/stimuli/spore_stims/simple_16_B_d.gif","images/stimuli/spore_stims/simple_16_A_d.gif","","","","","10","simple_similar","images/stimuli/spore_stims/simple_16_A_d.gif","left","","","","",""
"","null","html-keyboard-response","190","524469","0.0-38.0-0.1","SS1613098677457","","","null","","","","","<p><img src= images/blank.png width =""200"" height = ""200"" style = ""float:right""></p><p><img src=images/blank.png width =""800"" height = ""200""></p>","","","","","","","","","","","",""
"","776.4400000160094","sequential-stimulus-presentation","191","526054","0.0-38.0-1.1","SS1613098677457","trial","","40","800","1576.4400000160094","images/stimuli/spore_stims/simple_16_B_d.gif","images/stimuli/spore_stims/simple_16_A_d.gif","","","","","10","simple_similar","images/stimuli/spore_stims/simple_16_A_d.gif","left","","","","",""
"","null","html-keyboard-response","192","527165","0.0-38.0-0.2","SS1613098677457","","","null","","","","","<p><img src= images/blank.png width =""200"" height = ""200"" style = ""float:right""></p><p><img src=images/blank.png width =""800"" height = ""200""></p>","","","","","","","","","","","",""
"","898.9299999957439","sequential-stimulus-presentation","193","528877","0.0-38.0-1.2","SS1613098677457","trial","","40","800","1698.9299999957439","images/stimuli/spore_stims/simple_16_B_d.gif","images/stimuli/spore_stims/simple_16_A_d.gif","","","","","10","simple_similar","images/stimuli/spore_stims/simple_16_A_d.gif","left","","","","",""
"","null","html-keyboard-response","194","529987","0.0-38.0-0.3","SS1613098677457","","","null","","","","","<p><img src= images/blank.png width =""200"" height = ""200"" style = ""float:right""></p><p><img src=images/blank.png width =""800"" height = ""200""></p>","","","","","","","","","","","",""
"","276.94499999051914","sequential-stimulus-presentation","195","531072","0.0-38.0-1.3","SS1613098677457","trial","","40","800","1076.9449999905191","images/stimuli/spore_stims/simple_16_B_d.gif","images/stimuli/spore_stims/simple_16_A_d.gif","","","","","10","simple_similar","images/stimuli/spore_stims/simple_16_A_d.gif","left","","","","",""
"","null","html-keyboard-response","196","532366","0.0-38.0-0.4","SS1613098677457","","","null","","","","","<p><img src= images/blank.png width =""200"" height = ""200"" style = ""float:right""></p><p><img src=images/blank.png width =""800"" height = ""200""></p>","","","","","","","","","","","",""
"","492.5799999909941","sequential-stimulus-presentation","197","533668","0.0-38.0-1.4","SS1613098677457","trial","","40","800","1292.579999990994","images/stimuli/spore_stims/simple_16_B_d.gif","images/stimuli/spore_stims/simple_16_A_d.gif","","","","","10","simple_similar","images/stimuli/spore_stims/simple_16_A_d.gif","left","","","","",""
"","null","html-keyboard-response","198","534922","0.0-38.0-0.5","SS1613098677457","","","null","","","","","<p><img src= images/blank.png width =""200"" height = ""200"" style = ""float:right""></p><p><img src=images/blank.png width =""800"" height = ""200""></p>","","","","","","","","","","","",""
"","376.7949999892153","sequential-stimulus-presentation","199","536109","0.0-38.0-1.5","SS1613098677457","trial","","40","800","1176.7949999892153","images/stimuli/spore_stims/simple_16_B_d.gif","images/stimuli/spore_stims/simple_16_A_d.gif","","","","","10","simple_similar","images/stimuli/spore_stims/simple_16_A_d.gif","left","","","","",""
"","null","html-keyboard-response","200","537101","0.0-38.0-0.6","SS1613098677457","","","null","","","","","<p><img src= images/blank.png width =""200"" height = ""200"" style = ""float:right""></p><p><img src=images/blank.png width =""800"" height = ""200""></p>","","","","","","","","","","","",""
"","1486.7899999953806","sequential-stimulus-presentation","201","539395","0.0-38.0-1.6","SS1613098677457","trial","","40","800","2286.7899999953806","images/stimuli/spore_stims/simple_16_B_d.gif","images/stimuli/spore_stims/simple_16_A_d.gif","","","","","10","simple_similar","images/stimuli/spore_stims/simple_16_A_d.gif","left","","","","",""
"","null","html-keyboard-response","202","540664","0.0-38.0-0.7","SS1613098677457","","","null","","","","","<p><img src= images/blank.png width =""200"" height = ""200"" style = ""float:right""></p><p><img src=images/blank.png width =""800"" height = ""200""></p>","","","","","","","","","","","",""
"","2852.550000010524","sequential-stimulus-presentation","203","544328","0.0-38.0-1.7","SS1613098677457","trial","","40","800","3652.550000010524","images/stimuli/spore_stims/simple_16_B_d.gif","images/stimuli/spore_stims/simple_16_A_d.gif","","","","","10","simple_similar","images/stimuli/spore_stims/simple_16_B_d.gif","right","","","","",""
"","1446.4049999951385","html-keyboard-response","204","545782","0.0-39.0","SS1613098677457","pref_question","","50","","","","","<video width ='960' height = '540' style='padding-top:8%' autoplay muted><source src='images/stimuli/wall_pref.mp4' type='video/mp4'></video>","2","middle","45%","10","","","","","","","",""
"","3497.4999999976717","sequential-stimulus-presentation","205","550090","0.0-40.0","SS1613098677457","pref_reveal","","40","800","4297.499999997672","null","null","","","","","10","","","","novel","","","",""
"","null","html-keyboard-response","206","551210","0.0-41.0-0.0","SS1613098677457","","","null","","","","","<p><img src= images/blank.png width =""200"" height = ""200"" style = ""float:right""></p><p><img src=images/blank.png width =""800"" height = ""200""></p>","","","","","","","","","","","",""
"","2318.679999996675","sequential-stimulus-presentation","207","554340","0.0-41.0-1.0","SS1613098677457","trial","","40","800","3118.679999996675","images/stimuli/spore_stims/simple_17_A_c.gif","images/stimuli/spore_stims/simple_03_A_d.gif","","","","","11","simple_dissimilar","images/stimuli/spore_stims/simple_03_A_d.gif","right","","","","",""
"","null","html-keyboard-response","208","555583","0.0-41.0-0.1","SS1613098677457","","","null","","","","","<p><img src= images/blank.png width =""200"" height = ""200"" style = ""float:right""></p><p><img src=images/blank.png width =""800"" height = ""200""></p>","","","","","","","","","","","",""
"","1612.970000016503","sequential-stimulus-presentation","209","558008","0.0-41.0-1.1","SS1613098677457","trial","","40","800","2412.970000016503","images/stimuli/spore_stims/simple_17_A_c.gif","images/stimuli/spore_stims/simple_03_A_d.gif","","","","","11","simple_dissimilar","images/stimuli/spore_stims/simple_03_A_d.gif","right","","","","",""
"","null","html-keyboard-response","210","558910","0.0-41.0-0.2","SS1613098677457","","","null","","","","","<p><img src= images/blank.png width =""200"" height = ""200"" style = ""float:right""></p><p><img src=images/blank.png width =""800"" height = ""200""></p>","","","","","","","","","","","",""
"","2755.975000007311","sequential-stimulus-presentation","211","562475","0.0-41.0-1.2","SS1613098677457","trial","","40","800","3555.975000007311","images/stimuli/spore_stims/simple_17_A_c.gif","images/stimuli/spore_stims/simple_03_A_d.gif","","","","","11","simple_dissimilar","images/stimuli/spore_stims/simple_03_A_d.gif","right","","","","",""
"","null","html-keyboard-response","212","563629","0.0-41.0-0.3","SS1613098677457","","","null","","","","","<p><img src= images/blank.png width =""200"" height = ""200"" style = ""float:right""></p><p><img src=images/blank.png width =""800"" height = ""200""></p>","","","","","","","","","","","",""
"","1816.965000005439","sequential-stimulus-presentation","213","566254","0.0-41.0-1.3","SS1613098677457","trial","","40","800","2616.965000005439","images/stimuli/spore_stims/simple_17_A_c.gif","images/stimuli/spore_stims/simple_03_A_d.gif","","","","","11","simple_dissimilar","images/stimuli/spore_stims/simple_03_A_d.gif","right","","","","",""
"","null","html-keyboard-response","214","567203","0.0-41.0-0.4","SS1613098677457","","","null","","","","","<p><img src= images/blank.png width =""200"" height = ""200"" style = ""float:right""></p><p><img src=images/blank.png width =""800"" height = ""200""></p>","","","","","","","","","","","",""
"","1213.9550000138115","sequential-stimulus-presentation","215","569225","0.0-41.0-1.4","SS1613098677457","trial","","40","800","2013.9550000138115","images/stimuli/spore_stims/simple_17_A_c.gif","images/stimuli/spore_stims/simple_03_A_d.gif","","","","","11","simple_dissimilar","images/stimuli/spore_stims/simple_03_A_d.gif","right","","","","",""
"","null","html-keyboard-response","216","570188","0.0-41.0-0.5","SS1613098677457","","","null","","","","","<p><img src= images/blank.png width =""200"" height = ""200"" style = ""float:right""></p><p><img src=images/blank.png width =""800"" height = ""200""></p>","","","","","","","","","","","",""
"","807.8450000029989","sequential-stimulus-presentation","217","571804","0.0-41.0-1.5","SS1613098677457","trial","","40","800","1607.8450000029989","images/stimuli/spore_stims/simple_17_A_c.gif","images/stimuli/spore_stims/simple_03_A_d.gif","","","","","11","simple_dissimilar","images/stimuli/spore_stims/simple_03_A_d.gif","right","","","","",""
"","null","html-keyboard-response","218","572836","0.0-41.0-0.6","SS1613098677457","","","null","","","","","<p><img src= images/blank.png width =""200"" height = ""200"" style = ""float:right""></p><p><img src=images/blank.png width =""800"" height = ""200""></p>","","","","","","","","","","","",""
"","191.38499998371117","sequential-stimulus-presentation","219","573838","0.0-41.0-1.6","SS1613098677457","trial","","40","800","991.3849999837112","images/stimuli/spore_stims/simple_17_A_c.gif","images/stimuli/spore_stims/simple_03_A_d.gif","","","","","11","simple_dissimilar","images/stimuli/spore_stims/simple_03_A_d.gif","right","","","","",""
"","null","html-keyboard-response","220","574893","0.0-41.0-0.7","SS1613098677457","","","null","","","","","<p><img src= images/blank.png width =""200"" height = ""200"" style = ""float:right""></p><p><img src=images/blank.png width =""800"" height = ""200""></p>","","","","","","","","","","","",""
"","1612.3499999812339","sequential-stimulus-presentation","221","577318","0.0-41.0-1.7","SS1613098677457","trial","","40","800","2412.349999981234","images/stimuli/spore_stims/simple_17_A_c.gif","images/stimuli/spore_stims/simple_03_A_d.gif","","","","","11","simple_dissimilar","images/stimuli/spore_stims/simple_17_A_c.gif","middle","","","","",""
"","1070.6449999997858","html-keyboard-response","222","578397","0.0-42.0","SS1613098677457","pref_question","","49","","","","","<video width ='960' height = '540' style='padding-top:8%' autoplay muted><source src='images/stimuli/wall_pref.mp4' type='video/mp4'></video>","1","left","25%","11","","","","","","","",""
"","3070.594999997411","sequential-stimulus-presentation","223","582321","0.0-43.0","SS1613098677457","pref_reveal","","40","800","3870.594999997411","null","null","","","","","11","","","","novel","","","",""
"","null","html-keyboard-response","224","583187","0.0-44.0-0.0","SS1613098677457","","","null","","","","","<p><img src= images/blank.png width =""200"" height = ""200"" style = ""float:right""></p><p><img src=images/blank.png width =""800"" height = ""200""></p>","","","","","","","","","","","",""
"","2425.454999989597","sequential-stimulus-presentation","225","586422","0.0-44.0-1.0","SS1613098677457","trial","","40","800","3225.454999989597","images/stimuli/spore_stims/complex_14_B_d.gif","images/stimuli/spore_stims/complex_14_A_d.gif","","","","","12","complex_similar","images/stimuli/spore_stims/complex_14_A_d.gif","left","","","","",""
"","null","html-keyboard-response","226","587299","0.0-44.0-0.1","SS1613098677457","","","null","","","","","<p><img src= images/blank.png width =""200"" height = ""200"" style = ""float:right""></p><p><img src=images/blank.png width =""800"" height = ""200""></p>","","","","","","","","","","","",""
"","442.22999998601153","sequential-stimulus-presentation","227","588551","0.0-44.0-1.1","SS1613098677457","trial","","40","800","1242.2299999860115","images/stimuli/spore_stims/complex_14_B_d.gif","images/stimuli/spore_stims/complex_14_A_d.gif","","","","","12","complex_similar","images/stimuli/spore_stims/complex_14_A_d.gif","left","","","","",""
"","null","html-keyboard-response","228","589535","0.0-44.0-0.2","SS1613098677457","","","null","","","","","<p><img src= images/blank.png width =""200"" height = ""200"" style = ""float:right""></p><p><img src=images/blank.png width =""800"" height = ""200""></p>","","","","","","","","","","","",""
"","711.829999985639","sequential-stimulus-presentation","229","591059","0.0-44.0-1.2","SS1613098677457","trial","","40","800","1511.829999985639","images/stimuli/spore_stims/complex_14_B_d.gif","images/stimuli/spore_stims/complex_14_A_d.gif","","","","","12","complex_similar","images/stimuli/spore_stims/complex_14_A_d.gif","left","","","","",""
"","null","html-keyboard-response","230","592078","0.0-44.0-0.3","SS1613098677457","","","null","","","","","<p><img src= images/blank.png width =""200"" height = ""200"" style = ""float:right""></p><p><img src=images/blank.png width =""800"" height = ""200""></p>","","","","","","","","","","","",""
"","500.7749999931548","sequential-stimulus-presentation","231","593389","0.0-44.0-1.3","SS1613098677457","trial","","40","800","1300.7749999931548","images/stimuli/spore_stims/complex_14_B_d.gif","images/stimuli/spore_stims/complex_14_A_d.gif","","","","","12","complex_similar","images/stimuli/spore_stims/complex_14_A_d.gif","left","","","","",""
"","null","html-keyboard-response","232","594290","0.0-44.0-0.4","SS1613098677457","","","null","","","","","<p><img src= images/blank.png width =""200"" height = ""200"" style = ""float:right""></p><p><img src=images/blank.png width =""800"" height = ""200""></p>","","","","","","","","","","","",""
"","2972.4950000236277","sequential-stimulus-presentation","233","598071","0.0-44.0-1.4","SS1613098677457","trial","","40","800","3772.4950000236277","images/stimuli/spore_stims/complex_14_B_d.gif","images/stimuli/spore_stims/complex_14_A_d.gif","","","","","12","complex_similar","images/stimuli/spore_stims/complex_14_B_d.gif","right","","","","",""
"","null","html-keyboard-response","234","599027","0.0-44.0-0.5","SS1613098677457","","","null","","","","","<p><img src= images/blank.png width =""200"" height = ""200"" style = ""float:right""></p><p><img src=images/blank.png width =""800"" height = ""200""></p>","","","","","","","","","","","",""
"","2356.2000000092667","sequential-stimulus-presentation","235","602193","0.0-44.0-1.5","SS1613098677457","trial","","40","800","3156.2000000092667","images/stimuli/spore_stims/complex_14_B_d.gif","images/stimuli/spore_stims/complex_14_A_d.gif","","","","","12","complex_similar","images/stimuli/spore_stims/complex_14_A_d.gif","left","","","","",""
"","null","html-keyboard-response","236","603157","0.0-44.0-0.6","SS1613098677457","","","null","","","","","<p><img src= images/blank.png width =""200"" height = ""200"" style = ""float:right""></p><p><img src=images/blank.png width =""800"" height = ""200""></p>","","","","","","","","","","","",""
"","921.1450000002515","sequential-stimulus-presentation","237","604888","0.0-44.0-1.6","SS1613098677457","trial","","40","800","1721.1450000002515","images/stimuli/spore_stims/complex_14_B_d.gif","images/stimuli/spore_stims/complex_14_A_d.gif","","","","","12","complex_similar","images/stimuli/spore_stims/complex_14_A_d.gif","left","","","","",""
"","null","html-keyboard-response","238","605848","0.0-44.0-0.7","SS1613098677457","","","null","","","","","<p><img src= images/blank.png width =""200"" height = ""200"" style = ""float:right""></p><p><img src=images/blank.png width =""800"" height = ""200""></p>","","","","","","","","","","","",""
"","297.1350000007078","sequential-stimulus-presentation","239","606957","0.0-44.0-1.7","SS1613098677457","trial","","40","800","1097.1350000007078","images/stimuli/spore_stims/complex_14_B_d.gif","images/stimuli/spore_stims/complex_14_A_d.gif","","","","","12","complex_similar","images/stimuli/spore_stims/complex_14_A_d.gif","left","","","","",""
"","1072.9599999904167","html-keyboard-response","240","608040","0.0-45.0","SS1613098677457","pref_question","","50","","","","","<video width ='960' height = '540' style='padding-top:8%' autoplay muted><source src='images/stimuli/wall_pref.mp4' type='video/mp4'></video>","2","middle","45%","12","","","","","","","",""
"","1336.9150000216905","sequential-stimulus-presentation","241","610187","0.0-46.0","SS1613098677457","pref_reveal","","40","800","2136.9150000216905","null","null","","","","","12","","","","novel","","","",""
"","null","html-keyboard-response","242","611493","0.0-47.0-0.0","SS1613098677457","","","null","","","","","<p><img src= images/blank.png width =""200"" height = ""200"" style = ""float:right""></p><p><img src=images/blank.png width =""800"" height = ""200""></p>","","","","","","","","","","","",""
"","9399.609999993118","sequential-stimulus-presentation","243","621727","0.0-47.0-1.0","SS1613098677457","trial","","40","800","10199.609999993118","images/stimuli/spore_stims/complex_04_A_b.gif","images/stimuli/spore_stims/complex_05_B_d.gif","","","","","13","complex_dissimilar","images/stimuli/spore_stims/complex_05_B_d.gif","middle","","","","",""
"","null","html-keyboard-response","244","622610","0.0-47.0-0.1","SS1613098677457","","","null","","","","","<p><img src= images/blank.png width =""200"" height = ""200"" style = ""float:right""></p><p><img src=images/blank.png width =""800"" height = ""200""></p>","","","","","","","","","","","",""
"","2535.759999998845","sequential-stimulus-presentation","245","625956","0.0-47.0-1.1","SS1613098677457","trial","","40","800","3335.759999998845","images/stimuli/spore_stims/complex_04_A_b.gif","images/stimuli/spore_stims/complex_05_B_d.gif","","","","","13","complex_dissimilar","images/stimuli/spore_stims/complex_05_B_d.gif","middle","","","","",""
"","null","html-keyboard-response","246","626850","0.0-47.0-0.2","SS1613098677457","","","null","","","","","<p><img src= images/blank.png width =""200"" height = ""200"" style = ""float:right""></p><p><img src=images/blank.png width =""800"" height = ""200""></p>","","","","","","","","","","","",""
"","4325.35500000813","sequential-stimulus-presentation","247","631986","0.0-47.0-1.2","SS1613098677457","trial","","40","800","5125.35500000813","images/stimuli/spore_stims/complex_04_A_b.gif","images/stimuli/spore_stims/complex_05_B_d.gif","","","","","13","complex_dissimilar","images/stimuli/spore_stims/complex_05_B_d.gif","middle","","","","",""
"","null","html-keyboard-response","248","632908","0.0-47.0-0.3","SS1613098677457","","","null","","","","","<p><img src= images/blank.png width =""200"" height = ""200"" style = ""float:right""></p><p><img src=images/blank.png width =""800"" height = ""200""></p>","","","","","","","","","","","",""
"","3345.7300000009127","sequential-stimulus-presentation","249","637065","0.0-47.0-1.3","SS1613098677457","trial","","40","800","4145.730000000913","images/stimuli/spore_stims/complex_04_A_b.gif","images/stimuli/spore_stims/complex_05_B_d.gif","","","","","13","complex_dissimilar","images/stimuli/spore_stims/complex_04_A_b.gif","right","","","","",""
"","null","html-keyboard-response","250","638021","0.0-47.0-0.4","SS1613098677457","","","null","","","","","<p><img src= images/blank.png width =""200"" height = ""200"" style = ""float:right""></p><p><img src=images/blank.png width =""800"" height = ""200""></p>","","","","","","","","","","","",""
"","2755.0800000026356","sequential-stimulus-presentation","251","641586","0.0-47.0-1.4","SS1613098677457","trial","","40","800","3555.0800000026356","images/stimuli/spore_stims/complex_04_A_b.gif","images/stimuli/spore_stims/complex_05_B_d.gif","","","","","13","complex_dissimilar","images/stimuli/spore_stims/complex_05_B_d.gif","middle","","","","",""
"","null","html-keyboard-response","252","642857","0.0-47.0-0.5","SS1613098677457","","","null","","","","","<p><img src= images/blank.png width =""200"" height = ""200"" style = ""float:right""></p><p><img src=images/blank.png width =""800"" height = ""200""></p>","","","","","","","","","","","",""
"","510.3099999832921","sequential-stimulus-presentation","253","644180","0.0-47.0-1.5","SS1613098677457","trial","","40","800","1310.309999983292","images/stimuli/spore_stims/complex_04_A_b.gif","images/stimuli/spore_stims/complex_05_B_d.gif","","","","","13","complex_dissimilar","images/stimuli/spore_stims/complex_05_B_d.gif","middle","","","","",""
"","null","html-keyboard-response","254","645477","0.0-47.0-0.6","SS1613098677457","","","null","","","","","<p><img src= images/blank.png width =""200"" height = ""200"" style = ""float:right""></p><p><img src=images/blank.png width =""800"" height = ""200""></p>","","","","","","","","","","","",""
"","243.61999999382533","sequential-stimulus-presentation","255","646532","0.0-47.0-1.6","SS1613098677457","trial","","40","800","1043.6199999938253","images/stimuli/spore_stims/complex_04_A_b.gif","images/stimuli/spore_stims/complex_05_B_d.gif","","","","","13","complex_dissimilar","images/stimuli/spore_stims/complex_05_B_d.gif","middle","","","","",""
"","null","html-keyboard-response","256","647384","0.0-47.0-0.7","SS1613098677457","","","null","","","","","<p><img src= images/blank.png width =""200"" height = ""200"" style = ""float:right""></p><p><img src=images/blank.png width =""800"" height = ""200""></p>","","","","","","","","","","","",""
"","425.8350000018254","sequential-stimulus-presentation","257","648622","0.0-47.0-1.7","SS1613098677457","trial","","40","800","1225.8350000018254","images/stimuli/spore_stims/complex_04_A_b.gif","images/stimuli/spore_stims/complex_05_B_d.gif","","","","","13","complex_dissimilar","images/stimuli/spore_stims/complex_05_B_d.gif","middle","","","","",""
"","1163.7850000115577","html-keyboard-response","258","649795","0.0-48.0","SS1613098677457","pref_question","","49","","","","","<video width ='960' height = '540' style='padding-top:8%' autoplay muted><source src='images/stimuli/wall_pref.mp4' type='video/mp4'></video>","1","left","25%","13","","","","","","","",""
"","4440.135000011651","sequential-stimulus-presentation","259","655046","0.0-49.0","SS1613098677457","pref_reveal","","40","800","5240.135000011651","null","null","","","","","13","","","","novel","","","",""
"","null","html-keyboard-response","260","655900","0.0-50.0-0.0","SS1613098677457","","","null","","","","","<p><img src= images/blank.png width =""200"" height = ""200"" style = ""float:right""></p><p><img src=images/blank.png width =""800"" height = ""200""></p>","","","","","","","","","","","",""
"","181.84999999357387","sequential-stimulus-presentation","261","656893","0.0-50.0-1.0","SS1613098677457","trial","","40","800","981.8499999935739","images/stimuli/spore_stims/complex_15_A_d.gif","images/stimuli/spore_stims/complex_05_A_c.gif","","","","","14","complex_dissimilar","images/stimuli/spore_stims/complex_05_A_c.gif","left","","","","",""
"","null","html-keyboard-response","262","657933","0.0-50.0-0.1","SS1613098677457","","","null","","","","","<p><img src= images/blank.png width =""200"" height = ""200"" style = ""float:right""></p><p><img src=images/blank.png width =""800"" height = ""200""></p>","","","","","","","","","","","",""
"","143.76000000629574","sequential-stimulus-presentation","263","658887","0.0-50.0-1.1","SS1613098677457","trial","","40","800","943.7600000062957","images/stimuli/spore_stims/complex_15_A_d.gif","images/stimuli/spore_stims/complex_05_A_c.gif","","","","","14","complex_dissimilar","images/stimuli/spore_stims/complex_05_A_c.gif","left","","","","",""
"","null","html-keyboard-response","264","660002","0.0-50.0-0.2","SS1613098677457","","","null","","","","","<p><img src= images/blank.png width =""200"" height = ""200"" style = ""float:right""></p><p><img src=images/blank.png width =""800"" height = ""200""></p>","","","","","","","","","","","",""
"","169.82499998994172","sequential-stimulus-presentation","265","660981","0.0-50.0-1.2","SS1613098677457","trial","","40","800","969.8249999899417","images/stimuli/spore_stims/complex_15_A_d.gif","images/stimuli/spore_stims/complex_05_A_c.gif","","","","","14","complex_dissimilar","images/stimuli/spore_stims/complex_15_A_d.gif","middle","","","","",""
"","null","html-keyboard-response","266","662046","0.0-50.0-0.3","SS1613098677457","","","null","","","","","<p><img src= images/blank.png width =""200"" height = ""200"" style = ""float:right""></p><p><img src=images/blank.png width =""800"" height = ""200""></p>","","","","","","","","","","","",""
"","159.80499997385778","sequential-stimulus-presentation","267","663015","0.0-50.0-1.3","SS1613098677457","trial","","40","800","959.8049999738578","images/stimuli/spore_stims/complex_15_A_d.gif","images/stimuli/spore_stims/complex_05_A_c.gif","","","","","14","complex_dissimilar","images/stimuli/spore_stims/complex_05_A_c.gif","left","","","","",""
"","null","html-keyboard-response","268","664058","0.0-50.0-0.4","SS1613098677457","","","null","","","","","<p><img src= images/blank.png width =""200"" height = ""200"" style = ""float:right""></p><p><img src=images/blank.png width =""800"" height = ""200""></p>","","","","","","","","","","","",""
"","180.46499998308718","sequential-stimulus-presentation","269","665047","0.0-50.0-1.4","SS1613098677457","trial","","40","800","980.4649999830872","images/stimuli/spore_stims/complex_15_A_d.gif","images/stimuli/spore_stims/complex_05_A_c.gif","","","","","14","complex_dissimilar","images/stimuli/spore_stims/complex_05_A_c.gif","left","","","","",""
"","null","html-keyboard-response","270","666268","0.0-50.0-0.5","SS1613098677457","","","null","","","","","<p><img src= images/blank.png width =""200"" height = ""200"" style = ""float:right""></p><p><img src=images/blank.png width =""800"" height = ""200""></p>","","","","","","","","","","","",""
"","265.6499999866355","sequential-stimulus-presentation","271","667372","0.0-50.0-1.5","SS1613098677457","trial","","40","800","1065.6499999866355","images/stimuli/spore_stims/complex_15_A_d.gif","images/stimuli/spore_stims/complex_05_A_c.gif","","","","","14","complex_dissimilar","images/stimuli/spore_stims/complex_05_A_c.gif","left","","","","",""
"","null","html-keyboard-response","272","668475","0.0-50.0-0.6","SS1613098677457","","","null","","","","","<p><img src= images/blank.png width =""200"" height = ""200"" style = ""float:right""></p><p><img src=images/blank.png width =""800"" height = ""200""></p>","","","","","","","","","","","",""
"","339.3649999925401","sequential-stimulus-presentation","273","669624","0.0-50.0-1.6","SS1613098677457","trial","","40","800","1139.36499999254","images/stimuli/spore_stims/complex_15_A_d.gif","images/stimuli/spore_stims/complex_05_A_c.gif","","","","","14","complex_dissimilar","images/stimuli/spore_stims/complex_05_A_c.gif","left","","","","",""
"","null","html-keyboard-response","274","670929","0.0-50.0-0.7","SS1613098677457","","","null","","","","","<p><img src= images/blank.png width =""200"" height = ""200"" style = ""float:right""></p><p><img src=images/blank.png width =""800"" height = ""200""></p>","","","","","","","","","","","",""
"","163.45999998156913","sequential-stimulus-presentation","275","671902","0.0-50.0-1.7","SS1613098677457","trial","","40","800","963.4599999815691","images/stimuli/spore_stims/complex_15_A_d.gif","images/stimuli/spore_stims/complex_05_A_c.gif","","","","","14","complex_dissimilar","images/stimuli/spore_stims/complex_05_A_c.gif","left","","","","",""
"","661.8400000152178","html-keyboard-response","276","672575","0.0-51.0","SS1613098677457","pref_question","","51","","","","","<video width ='960' height = '540' style='padding-top:8%' autoplay muted><source src='images/stimuli/wall_pref.mp4' type='video/mp4'></video>","3","right","66%","14","","","","","","","",""
"","2958.9599999890197","sequential-stimulus-presentation","277","676343","0.0-52.0","SS1613098677457","pref_reveal","","40","800","3758.9599999890197","null","null","","","","","14","","","","novel","","","",""
"","null","html-keyboard-response","278","677466","0.0-53.0-0.0","SS1613098677457","","","null","","","","","<p><img src= images/blank.png width =""200"" height = ""200"" style = ""float:right""></p><p><img src=images/blank.png width =""800"" height = ""200""></p>","","","","","","","","","","","",""
"","1538.4550000017043","sequential-stimulus-presentation","279","679814","0.0-53.0-1.0","SS1613098677457","trial","","40","800","2338.4550000017043","images/stimuli/spore_stims/complex_08_B_b.gif","images/stimuli/spore_stims/complex_08_A_b.gif","","","","","15","complex_similar","images/stimuli/spore_stims/complex_08_A_b.gif","right","","","","",""
"","null","html-keyboard-response","280","680711","0.0-53.0-0.1","SS1613098677457","","","null","","","","","<p><img src= images/blank.png width =""200"" height = ""200"" style = ""float:right""></p><p><img src=images/blank.png width =""800"" height = ""200""></p>","","","","","","","","","","","",""
"","2740.7400000083726","sequential-stimulus-presentation","281","684262","0.0-53.0-1.1","SS1613098677457","trial","","40","800","3540.7400000083726","images/stimuli/spore_stims/complex_08_B_b.gif","images/stimuli/spore_stims/complex_08_A_b.gif","","","","","15","complex_similar","images/stimuli/spore_stims/complex_08_A_b.gif","right","","","","",""
"","null","html-keyboard-response","282","685404","0.0-53.0-0.2","SS1613098677457","","","null","","","","","<p><img src= images/blank.png width =""200"" height = ""200"" style = ""float:right""></p><p><img src=images/blank.png width =""800"" height = ""200""></p>","","","","","","","","","","","",""
"","1579.2250000231434","sequential-stimulus-presentation","283","687794","0.0-53.0-1.2","SS1613098677457","trial","","40","800","2379.2250000231434","images/stimuli/spore_stims/complex_08_B_b.gif","images/stimuli/spore_stims/complex_08_A_b.gif","","","","","15","complex_similar","images/stimuli/spore_stims/complex_08_A_b.gif","right","","","","",""
"","null","html-keyboard-response","284","688788","0.0-53.0-0.3","SS1613098677457","","","null","","","","","<p><img src= images/blank.png width =""200"" height = ""200"" style = ""float:right""></p><p><img src=images/blank.png width =""800"" height = ""200""></p>","","","","","","","","","","","",""
"","287.689999997383","sequential-stimulus-presentation","285","689887","0.0-53.0-1.3","SS1613098677457","trial","","40","800","1087.689999997383","images/stimuli/spore_stims/complex_08_B_b.gif","images/stimuli/spore_stims/complex_08_A_b.gif","","","","","15","complex_similar","images/stimuli/spore_stims/complex_08_A_b.gif","right","","","","",""
"","null","html-keyboard-response","286","690735","0.0-53.0-0.4","SS1613098677457","","","null","","","","","<p><img src= images/blank.png width =""200"" height = ""200"" style = ""float:right""></p><p><img src=images/blank.png width =""800"" height = ""200""></p>","","","","","","","","","","","",""
"","820.4749999858905","sequential-stimulus-presentation","287","692366","0.0-53.0-1.4","SS1613098677457","trial","","40","800","1620.4749999858905","images/stimuli/spore_stims/complex_08_B_b.gif","images/stimuli/spore_stims/complex_08_A_b.gif","","","","","15","complex_similar","images/stimuli/spore_stims/complex_08_A_b.gif","right","","","","",""
"","null","html-keyboard-response","288","693598","0.0-53.0-0.5","SS1613098677457","","","null","","","","","<p><img src= images/blank.png width =""200"" height = ""200"" style = ""float:right""></p><p><img src=images/blank.png width =""800"" height = ""200""></p>","","","","","","","","","","","",""
"","860.4399999894667","sequential-stimulus-presentation","289","695271","0.0-53.0-1.5","SS1613098677457","trial","","40","800","1660.4399999894667","images/stimuli/spore_stims/complex_08_B_b.gif","images/stimuli/spore_stims/complex_08_A_b.gif","","","","","15","complex_similar","images/stimuli/spore_stims/complex_08_A_b.gif","right","","","","",""
"","null","html-keyboard-response","290","696574","0.0-53.0-0.6","SS1613098677457","","","null","","","","","<p><img src= images/blank.png width =""200"" height = ""200"" style = ""float:right""></p><p><img src=images/blank.png width =""800"" height = ""200""></p>","","","","","","","","","","","",""
"","273.57499999925494","sequential-stimulus-presentation","291","697660","0.0-53.0-1.6","SS1613098677457","trial","","40","800","1073.574999999255","images/stimuli/spore_stims/complex_08_B_b.gif","images/stimuli/spore_stims/complex_08_A_b.gif","","","","","15","complex_similar","images/stimuli/spore_stims/complex_08_A_b.gif","right","","","","",""
"","null","html-keyboard-response","292","698785","0.0-53.0-0.7","SS1613098677457","","","null","","","","","<p><img src= images/blank.png width =""200"" height = ""200"" style = ""float:right""></p><p><img src=images/blank.png width =""800"" height = ""200""></p>","","","","","","","","","","","",""
"","3440.0600000226405","sequential-stimulus-presentation","293","703035","0.0-53.0-1.7","SS1613098677457","trial","","40","800","4240.06000002264","images/stimuli/spore_stims/complex_08_B_b.gif","images/stimuli/spore_stims/complex_08_A_b.gif","","","","","15","complex_similar","images/stimuli/spore_stims/complex_08_B_b.gif","left","","","","",""
"","881.0600000142585","html-keyboard-response","294","703925","0.0-54.0","SS1613098677457","pref_question","","50","","","","","<video width ='960' height = '540' style='padding-top:8%' autoplay muted><source src='images/stimuli/wall_pref.mp4' type='video/mp4'></video>","2","middle","45%","15","","","","","","","",""
"","2616.4799999969546","sequential-stimulus-presentation","295","707351","0.0-55.0","SS1613098677457","pref_reveal","","40","800","3416.4799999969546","null","null","","","","","15","","","","novel","","","",""
"","null","html-keyboard-response","296","708451","0.0-56.0-0.0","SS1613098677457","","","null","","","","","<p><img src= images/blank.png width =""200"" height = ""200"" style = ""float:right""></p><p><img src=images/blank.png width =""800"" height = ""200""></p>","","","","","","","","","","","",""
"","2703.129999979865","sequential-stimulus-presentation","297","711999","0.0-56.0-1.0","SS1613098677457","trial","","40","800","3503.129999979865","images/stimuli/spore_stims/simple_02_A_a.gif","images/stimuli/spore_stims/simple_11_A_d.gif","","","","","16","simple_dissimilar","images/stimuli/spore_stims/simple_11_A_d.gif","right","","","","",""
"","null","html-keyboard-response","298","712861","0.0-56.0-0.1","SS1613098677457","","","null","","","","","<p><img src= images/blank.png width =""200"" height = ""200"" style = ""float:right""></p><p><img src=images/blank.png width =""800"" height = ""200""></p>","","","","","","","","","","","",""
"","570.190000027651","sequential-stimulus-presentation","299","714242","0.0-56.0-1.1","SS1613098677457","trial","","40","800","1370.190000027651","images/stimuli/spore_stims/simple_02_A_a.gif","images/stimuli/spore_stims/simple_11_A_d.gif","","","","","16","simple_dissimilar","images/stimuli/spore_stims/simple_11_A_d.gif","right","","","","",""
"","null","html-keyboard-response","300","715315","0.0-56.0-0.2","SS1613098677457","","","null","","","","","<p><img src= images/blank.png width =""200"" height = ""200"" style = ""float:right""></p><p><img src=images/blank.png width =""800"" height = ""200""></p>","","","","","","","","","","","",""
"","634.0850000269711","sequential-stimulus-presentation","301","716759","0.0-56.0-1.2","SS1613098677457","trial","","40","800","1434.085000026971","images/stimuli/spore_stims/simple_02_A_a.gif","images/stimuli/spore_stims/simple_11_A_d.gif","","","","","16","simple_dissimilar","images/stimuli/spore_stims/simple_11_A_d.gif","right","","","","",""
"","null","html-keyboard-response","302","717835","0.0-56.0-0.3","SS1613098677457","","","null","","","","","<p><img src= images/blank.png width =""200"" height = ""200"" style = ""float:right""></p><p><img src=images/blank.png width =""800"" height = ""200""></p>","","","","","","","","","","","",""
"","708.0900000000838","sequential-stimulus-presentation","303","719353","0.0-56.0-1.3","SS1613098677457","trial","","40","800","1508.0900000000838","images/stimuli/spore_stims/simple_02_A_a.gif","images/stimuli/spore_stims/simple_11_A_d.gif","","","","","16","simple_dissimilar","images/stimuli/spore_stims/simple_11_A_d.gif","right","","","","",""
"","null","html-keyboard-response","304","720186","0.0-56.0-0.4","SS1613098677457","","","null","","","","","<p><img src= images/blank.png width =""200"" height = ""200"" style = ""float:right""></p><p><img src=images/blank.png width =""800"" height = ""200""></p>","","","","","","","","","","","",""
"","3208.3850000053644","sequential-stimulus-presentation","305","724214","0.0-56.0-1.4","SS1613098677457","trial","","40","800","4008.3850000053644","images/stimuli/spore_stims/simple_02_A_a.gif","images/stimuli/spore_stims/simple_11_A_d.gif","","","","","16","simple_dissimilar","images/stimuli/spore_stims/simple_02_A_a.gif","middle","","","","",""
"","null","html-keyboard-response","306","725427","0.0-56.0-0.5","SS1613098677457","","","null","","","","","<p><img src= images/blank.png width =""200"" height = ""200"" style = ""float:right""></p><p><img src=images/blank.png width =""800"" height = ""200""></p>","","","","","","","","","","","",""
"","1646.919999999227","sequential-stimulus-presentation","307","727889","0.0-56.0-1.5","SS1613098677457","trial","","40","800","2446.919999999227","images/stimuli/spore_stims/simple_02_A_a.gif","images/stimuli/spore_stims/simple_11_A_d.gif","","","","","16","simple_dissimilar","images/stimuli/spore_stims/simple_11_A_d.gif","right","","","","",""
"","null","html-keyboard-response","308","729090","0.0-56.0-0.6","SS1613098677457","","","null","","","","","<p><img src= images/blank.png width =""200"" height = ""200"" style = ""float:right""></p><p><img src=images/blank.png width =""800"" height = ""200""></p>","","","","","","","","","","","",""
"","511.8850000144448","sequential-stimulus-presentation","309","730416","0.0-56.0-1.6","SS1613098677457","trial","","40","800","1311.8850000144448","images/stimuli/spore_stims/simple_02_A_a.gif","images/stimuli/spore_stims/simple_11_A_d.gif","","","","","16","simple_dissimilar","images/stimuli/spore_stims/simple_11_A_d.gif","right","","","","",""
"","null","html-keyboard-response","310","731490","0.0-56.0-0.7","SS1613098677457","","","null","","","","","<p><img src= images/blank.png width =""200"" height = ""200"" style = ""float:right""></p><p><img src=images/blank.png width =""800"" height = ""200""></p>","","","","","","","","","","","",""
"","457.13500000420026","sequential-stimulus-presentation","311","732759","0.0-56.0-1.7","SS1613098677457","trial","","40","800","1257.1350000042003","images/stimuli/spore_stims/simple_02_A_a.gif","images/stimuli/spore_stims/simple_11_A_d.gif","","","","","16","simple_dissimilar","images/stimuli/spore_stims/simple_11_A_d.gif","right","","","","",""
"","558.9150000014342","html-keyboard-response","312","733330","0.0-57.0","SS1613098677457","pref_question","","49","","","","","<video width ='960' height = '540' style='padding-top:8%' autoplay muted><source src='images/stimuli/wall_pref.mp4' type='video/mp4'></video>","1","left","25%","16","","","","","","","",""
