"view_history","rt","trial_type","trial_index","time_elapsed","internal_node_id","subject","stimulus_type","trial_stimulus","key_press","minimum_viewing_duration","trial_looking_time","block_deviant","block_background","stimulus","wall_pref","location","location_percent","block_number","block_type","stimulus_displayed","position_displayed","stim_type_selected","responses","question_order","stimulus_left","stimulus_right"
"[{""page_index"":0,""viewing_time"":71965.16999999585}]","71965.69499999896","instructions","0","71967","0.0-0.0","SS1613140864480","","","","","","","","","","","","","","","","","","","",""
"[{""page_index"":0,""viewing_time"":14195.840000000317},{""page_index"":1,""viewing_time"":10167.474999994738}]","24363.484999994398","instructions","1","98334","0.0-1.0","SS1613140864480","instructions","","","","","","","","","","","","","","","","","","",""
"","9536.240000001271","sequential-stimulus-presentation","2","108678","0.0-2.0","SS1613140864480","","","40","800","10336.240000001271","null","null","","","","","","","","","","","","",""
"","6000.025000001187","sequential-stimulus-presentation","3","115485","0.0-3.0","SS1613140864480","","","40","800","6800.025000001187","null","null","","","","","","","","","","","","",""
"[{""page_index"":0,""viewing_time"":4512.009999998554}]","4512.159999998403","instructions","4","119998","0.0-4.0","SS1613140864480","instructions","","","","","","","","","","","","","","","","","","",""
"","11846.695000000182","html-keyboard-response","5","131848","0.0-5.0","SS1613140864480","instructions","","49","","","","","<video width ='960' height = '540' autoplay muted><source src='images/stimuli/wall_pref.mp4' type='video/mp4'></video>","1","left","25%","","","","","","","","",""
"","3294.9599999992643","sequential-stimulus-presentation","6","135949","0.0-6.0","SS1613140864480","pref_reveal","","40","800","4094.9599999992643","null","null","","","","","","","","","","","","",""
"[{""page_index"":0,""viewing_time"":12503.004999998666},{""page_index"":1,""viewing_time"":5008.099999999104},{""page_index"":2,""viewing_time"":2712.2999999992317},{""page_index"":3,""viewing_time"":2576.375000004191}]","22799.919999997655","instructions","7","158751","0.0-7.0","SS1613140864480","instructions","","","","","","","","","","","","","","","","","","",""
"","null","html-keyboard-response","8","159624","0.0-8.0-0.0","SS1613140864480","","","null","","","","","<p><img src= images/blank.png width =""200"" height = ""200"" style = ""float:right""></p><p><img src=images/blank.png width =""800"" height = ""200""></p>","","","","","","","","","","","",""
"","2600.2799999987474","sequential-stimulus-presentation","9","163030","0.0-8.0-1.0","SS1613140864480","trial","","40","800","3400.2799999987474","images/stimuli/spore_stims/simple_12_B_b.gif","images/stimuli/spore_stims/simple_08_B_a.gif","","","","","0","simple_dissimilar","images/stimuli/spore_stims/simple_08_B_a.gif","middle","","","","",""
"","null","html-keyboard-response","10","164187","0.0-8.0-0.1","SS1613140864480","","","null","","","","","<p><img src= images/blank.png width =""200"" height = ""200"" style = ""float:right""></p><p><img src=images/blank.png width =""800"" height = ""200""></p>","","","","","","","","","","","",""
"","2802.1950000038487","sequential-stimulus-presentation","11","167799","0.0-8.0-1.1","SS1613140864480","trial","","40","800","3602.1950000038487","images/stimuli/spore_stims/simple_12_B_b.gif","images/stimuli/spore_stims/simple_08_B_a.gif","","","","","0","simple_dissimilar","images/stimuli/spore_stims/simple_08_B_a.gif","middle","","","","",""
"","null","html-keyboard-response","12","168634","0.0-8.0-0.2","SS1613140864480","","","null","","","","","<p><img src= images/blank.png width =""200"" height = ""200"" style = ""float:right""></p><p><img src=images/blank.png width =""800"" height = ""200""></p>","","","","","","","","","","","",""
"","2943.8200000004144","sequential-stimulus-presentation","13","172390","0.0-8.0-1.2","SS1613140864480","trial","","40","800","3743.8200000004144","images/stimuli/spore_stims/simple_12_B_b.gif","images/stimuli/spore_stims/simple_08_B_a.gif","","","","","0","simple_dissimilar","images/stimuli/spore_stims/simple_12_B_b.gif","left","","","","",""
"","null","html-keyboard-response","14","173645","0.0-8.0-0.3","SS1613140864480","","","null","","","","","<p><img src= images/blank.png width =""200"" height = ""200"" style = ""float:right""></p><p><img src=images/blank.png width =""800"" height = ""200""></p>","","","","","","","","","","","",""
"","2220.744999998715","sequential-stimulus-presentation","15","176671","0.0-8.0-1.3","SS1613140864480","trial","","40","800","3020.744999998715","images/stimuli/spore_stims/simple_12_B_b.gif","images/stimuli/spore_stims/simple_08_B_a.gif","","","","","0","simple_dissimilar","images/stimuli/spore_stims/simple_08_B_a.gif","middle","","","","",""
"","null","html-keyboard-response","16","177915","0.0-8.0-0.4","SS1613140864480","","","null","","","","","<p><img src= images/blank.png width =""200"" height = ""200"" style = ""float:right""></p><p><img src=images/blank.png width =""800"" height = ""200""></p>","","","","","","","","","","","",""
"","2602.904999999737","sequential-stimulus-presentation","17","181334","0.0-8.0-1.4","SS1613140864480","trial","","40","800","3402.904999999737","images/stimuli/spore_stims/simple_12_B_b.gif","images/stimuli/spore_stims/simple_08_B_a.gif","","","","","0","simple_dissimilar","images/stimuli/spore_stims/simple_08_B_a.gif","middle","","","","",""
"","null","html-keyboard-response","18","182368","0.0-8.0-0.5","SS1613140864480","","","null","","","","","<p><img src= images/blank.png width =""200"" height = ""200"" style = ""float:right""></p><p><img src=images/blank.png width =""800"" height = ""200""></p>","","","","","","","","","","","",""
"","2442.3450000031153","sequential-stimulus-presentation","19","185615","0.0-8.0-1.5","SS1613140864480","trial","","40","800","3242.3450000031153","images/stimuli/spore_stims/simple_12_B_b.gif","images/stimuli/spore_stims/simple_08_B_a.gif","","","","","0","simple_dissimilar","images/stimuli/spore_stims/simple_08_B_a.gif","middle","","","","",""
"","null","html-keyboard-response","20","186639","0.0-8.0-0.6","SS1613140864480","","","null","","","","","<p><img src= images/blank.png width =""200"" height = ""200"" style = ""float:right""></p><p><img src=images/blank.png width =""800"" height = ""200""></p>","","","","","","","","","","","",""
"","3260.050000004412","sequential-stimulus-presentation","21","190710","0.0-8.0-1.6","SS1613140864480","trial","","40","800","4060.050000004412","images/stimuli/spore_stims/simple_12_B_b.gif","images/stimuli/spore_stims/simple_08_B_a.gif","","","","","0","simple_dissimilar","images/stimuli/spore_stims/simple_08_B_a.gif","middle","","","","",""
"","null","html-keyboard-response","22","191913","0.0-8.0-0.7","SS1613140864480","","","null","","","","","<p><img src= images/blank.png width =""200"" height = ""200"" style = ""float:right""></p><p><img src=images/blank.png width =""800"" height = ""200""></p>","","","","","","","","","","","",""
"","2184.240000002319","sequential-stimulus-presentation","23","194903","0.0-8.0-1.7","SS1613140864480","trial","","40","800","2984.240000002319","images/stimuli/spore_stims/simple_12_B_b.gif","images/stimuli/spore_stims/simple_08_B_a.gif","","","","","0","simple_dissimilar","images/stimuli/spore_stims/simple_08_B_a.gif","middle","","","","",""
"","1546.12000000634","html-keyboard-response","24","196454","0.0-9.0","SS1613140864480","pref_question","","51","","","","","<video width ='960' height = '540' style='padding-top:8%' autoplay muted><source src='images/stimuli/wall_pref.mp4' type='video/mp4'></video>","3","right","66%","0","","","","","","","",""
"","4292.695000003732","sequential-stimulus-presentation","25","201552","0.0-10.0","SS1613140864480","pref_reveal","","40","800","5092.695000003732","null","null","","","","","0","","","","novel","","","",""
"","null","html-keyboard-response","26","202379","0.0-11.0-0.0","SS1613140864480","","","null","","","","","<p><img src= images/blank.png width =""200"" height = ""200"" style = ""float:right""></p><p><img src=images/blank.png width =""800"" height = ""200""></p>","","","","","","","","","","","",""
"","4073.6849999957485","sequential-stimulus-presentation","27","207264","0.0-11.0-1.0","SS1613140864480","trial","","40","800","4873.6849999957485","images/stimuli/spore_stims/simple_15_B_c.gif","images/stimuli/spore_stims/simple_15_A_c.gif","","","","","1","simple_similar","images/stimuli/spore_stims/simple_15_A_c.gif","left","","","","",""
"","null","html-keyboard-response","28","208298","0.0-11.0-0.1","SS1613140864480","","","null","","","","","<p><img src= images/blank.png width =""200"" height = ""200"" style = ""float:right""></p><p><img src=images/blank.png width =""800"" height = ""200""></p>","","","","","","","","","","","",""
"","5782.744999996794","sequential-stimulus-presentation","29","214887","0.0-11.0-1.1","SS1613140864480","trial","","40","800","6582.744999996794","images/stimuli/spore_stims/simple_15_B_c.gif","images/stimuli/spore_stims/simple_15_A_c.gif","","","","","1","simple_similar","images/stimuli/spore_stims/simple_15_A_c.gif","left","","","","",""
"","null","html-keyboard-response","30","215976","0.0-11.0-0.2","SS1613140864480","","","null","","","","","<p><img src= images/blank.png width =""200"" height = ""200"" style = ""float:right""></p><p><img src=images/blank.png width =""800"" height = ""200""></p>","","","","","","","","","","","",""
"","2308.5399999981746","sequential-stimulus-presentation","31","219094","0.0-11.0-1.2","SS1613140864480","trial","","40","800","3108.5399999981746","images/stimuli/spore_stims/simple_15_B_c.gif","images/stimuli/spore_stims/simple_15_A_c.gif","","","","","1","simple_similar","images/stimuli/spore_stims/simple_15_A_c.gif","left","","","","",""
"","null","html-keyboard-response","32","219913","0.0-11.0-0.3","SS1613140864480","","","null","","","","","<p><img src= images/blank.png width =""200"" height = ""200"" style = ""float:right""></p><p><img src=images/blank.png width =""800"" height = ""200""></p>","","","","","","","","","","","",""
"","4533.559999996214","sequential-stimulus-presentation","33","225253","0.0-11.0-1.3","SS1613140864480","trial","","40","800","5333.559999996214","images/stimuli/spore_stims/simple_15_B_c.gif","images/stimuli/spore_stims/simple_15_A_c.gif","","","","","1","simple_similar","images/stimuli/spore_stims/simple_15_B_c.gif","right","","","","",""
"","null","html-keyboard-response","34","226470","0.0-11.0-0.4","SS1613140864480","","","null","","","","","<p><img src= images/blank.png width =""200"" height = ""200"" style = ""float:right""></p><p><img src=images/blank.png width =""800"" height = ""200""></p>","","","","","","","","","","","",""
"","4370.869999998831","sequential-stimulus-presentation","35","231655","0.0-11.0-1.4","SS1613140864480","trial","","40","800","5170.869999998831","images/stimuli/spore_stims/simple_15_B_c.gif","images/stimuli/spore_stims/simple_15_A_c.gif","","","","","1","simple_similar","images/stimuli/spore_stims/simple_15_A_c.gif","left","","","","",""
"","null","html-keyboard-response","36","232675","0.0-11.0-0.5","SS1613140864480","","","null","","","","","<p><img src= images/blank.png width =""200"" height = ""200"" style = ""float:right""></p><p><img src=images/blank.png width =""800"" height = ""200""></p>","","","","","","","","","","","",""
"","3942.7299999952083","sequential-stimulus-presentation","37","237431","0.0-11.0-1.5","SS1613140864480","trial","","40","800","4742.729999995208","images/stimuli/spore_stims/simple_15_B_c.gif","images/stimuli/spore_stims/simple_15_A_c.gif","","","","","1","simple_similar","images/stimuli/spore_stims/simple_15_A_c.gif","left","","","","",""
"","null","html-keyboard-response","38","238242","0.0-11.0-0.6","SS1613140864480","","","null","","","","","<p><img src= images/blank.png width =""200"" height = ""200"" style = ""float:right""></p><p><img src=images/blank.png width =""800"" height = ""200""></p>","","","","","","","","","","","",""
"","2442.315000000235","sequential-stimulus-presentation","39","241496","0.0-11.0-1.6","SS1613140864480","trial","","40","800","3242.315000000235","images/stimuli/spore_stims/simple_15_B_c.gif","images/stimuli/spore_stims/simple_15_A_c.gif","","","","","1","simple_similar","images/stimuli/spore_stims/simple_15_A_c.gif","left","","","","",""
"","null","html-keyboard-response","40","242440","0.0-11.0-0.7","SS1613140864480","","","null","","","","","<p><img src= images/blank.png width =""200"" height = ""200"" style = ""float:right""></p><p><img src=images/blank.png width =""800"" height = ""200""></p>","","","","","","","","","","","",""
"","3719.6699999985867","sequential-stimulus-presentation","41","246973","0.0-11.0-1.7","SS1613140864480","trial","","40","800","4519.669999998587","images/stimuli/spore_stims/simple_15_B_c.gif","images/stimuli/spore_stims/simple_15_A_c.gif","","","","","1","simple_similar","images/stimuli/spore_stims/simple_15_A_c.gif","left","","","","",""
"","2414.3200000034994","html-keyboard-response","42","249392","0.0-12.0","SS1613140864480","pref_question","","50","","","","","<video width ='960' height = '540' style='padding-top:8%' autoplay muted><source src='images/stimuli/wall_pref.mp4' type='video/mp4'></video>","2","middle","45%","1","","","","","","","",""
"","3550.8799999952316","sequential-stimulus-presentation","43","253766","0.0-13.0","SS1613140864480","pref_reveal","","40","800","4350.879999995232","null","null","","","","","1","","","","novel","","","",""
"","null","html-keyboard-response","44","254617","0.0-14.0-0.0","SS1613140864480","","","null","","","","","<p><img src= images/blank.png width =""200"" height = ""200"" style = ""float:right""></p><p><img src=images/blank.png width =""800"" height = ""200""></p>","","","","","","","","","","","",""
"","4529.265000004671","sequential-stimulus-presentation","45","259960","0.0-14.0-1.0","SS1613140864480","trial","","40","800","5329.265000004671","images/stimuli/spore_stims/simple_04_A_c.gif","images/stimuli/spore_stims/simple_17_B_d.gif","","","","","2","simple_dissimilar","images/stimuli/spore_stims/simple_17_B_d.gif","middle","","","","",""
"","null","html-keyboard-response","46","260952","0.0-14.0-0.1","SS1613140864480","","","null","","","","","<p><img src= images/blank.png width =""200"" height = ""200"" style = ""float:right""></p><p><img src=images/blank.png width =""800"" height = ""200""></p>","","","","","","","","","","","",""
"","2226.199999997334","sequential-stimulus-presentation","47","263998","0.0-14.0-1.1","SS1613140864480","trial","","40","800","3026.199999997334","images/stimuli/spore_stims/simple_04_A_c.gif","images/stimuli/spore_stims/simple_17_B_d.gif","","","","","2","simple_dissimilar","images/stimuli/spore_stims/simple_17_B_d.gif","middle","","","","",""
"","null","html-keyboard-response","48","265253","0.0-14.0-0.2","SS1613140864480","","","null","","","","","<p><img src= images/blank.png width =""200"" height = ""200"" style = ""float:right""></p><p><img src=images/blank.png width =""800"" height = ""200""></p>","","","","","","","","","","","",""
"","3098.1600000013714","sequential-stimulus-presentation","49","269165","0.0-14.0-1.2","SS1613140864480","trial","","40","800","3898.1600000013714","images/stimuli/spore_stims/simple_04_A_c.gif","images/stimuli/spore_stims/simple_17_B_d.gif","","","","","2","simple_dissimilar","images/stimuli/spore_stims/simple_17_B_d.gif","middle","","","","",""
"","null","html-keyboard-response","50","270113","0.0-14.0-0.3","SS1613140864480","","","null","","","","","<p><img src= images/blank.png width =""200"" height = ""200"" style = ""float:right""></p><p><img src=images/blank.png width =""800"" height = ""200""></p>","","","","","","","","","","","",""
"","3831.644999998389","sequential-stimulus-presentation","51","274759","0.0-14.0-1.3","SS1613140864480","trial","","40","800","4631.644999998389","images/stimuli/spore_stims/simple_04_A_c.gif","images/stimuli/spore_stims/simple_17_B_d.gif","","","","","2","simple_dissimilar","images/stimuli/spore_stims/simple_17_B_d.gif","middle","","","","",""
"","null","html-keyboard-response","52","275699","0.0-14.0-0.4","SS1613140864480","","","null","","","","","<p><img src= images/blank.png width =""200"" height = ""200"" style = ""float:right""></p><p><img src=images/blank.png width =""800"" height = ""200""></p>","","","","","","","","","","","",""
"","2234.499999998661","sequential-stimulus-presentation","53","278743","0.0-14.0-1.4","SS1613140864480","trial","","40","800","3034.499999998661","images/stimuli/spore_stims/simple_04_A_c.gif","images/stimuli/spore_stims/simple_17_B_d.gif","","","","","2","simple_dissimilar","images/stimuli/spore_stims/simple_17_B_d.gif","middle","","","","",""
"","null","html-keyboard-response","54","279811","0.0-14.0-0.5","SS1613140864480","","","null","","","","","<p><img src= images/blank.png width =""200"" height = ""200"" style = ""float:right""></p><p><img src=images/blank.png width =""800"" height = ""200""></p>","","","","","","","","","","","",""
"","4710.470000005444","sequential-stimulus-presentation","55","285335","0.0-14.0-1.5","SS1613140864480","trial","","40","800","5510.470000005444","images/stimuli/spore_stims/simple_04_A_c.gif","images/stimuli/spore_stims/simple_17_B_d.gif","","","","","2","simple_dissimilar","images/stimuli/spore_stims/simple_04_A_c.gif","left","","","","",""
"","null","html-keyboard-response","56","286307","0.0-14.0-0.6","SS1613140864480","","","null","","","","","<p><img src= images/blank.png width =""200"" height = ""200"" style = ""float:right""></p><p><img src=images/blank.png width =""800"" height = ""200""></p>","","","","","","","","","","","",""
"","4759.174999999232","sequential-stimulus-presentation","57","291870","0.0-14.0-1.6","SS1613140864480","trial","","40","800","5559.174999999232","images/stimuli/spore_stims/simple_04_A_c.gif","images/stimuli/spore_stims/simple_17_B_d.gif","","","","","2","simple_dissimilar","images/stimuli/spore_stims/simple_17_B_d.gif","middle","","","","",""
"","null","html-keyboard-response","58","292794","0.0-14.0-0.7","SS1613140864480","","","null","","","","","<p><img src= images/blank.png width =""200"" height = ""200"" style = ""float:right""></p><p><img src=images/blank.png width =""800"" height = ""200""></p>","","","","","","","","","","","",""
"","2521.295000005921","sequential-stimulus-presentation","59","296128","0.0-14.0-1.7","SS1613140864480","trial","","40","800","3321.295000005921","images/stimuli/spore_stims/simple_04_A_c.gif","images/stimuli/spore_stims/simple_17_B_d.gif","","","","","2","simple_dissimilar","images/stimuli/spore_stims/simple_17_B_d.gif","middle","","","","",""
"","1209.9050000033458","html-keyboard-response","60","297345","0.0-15.0","SS1613140864480","pref_question","","49","","","","","<video width ='960' height = '540' style='padding-top:8%' autoplay muted><source src='images/stimuli/wall_pref.mp4' type='video/mp4'></video>","1","left","25%","2","","","","","","","",""
"","4370.100000000093","sequential-stimulus-presentation","61","302534","0.0-16.0","SS1613140864480","pref_reveal","","40","800","5170.100000000093","null","null","","","","","2","","","","deviant","","","",""
"","null","html-keyboard-response","62","303698","0.0-17.0-0.0","SS1613140864480","","","null","","","","","<p><img src= images/blank.png width =""200"" height = ""200"" style = ""float:right""></p><p><img src=images/blank.png width =""800"" height = ""200""></p>","","","","","","","","","","","",""
"","4900.555000000168","sequential-stimulus-presentation","63","309410","0.0-17.0-1.0","SS1613140864480","trial","","40","800","5700.555000000168","images/stimuli/spore_stims/complex_11_A_b.gif","images/stimuli/spore_stims/complex_14_B_a.gif","","","","","3","complex_dissimilar","images/stimuli/spore_stims/complex_14_B_a.gif","middle","","","","",""
"","null","html-keyboard-response","64","310479","0.0-17.0-0.1","SS1613140864480","","","null","","","","","<p><img src= images/blank.png width =""200"" height = ""200"" style = ""float:right""></p><p><img src=images/blank.png width =""800"" height = ""200""></p>","","","","","","","","","","","",""
"","3602.5599999993574","sequential-stimulus-presentation","65","314886","0.0-17.0-1.1","SS1613140864480","trial","","40","800","4402.559999999357","images/stimuli/spore_stims/complex_11_A_b.gif","images/stimuli/spore_stims/complex_14_B_a.gif","","","","","3","complex_dissimilar","images/stimuli/spore_stims/complex_14_B_a.gif","middle","","","","",""
"","null","html-keyboard-response","66","315887","0.0-17.0-0.2","SS1613140864480","","","null","","","","","<p><img src= images/blank.png width =""200"" height = ""200"" style = ""float:right""></p><p><img src=images/blank.png width =""800"" height = ""200""></p>","","","","","","","","","","","",""
"","3017.475000000559","sequential-stimulus-presentation","67","319720","0.0-17.0-1.2","SS1613140864480","trial","","40","800","3817.475000000559","images/stimuli/spore_stims/complex_11_A_b.gif","images/stimuli/spore_stims/complex_14_B_a.gif","","","","","3","complex_dissimilar","images/stimuli/spore_stims/complex_14_B_a.gif","middle","","","","",""
"","null","html-keyboard-response","68","320796","0.0-17.0-0.3","SS1613140864480","","","null","","","","","<p><img src= images/blank.png width =""200"" height = ""200"" style = ""float:right""></p><p><img src=images/blank.png width =""800"" height = ""200""></p>","","","","","","","","","","","",""
"","4302.28999999963","sequential-stimulus-presentation","69","325911","0.0-17.0-1.3","SS1613140864480","trial","","40","800","5102.28999999963","images/stimuli/spore_stims/complex_11_A_b.gif","images/stimuli/spore_stims/complex_14_B_a.gif","","","","","3","complex_dissimilar","images/stimuli/spore_stims/complex_14_B_a.gif","middle","","","","",""
"","null","html-keyboard-response","70","327036","0.0-17.0-0.4","SS1613140864480","","","null","","","","","<p><img src= images/blank.png width =""200"" height = ""200"" style = ""float:right""></p><p><img src=images/blank.png width =""800"" height = ""200""></p>","","","","","","","","","","","",""
"","3709.145000000717","sequential-stimulus-presentation","71","331549","0.0-17.0-1.4","SS1613140864480","trial","","40","800","4509.145000000717","images/stimuli/spore_stims/complex_11_A_b.gif","images/stimuli/spore_stims/complex_14_B_a.gif","","","","","3","complex_dissimilar","images/stimuli/spore_stims/complex_14_B_a.gif","middle","","","","",""
"","null","html-keyboard-response","72","332505","0.0-17.0-0.5","SS1613140864480","","","null","","","","","<p><img src= images/blank.png width =""200"" height = ""200"" style = ""float:right""></p><p><img src=images/blank.png width =""800"" height = ""200""></p>","","","","","","","","","","","",""
"","3454.279999998107","sequential-stimulus-presentation","73","336765","0.0-17.0-1.5","SS1613140864480","trial","","40","800","4254.279999998107","images/stimuli/spore_stims/complex_11_A_b.gif","images/stimuli/spore_stims/complex_14_B_a.gif","","","","","3","complex_dissimilar","images/stimuli/spore_stims/complex_14_B_a.gif","middle","","","","",""
"","null","html-keyboard-response","74","337888","0.0-17.0-0.6","SS1613140864480","","","null","","","","","<p><img src= images/blank.png width =""200"" height = ""200"" style = ""float:right""></p><p><img src=images/blank.png width =""800"" height = ""200""></p>","","","","","","","","","","","",""
"","3782.6350000032107","sequential-stimulus-presentation","75","342488","0.0-17.0-1.6","SS1613140864480","trial","","40","800","4582.635000003211","images/stimuli/spore_stims/complex_11_A_b.gif","images/stimuli/spore_stims/complex_14_B_a.gif","","","","","3","complex_dissimilar","images/stimuli/spore_stims/complex_11_A_b.gif","right","","","","",""
"","null","html-keyboard-response","76","343626","0.0-17.0-0.7","SS1613140864480","","","null","","","","","<p><img src= images/blank.png width =""200"" height = ""200"" style = ""float:right""></p><p><img src=images/blank.png width =""800"" height = ""200""></p>","","","","","","","","","","","",""
"","4723.875000003318","sequential-stimulus-presentation","77","349165","0.0-17.0-1.7","SS1613140864480","trial","","40","800","5523.875000003318","images/stimuli/spore_stims/complex_11_A_b.gif","images/stimuli/spore_stims/complex_14_B_a.gif","","","","","3","complex_dissimilar","images/stimuli/spore_stims/complex_14_B_a.gif","middle","","","","",""
"","1949.4999999951688","html-keyboard-response","78","351120","0.0-18.0","SS1613140864480","pref_question","","51","","","","","<video width ='960' height = '540' style='padding-top:8%' autoplay muted><source src='images/stimuli/wall_pref.mp4' type='video/mp4'></video>","3","right","66%","3","","","","","","","",""
"","4251.219999998284","sequential-stimulus-presentation","79","356184","0.0-19.0","SS1613140864480","pref_reveal","","40","800","5051.219999998284","null","null","","","","","3","","","","deviant","","","",""
"","null","html-keyboard-response","80","357478","0.0-20.0-0.0","SS1613140864480","","","null","","","","","<p><img src= images/blank.png width =""200"" height = ""200"" style = ""float:right""></p><p><img src=images/blank.png width =""800"" height = ""200""></p>","","","","","","","","","","","",""
"","4616.034999999101","sequential-stimulus-presentation","81","362909","0.0-20.0-1.0","SS1613140864480","trial","","40","800","5416.034999999101","images/stimuli/spore_stims/complex_02_A_a.gif","images/stimuli/spore_stims/complex_20_B_a.gif","","","","","4","complex_dissimilar","images/stimuli/spore_stims/complex_20_B_a.gif","right","","","","",""
"","null","html-keyboard-response","82","364181","0.0-20.0-0.1","SS1613140864480","","","null","","","","","<p><img src= images/blank.png width =""200"" height = ""200"" style = ""float:right""></p><p><img src=images/blank.png width =""800"" height = ""200""></p>","","","","","","","","","","","",""
"","5606.149999999616","sequential-stimulus-presentation","83","370605","0.0-20.0-1.1","SS1613140864480","trial","","40","800","6406.149999999616","images/stimuli/spore_stims/complex_02_A_a.gif","images/stimuli/spore_stims/complex_20_B_a.gif","","","","","4","complex_dissimilar","images/stimuli/spore_stims/complex_20_B_a.gif","right","","","","",""
"","null","html-keyboard-response","84","371758","0.0-20.0-0.2","SS1613140864480","","","null","","","","","<p><img src= images/blank.png width =""200"" height = ""200"" style = ""float:right""></p><p><img src=images/blank.png width =""800"" height = ""200""></p>","","","","","","","","","","","",""
"","5491.024999995716","sequential-stimulus-presentation","85","378063","0.0-20.0-1.2","SS1613140864480","trial","","40","800","6291.024999995716","images/stimuli/spore_stims/complex_02_A_a.gif","images/stimuli/spore_stims/complex_20_B_a.gif","","","","","4","complex_dissimilar","images/stimuli/spore_stims/complex_20_B_a.gif","right","","","","",""
"","null","html-keyboard-response","86","379282","0.0-20.0-0.3","SS1613140864480","","","null","","","","","<p><img src= images/blank.png width =""200"" height = ""200"" style = ""float:right""></p><p><img src=images/blank.png width =""800"" height = ""200""></p>","","","","","","","","","","","",""
"","5553.0049999943","sequential-stimulus-presentation","87","385641","0.0-20.0-1.3","SS1613140864480","trial","","40","800","6353.0049999943","images/stimuli/spore_stims/complex_02_A_a.gif","images/stimuli/spore_stims/complex_20_B_a.gif","","","","","4","complex_dissimilar","images/stimuli/spore_stims/complex_20_B_a.gif","right","","","","",""
"","null","html-keyboard-response","88","386477","0.0-20.0-0.4","SS1613140864480","","","null","","","","","<p><img src= images/blank.png width =""200"" height = ""200"" style = ""float:right""></p><p><img src=images/blank.png width =""800"" height = ""200""></p>","","","","","","","","","","","",""
"","4366.004999996221","sequential-stimulus-presentation","89","391653","0.0-20.0-1.4","SS1613140864480","trial","","40","800","5166.004999996221","images/stimuli/spore_stims/complex_02_A_a.gif","images/stimuli/spore_stims/complex_20_B_a.gif","","","","","4","complex_dissimilar","images/stimuli/spore_stims/complex_02_A_a.gif","middle","","","","",""
"","null","html-keyboard-response","90","392951","0.0-20.0-0.5","SS1613140864480","","","null","","","","","<p><img src= images/blank.png width =""200"" height = ""200"" style = ""float:right""></p><p><img src=images/blank.png width =""800"" height = ""200""></p>","","","","","","","","","","","",""
"","1402.7100000021164","sequential-stimulus-presentation","91","395158","0.0-20.0-1.5","SS1613140864480","trial","","40","800","2202.7100000021164","images/stimuli/spore_stims/complex_02_A_a.gif","images/stimuli/spore_stims/complex_20_B_a.gif","","","","","4","complex_dissimilar","images/stimuli/spore_stims/complex_20_B_a.gif","right","","","","",""
"","null","html-keyboard-response","92","396255","0.0-20.0-0.6","SS1613140864480","","","null","","","","","<p><img src= images/blank.png width =""200"" height = ""200"" style = ""float:right""></p><p><img src=images/blank.png width =""800"" height = ""200""></p>","","","","","","","","","","","",""
"","1348.9499999996042","sequential-stimulus-presentation","93","398446","0.0-20.0-1.6","SS1613140864480","trial","","40","800","2148.949999999604","images/stimuli/spore_stims/complex_02_A_a.gif","images/stimuli/spore_stims/complex_20_B_a.gif","","","","","4","complex_dissimilar","images/stimuli/spore_stims/complex_20_B_a.gif","right","","","","",""
"","null","html-keyboard-response","94","399380","0.0-20.0-0.7","SS1613140864480","","","null","","","","","<p><img src= images/blank.png width =""200"" height = ""200"" style = ""float:right""></p><p><img src=images/blank.png width =""800"" height = ""200""></p>","","","","","","","","","","","",""
"","2085.0749999954132","sequential-stimulus-presentation","95","402279","0.0-20.0-1.7","SS1613140864480","trial","","40","800","2885.0749999954132","images/stimuli/spore_stims/complex_02_A_a.gif","images/stimuli/spore_stims/complex_20_B_a.gif","","","","","4","complex_dissimilar","images/stimuli/spore_stims/complex_20_B_a.gif","right","","","","",""
"","1648.1549999953131","html-keyboard-response","96","403943","0.0-21.0","SS1613140864480","pref_question","","49","","","","","<video width ='960' height = '540' style='padding-top:8%' autoplay muted><source src='images/stimuli/wall_pref.mp4' type='video/mp4'></video>","1","left","25%","4","","","","","","","",""
"","5763.784999995551","sequential-stimulus-presentation","97","410520","0.0-22.0","SS1613140864480","pref_reveal","","40","800","6563.784999995551","null","null","","","","","4","","","","novel","","","",""
"","null","html-keyboard-response","98","411607","0.0-23.0-0.0","SS1613140864480","","","null","","","","","<p><img src= images/blank.png width =""200"" height = ""200"" style = ""float:right""></p><p><img src=images/blank.png width =""800"" height = ""200""></p>","","","","","","","","","","","",""
"","2703.0400000003283","sequential-stimulus-presentation","99","415118","0.0-23.0-1.0","SS1613140864480","trial","","40","800","3503.0400000003283","images/stimuli/spore_stims/simple_10_B_d.gif","images/stimuli/spore_stims/simple_10_A_d.gif","","","","","5","simple_similar","images/stimuli/spore_stims/simple_10_A_d.gif","middle","","","","",""
"","null","html-keyboard-response","100","416143","0.0-23.0-0.1","SS1613140864480","","","null","","","","","<p><img src= images/blank.png width =""200"" height = ""200"" style = ""float:right""></p><p><img src=images/blank.png width =""800"" height = ""200""></p>","","","","","","","","","","","",""
"","3168.069999999716","sequential-stimulus-presentation","101","420118","0.0-23.0-1.1","SS1613140864480","trial","","40","800","3968.069999999716","images/stimuli/spore_stims/simple_10_B_d.gif","images/stimuli/spore_stims/simple_10_A_d.gif","","","","","5","simple_similar","images/stimuli/spore_stims/simple_10_A_d.gif","middle","","","","",""
"","null","html-keyboard-response","102","421062","0.0-23.0-0.2","SS1613140864480","","","null","","","","","<p><img src= images/blank.png width =""200"" height = ""200"" style = ""float:right""></p><p><img src=images/blank.png width =""800"" height = ""200""></p>","","","","","","","","","","","",""
"","3847.200000003795","sequential-stimulus-presentation","103","425728","0.0-23.0-1.2","SS1613140864480","trial","","40","800","4647.200000003795","images/stimuli/spore_stims/simple_10_B_d.gif","images/stimuli/spore_stims/simple_10_A_d.gif","","","","","5","simple_similar","images/stimuli/spore_stims/simple_10_A_d.gif","middle","","","","",""
"","null","html-keyboard-response","104","427009","0.0-23.0-0.3","SS1613140864480","","","null","","","","","<p><img src= images/blank.png width =""200"" height = ""200"" style = ""float:right""></p><p><img src=images/blank.png width =""800"" height = ""200""></p>","","","","","","","","","","","",""
"","3462.634999996226","sequential-stimulus-presentation","105","431285","0.0-23.0-1.3","SS1613140864480","trial","","40","800","4262.634999996226","images/stimuli/spore_stims/simple_10_B_d.gif","images/stimuli/spore_stims/simple_10_A_d.gif","","","","","5","simple_similar","images/stimuli/spore_stims/simple_10_A_d.gif","middle","","","","",""
"","null","html-keyboard-response","106","432403","0.0-23.0-0.4","SS1613140864480","","","null","","","","","<p><img src= images/blank.png width =""200"" height = ""200"" style = ""float:right""></p><p><img src=images/blank.png width =""800"" height = ""200""></p>","","","","","","","","","","","",""
"","1991.6199999934179","sequential-stimulus-presentation","107","435206","0.0-23.0-1.4","SS1613140864480","trial","","40","800","2791.619999993418","images/stimuli/spore_stims/simple_10_B_d.gif","images/stimuli/spore_stims/simple_10_A_d.gif","","","","","5","simple_similar","images/stimuli/spore_stims/simple_10_A_d.gif","middle","","","","",""
"","null","html-keyboard-response","108","436329","0.0-23.0-0.5","SS1613140864480","","","null","","","","","<p><img src= images/blank.png width =""200"" height = ""200"" style = ""float:right""></p><p><img src=images/blank.png width =""800"" height = ""200""></p>","","","","","","","","","","","",""
"","2495.8299999998417","sequential-stimulus-presentation","109","439639","0.0-23.0-1.5","SS1613140864480","trial","","40","800","3295.8299999998417","images/stimuli/spore_stims/simple_10_B_d.gif","images/stimuli/spore_stims/simple_10_A_d.gif","","","","","5","simple_similar","images/stimuli/spore_stims/simple_10_A_d.gif","middle","","","","",""
"","null","html-keyboard-response","110","440530","0.0-23.0-0.6","SS1613140864480","","","null","","","","","<p><img src= images/blank.png width =""200"" height = ""200"" style = ""float:right""></p><p><img src=images/blank.png width =""800"" height = ""200""></p>","","","","","","","","","","","",""
"","4431.464999994147","sequential-stimulus-presentation","111","445766","0.0-23.0-1.6","SS1613140864480","trial","","40","800","5231.464999994147","images/stimuli/spore_stims/simple_10_B_d.gif","images/stimuli/spore_stims/simple_10_A_d.gif","","","","","5","simple_similar","images/stimuli/spore_stims/simple_10_B_d.gif","left","","","","",""
"","null","html-keyboard-response","112","446890","0.0-23.0-0.7","SS1613140864480","","","null","","","","","<p><img src= images/blank.png width =""200"" height = ""200"" style = ""float:right""></p><p><img src=images/blank.png width =""800"" height = ""200""></p>","","","","","","","","","","","",""
"","1948.8150000033202","sequential-stimulus-presentation","113","449655","0.0-23.0-1.7","SS1613140864480","trial","","40","800","2748.81500000332","images/stimuli/spore_stims/simple_10_B_d.gif","images/stimuli/spore_stims/simple_10_A_d.gif","","","","","5","simple_similar","images/stimuli/spore_stims/simple_10_A_d.gif","middle","","","","",""
"","1443.5249999952503","html-keyboard-response","114","451112","0.0-24.0","SS1613140864480","pref_question","","50","","","","","<video width ='960' height = '540' style='padding-top:8%' autoplay muted><source src='images/stimuli/wall_pref.mp4' type='video/mp4'></video>","2","middle","45%","5","","","","","","","",""
"","2803.5149999995483","sequential-stimulus-presentation","115","454732","0.0-25.0","SS1613140864480","pref_reveal","","40","800","3603.5149999995483","null","null","","","","","5","","","","background","","","",""
"","null","html-keyboard-response","116","456016","0.0-26.0-0.0","SS1613140864480","","","null","","","","","<p><img src= images/blank.png width =""200"" height = ""200"" style = ""float:right""></p><p><img src=images/blank.png width =""800"" height = ""200""></p>","","","","","","","","","","","",""
"","4574.26000000129","sequential-stimulus-presentation","117","461397","0.0-26.0-1.0","SS1613140864480","trial","","40","800","5374.26000000129","images/stimuli/spore_stims/complex_17_A_c.gif","images/stimuli/spore_stims/complex_09_B_a.gif","","","","","6","complex_dissimilar","images/stimuli/spore_stims/complex_09_B_a.gif","middle","","","","",""
"","null","html-keyboard-response","118","462524","0.0-26.0-0.1","SS1613140864480","","","null","","","","","<p><img src= images/blank.png width =""200"" height = ""200"" style = ""float:right""></p><p><img src=images/blank.png width =""800"" height = ""200""></p>","","","","","","","","","","","",""
"","3659.410000000149","sequential-stimulus-presentation","119","466998","0.0-26.0-1.1","SS1613140864480","trial","","40","800","4459.410000000149","images/stimuli/spore_stims/complex_17_A_c.gif","images/stimuli/spore_stims/complex_09_B_a.gif","","","","","6","complex_dissimilar","images/stimuli/spore_stims/complex_09_B_a.gif","middle","","","","",""
"","null","html-keyboard-response","120","467963","0.0-26.0-0.2","SS1613140864480","","","null","","","","","<p><img src= images/blank.png width =""200"" height = ""200"" style = ""float:right""></p><p><img src=images/blank.png width =""800"" height = ""200""></p>","","","","","","","","","","","",""
"","4683.340000003111","sequential-stimulus-presentation","121","473455","0.0-26.0-1.2","SS1613140864480","trial","","40","800","5483.340000003111","images/stimuli/spore_stims/complex_17_A_c.gif","images/stimuli/spore_stims/complex_09_B_a.gif","","","","","6","complex_dissimilar","images/stimuli/spore_stims/complex_09_B_a.gif","middle","","","","",""
"","null","html-keyboard-response","122","474266","0.0-26.0-0.3","SS1613140864480","","","null","","","","","<p><img src= images/blank.png width =""200"" height = ""200"" style = ""float:right""></p><p><img src=images/blank.png width =""800"" height = ""200""></p>","","","","","","","","","","","",""
"","5175.999999999534","sequential-stimulus-presentation","123","480262","0.0-26.0-1.3","SS1613140864480","trial","","40","800","5975.999999999534","images/stimuli/spore_stims/complex_17_A_c.gif","images/stimuli/spore_stims/complex_09_B_a.gif","","","","","6","complex_dissimilar","images/stimuli/spore_stims/complex_17_A_c.gif","left","","","","",""
"","null","html-keyboard-response","124","481203","0.0-26.0-0.4","SS1613140864480","","","null","","","","","<p><img src= images/blank.png width =""200"" height = ""200"" style = ""float:right""></p><p><img src=images/blank.png width =""800"" height = ""200""></p>","","","","","","","","","","","",""
"","2887.234999994631","sequential-stimulus-presentation","125","484912","0.0-26.0-1.4","SS1613140864480","trial","","40","800","3687.234999994631","images/stimuli/spore_stims/complex_17_A_c.gif","images/stimuli/spore_stims/complex_09_B_a.gif","","","","","6","complex_dissimilar","images/stimuli/spore_stims/complex_09_B_a.gif","middle","","","","",""
"","null","html-keyboard-response","126","486181","0.0-26.0-0.5","SS1613140864480","","","null","","","","","<p><img src= images/blank.png width =""200"" height = ""200"" style = ""float:right""></p><p><img src=images/blank.png width =""800"" height = ""200""></p>","","","","","","","","","","","",""
"","2075.7900000025984","sequential-stimulus-presentation","127","489076","0.0-26.0-1.5","SS1613140864480","trial","","40","800","2875.7900000025984","images/stimuli/spore_stims/complex_17_A_c.gif","images/stimuli/spore_stims/complex_09_B_a.gif","","","","","6","complex_dissimilar","images/stimuli/spore_stims/complex_09_B_a.gif","middle","","","","",""
"","null","html-keyboard-response","128","490379","0.0-26.0-0.6","SS1613140864480","","","null","","","","","<p><img src= images/blank.png width =""200"" height = ""200"" style = ""float:right""></p><p><img src=images/blank.png width =""800"" height = ""200""></p>","","","","","","","","","","","",""
"","4082.41000000271","sequential-stimulus-presentation","129","495277","0.0-26.0-1.6","SS1613140864480","trial","","40","800","4882.41000000271","images/stimuli/spore_stims/complex_17_A_c.gif","images/stimuli/spore_stims/complex_09_B_a.gif","","","","","6","complex_dissimilar","images/stimuli/spore_stims/complex_09_B_a.gif","middle","","","","",""
"","null","html-keyboard-response","130","496481","0.0-26.0-0.7","SS1613140864480","","","null","","","","","<p><img src= images/blank.png width =""200"" height = ""200"" style = ""float:right""></p><p><img src=images/blank.png width =""800"" height = ""200""></p>","","","","","","","","","","","",""
"","1989.7050000000745","sequential-stimulus-presentation","131","499285","0.0-26.0-1.7","SS1613140864480","trial","","40","800","2789.7050000000745","images/stimuli/spore_stims/complex_17_A_c.gif","images/stimuli/spore_stims/complex_09_B_a.gif","","","","","6","complex_dissimilar","images/stimuli/spore_stims/complex_09_B_a.gif","middle","","","","",""
"","1051.0500000017928","html-keyboard-response","132","500351","0.0-27.0","SS1613140864480","pref_question","","51","","","","","<video width ='960' height = '540' style='padding-top:8%' autoplay muted><source src='images/stimuli/wall_pref.mp4' type='video/mp4'></video>","3","right","66%","6","","","","","","","",""
"","4328.515000001062","sequential-stimulus-presentation","133","505509","0.0-28.0","SS1613140864480","pref_reveal","","40","800","5128.515000001062","null","null","","","","","6","","","","novel","","","",""
"","null","html-keyboard-response","134","506474","0.0-29.0-0.0","SS1613140864480","","","null","","","","","<p><img src= images/blank.png width =""200"" height = ""200"" style = ""float:right""></p><p><img src=images/blank.png width =""800"" height = ""200""></p>","","","","","","","","","","","",""
"","4480.859999996144","sequential-stimulus-presentation","135","511765","0.0-29.0-1.0","SS1613140864480","trial","","40","800","5280.859999996144","images/stimuli/spore_stims/simple_11_A_a.gif","images/stimuli/spore_stims/simple_02_B_d.gif","","","","","7","simple_dissimilar","images/stimuli/spore_stims/simple_02_B_d.gif","right","","","","",""
"","null","html-keyboard-response","136","513059","0.0-29.0-0.1","SS1613140864480","","","null","","","","","<p><img src= images/blank.png width =""200"" height = ""200"" style = ""float:right""></p><p><img src=images/blank.png width =""800"" height = ""200""></p>","","","","","","","","","","","",""
"","3791.084999997169","sequential-stimulus-presentation","137","517660","0.0-29.0-1.1","SS1613140864480","trial","","40","800","4591.084999997169","images/stimuli/spore_stims/simple_11_A_a.gif","images/stimuli/spore_stims/simple_02_B_d.gif","","","","","7","simple_dissimilar","images/stimuli/spore_stims/simple_02_B_d.gif","right","","","","",""
"","null","html-keyboard-response","138","518921","0.0-29.0-0.2","SS1613140864480","","","null","","","","","<p><img src= images/blank.png width =""200"" height = ""200"" style = ""float:right""></p><p><img src=images/blank.png width =""800"" height = ""200""></p>","","","","","","","","","","","",""
"","5043.725000003236","sequential-stimulus-presentation","139","524781","0.0-29.0-1.2","SS1613140864480","trial","","40","800","5843.725000003236","images/stimuli/spore_stims/simple_11_A_a.gif","images/stimuli/spore_stims/simple_02_B_d.gif","","","","","7","simple_dissimilar","images/stimuli/spore_stims/simple_11_A_a.gif","left","","","","",""
"","null","html-keyboard-response","140","526006","0.0-29.0-0.3","SS1613140864480","","","null","","","","","<p><img src= images/blank.png width =""200"" height = ""200"" style = ""float:right""></p><p><img src=images/blank.png width =""800"" height = ""200""></p>","","","","","","","","","","","",""
"","3815.560000002617","sequential-stimulus-presentation","141","530638","0.0-29.0-1.3","SS1613140864480","trial","","40","800","4615.560000002617","images/stimuli/spore_stims/simple_11_A_a.gif","images/stimuli/spore_stims/simple_02_B_d.gif","","","","","7","simple_dissimilar","images/stimuli/spore_stims/simple_02_B_d.gif","right","","","","",""
"","null","html-keyboard-response","142","531603","0.0-29.0-0.4","SS1613140864480","","","null","","","","","<p><img src= images/blank.png width =""200"" height = ""200"" style = ""float:right""></p><p><img src=images/blank.png width =""800"" height = ""200""></p>","","","","","","","","","","","",""
"","2477.575000004377","sequential-stimulus-presentation","143","534902","0.0-29.0-1.4","SS1613140864480","trial","","40","800","3277.575000004377","images/stimuli/spore_stims/simple_11_A_a.gif","images/stimuli/spore_stims/simple_02_B_d.gif","","","","","7","simple_dissimilar","images/stimuli/spore_stims/simple_02_B_d.gif","right","","","","",""
"","null","html-keyboard-response","144","536051","0.0-29.0-0.5","SS1613140864480","","","null","","","","","<p><img src= images/blank.png width =""200"" height = ""200"" style = ""float:right""></p><p><img src=images/blank.png width =""800"" height = ""200""></p>","","","","","","","","","","","",""
"","2737.3099999967963","sequential-stimulus-presentation","145","539605","0.0-29.0-1.5","SS1613140864480","trial","","40","800","3537.3099999967963","images/stimuli/spore_stims/simple_11_A_a.gif","images/stimuli/spore_stims/simple_02_B_d.gif","","","","","7","simple_dissimilar","images/stimuli/spore_stims/simple_02_B_d.gif","right","","","","",""
"","null","html-keyboard-response","146","540673","0.0-29.0-0.6","SS1613140864480","","","null","","","","","<p><img src= images/blank.png width =""200"" height = ""200"" style = ""float:right""></p><p><img src=images/blank.png width =""800"" height = ""200""></p>","","","","","","","","","","","",""
"","2839.4700000062585","sequential-stimulus-presentation","147","544326","0.0-29.0-1.6","SS1613140864480","trial","","40","800","3639.4700000062585","images/stimuli/spore_stims/simple_11_A_a.gif","images/stimuli/spore_stims/simple_02_B_d.gif","","","","","7","simple_dissimilar","images/stimuli/spore_stims/simple_02_B_d.gif","right","","","","",""
"","null","html-keyboard-response","148","545457","0.0-29.0-0.7","SS1613140864480","","","null","","","","","<p><img src= images/blank.png width =""200"" height = ""200"" style = ""float:right""></p><p><img src=images/blank.png width =""800"" height = ""200""></p>","","","","","","","","","","","",""
"","1378.1249999955762","sequential-stimulus-presentation","149","547654","0.0-29.0-1.7","SS1613140864480","trial","","40","800","2178.124999995576","images/stimuli/spore_stims/simple_11_A_a.gif","images/stimuli/spore_stims/simple_02_B_d.gif","","","","","7","simple_dissimilar","images/stimuli/spore_stims/simple_02_B_d.gif","right","","","","",""
"","1388.1949999995995","html-keyboard-response","150","549060","0.0-30.0","SS1613140864480","pref_question","","49","","","","","<video width ='960' height = '540' style='padding-top:8%' autoplay muted><source src='images/stimuli/wall_pref.mp4' type='video/mp4'></video>","1","left","25%","7","","","","","","","",""
"","3447.449999999604","sequential-stimulus-presentation","151","553316","0.0-31.0","SS1613140864480","pref_reveal","","40","800","4247.449999999604","null","null","","","","","7","","","","deviant","","","",""
"","null","html-keyboard-response","152","554508","0.0-32.0-0.0","SS1613140864480","","","null","","","","","<p><img src= images/blank.png width =""200"" height = ""200"" style = ""float:right""></p><p><img src=images/blank.png width =""800"" height = ""200""></p>","","","","","","","","","","","",""
"","1836.5150000026915","sequential-stimulus-presentation","153","557159","0.0-32.0-1.0","SS1613140864480","trial","","40","800","2636.5150000026915","images/stimuli/spore_stims/simple_07_B_d.gif","images/stimuli/spore_stims/simple_17_A_a.gif","","","","","8","simple_dissimilar","images/stimuli/spore_stims/simple_17_A_a.gif","middle","","","","",""
"","null","html-keyboard-response","154","557986","0.0-32.0-0.1","SS1613140864480","","","null","","","","","<p><img src= images/blank.png width =""200"" height = ""200"" style = ""float:right""></p><p><img src=images/blank.png width =""800"" height = ""200""></p>","","","","","","","","","","","",""
"","1441.7400000019697","sequential-stimulus-presentation","155","560245","0.0-32.0-1.1","SS1613140864480","trial","","40","800","2241.7400000019697","images/stimuli/spore_stims/simple_07_B_d.gif","images/stimuli/spore_stims/simple_17_A_a.gif","","","","","8","simple_dissimilar","images/stimuli/spore_stims/simple_17_A_a.gif","middle","","","","",""
"","null","html-keyboard-response","156","561120","0.0-32.0-0.2","SS1613140864480","","","null","","","","","<p><img src= images/blank.png width =""200"" height = ""200"" style = ""float:right""></p><p><img src=images/blank.png width =""800"" height = ""200""></p>","","","","","","","","","","","",""
"","2820.2850000016624","sequential-stimulus-presentation","157","564758","0.0-32.0-1.2","SS1613140864480","trial","","40","800","3620.2850000016624","images/stimuli/spore_stims/simple_07_B_d.gif","images/stimuli/spore_stims/simple_17_A_a.gif","","","","","8","simple_dissimilar","images/stimuli/spore_stims/simple_07_B_d.gif","left","","","","",""
"","null","html-keyboard-response","158","565683","0.0-32.0-0.3","SS1613140864480","","","null","","","","","<p><img src= images/blank.png width =""200"" height = ""200"" style = ""float:right""></p><p><img src=images/blank.png width =""800"" height = ""200""></p>","","","","","","","","","","","",""
"","1772.444999994943","sequential-stimulus-presentation","159","568271","0.0-32.0-1.3","SS1613140864480","trial","","40","800","2572.444999994943","images/stimuli/spore_stims/simple_07_B_d.gif","images/stimuli/spore_stims/simple_17_A_a.gif","","","","","8","simple_dissimilar","images/stimuli/spore_stims/simple_17_A_a.gif","middle","","","","",""
"","null","html-keyboard-response","160","569422","0.0-32.0-0.4","SS1613140864480","","","null","","","","","<p><img src= images/blank.png width =""200"" height = ""200"" style = ""float:right""></p><p><img src=images/blank.png width =""800"" height = ""200""></p>","","","","","","","","","","","",""
"","1713.594999993802","sequential-stimulus-presentation","161","571941","0.0-32.0-1.4","SS1613140864480","trial","","40","800","2513.594999993802","images/stimuli/spore_stims/simple_07_B_d.gif","images/stimuli/spore_stims/simple_17_A_a.gif","","","","","8","simple_dissimilar","images/stimuli/spore_stims/simple_17_A_a.gif","middle","","","","",""
"","null","html-keyboard-response","162","572892","0.0-32.0-0.5","SS1613140864480","","","null","","","","","<p><img src= images/blank.png width =""200"" height = ""200"" style = ""float:right""></p><p><img src=images/blank.png width =""800"" height = ""200""></p>","","","","","","","","","","","",""
"","1660.4199999928242","sequential-stimulus-presentation","163","575364","0.0-32.0-1.5","SS1613140864480","trial","","40","800","2460.419999992824","images/stimuli/spore_stims/simple_07_B_d.gif","images/stimuli/spore_stims/simple_17_A_a.gif","","","","","8","simple_dissimilar","images/stimuli/spore_stims/simple_17_A_a.gif","middle","","","","",""
"","null","html-keyboard-response","164","576469","0.0-32.0-0.6","SS1613140864480","","","null","","","","","<p><img src= images/blank.png width =""200"" height = ""200"" style = ""float:right""></p><p><img src=images/blank.png width =""800"" height = ""200""></p>","","","","","","","","","","","",""
"","1353.48000000522","sequential-stimulus-presentation","165","578629","0.0-32.0-1.6","SS1613140864480","trial","","40","800","2153.48000000522","images/stimuli/spore_stims/simple_07_B_d.gif","images/stimuli/spore_stims/simple_17_A_a.gif","","","","","8","simple_dissimilar","images/stimuli/spore_stims/simple_17_A_a.gif","middle","","","","",""
"","null","html-keyboard-response","166","579816","0.0-32.0-0.7","SS1613140864480","","","null","","","","","<p><img src= images/blank.png width =""200"" height = ""200"" style = ""float:right""></p><p><img src=images/blank.png width =""800"" height = ""200""></p>","","","","","","","","","","","",""
"","1603.8650000046473","sequential-stimulus-presentation","167","582237","0.0-32.0-1.7","SS1613140864480","trial","","40","800","2403.8650000046473","images/stimuli/spore_stims/simple_07_B_d.gif","images/stimuli/spore_stims/simple_17_A_a.gif","","","","","8","simple_dissimilar","images/stimuli/spore_stims/simple_17_A_a.gif","middle","","","","",""
"","2809.155000002589","html-keyboard-response","168","585071","0.0-33.0","SS1613140864480","pref_question","","51","","","","","<video width ='960' height = '540' style='padding-top:8%' autoplay muted><source src='images/stimuli/wall_pref.mp4' type='video/mp4'></video>","3","right","66%","8","","","","","","","",""
"","2103.0400000017835","sequential-stimulus-presentation","169","587997","0.0-34.0","SS1613140864480","pref_reveal","","40","800","2903.0400000017835","null","null","","","","","8","","","","novel","","","",""
"","null","html-keyboard-response","170","589138","0.0-35.0-0.0","SS1613140864480","","","null","","","","","<p><img src= images/blank.png width =""200"" height = ""200"" style = ""float:right""></p><p><img src=images/blank.png width =""800"" height = ""200""></p>","","","","","","","","","","","",""
"","1896.020000000135","sequential-stimulus-presentation","171","591855","0.0-35.0-1.0","SS1613140864480","trial","","40","800","2696.020000000135","images/stimuli/spore_stims/complex_15_A_a.gif","images/stimuli/spore_stims/complex_15_B_a.gif","","","","","9","complex_similar","images/stimuli/spore_stims/complex_15_B_a.gif","left","","","","",""
"","null","html-keyboard-response","172","592741","0.0-35.0-0.1","SS1613140864480","","","null","","","","","<p><img src= images/blank.png width =""200"" height = ""200"" style = ""float:right""></p><p><img src=images/blank.png width =""800"" height = ""200""></p>","","","","","","","","","","","",""
"","1788.7350000018487","sequential-stimulus-presentation","173","595373","0.0-35.0-1.1","SS1613140864480","trial","","40","800","2588.7350000018487","images/stimuli/spore_stims/complex_15_A_a.gif","images/stimuli/spore_stims/complex_15_B_a.gif","","","","","9","complex_similar","images/stimuli/spore_stims/complex_15_B_a.gif","left","","","","",""
"","null","html-keyboard-response","174","596600","0.0-35.0-0.2","SS1613140864480","","","null","","","","","<p><img src= images/blank.png width =""200"" height = ""200"" style = ""float:right""></p><p><img src=images/blank.png width =""800"" height = ""200""></p>","","","","","","","","","","","",""
"","1988.985000003595","sequential-stimulus-presentation","175","599405","0.0-35.0-1.2","SS1613140864480","trial","","40","800","2788.985000003595","images/stimuli/spore_stims/complex_15_A_a.gif","images/stimuli/spore_stims/complex_15_B_a.gif","","","","","9","complex_similar","images/stimuli/spore_stims/complex_15_B_a.gif","left","","","","",""
"","null","html-keyboard-response","176","600291","0.0-35.0-0.3","SS1613140864480","","","null","","","","","<p><img src= images/blank.png width =""200"" height = ""200"" style = ""float:right""></p><p><img src=images/blank.png width =""800"" height = ""200""></p>","","","","","","","","","","","",""
"","1612.0949999967124","sequential-stimulus-presentation","177","602732","0.0-35.0-1.3","SS1613140864480","trial","","40","800","2412.0949999967124","images/stimuli/spore_stims/complex_15_A_a.gif","images/stimuli/spore_stims/complex_15_B_a.gif","","","","","9","complex_similar","images/stimuli/spore_stims/complex_15_B_a.gif","left","","","","",""
"","null","html-keyboard-response","178","603988","0.0-35.0-0.4","SS1613140864480","","","null","","","","","<p><img src= images/blank.png width =""200"" height = ""200"" style = ""float:right""></p><p><img src=images/blank.png width =""800"" height = ""200""></p>","","","","","","","","","","","",""
"","1672.964999997872","sequential-stimulus-presentation","179","606469","0.0-35.0-1.4","SS1613140864480","trial","","40","800","2472.964999997872","images/stimuli/spore_stims/complex_15_A_a.gif","images/stimuli/spore_stims/complex_15_B_a.gif","","","","","9","complex_similar","images/stimuli/spore_stims/complex_15_B_a.gif","left","","","","",""
"","null","html-keyboard-response","180","607645","0.0-35.0-0.5","SS1613140864480","","","null","","","","","<p><img src= images/blank.png width =""200"" height = ""200"" style = ""float:right""></p><p><img src=images/blank.png width =""800"" height = ""200""></p>","","","","","","","","","","","",""
"","1824.6399999988498","sequential-stimulus-presentation","181","610276","0.0-35.0-1.5","SS1613140864480","trial","","40","800","2624.63999999885","images/stimuli/spore_stims/complex_15_A_a.gif","images/stimuli/spore_stims/complex_15_B_a.gif","","","","","9","complex_similar","images/stimuli/spore_stims/complex_15_A_a.gif","middle","","","","",""
"","null","html-keyboard-response","182","611417","0.0-35.0-0.6","SS1613140864480","","","null","","","","","<p><img src= images/blank.png width =""200"" height = ""200"" style = ""float:right""></p><p><img src=images/blank.png width =""800"" height = ""200""></p>","","","","","","","","","","","",""
"","1632.924999997951","sequential-stimulus-presentation","183","613864","0.0-35.0-1.6","SS1613140864480","trial","","40","800","2432.924999997951","images/stimuli/spore_stims/complex_15_A_a.gif","images/stimuli/spore_stims/complex_15_B_a.gif","","","","","9","complex_similar","images/stimuli/spore_stims/complex_15_B_a.gif","left","","","","",""
"","null","html-keyboard-response","184","614779","0.0-35.0-0.7","SS1613140864480","","","null","","","","","<p><img src= images/blank.png width =""200"" height = ""200"" style = ""float:right""></p><p><img src=images/blank.png width =""800"" height = ""200""></p>","","","","","","","","","","","",""
"","1662.8899999995483","sequential-stimulus-presentation","185","617254","0.0-35.0-1.7","SS1613140864480","trial","","40","800","2462.8899999995483","images/stimuli/spore_stims/complex_15_A_a.gif","images/stimuli/spore_stims/complex_15_B_a.gif","","","","","9","complex_similar","images/stimuli/spore_stims/complex_15_B_a.gif","left","","","","",""
"","1729.769999998156","html-keyboard-response","186","618999","0.0-36.0","SS1613140864480","pref_question","","49","","","","","<video width ='960' height = '540' style='padding-top:8%' autoplay muted><source src='images/stimuli/wall_pref.mp4' type='video/mp4'></video>","1","left","25%","9","","","","","","","",""
"","2246.5099999972153","sequential-stimulus-presentation","187","622085","0.0-37.0","SS1613140864480","pref_reveal","","40","800","3046.5099999972153","null","null","","","","","9","","","","background","","","",""
"","null","html-keyboard-response","188","623115","0.0-38.0-0.0","SS1613140864480","","","null","","","","","<p><img src= images/blank.png width =""200"" height = ""200"" style = ""float:right""></p><p><img src=images/blank.png width =""800"" height = ""200""></p>","","","","","","","","","","","",""
"","4496.060000004945","sequential-stimulus-presentation","189","628430","0.0-38.0-1.0","SS1613140864480","trial","","40","800","5296.060000004945","images/stimuli/spore_stims/complex_03_A_a.gif","images/stimuli/spore_stims/complex_02_B_d.gif","","","","","10","complex_dissimilar","images/stimuli/spore_stims/complex_02_B_d.gif","right","","","","",""
"","null","html-keyboard-response","190","629279","0.0-38.0-0.1","SS1613140864480","","","null","","","","","<p><img src= images/blank.png width =""200"" height = ""200"" style = ""float:right""></p><p><img src=images/blank.png width =""800"" height = ""200""></p>","","","","","","","","","","","",""
"","1397.705000002985","sequential-stimulus-presentation","191","631501","0.0-38.0-1.1","SS1613140864480","trial","","40","800","2197.705000002985","images/stimuli/spore_stims/complex_03_A_a.gif","images/stimuli/spore_stims/complex_02_B_d.gif","","","","","10","complex_dissimilar","images/stimuli/spore_stims/complex_02_B_d.gif","right","","","","",""
"","null","html-keyboard-response","192","632505","0.0-38.0-0.2","SS1613140864480","","","null","","","","","<p><img src= images/blank.png width =""200"" height = ""200"" style = ""float:right""></p><p><img src=images/blank.png width =""800"" height = ""200""></p>","","","","","","","","","","","",""
"","1123.8200000006473","sequential-stimulus-presentation","193","634445","0.0-38.0-1.2","SS1613140864480","trial","","40","800","1923.8200000006473","images/stimuli/spore_stims/complex_03_A_a.gif","images/stimuli/spore_stims/complex_02_B_d.gif","","","","","10","complex_dissimilar","images/stimuli/spore_stims/complex_02_B_d.gif","right","","","","",""
"","null","html-keyboard-response","194","635297","0.0-38.0-0.3","SS1613140864480","","","null","","","","","<p><img src= images/blank.png width =""200"" height = ""200"" style = ""float:right""></p><p><img src=images/blank.png width =""800"" height = ""200""></p>","","","","","","","","","","","",""
"","1324.8249999959953","sequential-stimulus-presentation","195","637428","0.0-38.0-1.3","SS1613140864480","trial","","40","800","2124.8249999959953","images/stimuli/spore_stims/complex_03_A_a.gif","images/stimuli/spore_stims/complex_02_B_d.gif","","","","","10","complex_dissimilar","images/stimuli/spore_stims/complex_02_B_d.gif","right","","","","",""
"","null","html-keyboard-response","196","638532","0.0-38.0-0.4","SS1613140864480","","","null","","","","","<p><img src= images/blank.png width =""200"" height = ""200"" style = ""float:right""></p><p><img src=images/blank.png width =""800"" height = ""200""></p>","","","","","","","","","","","",""
"","1221.8800000045449","sequential-stimulus-presentation","197","640572","0.0-38.0-1.4","SS1613140864480","trial","","40","800","2021.8800000045449","images/stimuli/spore_stims/complex_03_A_a.gif","images/stimuli/spore_stims/complex_02_B_d.gif","","","","","10","complex_dissimilar","images/stimuli/spore_stims/complex_02_B_d.gif","right","","","","",""
"","null","html-keyboard-response","198","641543","0.0-38.0-0.5","SS1613140864480","","","null","","","","","<p><img src= images/blank.png width =""200"" height = ""200"" style = ""float:right""></p><p><img src=images/blank.png width =""800"" height = ""200""></p>","","","","","","","","","","","",""
"","848.4700000045123","sequential-stimulus-presentation","199","643203","0.0-38.0-1.5","SS1613140864480","trial","","40","800","1648.4700000045123","images/stimuli/spore_stims/complex_03_A_a.gif","images/stimuli/spore_stims/complex_02_B_d.gif","","","","","10","complex_dissimilar","images/stimuli/spore_stims/complex_02_B_d.gif","right","","","","",""
"","null","html-keyboard-response","200","644025","0.0-38.0-0.6","SS1613140864480","","","null","","","","","<p><img src= images/blank.png width =""200"" height = ""200"" style = ""float:right""></p><p><img src=images/blank.png width =""800"" height = ""200""></p>","","","","","","","","","","","",""
"","1637.4549999963492","sequential-stimulus-presentation","201","646476","0.0-38.0-1.6","SS1613140864480","trial","","40","800","2437.454999996349","images/stimuli/spore_stims/complex_03_A_a.gif","images/stimuli/spore_stims/complex_02_B_d.gif","","","","","10","complex_dissimilar","images/stimuli/spore_stims/complex_03_A_a.gif","middle","","","","",""
"","null","html-keyboard-response","202","647347","0.0-38.0-0.7","SS1613140864480","","","null","","","","","<p><img src= images/blank.png width =""200"" height = ""200"" style = ""float:right""></p><p><img src=images/blank.png width =""800"" height = ""200""></p>","","","","","","","","","","","",""
"","1804.8799999960465","sequential-stimulus-presentation","203","649973","0.0-38.0-1.7","SS1613140864480","trial","","40","800","2604.8799999960465","images/stimuli/spore_stims/complex_03_A_a.gif","images/stimuli/spore_stims/complex_02_B_d.gif","","","","","10","complex_dissimilar","images/stimuli/spore_stims/complex_02_B_d.gif","right","","","","",""
"","1370.3050000040093","html-keyboard-response","204","651360","0.0-39.0","SS1613140864480","pref_question","","50","","","","","<video width ='960' height = '540' style='padding-top:8%' autoplay muted><source src='images/stimuli/wall_pref.mp4' type='video/mp4'></video>","2","middle","45%","10","","","","","","","",""
"","1899.5550000035437","sequential-stimulus-presentation","205","654076","0.0-40.0","SS1613140864480","pref_reveal","","40","800","2699.5550000035437","null","null","","","","","10","","","","deviant","","","",""
"","null","html-keyboard-response","206","655219","0.0-41.0-0.0","SS1613140864480","","","null","","","","","<p><img src= images/blank.png width =""200"" height = ""200"" style = ""float:right""></p><p><img src=images/blank.png width =""800"" height = ""200""></p>","","","","","","","","","","","",""
"","2477.109999999753","sequential-stimulus-presentation","207","658516","0.0-41.0-1.0","SS1613140864480","trial","","40","800","3277.109999999753","images/stimuli/spore_stims/simple_19_A_b.gif","images/stimuli/spore_stims/simple_19_B_b.gif","","","","","11","simple_similar","images/stimuli/spore_stims/simple_19_B_b.gif","right","","","","",""
"","null","html-keyboard-response","208","659389","0.0-41.0-0.1","SS1613140864480","","","null","","","","","<p><img src= images/blank.png width =""200"" height = ""200"" style = ""float:right""></p><p><img src=images/blank.png width =""800"" height = ""200""></p>","","","","","","","","","","","",""
"","2529.56499999715","sequential-stimulus-presentation","209","662733","0.0-41.0-1.1","SS1613140864480","trial","","40","800","3329.56499999715","images/stimuli/spore_stims/simple_19_A_b.gif","images/stimuli/spore_stims/simple_19_B_b.gif","","","","","11","simple_similar","images/stimuli/spore_stims/simple_19_B_b.gif","right","","","","",""
"","null","html-keyboard-response","210","663644","0.0-41.0-0.2","SS1613140864480","","","null","","","","","<p><img src= images/blank.png width =""200"" height = ""200"" style = ""float:right""></p><p><img src=images/blank.png width =""800"" height = ""200""></p>","","","","","","","","","","","",""
"","2782.9300000012154","sequential-stimulus-presentation","211","667246","0.0-41.0-1.2","SS1613140864480","trial","","40","800","3582.9300000012154","images/stimuli/spore_stims/simple_19_A_b.gif","images/stimuli/spore_stims/simple_19_B_b.gif","","","","","11","simple_similar","images/stimuli/spore_stims/simple_19_B_b.gif","right","","","","",""
"","null","html-keyboard-response","212","668457","0.0-41.0-0.3","SS1613140864480","","","null","","","","","<p><img src= images/blank.png width =""200"" height = ""200"" style = ""float:right""></p><p><img src=images/blank.png width =""800"" height = ""200""></p>","","","","","","","","","","","",""
"","2506.2600000019884","sequential-stimulus-presentation","213","671780","0.0-41.0-1.3","SS1613140864480","trial","","40","800","3306.2600000019884","images/stimuli/spore_stims/simple_19_A_b.gif","images/stimuli/spore_stims/simple_19_B_b.gif","","","","","11","simple_similar","images/stimuli/spore_stims/simple_19_B_b.gif","right","","","","",""
"","null","html-keyboard-response","214","672687","0.0-41.0-0.4","SS1613140864480","","","null","","","","","<p><img src= images/blank.png width =""200"" height = ""200"" style = ""float:right""></p><p><img src=images/blank.png width =""800"" height = ""200""></p>","","","","","","","","","","","",""
"","2792.524999997113","sequential-stimulus-presentation","215","676286","0.0-41.0-1.4","SS1613140864480","trial","","40","800","3592.524999997113","images/stimuli/spore_stims/simple_19_A_b.gif","images/stimuli/spore_stims/simple_19_B_b.gif","","","","","11","simple_similar","images/stimuli/spore_stims/simple_19_A_b.gif","middle","","","","",""
"","null","html-keyboard-response","216","677586","0.0-41.0-0.5","SS1613140864480","","","null","","","","","<p><img src= images/blank.png width =""200"" height = ""200"" style = ""float:right""></p><p><img src=images/blank.png width =""800"" height = ""200""></p>","","","","","","","","","","","",""
"","1920.529999995837","sequential-stimulus-presentation","217","680324","0.0-41.0-1.5","SS1613140864480","trial","","40","800","2720.529999995837","images/stimuli/spore_stims/simple_19_A_b.gif","images/stimuli/spore_stims/simple_19_B_b.gif","","","","","11","simple_similar","images/stimuli/spore_stims/simple_19_B_b.gif","right","","","","",""
"","null","html-keyboard-response","218","681203","0.0-41.0-0.6","SS1613140864480","","","null","","","","","<p><img src= images/blank.png width =""200"" height = ""200"" style = ""float:right""></p><p><img src=images/blank.png width =""800"" height = ""200""></p>","","","","","","","","","","","",""
"","2461.5299999931594","sequential-stimulus-presentation","219","684484","0.0-41.0-1.6","SS1613140864480","trial","","40","800","3261.5299999931594","images/stimuli/spore_stims/simple_19_A_b.gif","images/stimuli/spore_stims/simple_19_B_b.gif","","","","","11","simple_similar","images/stimuli/spore_stims/simple_19_B_b.gif","right","","","","",""
"","null","html-keyboard-response","220","685455","0.0-41.0-0.7","SS1613140864480","","","null","","","","","<p><img src= images/blank.png width =""200"" height = ""200"" style = ""float:right""></p><p><img src=images/blank.png width =""800"" height = ""200""></p>","","","","","","","","","","","",""
"","2934.9249999941094","sequential-stimulus-presentation","221","689198","0.0-41.0-1.7","SS1613140864480","trial","","40","800","3734.9249999941094","images/stimuli/spore_stims/simple_19_A_b.gif","images/stimuli/spore_stims/simple_19_B_b.gif","","","","","11","simple_similar","images/stimuli/spore_stims/simple_19_B_b.gif","right","","","","",""
"","1461.4500000025146","html-keyboard-response","222","690676","0.0-42.0","SS1613140864480","pref_question","","49","","","","","<video width ='960' height = '540' style='padding-top:8%' autoplay muted><source src='images/stimuli/wall_pref.mp4' type='video/mp4'></video>","1","left","25%","11","","","","","","","",""
"","4165.424999999232","sequential-stimulus-presentation","223","695653","0.0-43.0","SS1613140864480","pref_reveal","","40","800","4965.424999999232","null","null","","","","","11","","","","novel","","","",""
"","null","html-keyboard-response","224","696537","0.0-44.0-0.0","SS1613140864480","","","null","","","","","<p><img src= images/blank.png width =""200"" height = ""200"" style = ""float:right""></p><p><img src=images/blank.png width =""800"" height = ""200""></p>","","","","","","","","","","","",""
"","2340.9000000028173","sequential-stimulus-presentation","225","699703","0.0-44.0-1.0","SS1613140864480","trial","","40","800","3140.9000000028173","images/stimuli/spore_stims/complex_11_B_c.gif","images/stimuli/spore_stims/complex_06_B_c.gif","","","","","12","complex_dissimilar","images/stimuli/spore_stims/complex_06_B_c.gif","middle","","","","",""
"","null","html-keyboard-response","226","700709","0.0-44.0-0.1","SS1613140864480","","","null","","","","","<p><img src= images/blank.png width =""200"" height = ""200"" style = ""float:right""></p><p><img src=images/blank.png width =""800"" height = ""200""></p>","","","","","","","","","","","",""
"","1792.6350000051316","sequential-stimulus-presentation","227","703307","0.0-44.0-1.1","SS1613140864480","trial","","40","800","2592.6350000051316","images/stimuli/spore_stims/complex_11_B_c.gif","images/stimuli/spore_stims/complex_06_B_c.gif","","","","","12","complex_dissimilar","images/stimuli/spore_stims/complex_06_B_c.gif","middle","","","","",""
"","null","html-keyboard-response","228","704543","0.0-44.0-0.2","SS1613140864480","","","null","","","","","<p><img src= images/blank.png width =""200"" height = ""200"" style = ""float:right""></p><p><img src=images/blank.png width =""800"" height = ""200""></p>","","","","","","","","","","","",""
"","1864.7950000013225","sequential-stimulus-presentation","229","707227","0.0-44.0-1.2","SS1613140864480","trial","","40","800","2664.7950000013225","images/stimuli/spore_stims/complex_11_B_c.gif","images/stimuli/spore_stims/complex_06_B_c.gif","","","","","12","complex_dissimilar","images/stimuli/spore_stims/complex_06_B_c.gif","middle","","","","",""
"","null","html-keyboard-response","230","708433","0.0-44.0-0.3","SS1613140864480","","","null","","","","","<p><img src= images/blank.png width =""200"" height = ""200"" style = ""float:right""></p><p><img src=images/blank.png width =""800"" height = ""200""></p>","","","","","","","","","","","",""
"","2026.6549999942072","sequential-stimulus-presentation","231","711284","0.0-44.0-1.3","SS1613140864480","trial","","40","800","2826.654999994207","images/stimuli/spore_stims/complex_11_B_c.gif","images/stimuli/spore_stims/complex_06_B_c.gif","","","","","12","complex_dissimilar","images/stimuli/spore_stims/complex_11_B_c.gif","left","","","","",""
"","null","html-keyboard-response","232","712424","0.0-44.0-0.4","SS1613140864480","","","null","","","","","<p><img src= images/blank.png width =""200"" height = ""200"" style = ""float:right""></p><p><img src=images/blank.png width =""800"" height = ""200""></p>","","","","","","","","","","","",""
"","3178.9700000009034","sequential-stimulus-presentation","233","716414","0.0-44.0-1.4","SS1613140864480","trial","","40","800","3978.9700000009034","images/stimuli/spore_stims/complex_11_B_c.gif","images/stimuli/spore_stims/complex_06_B_c.gif","","","","","12","complex_dissimilar","images/stimuli/spore_stims/complex_06_B_c.gif","middle","","","","",""
"","null","html-keyboard-response","234","717381","0.0-44.0-0.5","SS1613140864480","","","null","","","","","<p><img src= images/blank.png width =""200"" height = ""200"" style = ""float:right""></p><p><img src=images/blank.png width =""800"" height = ""200""></p>","","","","","","","","","","","",""
"","2156.555000001332","sequential-stimulus-presentation","235","720348","0.0-44.0-1.5","SS1613140864480","trial","","40","800","2956.555000001332","images/stimuli/spore_stims/complex_11_B_c.gif","images/stimuli/spore_stims/complex_06_B_c.gif","","","","","12","complex_dissimilar","images/stimuli/spore_stims/complex_06_B_c.gif","middle","","","","",""
"","null","html-keyboard-response","236","721214","0.0-44.0-0.6","SS1613140864480","","","null","","","","","<p><img src= images/blank.png width =""200"" height = ""200"" style = ""float:right""></p><p><img src=images/blank.png width =""800"" height = ""200""></p>","","","","","","","","","","","",""
"","2139.8950000002515","sequential-stimulus-presentation","237","724174","0.0-44.0-1.6","SS1613140864480","trial","","40","800","2939.8950000002515","images/stimuli/spore_stims/complex_11_B_c.gif","images/stimuli/spore_stims/complex_06_B_c.gif","","","","","12","complex_dissimilar","images/stimuli/spore_stims/complex_06_B_c.gif","middle","","","","",""
"","null","html-keyboard-response","238","725370","0.0-44.0-0.7","SS1613140864480","","","null","","","","","<p><img src= images/blank.png width =""200"" height = ""200"" style = ""float:right""></p><p><img src=images/blank.png width =""800"" height = ""200""></p>","","","","","","","","","","","",""
"","1643.754999997327","sequential-stimulus-presentation","239","727821","0.0-44.0-1.7","SS1613140864480","trial","","40","800","2443.754999997327","images/stimuli/spore_stims/complex_11_B_c.gif","images/stimuli/spore_stims/complex_06_B_c.gif","","","","","12","complex_dissimilar","images/stimuli/spore_stims/complex_06_B_c.gif","middle","","","","",""
"","1415.0749999971595","html-keyboard-response","240","729254","0.0-45.0","SS1613140864480","pref_question","","51","","","","","<video width ='960' height = '540' style='padding-top:8%' autoplay muted><source src='images/stimuli/wall_pref.mp4' type='video/mp4'></video>","3","right","66%","12","","","","","","","",""
"","3889.2850000048056","sequential-stimulus-presentation","241","733973","0.0-46.0","SS1613140864480","pref_reveal","","40","800","4689.285000004806","null","null","","","","","12","","","","novel","","","",""
"","null","html-keyboard-response","242","734869","0.0-47.0-0.0","SS1613140864480","","","null","","","","","<p><img src= images/blank.png width =""200"" height = ""200"" style = ""float:right""></p><p><img src=images/blank.png width =""800"" height = ""200""></p>","","","","","","","","","","","",""
"","2620.9500000041444","sequential-stimulus-presentation","243","738311","0.0-47.0-1.0","SS1613140864480","trial","","40","800","3420.9500000041444","images/stimuli/spore_stims/complex_16_A_b.gif","images/stimuli/spore_stims/complex_16_B_b.gif","","","","","13","complex_similar","images/stimuli/spore_stims/complex_16_B_b.gif","middle","","","","",""
"","null","html-keyboard-response","244","739627","0.0-47.0-0.1","SS1613140864480","","","null","","","","","<p><img src= images/blank.png width =""200"" height = ""200"" style = ""float:right""></p><p><img src=images/blank.png width =""800"" height = ""200""></p>","","","","","","","","","","","",""
"","2106.775000000256","sequential-stimulus-presentation","245","742541","0.0-47.0-1.1","SS1613140864480","trial","","40","800","2906.775000000256","images/stimuli/spore_stims/complex_16_A_b.gif","images/stimuli/spore_stims/complex_16_B_b.gif","","","","","13","complex_similar","images/stimuli/spore_stims/complex_16_B_b.gif","middle","","","","",""
"","null","html-keyboard-response","246","743415","0.0-47.0-0.2","SS1613140864480","","","null","","","","","<p><img src= images/blank.png width =""200"" height = ""200"" style = ""float:right""></p><p><img src=images/blank.png width =""800"" height = ""200""></p>","","","","","","","","","","","",""
"","2109.994999998831","sequential-stimulus-presentation","247","746349","0.0-47.0-1.2","SS1613140864480","trial","","40","800","2909.994999998831","images/stimuli/spore_stims/complex_16_A_b.gif","images/stimuli/spore_stims/complex_16_B_b.gif","","","","","13","complex_similar","images/stimuli/spore_stims/complex_16_B_b.gif","middle","","","","",""
"","null","html-keyboard-response","248","747560","0.0-47.0-0.3","SS1613140864480","","","null","","","","","<p><img src= images/blank.png width =""200"" height = ""200"" style = ""float:right""></p><p><img src=images/blank.png width =""800"" height = ""200""></p>","","","","","","","","","","","",""
"","1920.65499999444","sequential-stimulus-presentation","249","750300","0.0-47.0-1.3","SS1613140864480","trial","","40","800","2720.65499999444","images/stimuli/spore_stims/complex_16_A_b.gif","images/stimuli/spore_stims/complex_16_B_b.gif","","","","","13","complex_similar","images/stimuli/spore_stims/complex_16_B_b.gif","middle","","","","",""
"","null","html-keyboard-response","250","751423","0.0-47.0-0.4","SS1613140864480","","","null","","","","","<p><img src= images/blank.png width =""200"" height = ""200"" style = ""float:right""></p><p><img src=images/blank.png width =""800"" height = ""200""></p>","","","","","","","","","","","",""
"","1585.6449999990873","sequential-stimulus-presentation","251","753828","0.0-47.0-1.4","SS1613140864480","trial","","40","800","2385.6449999990873","images/stimuli/spore_stims/complex_16_A_b.gif","images/stimuli/spore_stims/complex_16_B_b.gif","","","","","13","complex_similar","images/stimuli/spore_stims/complex_16_B_b.gif","middle","","","","",""
"","null","html-keyboard-response","252","755029","0.0-47.0-0.5","SS1613140864480","","","null","","","","","<p><img src= images/blank.png width =""200"" height = ""200"" style = ""float:right""></p><p><img src=images/blank.png width =""800"" height = ""200""></p>","","","","","","","","","","","",""
"","1751.3049999980722","sequential-stimulus-presentation","253","757588","0.0-47.0-1.5","SS1613140864480","trial","","40","800","2551.304999998072","images/stimuli/spore_stims/complex_16_A_b.gif","images/stimuli/spore_stims/complex_16_B_b.gif","","","","","13","complex_similar","images/stimuli/spore_stims/complex_16_A_b.gif","right","","","","",""
"","null","html-keyboard-response","254","758536","0.0-47.0-0.6","SS1613140864480","","","null","","","","","<p><img src= images/blank.png width =""200"" height = ""200"" style = ""float:right""></p><p><img src=images/blank.png width =""800"" height = ""200""></p>","","","","","","","","","","","",""
"","1560.279999997816","sequential-stimulus-presentation","255","760918","0.0-47.0-1.6","SS1613140864480","trial","","40","800","2360.279999997816","images/stimuli/spore_stims/complex_16_A_b.gif","images/stimuli/spore_stims/complex_16_B_b.gif","","","","","13","complex_similar","images/stimuli/spore_stims/complex_16_B_b.gif","middle","","","","",""
"","null","html-keyboard-response","256","762083","0.0-47.0-0.7","SS1613140864480","","","null","","","","","<p><img src= images/blank.png width =""200"" height = ""200"" style = ""float:right""></p><p><img src=images/blank.png width =""800"" height = ""200""></p>","","","","","","","","","","","",""
"","1813.0600000004051","sequential-stimulus-presentation","257","764716","0.0-47.0-1.7","SS1613140864480","trial","","40","800","2613.060000000405","images/stimuli/spore_stims/complex_16_A_b.gif","images/stimuli/spore_stims/complex_16_B_b.gif","","","","","13","complex_similar","images/stimuli/spore_stims/complex_16_B_b.gif","middle","","","","",""
"","1399.3099999934202","html-keyboard-response","258","766126","0.0-48.0","SS1613140864480","pref_question","","49","","","","","<video width ='960' height = '540' style='padding-top:8%' autoplay muted><source src='images/stimuli/wall_pref.mp4' type='video/mp4'></video>","1","left","25%","13","","","","","","","",""
"","3323.7850000004983","sequential-stimulus-presentation","259","770278","0.0-49.0","SS1613140864480","pref_reveal","","40","800","4123.785000000498","null","null","","","","","13","","","","novel","","","",""
"","null","html-keyboard-response","260","771544","0.0-50.0-0.0","SS1613140864480","","","null","","","","","<p><img src= images/blank.png width =""200"" height = ""200"" style = ""float:right""></p><p><img src=images/blank.png width =""800"" height = ""200""></p>","","","","","","","","","","","",""
"","2158.610000005807","sequential-stimulus-presentation","261","774527","0.0-50.0-1.0","SS1613140864480","trial","","40","800","2958.610000005807","images/stimuli/spore_stims/simple_16_A_d.gif","images/stimuli/spore_stims/simple_16_B_d.gif","","","","","14","simple_similar","images/stimuli/spore_stims/simple_16_B_d.gif","right","","","","",""
"","null","html-keyboard-response","262","775583","0.0-50.0-0.1","SS1613140864480","","","null","","","","","<p><img src= images/blank.png width =""200"" height = ""200"" style = ""float:right""></p><p><img src=images/blank.png width =""800"" height = ""200""></p>","","","","","","","","","","","",""
"","1051.420000003418","sequential-stimulus-presentation","263","777443","0.0-50.0-1.1","SS1613140864480","trial","","40","800","1851.420000003418","images/stimuli/spore_stims/simple_16_A_d.gif","images/stimuli/spore_stims/simple_16_B_d.gif","","","","","14","simple_similar","images/stimuli/spore_stims/simple_16_B_d.gif","right","","","","",""
"","null","html-keyboard-response","264","778623","0.0-50.0-0.2","SS1613140864480","","","null","","","","","<p><img src= images/blank.png width =""200"" height = ""200"" style = ""float:right""></p><p><img src=images/blank.png width =""800"" height = ""200""></p>","","","","","","","","","","","",""
"","1177.2250000067288","sequential-stimulus-presentation","265","780614","0.0-50.0-1.2","SS1613140864480","trial","","40","800","1977.2250000067288","images/stimuli/spore_stims/simple_16_A_d.gif","images/stimuli/spore_stims/simple_16_B_d.gif","","","","","14","simple_similar","images/stimuli/spore_stims/simple_16_B_d.gif","right","","","","",""
"","null","html-keyboard-response","266","781742","0.0-50.0-0.3","SS1613140864480","","","null","","","","","<p><img src= images/blank.png width =""200"" height = ""200"" style = ""float:right""></p><p><img src=images/blank.png width =""800"" height = ""200""></p>","","","","","","","","","","","",""
"","1332.9200000007404","sequential-stimulus-presentation","267","783883","0.0-50.0-1.3","SS1613140864480","trial","","40","800","2132.9200000007404","images/stimuli/spore_stims/simple_16_A_d.gif","images/stimuli/spore_stims/simple_16_B_d.gif","","","","","14","simple_similar","images/stimuli/spore_stims/simple_16_B_d.gif","right","","","","",""
"","null","html-keyboard-response","268","785113","0.0-50.0-0.4","SS1613140864480","","","null","","","","","<p><img src= images/blank.png width =""200"" height = ""200"" style = ""float:right""></p><p><img src=images/blank.png width =""800"" height = ""200""></p>","","","","","","","","","","","",""
"","1459.8399999958929","sequential-stimulus-presentation","269","787389","0.0-50.0-1.4","SS1613140864480","trial","","40","800","2259.839999995893","images/stimuli/spore_stims/simple_16_A_d.gif","images/stimuli/spore_stims/simple_16_B_d.gif","","","","","14","simple_similar","images/stimuli/spore_stims/simple_16_B_d.gif","right","","","","",""
"","null","html-keyboard-response","270","788698","0.0-50.0-0.5","SS1613140864480","","","null","","","","","<p><img src= images/blank.png width =""200"" height = ""200"" style = ""float:right""></p><p><img src=images/blank.png width =""800"" height = ""200""></p>","","","","","","","","","","","",""
"","1542.3650000011548","sequential-stimulus-presentation","271","791053","0.0-50.0-1.5","SS1613140864480","trial","","40","800","2342.365000001155","images/stimuli/spore_stims/simple_16_A_d.gif","images/stimuli/spore_stims/simple_16_B_d.gif","","","","","14","simple_similar","images/stimuli/spore_stims/simple_16_B_d.gif","right","","","","",""
"","null","html-keyboard-response","272","791972","0.0-50.0-0.6","SS1613140864480","","","null","","","","","<p><img src= images/blank.png width =""200"" height = ""200"" style = ""float:right""></p><p><img src=images/blank.png width =""800"" height = ""200""></p>","","","","","","","","","","","",""
"","1705.1149999970803","sequential-stimulus-presentation","273","794499","0.0-50.0-1.6","SS1613140864480","trial","","40","800","2505.1149999970803","images/stimuli/spore_stims/simple_16_A_d.gif","images/stimuli/spore_stims/simple_16_B_d.gif","","","","","14","simple_similar","images/stimuli/spore_stims/simple_16_A_d.gif","middle","","","","",""
"","null","html-keyboard-response","274","795522","0.0-50.0-0.7","SS1613140864480","","","null","","","","","<p><img src= images/blank.png width =""200"" height = ""200"" style = ""float:right""></p><p><img src=images/blank.png width =""800"" height = ""200""></p>","","","","","","","","","","","",""
"","1754.5500000050524","sequential-stimulus-presentation","275","798099","0.0-50.0-1.7","SS1613140864480","trial","","40","800","2554.5500000050524","images/stimuli/spore_stims/simple_16_A_d.gif","images/stimuli/spore_stims/simple_16_B_d.gif","","","","","14","simple_similar","images/stimuli/spore_stims/simple_16_B_d.gif","right","","","","",""
"","1337.1350000015227","html-keyboard-response","276","799446","0.0-51.0","SS1613140864480","pref_question","","50","","","","","<video width ='960' height = '540' style='padding-top:8%' autoplay muted><source src='images/stimuli/wall_pref.mp4' type='video/mp4'></video>","2","middle","45%","14","","","","","","","",""
"","1423.2150000024121","sequential-stimulus-presentation","277","801700","0.0-52.0","SS1613140864480","pref_reveal","","40","800","2223.215000002412","null","null","","","","","14","","","","deviant","","","",""
"","null","html-keyboard-response","278","802945","0.0-53.0-0.0","SS1613140864480","","","null","","","","","<p><img src= images/blank.png width =""200"" height = ""200"" style = ""float:right""></p><p><img src=images/blank.png width =""800"" height = ""200""></p>","","","","","","","","","","","",""
"","1815.3999999994412","sequential-stimulus-presentation","279","805582","0.0-53.0-1.0","SS1613140864480","trial","","40","800","2615.399999999441","images/stimuli/spore_stims/complex_18_B_a.gif","images/stimuli/spore_stims/complex_18_A_a.gif","","","","","15","complex_similar","images/stimuli/spore_stims/complex_18_A_a.gif","right","","","","",""
"","null","html-keyboard-response","280","806717","0.0-53.0-0.1","SS1613140864480","","","null","","","","","<p><img src= images/blank.png width =""200"" height = ""200"" style = ""float:right""></p><p><img src=images/blank.png width =""800"" height = ""200""></p>","","","","","","","","","","","",""
"","1846.3599999959115","sequential-stimulus-presentation","281","809372","0.0-53.0-1.1","SS1613140864480","trial","","40","800","2646.3599999959115","images/stimuli/spore_stims/complex_18_B_a.gif","images/stimuli/spore_stims/complex_18_A_a.gif","","","","","15","complex_similar","images/stimuli/spore_stims/complex_18_A_a.gif","right","","","","",""
"","null","html-keyboard-response","282","810455","0.0-53.0-0.2","SS1613140864480","","","null","","","","","<p><img src= images/blank.png width =""200"" height = ""200"" style = ""float:right""></p><p><img src=images/blank.png width =""800"" height = ""200""></p>","","","","","","","","","","","",""
"","1963.3400000019465","sequential-stimulus-presentation","283","813235","0.0-53.0-1.2","SS1613140864480","trial","","40","800","2763.3400000019465","images/stimuli/spore_stims/complex_18_B_a.gif","images/stimuli/spore_stims/complex_18_A_a.gif","","","","","15","complex_similar","images/stimuli/spore_stims/complex_18_B_a.gif","left","","","","",""
"","null","html-keyboard-response","284","814392","0.0-53.0-0.3","SS1613140864480","","","null","","","","","<p><img src= images/blank.png width =""200"" height = ""200"" style = ""float:right""></p><p><img src=images/blank.png width =""800"" height = ""200""></p>","","","","","","","","","","","",""
"","1916.3499999993946","sequential-stimulus-presentation","285","817132","0.0-53.0-1.3","SS1613140864480","trial","","40","800","2716.3499999993946","images/stimuli/spore_stims/complex_18_B_a.gif","images/stimuli/spore_stims/complex_18_A_a.gif","","","","","15","complex_similar","images/stimuli/spore_stims/complex_18_A_a.gif","right","","","","",""
"","null","html-keyboard-response","286","817996","0.0-53.0-0.4","SS1613140864480","","","null","","","","","<p><img src= images/blank.png width =""200"" height = ""200"" style = ""float:right""></p><p><img src=images/blank.png width =""800"" height = ""200""></p>","","","","","","","","","","","",""
"","1714.249999997206","sequential-stimulus-presentation","287","820532","0.0-53.0-1.4","SS1613140864480","trial","","40","800","2514.249999997206","images/stimuli/spore_stims/complex_18_B_a.gif","images/stimuli/spore_stims/complex_18_A_a.gif","","","","","15","complex_similar","images/stimuli/spore_stims/complex_18_A_a.gif","right","","","","",""
"","null","html-keyboard-response","288","821481","0.0-53.0-0.5","SS1613140864480","","","null","","","","","<p><img src= images/blank.png width =""200"" height = ""200"" style = ""float:right""></p><p><img src=images/blank.png width =""800"" height = ""200""></p>","","","","","","","","","","","",""
"","1433.7300000042887","sequential-stimulus-presentation","289","823740","0.0-53.0-1.5","SS1613140864480","trial","","40","800","2233.7300000042887","images/stimuli/spore_stims/complex_18_B_a.gif","images/stimuli/spore_stims/complex_18_A_a.gif","","","","","15","complex_similar","images/stimuli/spore_stims/complex_18_A_a.gif","right","","","","",""
"","null","html-keyboard-response","290","824775","0.0-53.0-0.6","SS1613140864480","","","null","","","","","<p><img src= images/blank.png width =""200"" height = ""200"" style = ""float:right""></p><p><img src=images/blank.png width =""800"" height = ""200""></p>","","","","","","","","","","","",""
"","1630.3899999983842","sequential-stimulus-presentation","291","827229","0.0-53.0-1.6","SS1613140864480","trial","","40","800","2430.389999998384","images/stimuli/spore_stims/complex_18_B_a.gif","images/stimuli/spore_stims/complex_18_A_a.gif","","","","","15","complex_similar","images/stimuli/spore_stims/complex_18_A_a.gif","right","","","","",""
"","null","html-keyboard-response","292","828282","0.0-53.0-0.7","SS1613140864480","","","null","","","","","<p><img src= images/blank.png width =""200"" height = ""200"" style = ""float:right""></p><p><img src=images/blank.png width =""800"" height = ""200""></p>","","","","","","","","","","","",""
"","1531.1450000008335","sequential-stimulus-presentation","293","830635","0.0-53.0-1.7","SS1613140864480","trial","","40","800","2331.1450000008335","images/stimuli/spore_stims/complex_18_B_a.gif","images/stimuli/spore_stims/complex_18_A_a.gif","","","","","15","complex_similar","images/stimuli/spore_stims/complex_18_A_a.gif","right","","","","",""
"","1232.2199999981094","html-keyboard-response","294","831875","0.0-54.0","SS1613140864480","pref_question","","50","","","","","<video width ='960' height = '540' style='padding-top:8%' autoplay muted><source src='images/stimuli/wall_pref.mp4' type='video/mp4'></video>","2","middle","45%","15","","","","","","","",""
"","1566.3199999980861","sequential-stimulus-presentation","295","834252","0.0-55.0","SS1613140864480","pref_reveal","","40","800","2366.319999998086","null","null","","","","","15","","","","novel","","","",""
"","null","html-keyboard-response","296","835488","0.0-56.0-0.0","SS1613140864480","","","null","","","","","<p><img src= images/blank.png width =""200"" height = ""200"" style = ""float:right""></p><p><img src=images/blank.png width =""800"" height = ""200""></p>","","","","","","","","","","","",""
"","1763.7699999978067","sequential-stimulus-presentation","297","838076","0.0-56.0-1.0","SS1613140864480","trial","","40","800","2563.7699999978067","images/stimuli/spore_stims/simple_01_A_b.gif","images/stimuli/spore_stims/simple_03_B_c.gif","","","","","16","simple_dissimilar","images/stimuli/spore_stims/simple_03_B_c.gif","right","","","","",""
"","null","html-keyboard-response","298","839341","0.0-56.0-0.1","SS1613140864480","","","null","","","","","<p><img src= images/blank.png width =""200"" height = ""200"" style = ""float:right""></p><p><img src=images/blank.png width =""800"" height = ""200""></p>","","","","","","","","","","","",""
"","1387.0650000025053","sequential-stimulus-presentation","299","841550","0.0-56.0-1.1","SS1613140864480","trial","","40","800","2187.0650000025053","images/stimuli/spore_stims/simple_01_A_b.gif","images/stimuli/spore_stims/simple_03_B_c.gif","","","","","16","simple_dissimilar","images/stimuli/spore_stims/simple_03_B_c.gif","right","","","","",""
"","null","html-keyboard-response","300","842698","0.0-56.0-0.2","SS1613140864480","","","null","","","","","<p><img src= images/blank.png width =""200"" height = ""200"" style = ""float:right""></p><p><img src=images/blank.png width =""800"" height = ""200""></p>","","","","","","","","","","","",""
"","1144.0399999992223","sequential-stimulus-presentation","301","844660","0.0-56.0-1.2","SS1613140864480","trial","","40","800","1944.0399999992223","images/stimuli/spore_stims/simple_01_A_b.gif","images/stimuli/spore_stims/simple_03_B_c.gif","","","","","16","simple_dissimilar","images/stimuli/spore_stims/simple_03_B_c.gif","right","","","","",""
"","null","html-keyboard-response","302","845975","0.0-56.0-0.3","SS1613140864480","","","null","","","","","<p><img src= images/blank.png width =""200"" height = ""200"" style = ""float:right""></p><p><img src=images/blank.png width =""800"" height = ""200""></p>","","","","","","","","","","","",""
"","1204.7750000054948","sequential-stimulus-presentation","303","847987","0.0-56.0-1.3","SS1613140864480","trial","","40","800","2004.7750000054948","images/stimuli/spore_stims/simple_01_A_b.gif","images/stimuli/spore_stims/simple_03_B_c.gif","","","","","16","simple_dissimilar","images/stimuli/spore_stims/simple_03_B_c.gif","right","","","","",""
"","null","html-keyboard-response","304","848869","0.0-56.0-0.4","SS1613140864480","","","null","","","","","<p><img src= images/blank.png width =""200"" height = ""200"" style = ""float:right""></p><p><img src=images/blank.png width =""800"" height = ""200""></p>","","","","","","","","","","","",""
"","918.774999998277","sequential-stimulus-presentation","305","850613","0.0-56.0-1.4","SS1613140864480","trial","","40","800","1718.774999998277","images/stimuli/spore_stims/simple_01_A_b.gif","images/stimuli/spore_stims/simple_03_B_c.gif","","","","","16","simple_dissimilar","images/stimuli/spore_stims/simple_03_B_c.gif","right","","","","",""
"","null","html-keyboard-response","306","851927","0.0-56.0-0.5","SS1613140864480","","","null","","","","","<p><img src= images/blank.png width =""200"" height = ""200"" style = ""float:right""></p><p><img src=images/blank.png width =""800"" height = ""200""></p>","","","","","","","","","","","",""
"","906.6949999978533","sequential-stimulus-presentation","307","853652","0.0-56.0-1.5","SS1613140864480","trial","","40","800","1706.6949999978533","images/stimuli/spore_stims/simple_01_A_b.gif","images/stimuli/spore_stims/simple_03_B_c.gif","","","","","16","simple_dissimilar","images/stimuli/spore_stims/simple_03_B_c.gif","right","","","","",""
"","null","html-keyboard-response","308","854609","0.0-56.0-0.6","SS1613140864480","","","null","","","","","<p><img src= images/blank.png width =""200"" height = ""200"" style = ""float:right""></p><p><img src=images/blank.png width =""800"" height = ""200""></p>","","","","","","","","","","","",""
"","1673.519999996759","sequential-stimulus-presentation","309","857091","0.0-56.0-1.6","SS1613140864480","trial","","40","800","2473.519999996759","images/stimuli/spore_stims/simple_01_A_b.gif","images/stimuli/spore_stims/simple_03_B_c.gif","","","","","16","simple_dissimilar","images/stimuli/spore_stims/simple_01_A_b.gif","middle","","","","",""
"","null","html-keyboard-response","310","858376","0.0-56.0-0.7","SS1613140864480","","","null","","","","","<p><img src= images/blank.png width =""200"" height = ""200"" style = ""float:right""></p><p><img src=images/blank.png width =""800"" height = ""200""></p>","","","","","","","","","","","",""
"","778.3850000050152","sequential-stimulus-presentation","311","859980","0.0-56.0-1.7","SS1613140864480","trial","","40","800","1578.3850000050152","images/stimuli/spore_stims/simple_01_A_b.gif","images/stimuli/spore_stims/simple_03_B_c.gif","","","","","16","simple_dissimilar","images/stimuli/spore_stims/simple_03_B_c.gif","right","","","","",""
