"view_history","rt","trial_type","trial_index","time_elapsed","internal_node_id","subject","stimulus_type","trial_stimulus","key_press","minimum_viewing_duration","trial_looking_time","block_deviant","block_background","stimulus","wall_pref","location","location_percent","block_number","block_type","stimulus_displayed","position_displayed","stim_type_selected","responses","question_order","stimulus_left","stimulus_right"
"[{""page_index"":0,""viewing_time"":22531.58499998972}]","22535.069999983534","instructions","0","22525","0.0-0.0","SS1613138422649","","","","","","","","","","","","","","","","","","","",""
"[{""page_index"":0,""viewing_time"":10820.42000000365},{""page_index"":1,""viewing_time"":6619.539999868721}]","17440.809999825433","instructions","1","41976","0.0-1.0","SS1613138422649","instructions","","","","","","","","","","","","","","","","","","",""
"","4859.214999945834","sequential-stimulus-presentation","2","47651","0.0-2.0","SS1613138422649","","","40","800","5659.214999945834","null","null","","","","","","","","","","","","",""
"","2771.9699998851866","sequential-stimulus-presentation","3","51228","0.0-3.0","SS1613138422649","","","40","800","3571.9699998851866","null","null","","","","","","","","","","","","",""
"[{""page_index"":0,""viewing_time"":3885.3249999228865}]","3886.214999947697","instructions","4","55116","0.0-4.0","SS1613138422649","instructions","","","","","","","","","","","","","","","","","","",""
"","9249.89499989897","html-keyboard-response","5","64375","0.0-5.0","SS1613138422649","instructions","","49","","","","","<video width ='960' height = '540' autoplay muted><source src='images/stimuli/wall_pref.mp4' type='video/mp4'></video>","1","left","25%","","","","","","","","",""
"","378.6799998488277","sequential-stimulus-presentation","6","65566","0.0-6.0","SS1613138422649","pref_reveal","","40","800","1178.6799998488277","null","null","","","","","","","","","","","","",""
"[{""page_index"":0,""viewing_time"":8476.915000006557},{""page_index"":1,""viewing_time"":2263.4300000499934},{""page_index"":2,""viewing_time"":913.4599999524653},{""page_index"":3,""viewing_time"":858.7899999693036}]","12513.014999916777","instructions","7","78086","0.0-7.0","SS1613138422649","instructions","","","","","","","","","","","","","","","","","","",""
"","null","html-keyboard-response","8","78991","0.0-8.0-0.0","SS1613138422649","","","null","","","","","<p><img src= images/blank.png width =""200"" height = ""200"" style = ""float:right""></p><p><img src=images/blank.png width =""800"" height = ""200""></p>","","","","","","","","","","","",""
"","2468.2800001464784","sequential-stimulus-presentation","9","82275","0.0-8.0-1.0","SS1613138422649","trial","","40","800","3268.2800001464784","images/stimuli/spore_stims/complex_17_B_b.gif","images/stimuli/spore_stims/complex_17_A_b.gif","","","","","0","complex_similar","images/stimuli/spore_stims/complex_17_A_b.gif","left","","","","",""
"","null","html-keyboard-response","10","83424","0.0-8.0-0.1","SS1613138422649","","","null","","","","","<p><img src= images/blank.png width =""200"" height = ""200"" style = ""float:right""></p><p><img src=images/blank.png width =""800"" height = ""200""></p>","","","","","","","","","","","",""
"","2304.6549998689443","sequential-stimulus-presentation","11","86539","0.0-8.0-1.1","SS1613138422649","trial","","40","800","3104.6549998689443","images/stimuli/spore_stims/complex_17_B_b.gif","images/stimuli/spore_stims/complex_17_A_b.gif","","","","","0","complex_similar","images/stimuli/spore_stims/complex_17_A_b.gif","left","","","","",""
"","null","html-keyboard-response","12","87705","0.0-8.0-0.2","SS1613138422649","","","null","","","","","<p><img src= images/blank.png width =""200"" height = ""200"" style = ""float:right""></p><p><img src=images/blank.png width =""800"" height = ""200""></p>","","","","","","","","","","","",""
"","3554.1999998968095","sequential-stimulus-presentation","13","92072","0.0-8.0-1.2","SS1613138422649","trial","","40","800","4354.1999998968095","images/stimuli/spore_stims/complex_17_B_b.gif","images/stimuli/spore_stims/complex_17_A_b.gif","","","","","0","complex_similar","images/stimuli/spore_stims/complex_17_A_b.gif","left","","","","",""
"","null","html-keyboard-response","14","93299","0.0-8.0-0.3","SS1613138422649","","","null","","","","","<p><img src= images/blank.png width =""200"" height = ""200"" style = ""float:right""></p><p><img src=images/blank.png width =""800"" height = ""200""></p>","","","","","","","","","","","",""
"","2697.4450000561774","sequential-stimulus-presentation","15","96811","0.0-8.0-1.3","SS1613138422649","trial","","40","800","3497.4450000561774","images/stimuli/spore_stims/complex_17_B_b.gif","images/stimuli/spore_stims/complex_17_A_b.gif","","","","","0","complex_similar","images/stimuli/spore_stims/complex_17_A_b.gif","left","","","","",""
"","null","html-keyboard-response","16","98090","0.0-8.0-0.4","SS1613138422649","","","null","","","","","<p><img src= images/blank.png width =""200"" height = ""200"" style = ""float:right""></p><p><img src=images/blank.png width =""800"" height = ""200""></p>","","","","","","","","","","","",""
"","737.7049999777228","sequential-stimulus-presentation","17","99650","0.0-8.0-1.4","SS1613138422649","trial","","40","800","1537.7049999777228","images/stimuli/spore_stims/complex_17_B_b.gif","images/stimuli/spore_stims/complex_17_A_b.gif","","","","","0","complex_similar","images/stimuli/spore_stims/complex_17_A_b.gif","left","","","","",""
"","null","html-keyboard-response","18","100767","0.0-8.0-0.5","SS1613138422649","","","null","","","","","<p><img src= images/blank.png width =""200"" height = ""200"" style = ""float:right""></p><p><img src=images/blank.png width =""800"" height = ""200""></p>","","","","","","","","","","","",""
"","410.16500000841916","sequential-stimulus-presentation","19","101993","0.0-8.0-1.5","SS1613138422649","trial","","40","800","1210.1650000084192","images/stimuli/spore_stims/complex_17_B_b.gif","images/stimuli/spore_stims/complex_17_A_b.gif","","","","","0","complex_similar","images/stimuli/spore_stims/complex_17_A_b.gif","left","","","","",""
"","null","html-keyboard-response","20","102972","0.0-8.0-0.6","SS1613138422649","","","null","","","","","<p><img src= images/blank.png width =""200"" height = ""200"" style = ""float:right""></p><p><img src=images/blank.png width =""800"" height = ""200""></p>","","","","","","","","","","","",""
"","1097.5750000216067","sequential-stimulus-presentation","21","104897","0.0-8.0-1.6","SS1613138422649","trial","","40","800","1897.5750000216067","images/stimuli/spore_stims/complex_17_B_b.gif","images/stimuli/spore_stims/complex_17_A_b.gif","","","","","0","complex_similar","images/stimuli/spore_stims/complex_17_B_b.gif","right","","","","",""
"","null","html-keyboard-response","22","106074","0.0-8.0-0.7","SS1613138422649","","","null","","","","","<p><img src= images/blank.png width =""200"" height = ""200"" style = ""float:right""></p><p><img src=images/blank.png width =""800"" height = ""200""></p>","","","","","","","","","","","",""
"","1382.7949999831617","sequential-stimulus-presentation","23","108298","0.0-8.0-1.7","SS1613138422649","trial","","40","800","2182.7949999831617","images/stimuli/spore_stims/complex_17_B_b.gif","images/stimuli/spore_stims/complex_17_A_b.gif","","","","","0","complex_similar","images/stimuli/spore_stims/complex_17_A_b.gif","left","","","","",""
"","1221.6400001198053","html-keyboard-response","24","109529","0.0-9.0","SS1613138422649","pref_question","","50","","","","","<video width ='960' height = '540' style='padding-top:8%' autoplay muted><source src='images/stimuli/wall_pref.mp4' type='video/mp4'></video>","2","middle","45%","0","","","","","","","",""
"","4724.200000055134","sequential-stimulus-presentation","25","115065","0.0-10.0","SS1613138422649","pref_reveal","","40","800","5524.200000055134","null","null","","","","","0","","","","novel","","","",""
"","null","html-keyboard-response","26","116317","0.0-11.0-0.0","SS1613138422649","","","null","","","","","<p><img src= images/blank.png width =""200"" height = ""200"" style = ""float:right""></p><p><img src=images/blank.png width =""800"" height = ""200""></p>","","","","","","","","","","","",""
"","3466.1300000734627","sequential-stimulus-presentation","27","120608","0.0-11.0-1.0","SS1613138422649","trial","","40","800","4266.130000073463","images/stimuli/spore_stims/complex_01_B_a.gif","images/stimuli/spore_stims/complex_06_B_b.gif","","","","","1","complex_dissimilar","images/stimuli/spore_stims/complex_06_B_b.gif","middle","","","","",""
"","null","html-keyboard-response","28","121611","0.0-11.0-0.1","SS1613138422649","","","null","","","","","<p><img src= images/blank.png width =""200"" height = ""200"" style = ""float:right""></p><p><img src=images/blank.png width =""800"" height = ""200""></p>","","","","","","","","","","","",""
"","1725.8800000417978","sequential-stimulus-presentation","29","124152","0.0-11.0-1.1","SS1613138422649","trial","","40","800","2525.8800000417978","images/stimuli/spore_stims/complex_01_B_a.gif","images/stimuli/spore_stims/complex_06_B_b.gif","","","","","1","complex_dissimilar","images/stimuli/spore_stims/complex_06_B_b.gif","middle","","","","",""
"","null","html-keyboard-response","30","125027","0.0-11.0-0.2","SS1613138422649","","","null","","","","","<p><img src= images/blank.png width =""200"" height = ""200"" style = ""float:right""></p><p><img src=images/blank.png width =""800"" height = ""200""></p>","","","","","","","","","","","",""
"","867.0850000344217","sequential-stimulus-presentation","31","126711","0.0-11.0-1.2","SS1613138422649","trial","","40","800","1667.0850000344217","images/stimuli/spore_stims/complex_01_B_a.gif","images/stimuli/spore_stims/complex_06_B_b.gif","","","","","1","complex_dissimilar","images/stimuli/spore_stims/complex_06_B_b.gif","middle","","","","",""
"","null","html-keyboard-response","32","127759","0.0-11.0-0.3","SS1613138422649","","","null","","","","","<p><img src= images/blank.png width =""200"" height = ""200"" style = ""float:right""></p><p><img src=images/blank.png width =""800"" height = ""200""></p>","","","","","","","","","","","",""
"","3407.274999888614","sequential-stimulus-presentation","33","131977","0.0-11.0-1.3","SS1613138422649","trial","","40","800","4207.274999888614","images/stimuli/spore_stims/complex_01_B_a.gif","images/stimuli/spore_stims/complex_06_B_b.gif","","","","","1","complex_dissimilar","images/stimuli/spore_stims/complex_01_B_a.gif","right","","","","",""
"","null","html-keyboard-response","34","133134","0.0-11.0-0.4","SS1613138422649","","","null","","","","","<p><img src= images/blank.png width =""200"" height = ""200"" style = ""float:right""></p><p><img src=images/blank.png width =""800"" height = ""200""></p>","","","","","","","","","","","",""
"","940.6149999704212","sequential-stimulus-presentation","35","134888","0.0-11.0-1.4","SS1613138422649","trial","","40","800","1740.6149999704212","images/stimuli/spore_stims/complex_01_B_a.gif","images/stimuli/spore_stims/complex_06_B_b.gif","","","","","1","complex_dissimilar","images/stimuli/spore_stims/complex_06_B_b.gif","middle","","","","",""
"","null","html-keyboard-response","36","135894","0.0-11.0-0.5","SS1613138422649","","","null","","","","","<p><img src= images/blank.png width =""200"" height = ""200"" style = ""float:right""></p><p><img src=images/blank.png width =""800"" height = ""200""></p>","","","","","","","","","","","",""
"","357.5399999972433","sequential-stimulus-presentation","37","137063","0.0-11.0-1.5","SS1613138422649","trial","","40","800","1157.5399999972433","images/stimuli/spore_stims/complex_01_B_a.gif","images/stimuli/spore_stims/complex_06_B_b.gif","","","","","1","complex_dissimilar","images/stimuli/spore_stims/complex_06_B_b.gif","middle","","","","",""
"","null","html-keyboard-response","38","138320","0.0-11.0-0.6","SS1613138422649","","","null","","","","","<p><img src= images/blank.png width =""200"" height = ""200"" style = ""float:right""></p><p><img src=images/blank.png width =""800"" height = ""200""></p>","","","","","","","","","","","",""
"","514.3249998800457","sequential-stimulus-presentation","39","139686","0.0-11.0-1.6","SS1613138422649","trial","","40","800","1314.3249998800457","images/stimuli/spore_stims/complex_01_B_a.gif","images/stimuli/spore_stims/complex_06_B_b.gif","","","","","1","complex_dissimilar","images/stimuli/spore_stims/complex_06_B_b.gif","middle","","","","",""
"","null","html-keyboard-response","40","140929","0.0-11.0-0.7","SS1613138422649","","","null","","","","","<p><img src= images/blank.png width =""200"" height = ""200"" style = ""float:right""></p><p><img src=images/blank.png width =""800"" height = ""200""></p>","","","","","","","","","","","",""
"","499.430000083521","sequential-stimulus-presentation","41","142240","0.0-11.0-1.7","SS1613138422649","trial","","40","800","1299.430000083521","images/stimuli/spore_stims/complex_01_B_a.gif","images/stimuli/spore_stims/complex_06_B_b.gif","","","","","1","complex_dissimilar","images/stimuli/spore_stims/complex_06_B_b.gif","middle","","","","",""
"","1282.5849999208003","html-keyboard-response","42","143527","0.0-12.0","SS1613138422649","pref_question","","49","","","","","<video width ='960' height = '540' style='padding-top:8%' autoplay muted><source src='images/stimuli/wall_pref.mp4' type='video/mp4'></video>","1","left","25%","1","","","","","","","",""
"","3613.1849999073893","sequential-stimulus-presentation","43","147951","0.0-13.0","SS1613138422649","pref_reveal","","40","800","4413.184999907389","null","null","","","","","1","","","","novel","","","",""
"","null","html-keyboard-response","44","149113","0.0-14.0-0.0","SS1613138422649","","","null","","","","","<p><img src= images/blank.png width =""200"" height = ""200"" style = ""float:right""></p><p><img src=images/blank.png width =""800"" height = ""200""></p>","","","","","","","","","","","",""
"","1125.7600001990795","sequential-stimulus-presentation","45","151069","0.0-14.0-1.0","SS1613138422649","trial","","40","800","1925.7600001990795","images/stimuli/spore_stims/complex_05_B_a.gif","images/stimuli/spore_stims/complex_20_B_b.gif","","","","","2","complex_dissimilar","images/stimuli/spore_stims/complex_20_B_b.gif","right","","","","",""
"","null","html-keyboard-response","46","151954","0.0-14.0-0.1","SS1613138422649","","","null","","","","","<p><img src= images/blank.png width =""200"" height = ""200"" style = ""float:right""></p><p><img src=images/blank.png width =""800"" height = ""200""></p>","","","","","","","","","","","",""
"","883.485000114888","sequential-stimulus-presentation","47","153650","0.0-14.0-1.1","SS1613138422649","trial","","40","800","1683.485000114888","images/stimuli/spore_stims/complex_05_B_a.gif","images/stimuli/spore_stims/complex_20_B_b.gif","","","","","2","complex_dissimilar","images/stimuli/spore_stims/complex_20_B_b.gif","right","","","","",""
"","null","html-keyboard-response","48","154641","0.0-14.0-0.2","SS1613138422649","","","null","","","","","<p><img src= images/blank.png width =""200"" height = ""200"" style = ""float:right""></p><p><img src=images/blank.png width =""800"" height = ""200""></p>","","","","","","","","","","","",""
"","2204.6350000891834","sequential-stimulus-presentation","49","157678","0.0-14.0-1.2","SS1613138422649","trial","","40","800","3004.6350000891834","images/stimuli/spore_stims/complex_05_B_a.gif","images/stimuli/spore_stims/complex_20_B_b.gif","","","","","2","complex_dissimilar","images/stimuli/spore_stims/complex_05_B_a.gif","left","","","","",""
"","null","html-keyboard-response","50","158519","0.0-14.0-0.3","SS1613138422649","","","null","","","","","<p><img src= images/blank.png width =""200"" height = ""200"" style = ""float:right""></p><p><img src=images/blank.png width =""800"" height = ""200""></p>","","","","","","","","","","","",""
"","853.4899998921901","sequential-stimulus-presentation","51","160189","0.0-14.0-1.3","SS1613138422649","trial","","40","800","1653.48999989219","images/stimuli/spore_stims/complex_05_B_a.gif","images/stimuli/spore_stims/complex_20_B_b.gif","","","","","2","complex_dissimilar","images/stimuli/spore_stims/complex_20_B_b.gif","right","","","","",""
"","null","html-keyboard-response","52","161284","0.0-14.0-0.4","SS1613138422649","","","null","","","","","<p><img src= images/blank.png width =""200"" height = ""200"" style = ""float:right""></p><p><img src=images/blank.png width =""800"" height = ""200""></p>","","","","","","","","","","","",""
"","852.8299999888986","sequential-stimulus-presentation","53","162950","0.0-14.0-1.4","SS1613138422649","trial","","40","800","1652.8299999888986","images/stimuli/spore_stims/complex_05_B_a.gif","images/stimuli/spore_stims/complex_20_B_b.gif","","","","","2","complex_dissimilar","images/stimuli/spore_stims/complex_20_B_b.gif","right","","","","",""
"","null","html-keyboard-response","54","163883","0.0-14.0-0.5","SS1613138422649","","","null","","","","","<p><img src= images/blank.png width =""200"" height = ""200"" style = ""float:right""></p><p><img src=images/blank.png width =""800"" height = ""200""></p>","","","","","","","","","","","",""
"","846.1449998430908","sequential-stimulus-presentation","55","165543","0.0-14.0-1.5","SS1613138422649","trial","","40","800","1646.1449998430908","images/stimuli/spore_stims/complex_05_B_a.gif","images/stimuli/spore_stims/complex_20_B_b.gif","","","","","2","complex_dissimilar","images/stimuli/spore_stims/complex_20_B_b.gif","right","","","","",""
"","null","html-keyboard-response","56","166730","0.0-14.0-0.6","SS1613138422649","","","null","","","","","<p><img src= images/blank.png width =""200"" height = ""200"" style = ""float:right""></p><p><img src=images/blank.png width =""800"" height = ""200""></p>","","","","","","","","","","","",""
"","604.8400001600385","sequential-stimulus-presentation","57","168149","0.0-14.0-1.6","SS1613138422649","trial","","40","800","1404.8400001600385","images/stimuli/spore_stims/complex_05_B_a.gif","images/stimuli/spore_stims/complex_20_B_b.gif","","","","","2","complex_dissimilar","images/stimuli/spore_stims/complex_20_B_b.gif","right","","","","",""
"","null","html-keyboard-response","58","169107","0.0-14.0-0.7","SS1613138422649","","","null","","","","","<p><img src= images/blank.png width =""200"" height = ""200"" style = ""float:right""></p><p><img src=images/blank.png width =""800"" height = ""200""></p>","","","","","","","","","","","",""
"","598.390000173822","sequential-stimulus-presentation","59","170511","0.0-14.0-1.7","SS1613138422649","trial","","40","800","1398.390000173822","images/stimuli/spore_stims/complex_05_B_a.gif","images/stimuli/spore_stims/complex_20_B_b.gif","","","","","2","complex_dissimilar","images/stimuli/spore_stims/complex_20_B_b.gif","right","","","","",""
"","1597.7799999527633","html-keyboard-response","60","172118","0.0-15.0","SS1613138422649","pref_question","","50","","","","","<video width ='960' height = '540' style='padding-top:8%' autoplay muted><source src='images/stimuli/wall_pref.mp4' type='video/mp4'></video>","2","middle","45%","2","","","","","","","",""
"","4551.269999938086","sequential-stimulus-presentation","61","177522","0.0-16.0","SS1613138422649","pref_reveal","","40","800","5351.269999938086","null","null","","","","","2","","","","novel","","","",""
"","null","html-keyboard-response","62","178796","0.0-17.0-0.0","SS1613138422649","","","null","","","","","<p><img src= images/blank.png width =""200"" height = ""200"" style = ""float:right""></p><p><img src=images/blank.png width =""800"" height = ""200""></p>","","","","","","","","","","","",""
"","3397.910000057891","sequential-stimulus-presentation","63","183014","0.0-17.0-1.0","SS1613138422649","trial","","40","800","4197.910000057891","images/stimuli/spore_stims/simple_17_A_c.gif","images/stimuli/spore_stims/simple_17_B_c.gif","","","","","3","simple_similar","images/stimuli/spore_stims/simple_17_B_c.gif","left","","","","",""
"","null","html-keyboard-response","64","184076","0.0-17.0-0.1","SS1613138422649","","","null","","","","","<p><img src= images/blank.png width =""200"" height = ""200"" style = ""float:right""></p><p><img src=images/blank.png width =""800"" height = ""200""></p>","","","","","","","","","","","",""
"","2099.235000088811","sequential-stimulus-presentation","65","187014","0.0-17.0-1.1","SS1613138422649","trial","","40","800","2899.235000088811","images/stimuli/spore_stims/simple_17_A_c.gif","images/stimuli/spore_stims/simple_17_B_c.gif","","","","","3","simple_similar","images/stimuli/spore_stims/simple_17_B_c.gif","left","","","","",""
"","null","html-keyboard-response","66","187868","0.0-17.0-0.2","SS1613138422649","","","null","","","","","<p><img src= images/blank.png width =""200"" height = ""200"" style = ""float:right""></p><p><img src=images/blank.png width =""800"" height = ""200""></p>","","","","","","","","","","","",""
"","2051.6599998809397","sequential-stimulus-presentation","67","190735","0.0-17.0-1.2","SS1613138422649","trial","","40","800","2851.6599998809397","images/stimuli/spore_stims/simple_17_A_c.gif","images/stimuli/spore_stims/simple_17_B_c.gif","","","","","3","simple_similar","images/stimuli/spore_stims/simple_17_B_c.gif","left","","","","",""
"","null","html-keyboard-response","68","191731","0.0-17.0-0.3","SS1613138422649","","","null","","","","","<p><img src= images/blank.png width =""200"" height = ""200"" style = ""float:right""></p><p><img src=images/blank.png width =""800"" height = ""200""></p>","","","","","","","","","","","",""
"","346.7200000304729","sequential-stimulus-presentation","69","192892","0.0-17.0-1.3","SS1613138422649","trial","","40","800","1146.7200000304729","images/stimuli/spore_stims/simple_17_A_c.gif","images/stimuli/spore_stims/simple_17_B_c.gif","","","","","3","simple_similar","images/stimuli/spore_stims/simple_17_B_c.gif","left","","","","",""
"","null","html-keyboard-response","70","193733","0.0-17.0-0.4","SS1613138422649","","","null","","","","","<p><img src= images/blank.png width =""200"" height = ""200"" style = ""float:right""></p><p><img src=images/blank.png width =""800"" height = ""200""></p>","","","","","","","","","","","",""
"","691.9299999717623","sequential-stimulus-presentation","71","195237","0.0-17.0-1.4","SS1613138422649","trial","","40","800","1491.9299999717623","images/stimuli/spore_stims/simple_17_A_c.gif","images/stimuli/spore_stims/simple_17_B_c.gif","","","","","3","simple_similar","images/stimuli/spore_stims/simple_17_B_c.gif","left","","","","",""
"","null","html-keyboard-response","72","196448","0.0-17.0-0.5","SS1613138422649","","","null","","","","","<p><img src= images/blank.png width =""200"" height = ""200"" style = ""float:right""></p><p><img src=images/blank.png width =""800"" height = ""200""></p>","","","","","","","","","","","",""
"","3999.559999909252","sequential-stimulus-presentation","73","201260","0.0-17.0-1.5","SS1613138422649","trial","","40","800","4799.559999909252","images/stimuli/spore_stims/simple_17_A_c.gif","images/stimuli/spore_stims/simple_17_B_c.gif","","","","","3","simple_similar","images/stimuli/spore_stims/simple_17_A_c.gif","right","","","","",""
"","null","html-keyboard-response","74","202284","0.0-17.0-0.6","SS1613138422649","","","null","","","","","<p><img src= images/blank.png width =""200"" height = ""200"" style = ""float:right""></p><p><img src=images/blank.png width =""800"" height = ""200""></p>","","","","","","","","","","","",""
"","1679.4349998235703","sequential-stimulus-presentation","75","204770","0.0-17.0-1.6","SS1613138422649","trial","","40","800","2479.4349998235703","images/stimuli/spore_stims/simple_17_A_c.gif","images/stimuli/spore_stims/simple_17_B_c.gif","","","","","3","simple_similar","images/stimuli/spore_stims/simple_17_B_c.gif","left","","","","",""
"","null","html-keyboard-response","76","205991","0.0-17.0-0.7","SS1613138422649","","","null","","","","","<p><img src= images/blank.png width =""200"" height = ""200"" style = ""float:right""></p><p><img src=images/blank.png width =""800"" height = ""200""></p>","","","","","","","","","","","",""
"","1650.565000018105","sequential-stimulus-presentation","77","208458","0.0-17.0-1.7","SS1613138422649","trial","","40","800","2450.565000018105","images/stimuli/spore_stims/simple_17_A_c.gif","images/stimuli/spore_stims/simple_17_B_c.gif","","","","","3","simple_similar","images/stimuli/spore_stims/simple_17_B_c.gif","left","","","","",""
"","1623.3649998903275","html-keyboard-response","78","210089","0.0-18.0","SS1613138422649","pref_question","","51","","","","","<video width ='960' height = '540' style='padding-top:8%' autoplay muted><source src='images/stimuli/wall_pref.mp4' type='video/mp4'></video>","3","right","66%","3","","","","","","","",""
"","3106.310000177473","sequential-stimulus-presentation","79","214003","0.0-19.0","SS1613138422649","pref_reveal","","40","800","3906.310000177473","null","null","","","","","3","","","","deviant","","","",""
"","null","html-keyboard-response","80","215207","0.0-20.0-0.0","SS1613138422649","","","null","","","","","<p><img src= images/blank.png width =""200"" height = ""200"" style = ""float:right""></p><p><img src=images/blank.png width =""800"" height = ""200""></p>","","","","","","","","","","","",""
"","2880.2250002045184","sequential-stimulus-presentation","81","218911","0.0-20.0-1.0","SS1613138422649","trial","","40","800","3680.2250002045184","images/stimuli/spore_stims/complex_15_B_d.gif","images/stimuli/spore_stims/complex_15_A_d.gif","","","","","4","complex_similar","images/stimuli/spore_stims/complex_15_A_d.gif","middle","","","","",""
"","null","html-keyboard-response","82","219836","0.0-20.0-0.1","SS1613138422649","","","null","","","","","<p><img src= images/blank.png width =""200"" height = ""200"" style = ""float:right""></p><p><img src=images/blank.png width =""800"" height = ""200""></p>","","","","","","","","","","","",""
"","400.4450000356883","sequential-stimulus-presentation","83","221061","0.0-20.0-1.1","SS1613138422649","trial","","40","800","1200.4450000356883","images/stimuli/spore_stims/complex_15_B_d.gif","images/stimuli/spore_stims/complex_15_A_d.gif","","","","","4","complex_similar","images/stimuli/spore_stims/complex_15_A_d.gif","middle","","","","",""
"","null","html-keyboard-response","84","221893","0.0-20.0-0.2","SS1613138422649","","","null","","","","","<p><img src= images/blank.png width =""200"" height = ""200"" style = ""float:right""></p><p><img src=images/blank.png width =""800"" height = ""200""></p>","","","","","","","","","","","",""
"","1014.919999986887","sequential-stimulus-presentation","85","223721","0.0-20.0-1.2","SS1613138422649","trial","","40","800","1814.919999986887","images/stimuli/spore_stims/complex_15_B_d.gif","images/stimuli/spore_stims/complex_15_A_d.gif","","","","","4","complex_similar","images/stimuli/spore_stims/complex_15_A_d.gif","middle","","","","",""
"","null","html-keyboard-response","86","225035","0.0-20.0-0.3","SS1613138422649","","","null","","","","","<p><img src= images/blank.png width =""200"" height = ""200"" style = ""float:right""></p><p><img src=images/blank.png width =""800"" height = ""200""></p>","","","","","","","","","","","",""
"","2951.880000066012","sequential-stimulus-presentation","87","228803","0.0-20.0-1.3","SS1613138422649","trial","","40","800","3751.880000066012","images/stimuli/spore_stims/complex_15_B_d.gif","images/stimuli/spore_stims/complex_15_A_d.gif","","","","","4","complex_similar","images/stimuli/spore_stims/complex_15_A_d.gif","middle","","","","",""
"","null","html-keyboard-response","88","230113","0.0-20.0-0.4","SS1613138422649","","","null","","","","","<p><img src= images/blank.png width =""200"" height = ""200"" style = ""float:right""></p><p><img src=images/blank.png width =""800"" height = ""200""></p>","","","","","","","","","","","",""
"","1747.254999820143","sequential-stimulus-presentation","89","232666","0.0-20.0-1.4","SS1613138422649","trial","","40","800","2547.254999820143","images/stimuli/spore_stims/complex_15_B_d.gif","images/stimuli/spore_stims/complex_15_A_d.gif","","","","","4","complex_similar","images/stimuli/spore_stims/complex_15_A_d.gif","middle","","","","",""
"","null","html-keyboard-response","90","233812","0.0-20.0-0.5","SS1613138422649","","","null","","","","","<p><img src= images/blank.png width =""200"" height = ""200"" style = ""float:right""></p><p><img src=images/blank.png width =""800"" height = ""200""></p>","","","","","","","","","","","",""
"","677.7300001122057","sequential-stimulus-presentation","91","235320","0.0-20.0-1.5","SS1613138422649","trial","","40","800","1477.7300001122057","images/stimuli/spore_stims/complex_15_B_d.gif","images/stimuli/spore_stims/complex_15_A_d.gif","","","","","4","complex_similar","images/stimuli/spore_stims/complex_15_A_d.gif","middle","","","","",""
"","null","html-keyboard-response","92","236423","0.0-20.0-0.6","SS1613138422649","","","null","","","","","<p><img src= images/blank.png width =""200"" height = ""200"" style = ""float:right""></p><p><img src=images/blank.png width =""800"" height = ""200""></p>","","","","","","","","","","","",""
"","836.4499998278916","sequential-stimulus-presentation","93","238112","0.0-20.0-1.6","SS1613138422649","trial","","40","800","1636.4499998278916","images/stimuli/spore_stims/complex_15_B_d.gif","images/stimuli/spore_stims/complex_15_A_d.gif","","","","","4","complex_similar","images/stimuli/spore_stims/complex_15_A_d.gif","middle","","","","",""
"","null","html-keyboard-response","94","239033","0.0-20.0-0.7","SS1613138422649","","","null","","","","","<p><img src= images/blank.png width =""200"" height = ""200"" style = ""float:right""></p><p><img src=images/blank.png width =""800"" height = ""200""></p>","","","","","","","","","","","",""
"","1212.52500009723","sequential-stimulus-presentation","95","241066","0.0-20.0-1.7","SS1613138422649","trial","","40","800","2012.52500009723","images/stimuli/spore_stims/complex_15_B_d.gif","images/stimuli/spore_stims/complex_15_A_d.gif","","","","","4","complex_similar","images/stimuli/spore_stims/complex_15_B_d.gif","left","","","","",""
"","1560.035000089556","html-keyboard-response","96","242641","0.0-21.0","SS1613138422649","pref_question","","51","","","","","<video width ='960' height = '540' style='padding-top:8%' autoplay muted><source src='images/stimuli/wall_pref.mp4' type='video/mp4'></video>","3","right","66%","4","","","","","","","",""
"","3554.1150001809","sequential-stimulus-presentation","97","247009","0.0-22.0","SS1613138422649","pref_reveal","","40","800","4354.1150001809","null","null","","","","","4","","","","novel","","","",""
"","null","html-keyboard-response","98","247901","0.0-23.0-0.0","SS1613138422649","","","null","","","","","<p><img src= images/blank.png width =""200"" height = ""200"" style = ""float:right""></p><p><img src=images/blank.png width =""800"" height = ""200""></p>","","","","","","","","","","","",""
"","2637.4199998099357","sequential-stimulus-presentation","99","251355","0.0-23.0-1.0","SS1613138422649","trial","","40","800","3437.4199998099357","images/stimuli/spore_stims/complex_04_B_a.gif","images/stimuli/spore_stims/complex_03_A_c.gif","","","","","5","complex_dissimilar","images/stimuli/spore_stims/complex_03_A_c.gif","right","","","","",""
"","null","html-keyboard-response","100","252295","0.0-23.0-0.1","SS1613138422649","","","null","","","","","<p><img src= images/blank.png width =""200"" height = ""200"" style = ""float:right""></p><p><img src=images/blank.png width =""800"" height = ""200""></p>","","","","","","","","","","","",""
"","1839.0949999447912","sequential-stimulus-presentation","101","254953","0.0-23.0-1.1","SS1613138422649","trial","","40","800","2639.094999944791","images/stimuli/spore_stims/complex_04_B_a.gif","images/stimuli/spore_stims/complex_03_A_c.gif","","","","","5","complex_dissimilar","images/stimuli/spore_stims/complex_03_A_c.gif","right","","","","",""
"","null","html-keyboard-response","102","256138","0.0-23.0-0.2","SS1613138422649","","","null","","","","","<p><img src= images/blank.png width =""200"" height = ""200"" style = ""float:right""></p><p><img src=images/blank.png width =""800"" height = ""200""></p>","","","","","","","","","","","",""
"","2075.315000023693","sequential-stimulus-presentation","103","259033","0.0-23.0-1.2","SS1613138422649","trial","","40","800","2875.315000023693","images/stimuli/spore_stims/complex_04_B_a.gif","images/stimuli/spore_stims/complex_03_A_c.gif","","","","","5","complex_dissimilar","images/stimuli/spore_stims/complex_03_A_c.gif","right","","","","",""
"","null","html-keyboard-response","104","259967","0.0-23.0-0.3","SS1613138422649","","","null","","","","","<p><img src= images/blank.png width =""200"" height = ""200"" style = ""float:right""></p><p><img src=images/blank.png width =""800"" height = ""200""></p>","","","","","","","","","","","",""
"","1187.8100000321865","sequential-stimulus-presentation","105","261980","0.0-23.0-1.3","SS1613138422649","trial","","40","800","1987.8100000321865","images/stimuli/spore_stims/complex_04_B_a.gif","images/stimuli/spore_stims/complex_03_A_c.gif","","","","","5","complex_dissimilar","images/stimuli/spore_stims/complex_03_A_c.gif","right","","","","",""
"","null","html-keyboard-response","106","263201","0.0-23.0-0.4","SS1613138422649","","","null","","","","","<p><img src= images/blank.png width =""200"" height = ""200"" style = ""float:right""></p><p><img src=images/blank.png width =""800"" height = ""200""></p>","","","","","","","","","","","",""
"","1438.9150000642985","sequential-stimulus-presentation","107","265459","0.0-23.0-1.4","SS1613138422649","trial","","40","800","2238.9150000642985","images/stimuli/spore_stims/complex_04_B_a.gif","images/stimuli/spore_stims/complex_03_A_c.gif","","","","","5","complex_dissimilar","images/stimuli/spore_stims/complex_03_A_c.gif","right","","","","",""
"","null","html-keyboard-response","108","266747","0.0-23.0-0.5","SS1613138422649","","","null","","","","","<p><img src= images/blank.png width =""200"" height = ""200"" style = ""float:right""></p><p><img src=images/blank.png width =""800"" height = ""200""></p>","","","","","","","","","","","",""
"","2522.8649999480695","sequential-stimulus-presentation","109","270091","0.0-23.0-1.5","SS1613138422649","trial","","40","800","3322.8649999480695","images/stimuli/spore_stims/complex_04_B_a.gif","images/stimuli/spore_stims/complex_03_A_c.gif","","","","","5","complex_dissimilar","images/stimuli/spore_stims/complex_03_A_c.gif","right","","","","",""
"","null","html-keyboard-response","110","271122","0.0-23.0-0.6","SS1613138422649","","","null","","","","","<p><img src= images/blank.png width =""200"" height = ""200"" style = ""float:right""></p><p><img src=images/blank.png width =""800"" height = ""200""></p>","","","","","","","","","","","",""
"","1550.4799999762326","sequential-stimulus-presentation","111","273492","0.0-23.0-1.6","SS1613138422649","trial","","40","800","2350.4799999762326","images/stimuli/spore_stims/complex_04_B_a.gif","images/stimuli/spore_stims/complex_03_A_c.gif","","","","","5","complex_dissimilar","images/stimuli/spore_stims/complex_03_A_c.gif","right","","","","",""
"","null","html-keyboard-response","112","274605","0.0-23.0-0.7","SS1613138422649","","","null","","","","","<p><img src= images/blank.png width =""200"" height = ""200"" style = ""float:right""></p><p><img src=images/blank.png width =""800"" height = ""200""></p>","","","","","","","","","","","",""
"","2923.1000000145286","sequential-stimulus-presentation","113","278362","0.0-23.0-1.7","SS1613138422649","trial","","40","800","3723.1000000145286","images/stimuli/spore_stims/complex_04_B_a.gif","images/stimuli/spore_stims/complex_03_A_c.gif","","","","","5","complex_dissimilar","images/stimuli/spore_stims/complex_04_B_a.gif","left","","","","",""
"","1417.3200000077486","html-keyboard-response","114","279794","0.0-24.0","SS1613138422649","pref_question","","50","","","","","<video width ='960' height = '540' style='padding-top:8%' autoplay muted><source src='images/stimuli/wall_pref.mp4' type='video/mp4'></video>","2","middle","45%","5","","","","","","","",""
"","1590.3000000398606","sequential-stimulus-presentation","115","282209","0.0-25.0","SS1613138422649","pref_reveal","","40","800","2390.3000000398606","null","null","","","","","5","","","","novel","","","",""
"","null","html-keyboard-response","116","283482","0.0-26.0-0.0","SS1613138422649","","","null","","","","","<p><img src= images/blank.png width =""200"" height = ""200"" style = ""float:right""></p><p><img src=images/blank.png width =""800"" height = ""200""></p>","","","","","","","","","","","",""
"","2006.264999974519","sequential-stimulus-presentation","117","286307","0.0-26.0-1.0","SS1613138422649","trial","","40","800","2806.264999974519","images/stimuli/spore_stims/complex_14_B_a.gif","images/stimuli/spore_stims/complex_14_A_a.gif","","","","","6","complex_similar","images/stimuli/spore_stims/complex_14_A_a.gif","right","","","","",""
"","null","html-keyboard-response","118","287382","0.0-26.0-0.1","SS1613138422649","","","null","","","","","<p><img src= images/blank.png width =""200"" height = ""200"" style = ""float:right""></p><p><img src=images/blank.png width =""800"" height = ""200""></p>","","","","","","","","","","","",""
"","680.4200001060963","sequential-stimulus-presentation","119","288882","0.0-26.0-1.1","SS1613138422649","trial","","40","800","1480.4200001060963","images/stimuli/spore_stims/complex_14_B_a.gif","images/stimuli/spore_stims/complex_14_A_a.gif","","","","","6","complex_similar","images/stimuli/spore_stims/complex_14_A_a.gif","right","","","","",""
"","null","html-keyboard-response","120","289971","0.0-26.0-0.2","SS1613138422649","","","null","","","","","<p><img src= images/blank.png width =""200"" height = ""200"" style = ""float:right""></p><p><img src=images/blank.png width =""800"" height = ""200""></p>","","","","","","","","","","","",""
"","569.8450000490993","sequential-stimulus-presentation","121","291370","0.0-26.0-1.2","SS1613138422649","trial","","40","800","1369.8450000490993","images/stimuli/spore_stims/complex_14_B_a.gif","images/stimuli/spore_stims/complex_14_A_a.gif","","","","","6","complex_similar","images/stimuli/spore_stims/complex_14_A_a.gif","right","","","","",""
"","null","html-keyboard-response","122","292375","0.0-26.0-0.3","SS1613138422649","","","null","","","","","<p><img src= images/blank.png width =""200"" height = ""200"" style = ""float:right""></p><p><img src=images/blank.png width =""800"" height = ""200""></p>","","","","","","","","","","","",""
"","729.4199999887496","sequential-stimulus-presentation","123","293914","0.0-26.0-1.3","SS1613138422649","trial","","40","800","1529.4199999887496","images/stimuli/spore_stims/complex_14_B_a.gif","images/stimuli/spore_stims/complex_14_A_a.gif","","","","","6","complex_similar","images/stimuli/spore_stims/complex_14_A_a.gif","right","","","","",""
"","null","html-keyboard-response","124","294911","0.0-26.0-0.4","SS1613138422649","","","null","","","","","<p><img src= images/blank.png width =""200"" height = ""200"" style = ""float:right""></p><p><img src=images/blank.png width =""800"" height = ""200""></p>","","","","","","","","","","","",""
"","673.3850000891834","sequential-stimulus-presentation","125","296401","0.0-26.0-1.4","SS1613138422649","trial","","40","800","1473.3850000891834","images/stimuli/spore_stims/complex_14_B_a.gif","images/stimuli/spore_stims/complex_14_A_a.gif","","","","","6","complex_similar","images/stimuli/spore_stims/complex_14_A_a.gif","right","","","","",""
"","null","html-keyboard-response","126","297397","0.0-26.0-0.5","SS1613138422649","","","null","","","","","<p><img src= images/blank.png width =""200"" height = ""200"" style = ""float:right""></p><p><img src=images/blank.png width =""800"" height = ""200""></p>","","","","","","","","","","","",""
"","943.1350000668317","sequential-stimulus-presentation","127","299162","0.0-26.0-1.5","SS1613138422649","trial","","40","800","1743.1350000668317","images/stimuli/spore_stims/complex_14_B_a.gif","images/stimuli/spore_stims/complex_14_A_a.gif","","","","","6","complex_similar","images/stimuli/spore_stims/complex_14_B_a.gif","left","","","","",""
"","null","html-keyboard-response","128","300428","0.0-26.0-0.6","SS1613138422649","","","null","","","","","<p><img src= images/blank.png width =""200"" height = ""200"" style = ""float:right""></p><p><img src=images/blank.png width =""800"" height = ""200""></p>","","","","","","","","","","","",""
"","827.7699998579919","sequential-stimulus-presentation","129","302073","0.0-26.0-1.6","SS1613138422649","trial","","40","800","1627.769999857992","images/stimuli/spore_stims/complex_14_B_a.gif","images/stimuli/spore_stims/complex_14_A_a.gif","","","","","6","complex_similar","images/stimuli/spore_stims/complex_14_A_a.gif","right","","","","",""
"","null","html-keyboard-response","130","303287","0.0-26.0-0.7","SS1613138422649","","","null","","","","","<p><img src= images/blank.png width =""200"" height = ""200"" style = ""float:right""></p><p><img src=images/blank.png width =""800"" height = ""200""></p>","","","","","","","","","","","",""
"","960.020000115037","sequential-stimulus-presentation","131","305074","0.0-26.0-1.7","SS1613138422649","trial","","40","800","1760.020000115037","images/stimuli/spore_stims/complex_14_B_a.gif","images/stimuli/spore_stims/complex_14_A_a.gif","","","","","6","complex_similar","images/stimuli/spore_stims/complex_14_A_a.gif","right","","","","",""
"","1665.379999903962","html-keyboard-response","132","306754","0.0-27.0","SS1613138422649","pref_question","","50","","","","","<video width ='960' height = '540' style='padding-top:8%' autoplay muted><source src='images/stimuli/wall_pref.mp4' type='video/mp4'></video>","2","middle","45%","6","","","","","","","",""
"","2808.0500001087785","sequential-stimulus-presentation","133","310387","0.0-28.0","SS1613138422649","pref_reveal","","40","800","3608.0500001087785","null","null","","","","","6","","","","novel","","","",""
"","null","html-keyboard-response","134","311611","0.0-29.0-0.0","SS1613138422649","","","null","","","","","<p><img src= images/blank.png width =""200"" height = ""200"" style = ""float:right""></p><p><img src=images/blank.png width =""800"" height = ""200""></p>","","","","","","","","","","","",""
"","1272.2100000828505","sequential-stimulus-presentation","135","313753","0.0-29.0-1.0","SS1613138422649","trial","","40","800","2072.2100000828505","images/stimuli/spore_stims/complex_18_A_b.gif","images/stimuli/spore_stims/complex_18_B_b.gif","","","","","7","complex_similar","images/stimuli/spore_stims/complex_18_B_b.gif","right","","","","",""
"","null","html-keyboard-response","136","315019","0.0-29.0-0.1","SS1613138422649","","","null","","","","","<p><img src= images/blank.png width =""200"" height = ""200"" style = ""float:right""></p><p><img src=images/blank.png width =""800"" height = ""200""></p>","","","","","","","","","","","",""
"","833.1649999599904","sequential-stimulus-presentation","137","316672","0.0-29.0-1.1","SS1613138422649","trial","","40","800","1633.1649999599904","images/stimuli/spore_stims/complex_18_A_b.gif","images/stimuli/spore_stims/complex_18_B_b.gif","","","","","7","complex_similar","images/stimuli/spore_stims/complex_18_B_b.gif","right","","","","",""
"","null","html-keyboard-response","138","317846","0.0-29.0-0.2","SS1613138422649","","","null","","","","","<p><img src= images/blank.png width =""200"" height = ""200"" style = ""float:right""></p><p><img src=images/blank.png width =""800"" height = ""200""></p>","","","","","","","","","","","",""
"","1165.7700000796467","sequential-stimulus-presentation","139","319832","0.0-29.0-1.2","SS1613138422649","trial","","40","800","1965.7700000796467","images/stimuli/spore_stims/complex_18_A_b.gif","images/stimuli/spore_stims/complex_18_B_b.gif","","","","","7","complex_similar","images/stimuli/spore_stims/complex_18_B_b.gif","right","","","","",""
"","null","html-keyboard-response","140","320780","0.0-29.0-0.3","SS1613138422649","","","null","","","","","<p><img src= images/blank.png width =""200"" height = ""200"" style = ""float:right""></p><p><img src=images/blank.png width =""800"" height = ""200""></p>","","","","","","","","","","","",""
"","1141.4449999574572","sequential-stimulus-presentation","141","322743","0.0-29.0-1.3","SS1613138422649","trial","","40","800","1941.4449999574572","images/stimuli/spore_stims/complex_18_A_b.gif","images/stimuli/spore_stims/complex_18_B_b.gif","","","","","7","complex_similar","images/stimuli/spore_stims/complex_18_B_b.gif","right","","","","",""
"","null","html-keyboard-response","142","323895","0.0-29.0-0.4","SS1613138422649","","","null","","","","","<p><img src= images/blank.png width =""200"" height = ""200"" style = ""float:right""></p><p><img src=images/blank.png width =""800"" height = ""200""></p>","","","","","","","","","","","",""
"","1828.5000000614673","sequential-stimulus-presentation","143","326542","0.0-29.0-1.4","SS1613138422649","trial","","40","800","2628.5000000614673","images/stimuli/spore_stims/complex_18_A_b.gif","images/stimuli/spore_stims/complex_18_B_b.gif","","","","","7","complex_similar","images/stimuli/spore_stims/complex_18_B_b.gif","right","","","","",""
"","null","html-keyboard-response","144","327561","0.0-29.0-0.5","SS1613138422649","","","null","","","","","<p><img src= images/blank.png width =""200"" height = ""200"" style = ""float:right""></p><p><img src=images/blank.png width =""800"" height = ""200""></p>","","","","","","","","","","","",""
"","882.6900001149625","sequential-stimulus-presentation","145","329262","0.0-29.0-1.5","SS1613138422649","trial","","40","800","1682.6900001149625","images/stimuli/spore_stims/complex_18_A_b.gif","images/stimuli/spore_stims/complex_18_B_b.gif","","","","","7","complex_similar","images/stimuli/spore_stims/complex_18_B_b.gif","right","","","","",""
"","null","html-keyboard-response","146","330139","0.0-29.0-0.6","SS1613138422649","","","null","","","","","<p><img src= images/blank.png width =""200"" height = ""200"" style = ""float:right""></p><p><img src=images/blank.png width =""800"" height = ""200""></p>","","","","","","","","","","","",""
"","471.2300000246614","sequential-stimulus-presentation","147","331431","0.0-29.0-1.6","SS1613138422649","trial","","40","800","1271.2300000246614","images/stimuli/spore_stims/complex_18_A_b.gif","images/stimuli/spore_stims/complex_18_B_b.gif","","","","","7","complex_similar","images/stimuli/spore_stims/complex_18_B_b.gif","right","","","","",""
"","null","html-keyboard-response","148","332365","0.0-29.0-0.7","SS1613138422649","","","null","","","","","<p><img src= images/blank.png width =""200"" height = ""200"" style = ""float:right""></p><p><img src=images/blank.png width =""800"" height = ""200""></p>","","","","","","","","","","","",""
"","1486.039999872446","sequential-stimulus-presentation","149","334670","0.0-29.0-1.7","SS1613138422649","trial","","40","800","2286.039999872446","images/stimuli/spore_stims/complex_18_A_b.gif","images/stimuli/spore_stims/complex_18_B_b.gif","","","","","7","complex_similar","images/stimuli/spore_stims/complex_18_A_b.gif","middle","","","","",""
"","1927.580000134185","html-keyboard-response","150","336606","0.0-30.0","SS1613138422649","pref_question","","49","","","","","<video width ='960' height = '540' style='padding-top:8%' autoplay muted><source src='images/stimuli/wall_pref.mp4' type='video/mp4'></video>","1","left","25%","7","","","","","","","",""
"","4201.104999985546","sequential-stimulus-presentation","151","341631","0.0-31.0","SS1613138422649","pref_reveal","","40","800","5001.104999985546","null","null","","","","","7","","","","novel","","","",""
"","null","html-keyboard-response","152","342870","0.0-32.0-0.0","SS1613138422649","","","null","","","","","<p><img src= images/blank.png width =""200"" height = ""200"" style = ""float:right""></p><p><img src=images/blank.png width =""800"" height = ""200""></p>","","","","","","","","","","","",""
"","3700.399999972433","sequential-stimulus-presentation","153","347429","0.0-32.0-1.0","SS1613138422649","trial","","40","800","4500.399999972433","images/stimuli/spore_stims/simple_13_A_b.gif","images/stimuli/spore_stims/simple_20_B_d.gif","","","","","8","simple_dissimilar","images/stimuli/spore_stims/simple_20_B_d.gif","right","","","","",""
"","null","html-keyboard-response","154","348432","0.0-32.0-0.1","SS1613138422649","","","null","","","","","<p><img src= images/blank.png width =""200"" height = ""200"" style = ""float:right""></p><p><img src=images/blank.png width =""800"" height = ""200""></p>","","","","","","","","","","","",""
"","968.5049999970943","sequential-stimulus-presentation","155","350221","0.0-32.0-1.1","SS1613138422649","trial","","40","800","1768.5049999970943","images/stimuli/spore_stims/simple_13_A_b.gif","images/stimuli/spore_stims/simple_20_B_d.gif","","","","","8","simple_dissimilar","images/stimuli/spore_stims/simple_20_B_d.gif","right","","","","",""
"","null","html-keyboard-response","156","351275","0.0-32.0-0.2","SS1613138422649","","","null","","","","","<p><img src= images/blank.png width =""200"" height = ""200"" style = ""float:right""></p><p><img src=images/blank.png width =""800"" height = ""200""></p>","","","","","","","","","","","",""
"","510.0899999961257","sequential-stimulus-presentation","157","352606","0.0-32.0-1.2","SS1613138422649","trial","","40","800","1310.0899999961257","images/stimuli/spore_stims/simple_13_A_b.gif","images/stimuli/spore_stims/simple_20_B_d.gif","","","","","8","simple_dissimilar","images/stimuli/spore_stims/simple_20_B_d.gif","right","","","","",""
"","null","html-keyboard-response","158","353525","0.0-32.0-0.3","SS1613138422649","","","null","","","","","<p><img src= images/blank.png width =""200"" height = ""200"" style = ""float:right""></p><p><img src=images/blank.png width =""800"" height = ""200""></p>","","","","","","","","","","","",""
"","3933.644999982789","sequential-stimulus-presentation","159","358285","0.0-32.0-1.3","SS1613138422649","trial","","40","800","4733.644999982789","images/stimuli/spore_stims/simple_13_A_b.gif","images/stimuli/spore_stims/simple_20_B_d.gif","","","","","8","simple_dissimilar","images/stimuli/spore_stims/simple_13_A_b.gif","middle","","","","",""
"","null","html-keyboard-response","160","359475","0.0-32.0-0.4","SS1613138422649","","","null","","","","","<p><img src= images/blank.png width =""200"" height = ""200"" style = ""float:right""></p><p><img src=images/blank.png width =""800"" height = ""200""></p>","","","","","","","","","","","",""
"","764.7100000176579","sequential-stimulus-presentation","161","361069","0.0-32.0-1.4","SS1613138422649","trial","","40","800","1564.7100000176579","images/stimuli/spore_stims/simple_13_A_b.gif","images/stimuli/spore_stims/simple_20_B_d.gif","","","","","8","simple_dissimilar","images/stimuli/spore_stims/simple_20_B_d.gif","right","","","","",""
"","null","html-keyboard-response","162","362367","0.0-32.0-0.5","SS1613138422649","","","null","","","","","<p><img src= images/blank.png width =""200"" height = ""200"" style = ""float:right""></p><p><img src=images/blank.png width =""800"" height = ""200""></p>","","","","","","","","","","","",""
"","939.5900000818074","sequential-stimulus-presentation","163","364126","0.0-32.0-1.5","SS1613138422649","trial","","40","800","1739.5900000818074","images/stimuli/spore_stims/simple_13_A_b.gif","images/stimuli/spore_stims/simple_20_B_d.gif","","","","","8","simple_dissimilar","images/stimuli/spore_stims/simple_20_B_d.gif","right","","","","",""
"","null","html-keyboard-response","164","365179","0.0-32.0-0.6","SS1613138422649","","","null","","","","","<p><img src= images/blank.png width =""200"" height = ""200"" style = ""float:right""></p><p><img src=images/blank.png width =""800"" height = ""200""></p>","","","","","","","","","","","",""
"","1409.429999999702","sequential-stimulus-presentation","165","367413","0.0-32.0-1.6","SS1613138422649","trial","","40","800","2209.429999999702","images/stimuli/spore_stims/simple_13_A_b.gif","images/stimuli/spore_stims/simple_20_B_d.gif","","","","","8","simple_dissimilar","images/stimuli/spore_stims/simple_20_B_d.gif","right","","","","",""
"","null","html-keyboard-response","166","368491","0.0-32.0-0.7","SS1613138422649","","","null","","","","","<p><img src= images/blank.png width =""200"" height = ""200"" style = ""float:right""></p><p><img src=images/blank.png width =""800"" height = ""200""></p>","","","","","","","","","","","",""
"","1044.80000003241","sequential-stimulus-presentation","167","370357","0.0-32.0-1.7","SS1613138422649","trial","","40","800","1844.80000003241","images/stimuli/spore_stims/simple_13_A_b.gif","images/stimuli/spore_stims/simple_20_B_d.gif","","","","","8","simple_dissimilar","images/stimuli/spore_stims/simple_20_B_d.gif","right","","","","",""
"","3335.694999899715","html-keyboard-response","168","373716","0.0-33.0","SS1613138422649","pref_question","","49","","","","","<video width ='960' height = '540' style='padding-top:8%' autoplay muted><source src='images/stimuli/wall_pref.mp4' type='video/mp4'></video>","1","left","25%","8","","","","","","","",""
"","1198.1549998745322","sequential-stimulus-presentation","169","375734","0.0-34.0","SS1613138422649","pref_reveal","","40","800","1998.1549998745322","null","null","","","","","8","","","","novel","","","",""
"","null","html-keyboard-response","170","376644","0.0-35.0-0.0","SS1613138422649","","","null","","","","","<p><img src= images/blank.png width =""200"" height = ""200"" style = ""float:right""></p><p><img src=images/blank.png width =""800"" height = ""200""></p>","","","","","","","","","","","",""
"","3380.769999930635","sequential-stimulus-presentation","171","380881","0.0-35.0-1.0","SS1613138422649","trial","","40","800","4180.769999930635","images/stimuli/spore_stims/simple_13_B_c.gif","images/stimuli/spore_stims/simple_14_A_a.gif","","","","","9","simple_dissimilar","images/stimuli/spore_stims/simple_14_A_a.gif","left","","","","",""
"","null","html-keyboard-response","172","381851","0.0-35.0-0.1","SS1613138422649","","","null","","","","","<p><img src= images/blank.png width =""200"" height = ""200"" style = ""float:right""></p><p><img src=images/blank.png width =""800"" height = ""200""></p>","","","","","","","","","","","",""
"","1723.5250000376254","sequential-stimulus-presentation","173","384399","0.0-35.0-1.1","SS1613138422649","trial","","40","800","2523.5250000376254","images/stimuli/spore_stims/simple_13_B_c.gif","images/stimuli/spore_stims/simple_14_A_a.gif","","","","","9","simple_dissimilar","images/stimuli/spore_stims/simple_14_A_a.gif","left","","","","",""
"","null","html-keyboard-response","174","385505","0.0-35.0-0.2","SS1613138422649","","","null","","","","","<p><img src= images/blank.png width =""200"" height = ""200"" style = ""float:right""></p><p><img src=images/blank.png width =""800"" height = ""200""></p>","","","","","","","","","","","",""
"","1663.979999953881","sequential-stimulus-presentation","175","387992","0.0-35.0-1.2","SS1613138422649","trial","","40","800","2463.979999953881","images/stimuli/spore_stims/simple_13_B_c.gif","images/stimuli/spore_stims/simple_14_A_a.gif","","","","","9","simple_dissimilar","images/stimuli/spore_stims/simple_14_A_a.gif","left","","","","",""
"","null","html-keyboard-response","176","389302","0.0-35.0-0.3","SS1613138422649","","","null","","","","","<p><img src= images/blank.png width =""200"" height = ""200"" style = ""float:right""></p><p><img src=images/blank.png width =""800"" height = ""200""></p>","","","","","","","","","","","",""
"","930.8550001587719","sequential-stimulus-presentation","177","391103","0.0-35.0-1.3","SS1613138422649","trial","","40","800","1730.8550001587719","images/stimuli/spore_stims/simple_13_B_c.gif","images/stimuli/spore_stims/simple_14_A_a.gif","","","","","9","simple_dissimilar","images/stimuli/spore_stims/simple_14_A_a.gif","left","","","","",""
"","null","html-keyboard-response","178","392098","0.0-35.0-0.4","SS1613138422649","","","null","","","","","<p><img src= images/blank.png width =""200"" height = ""200"" style = ""float:right""></p><p><img src=images/blank.png width =""800"" height = ""200""></p>","","","","","","","","","","","",""
"","742.629999993369","sequential-stimulus-presentation","179","393655","0.0-35.0-1.4","SS1613138422649","trial","","40","800","1542.629999993369","images/stimuli/spore_stims/simple_13_B_c.gif","images/stimuli/spore_stims/simple_14_A_a.gif","","","","","9","simple_dissimilar","images/stimuli/spore_stims/simple_13_B_c.gif","middle","","","","",""
"","null","html-keyboard-response","180","394583","0.0-35.0-0.5","SS1613138422649","","","null","","","","","<p><img src= images/blank.png width =""200"" height = ""200"" style = ""float:right""></p><p><img src=images/blank.png width =""800"" height = ""200""></p>","","","","","","","","","","","",""
"","650.5350000225008","sequential-stimulus-presentation","181","396055","0.0-35.0-1.5","SS1613138422649","trial","","40","800","1450.5350000225008","images/stimuli/spore_stims/simple_13_B_c.gif","images/stimuli/spore_stims/simple_14_A_a.gif","","","","","9","simple_dissimilar","images/stimuli/spore_stims/simple_14_A_a.gif","left","","","","",""
"","null","html-keyboard-response","182","396907","0.0-35.0-0.6","SS1613138422649","","","null","","","","","<p><img src= images/blank.png width =""200"" height = ""200"" style = ""float:right""></p><p><img src=images/blank.png width =""800"" height = ""200""></p>","","","","","","","","","","","",""
"","814.2999999690801","sequential-stimulus-presentation","183","398559","0.0-35.0-1.6","SS1613138422649","trial","","40","800","1614.29999996908","images/stimuli/spore_stims/simple_13_B_c.gif","images/stimuli/spore_stims/simple_14_A_a.gif","","","","","9","simple_dissimilar","images/stimuli/spore_stims/simple_14_A_a.gif","left","","","","",""
"","null","html-keyboard-response","184","399846","0.0-35.0-0.7","SS1613138422649","","","null","","","","","<p><img src= images/blank.png width =""200"" height = ""200"" style = ""float:right""></p><p><img src=images/blank.png width =""800"" height = ""200""></p>","","","","","","","","","","","",""
"","512.5649999827147","sequential-stimulus-presentation","185","401182","0.0-35.0-1.7","SS1613138422649","trial","","40","800","1312.5649999827147","images/stimuli/spore_stims/simple_13_B_c.gif","images/stimuli/spore_stims/simple_14_A_a.gif","","","","","9","simple_dissimilar","images/stimuli/spore_stims/simple_14_A_a.gif","left","","","","",""
"","1723.8549999892712","html-keyboard-response","186","402926","0.0-36.0","SS1613138422649","pref_question","","51","","","","","<video width ='960' height = '540' style='padding-top:8%' autoplay muted><source src='images/stimuli/wall_pref.mp4' type='video/mp4'></video>","3","right","66%","9","","","","","","","",""
"","2044.2350001540035","sequential-stimulus-presentation","187","405791","0.0-37.0","SS1613138422649","pref_reveal","","40","800","2844.2350001540035","null","null","","","","","9","","","","novel","","","",""
"","null","html-keyboard-response","188","406780","0.0-38.0-0.0","SS1613138422649","","","null","","","","","<p><img src= images/blank.png width =""200"" height = ""200"" style = ""float:right""></p><p><img src=images/blank.png width =""800"" height = ""200""></p>","","","","","","","","","","","",""
"","3291.2150002084672","sequential-stimulus-presentation","189","410895","0.0-38.0-1.0","SS1613138422649","trial","","40","800","4091.2150002084672","images/stimuli/spore_stims/simple_11_A_c.gif","images/stimuli/spore_stims/simple_05_B_a.gif","","","","","10","simple_dissimilar","images/stimuli/spore_stims/simple_05_B_a.gif","left","","","","",""
"","null","html-keyboard-response","190","411831","0.0-38.0-0.1","SS1613138422649","","","null","","","","","<p><img src= images/blank.png width =""200"" height = ""200"" style = ""float:right""></p><p><img src=images/blank.png width =""800"" height = ""200""></p>","","","","","","","","","","","",""
"","666.17999994196","sequential-stimulus-presentation","191","413326","0.0-38.0-1.1","SS1613138422649","trial","","40","800","1466.17999994196","images/stimuli/spore_stims/simple_11_A_c.gif","images/stimuli/spore_stims/simple_05_B_a.gif","","","","","10","simple_dissimilar","images/stimuli/spore_stims/simple_05_B_a.gif","left","","","","",""
"","null","html-keyboard-response","192","414376","0.0-38.0-0.2","SS1613138422649","","","null","","","","","<p><img src= images/blank.png width =""200"" height = ""200"" style = ""float:right""></p><p><img src=images/blank.png width =""800"" height = ""200""></p>","","","","","","","","","","","",""
"","752.0999999251217","sequential-stimulus-presentation","193","415950","0.0-38.0-1.2","SS1613138422649","trial","","40","800","1552.0999999251217","images/stimuli/spore_stims/simple_11_A_c.gif","images/stimuli/spore_stims/simple_05_B_a.gif","","","","","10","simple_dissimilar","images/stimuli/spore_stims/simple_05_B_a.gif","left","","","","",""
"","null","html-keyboard-response","194","417093","0.0-38.0-0.3","SS1613138422649","","","null","","","","","<p><img src= images/blank.png width =""200"" height = ""200"" style = ""float:right""></p><p><img src=images/blank.png width =""800"" height = ""200""></p>","","","","","","","","","","","",""
"","702.5549998506904","sequential-stimulus-presentation","195","418606","0.0-38.0-1.3","SS1613138422649","trial","","40","800","1502.5549998506904","images/stimuli/spore_stims/simple_11_A_c.gif","images/stimuli/spore_stims/simple_05_B_a.gif","","","","","10","simple_dissimilar","images/stimuli/spore_stims/simple_05_B_a.gif","left","","","","",""
"","null","html-keyboard-response","196","419479","0.0-38.0-0.4","SS1613138422649","","","null","","","","","<p><img src= images/blank.png width =""200"" height = ""200"" style = ""float:right""></p><p><img src=images/blank.png width =""800"" height = ""200""></p>","","","","","","","","","","","",""
"","1223.9299998618662","sequential-stimulus-presentation","197","421526","0.0-38.0-1.4","SS1613138422649","trial","","40","800","2023.9299998618662","images/stimuli/spore_stims/simple_11_A_c.gif","images/stimuli/spore_stims/simple_05_B_a.gif","","","","","10","simple_dissimilar","images/stimuli/spore_stims/simple_11_A_c.gif","middle","","","","",""
"","null","html-keyboard-response","198","422412","0.0-38.0-0.5","SS1613138422649","","","null","","","","","<p><img src= images/blank.png width =""200"" height = ""200"" style = ""float:right""></p><p><img src=images/blank.png width =""800"" height = ""200""></p>","","","","","","","","","","","",""
"","884.84499999322","sequential-stimulus-presentation","199","424149","0.0-38.0-1.5","SS1613138422649","trial","","40","800","1684.84499999322","images/stimuli/spore_stims/simple_11_A_c.gif","images/stimuli/spore_stims/simple_05_B_a.gif","","","","","10","simple_dissimilar","images/stimuli/spore_stims/simple_05_B_a.gif","left","","","","",""
"","null","html-keyboard-response","200","425092","0.0-38.0-0.6","SS1613138422649","","","null","","","","","<p><img src= images/blank.png width =""200"" height = ""200"" style = ""float:right""></p><p><img src=images/blank.png width =""800"" height = ""200""></p>","","","","","","","","","","","",""
"","594.5600001141429","sequential-stimulus-presentation","201","426526","0.0-38.0-1.6","SS1613138422649","trial","","40","800","1394.560000114143","images/stimuli/spore_stims/simple_11_A_c.gif","images/stimuli/spore_stims/simple_05_B_a.gif","","","","","10","simple_dissimilar","images/stimuli/spore_stims/simple_05_B_a.gif","left","","","","",""
"","null","html-keyboard-response","202","427372","0.0-38.0-0.7","SS1613138422649","","","null","","","","","<p><img src= images/blank.png width =""200"" height = ""200"" style = ""float:right""></p><p><img src=images/blank.png width =""800"" height = ""200""></p>","","","","","","","","","","","",""
"","610.3199999779463","sequential-stimulus-presentation","203","428822","0.0-38.0-1.7","SS1613138422649","trial","","40","800","1410.3199999779463","images/stimuli/spore_stims/simple_11_A_c.gif","images/stimuli/spore_stims/simple_05_B_a.gif","","","","","10","simple_dissimilar","images/stimuli/spore_stims/simple_05_B_a.gif","left","","","","",""
"","1738.9099998399615","html-keyboard-response","204","430581","0.0-39.0","SS1613138422649","pref_question","","50","","","","","<video width ='960' height = '540' style='padding-top:8%' autoplay muted><source src='images/stimuli/wall_pref.mp4' type='video/mp4'></video>","2","middle","45%","10","","","","","","","",""
"","3802.7550000697374","sequential-stimulus-presentation","205","435213","0.0-40.0","SS1613138422649","pref_reveal","","40","800","4602.755000069737","null","null","","","","","10","","","","deviant","","","",""
"","null","html-keyboard-response","206","436058","0.0-41.0-0.0","SS1613138422649","","","null","","","","","<p><img src= images/blank.png width =""200"" height = ""200"" style = ""float:right""></p><p><img src=images/blank.png width =""800"" height = ""200""></p>","","","","","","","","","","","",""
"","3154.5949999708682","sequential-stimulus-presentation","207","440035","0.0-41.0-1.0","SS1613138422649","trial","","40","800","3954.5949999708682","images/stimuli/spore_stims/simple_03_B_a.gif","images/stimuli/spore_stims/simple_03_A_a.gif","","","","","11","simple_similar","images/stimuli/spore_stims/simple_03_A_a.gif","middle","","","","",""
"","null","html-keyboard-response","208","441150","0.0-41.0-0.1","SS1613138422649","","","null","","","","","<p><img src= images/blank.png width =""200"" height = ""200"" style = ""float:right""></p><p><img src=images/blank.png width =""800"" height = ""200""></p>","","","","","","","","","","","",""
"","959.3350000213832","sequential-stimulus-presentation","209","442927","0.0-41.0-1.1","SS1613138422649","trial","","40","800","1759.3350000213832","images/stimuli/spore_stims/simple_03_B_a.gif","images/stimuli/spore_stims/simple_03_A_a.gif","","","","","11","simple_similar","images/stimuli/spore_stims/simple_03_A_a.gif","middle","","","","",""
"","null","html-keyboard-response","210","444010","0.0-41.0-0.2","SS1613138422649","","","null","","","","","<p><img src= images/blank.png width =""200"" height = ""200"" style = ""float:right""></p><p><img src=images/blank.png width =""800"" height = ""200""></p>","","","","","","","","","","","",""
"","615.1449999306351","sequential-stimulus-presentation","211","445476","0.0-41.0-1.2","SS1613138422649","trial","","40","800","1415.144999930635","images/stimuli/spore_stims/simple_03_B_a.gif","images/stimuli/spore_stims/simple_03_A_a.gif","","","","","11","simple_similar","images/stimuli/spore_stims/simple_03_A_a.gif","middle","","","","",""
"","null","html-keyboard-response","212","446480","0.0-41.0-0.3","SS1613138422649","","","null","","","","","<p><img src= images/blank.png width =""200"" height = ""200"" style = ""float:right""></p><p><img src=images/blank.png width =""800"" height = ""200""></p>","","","","","","","","","","","",""
"","3134.4099999405444","sequential-stimulus-presentation","213","450451","0.0-41.0-1.3","SS1613138422649","trial","","40","800","3934.4099999405444","images/stimuli/spore_stims/simple_03_B_a.gif","images/stimuli/spore_stims/simple_03_A_a.gif","","","","","11","simple_similar","images/stimuli/spore_stims/simple_03_A_a.gif","middle","","","","",""
"","null","html-keyboard-response","214","451758","0.0-41.0-0.4","SS1613138422649","","","null","","","","","<p><img src= images/blank.png width =""200"" height = ""200"" style = ""float:right""></p><p><img src=images/blank.png width =""800"" height = ""200""></p>","","","","","","","","","","","",""
"","1002.2199999075383","sequential-stimulus-presentation","215","453581","0.0-41.0-1.4","SS1613138422649","trial","","40","800","1802.2199999075383","images/stimuli/spore_stims/simple_03_B_a.gif","images/stimuli/spore_stims/simple_03_A_a.gif","","","","","11","simple_similar","images/stimuli/spore_stims/simple_03_B_a.gif","right","","","","",""
"","null","html-keyboard-response","216","454569","0.0-41.0-0.5","SS1613138422649","","","null","","","","","<p><img src= images/blank.png width =""200"" height = ""200"" style = ""float:right""></p><p><img src=images/blank.png width =""800"" height = ""200""></p>","","","","","","","","","","","",""
"","2581.145000178367","sequential-stimulus-presentation","217","457972","0.0-41.0-1.5","SS1613138422649","trial","","40","800","3381.145000178367","images/stimuli/spore_stims/simple_03_B_a.gif","images/stimuli/spore_stims/simple_03_A_a.gif","","","","","11","simple_similar","images/stimuli/spore_stims/simple_03_A_a.gif","middle","","","","",""
"","null","html-keyboard-response","218","459101","0.0-41.0-0.6","SS1613138422649","","","null","","","","","<p><img src= images/blank.png width =""200"" height = ""200"" style = ""float:right""></p><p><img src=images/blank.png width =""800"" height = ""200""></p>","","","","","","","","","","","",""
"","738.8249998912215","sequential-stimulus-presentation","219","460664","0.0-41.0-1.6","SS1613138422649","trial","","40","800","1538.8249998912215","images/stimuli/spore_stims/simple_03_B_a.gif","images/stimuli/spore_stims/simple_03_A_a.gif","","","","","11","simple_similar","images/stimuli/spore_stims/simple_03_A_a.gif","middle","","","","",""
"","null","html-keyboard-response","220","461929","0.0-41.0-0.7","SS1613138422649","","","null","","","","","<p><img src= images/blank.png width =""200"" height = ""200"" style = ""float:right""></p><p><img src=images/blank.png width =""800"" height = ""200""></p>","","","","","","","","","","","",""
"","1087.739999871701","sequential-stimulus-presentation","221","463843","0.0-41.0-1.7","SS1613138422649","trial","","40","800","1887.739999871701","images/stimuli/spore_stims/simple_03_B_a.gif","images/stimuli/spore_stims/simple_03_A_a.gif","","","","","11","simple_similar","images/stimuli/spore_stims/simple_03_A_a.gif","middle","","","","",""
"","1624.7949998360127","html-keyboard-response","222","465476","0.0-42.0","SS1613138422649","pref_question","","50","","","","","<video width ='960' height = '540' style='padding-top:8%' autoplay muted><source src='images/stimuli/wall_pref.mp4' type='video/mp4'></video>","2","middle","45%","11","","","","","","","",""
"","4403.135000029579","sequential-stimulus-presentation","223","470709","0.0-43.0","SS1613138422649","pref_reveal","","40","800","5203.135000029579","null","null","","","","","11","","","","background","","","",""
"","null","html-keyboard-response","224","471691","0.0-44.0-0.0","SS1613138422649","","","null","","","","","<p><img src= images/blank.png width =""200"" height = ""200"" style = ""float:right""></p><p><img src=images/blank.png width =""800"" height = ""200""></p>","","","","","","","","","","","",""
"","3953.179999953136","sequential-stimulus-presentation","225","476467","0.0-44.0-1.0","SS1613138422649","trial","","40","800","4753.179999953136","images/stimuli/spore_stims/complex_08_B_a.gif","images/stimuli/spore_stims/complex_07_A_b.gif","","","","","12","complex_dissimilar","images/stimuli/spore_stims/complex_07_A_b.gif","right","","","","",""
"","null","html-keyboard-response","226","477612","0.0-44.0-0.1","SS1613138422649","","","null","","","","","<p><img src= images/blank.png width =""200"" height = ""200"" style = ""float:right""></p><p><img src=images/blank.png width =""800"" height = ""200""></p>","","","","","","","","","","","",""
"","3312.080000061542","sequential-stimulus-presentation","227","481749","0.0-44.0-1.1","SS1613138422649","trial","","40","800","4112.080000061542","images/stimuli/spore_stims/complex_08_B_a.gif","images/stimuli/spore_stims/complex_07_A_b.gif","","","","","12","complex_dissimilar","images/stimuli/spore_stims/complex_07_A_b.gif","right","","","","",""
"","null","html-keyboard-response","228","482643","0.0-44.0-0.2","SS1613138422649","","","null","","","","","<p><img src= images/blank.png width =""200"" height = ""200"" style = ""float:right""></p><p><img src=images/blank.png width =""800"" height = ""200""></p>","","","","","","","","","","","",""
"","284.9000000860542","sequential-stimulus-presentation","229","483762","0.0-44.0-1.2","SS1613138422649","trial","","40","800","1084.9000000860542","images/stimuli/spore_stims/complex_08_B_a.gif","images/stimuli/spore_stims/complex_07_A_b.gif","","","","","12","complex_dissimilar","images/stimuli/spore_stims/complex_07_A_b.gif","right","","","","",""
"","null","html-keyboard-response","230","484610","0.0-44.0-0.3","SS1613138422649","","","null","","","","","<p><img src= images/blank.png width =""200"" height = ""200"" style = ""float:right""></p><p><img src=images/blank.png width =""800"" height = ""200""></p>","","","","","","","","","","","",""
"","792.2799999359995","sequential-stimulus-presentation","231","486235","0.0-44.0-1.3","SS1613138422649","trial","","40","800","1592.2799999359995","images/stimuli/spore_stims/complex_08_B_a.gif","images/stimuli/spore_stims/complex_07_A_b.gif","","","","","12","complex_dissimilar","images/stimuli/spore_stims/complex_08_B_a.gif","middle","","","","",""
"","null","html-keyboard-response","232","487407","0.0-44.0-0.4","SS1613138422649","","","null","","","","","<p><img src= images/blank.png width =""200"" height = ""200"" style = ""float:right""></p><p><img src=images/blank.png width =""800"" height = ""200""></p>","","","","","","","","","","","",""
"","1519.374999916181","sequential-stimulus-presentation","233","489763","0.0-44.0-1.4","SS1613138422649","trial","","40","800","2319.374999916181","images/stimuli/spore_stims/complex_08_B_a.gif","images/stimuli/spore_stims/complex_07_A_b.gif","","","","","12","complex_dissimilar","images/stimuli/spore_stims/complex_07_A_b.gif","right","","","","",""
"","null","html-keyboard-response","234","490985","0.0-44.0-0.5","SS1613138422649","","","null","","","","","<p><img src= images/blank.png width =""200"" height = ""200"" style = ""float:right""></p><p><img src=images/blank.png width =""800"" height = ""200""></p>","","","","","","","","","","","",""
"","1818.9749999437481","sequential-stimulus-presentation","235","493644","0.0-44.0-1.5","SS1613138422649","trial","","40","800","2618.974999943748","images/stimuli/spore_stims/complex_08_B_a.gif","images/stimuli/spore_stims/complex_07_A_b.gif","","","","","12","complex_dissimilar","images/stimuli/spore_stims/complex_07_A_b.gif","right","","","","",""
"","null","html-keyboard-response","236","494826","0.0-44.0-0.6","SS1613138422649","","","null","","","","","<p><img src= images/blank.png width =""200"" height = ""200"" style = ""float:right""></p><p><img src=images/blank.png width =""800"" height = ""200""></p>","","","","","","","","","","","",""
"","747.8899999987334","sequential-stimulus-presentation","237","496394","0.0-44.0-1.6","SS1613138422649","trial","","40","800","1547.8899999987334","images/stimuli/spore_stims/complex_08_B_a.gif","images/stimuli/spore_stims/complex_07_A_b.gif","","","","","12","complex_dissimilar","images/stimuli/spore_stims/complex_07_A_b.gif","right","","","","",""
"","null","html-keyboard-response","238","497420","0.0-44.0-0.7","SS1613138422649","","","null","","","","","<p><img src= images/blank.png width =""200"" height = ""200"" style = ""float:right""></p><p><img src=images/blank.png width =""800"" height = ""200""></p>","","","","","","","","","","","",""
"","1765.3749999590218","sequential-stimulus-presentation","239","500008","0.0-44.0-1.7","SS1613138422649","trial","","40","800","2565.374999959022","images/stimuli/spore_stims/complex_08_B_a.gif","images/stimuli/spore_stims/complex_07_A_b.gif","","","","","12","complex_dissimilar","images/stimuli/spore_stims/complex_07_A_b.gif","right","","","","",""
"","1604.9349999520928","html-keyboard-response","240","501640","0.0-45.0","SS1613138422649","pref_question","","49","","","","","<video width ='960' height = '540' style='padding-top:8%' autoplay muted><source src='images/stimuli/wall_pref.mp4' type='video/mp4'></video>","1","left","25%","12","","","","","","","",""
"","1801.7000001855195","sequential-stimulus-presentation","241","504297","0.0-46.0","SS1613138422649","pref_reveal","","40","800","2601.7000001855195","null","null","","","","","12","","","","novel","","","",""
"","null","html-keyboard-response","242","505300","0.0-47.0-0.0","SS1613138422649","","","null","","","","","<p><img src= images/blank.png width =""200"" height = ""200"" style = ""float:right""></p><p><img src=images/blank.png width =""800"" height = ""200""></p>","","","","","","","","","","","",""
"","1887.8499998245388","sequential-stimulus-presentation","243","508014","0.0-47.0-1.0","SS1613138422649","trial","","40","800","2687.849999824539","images/stimuli/spore_stims/simple_15_B_c.gif","images/stimuli/spore_stims/simple_15_A_c.gif","","","","","13","simple_similar","images/stimuli/spore_stims/simple_15_A_c.gif","left","","","","",""
"","null","html-keyboard-response","244","508832","0.0-47.0-0.1","SS1613138422649","","","null","","","","","<p><img src= images/blank.png width =""200"" height = ""200"" style = ""float:right""></p><p><img src=images/blank.png width =""800"" height = ""200""></p>","","","","","","","","","","","",""
"","715.3950000647455","sequential-stimulus-presentation","245","510375","0.0-47.0-1.1","SS1613138422649","trial","","40","800","1515.3950000647455","images/stimuli/spore_stims/simple_15_B_c.gif","images/stimuli/spore_stims/simple_15_A_c.gif","","","","","13","simple_similar","images/stimuli/spore_stims/simple_15_A_c.gif","left","","","","",""
"","null","html-keyboard-response","246","511462","0.0-47.0-0.2","SS1613138422649","","","null","","","","","<p><img src= images/blank.png width =""200"" height = ""200"" style = ""float:right""></p><p><img src=images/blank.png width =""800"" height = ""200""></p>","","","","","","","","","","","",""
"","1167.6350000780076","sequential-stimulus-presentation","247","513455","0.0-47.0-1.2","SS1613138422649","trial","","40","800","1967.6350000780076","images/stimuli/spore_stims/simple_15_B_c.gif","images/stimuli/spore_stims/simple_15_A_c.gif","","","","","13","simple_similar","images/stimuli/spore_stims/simple_15_A_c.gif","left","","","","",""
"","null","html-keyboard-response","248","514415","0.0-47.0-0.3","SS1613138422649","","","null","","","","","<p><img src= images/blank.png width =""200"" height = ""200"" style = ""float:right""></p><p><img src=images/blank.png width =""800"" height = ""200""></p>","","","","","","","","","","","",""
"","592.7999999839813","sequential-stimulus-presentation","249","515833","0.0-47.0-1.3","SS1613138422649","trial","","40","800","1392.7999999839813","images/stimuli/spore_stims/simple_15_B_c.gif","images/stimuli/spore_stims/simple_15_A_c.gif","","","","","13","simple_similar","images/stimuli/spore_stims/simple_15_A_c.gif","left","","","","",""
"","null","html-keyboard-response","250","517102","0.0-47.0-0.4","SS1613138422649","","","null","","","","","<p><img src= images/blank.png width =""200"" height = ""200"" style = ""float:right""></p><p><img src=images/blank.png width =""800"" height = ""200""></p>","","","","","","","","","","","",""
"","559.0699999593198","sequential-stimulus-presentation","251","518487","0.0-47.0-1.4","SS1613138422649","trial","","40","800","1359.0699999593198","images/stimuli/spore_stims/simple_15_B_c.gif","images/stimuli/spore_stims/simple_15_A_c.gif","","","","","13","simple_similar","images/stimuli/spore_stims/simple_15_A_c.gif","left","","","","",""
"","null","html-keyboard-response","252","519585","0.0-47.0-0.5","SS1613138422649","","","null","","","","","<p><img src= images/blank.png width =""200"" height = ""200"" style = ""float:right""></p><p><img src=images/blank.png width =""800"" height = ""200""></p>","","","","","","","","","","","",""
"","1706.064999802038","sequential-stimulus-presentation","253","522118","0.0-47.0-1.5","SS1613138422649","trial","","40","800","2506.064999802038","images/stimuli/spore_stims/simple_15_B_c.gif","images/stimuli/spore_stims/simple_15_A_c.gif","","","","","13","simple_similar","images/stimuli/spore_stims/simple_15_B_c.gif","middle","","","","",""
"","null","html-keyboard-response","254","523055","0.0-47.0-0.6","SS1613138422649","","","null","","","","","<p><img src= images/blank.png width =""200"" height = ""200"" style = ""float:right""></p><p><img src=images/blank.png width =""800"" height = ""200""></p>","","","","","","","","","","","",""
"","439.49500005692244","sequential-stimulus-presentation","255","524319","0.0-47.0-1.6","SS1613138422649","trial","","40","800","1239.4950000569224","images/stimuli/spore_stims/simple_15_B_c.gif","images/stimuli/spore_stims/simple_15_A_c.gif","","","","","13","simple_similar","images/stimuli/spore_stims/simple_15_A_c.gif","left","","","","",""
"","null","html-keyboard-response","256","525162","0.0-47.0-0.7","SS1613138422649","","","null","","","","","<p><img src= images/blank.png width =""200"" height = ""200"" style = ""float:right""></p><p><img src=images/blank.png width =""800"" height = ""200""></p>","","","","","","","","","","","",""
"","403.62500003539026","sequential-stimulus-presentation","257","526392","0.0-47.0-1.7","SS1613138422649","trial","","40","800","1203.6250000353903","images/stimuli/spore_stims/simple_15_B_c.gif","images/stimuli/spore_stims/simple_15_A_c.gif","","","","","13","simple_similar","images/stimuli/spore_stims/simple_15_A_c.gif","left","","","","",""
"","1553.2899999525398","html-keyboard-response","258","527967","0.0-48.0","SS1613138422649","pref_question","","51","","","","","<video width ='960' height = '540' style='padding-top:8%' autoplay muted><source src='images/stimuli/wall_pref.mp4' type='video/mp4'></video>","3","right","66%","13","","","","","","","",""
"","2037.7650000154972","sequential-stimulus-presentation","259","530831","0.0-49.0","SS1613138422649","pref_reveal","","40","800","2837.765000015497","null","null","","","","","13","","","","novel","","","",""
"","null","html-keyboard-response","260","531896","0.0-50.0-0.0","SS1613138422649","","","null","","","","","<p><img src= images/blank.png width =""200"" height = ""200"" style = ""float:right""></p><p><img src=images/blank.png width =""800"" height = ""200""></p>","","","","","","","","","","","",""
"","1067.6400000229478","sequential-stimulus-presentation","261","533831","0.0-50.0-1.0","SS1613138422649","trial","","40","800","1867.6400000229478","images/stimuli/spore_stims/simple_16_A_c.gif","images/stimuli/spore_stims/simple_16_B_c.gif","","","","","14","simple_similar","images/stimuli/spore_stims/simple_16_B_c.gif","left","","","","",""
"","null","html-keyboard-response","262","534794","0.0-50.0-0.1","SS1613138422649","","","null","","","","","<p><img src= images/blank.png width =""200"" height = ""200"" style = ""float:right""></p><p><img src=images/blank.png width =""800"" height = ""200""></p>","","","","","","","","","","","",""
"","389.29999992251396","sequential-stimulus-presentation","263","536018","0.0-50.0-1.1","SS1613138422649","trial","","40","800","1189.299999922514","images/stimuli/spore_stims/simple_16_A_c.gif","images/stimuli/spore_stims/simple_16_B_c.gif","","","","","14","simple_similar","images/stimuli/spore_stims/simple_16_B_c.gif","left","","","","",""
"","null","html-keyboard-response","264","537199","0.0-50.0-0.2","SS1613138422649","","","null","","","","","<p><img src= images/blank.png width =""200"" height = ""200"" style = ""float:right""></p><p><img src=images/blank.png width =""800"" height = ""200""></p>","","","","","","","","","","","",""
"","466.8250000104308","sequential-stimulus-presentation","265","538496","0.0-50.0-1.2","SS1613138422649","trial","","40","800","1266.8250000104308","images/stimuli/spore_stims/simple_16_A_c.gif","images/stimuli/spore_stims/simple_16_B_c.gif","","","","","14","simple_similar","images/stimuli/spore_stims/simple_16_B_c.gif","left","","","","",""
"","null","html-keyboard-response","266","539549","0.0-50.0-0.3","SS1613138422649","","","null","","","","","<p><img src= images/blank.png width =""200"" height = ""200"" style = ""float:right""></p><p><img src=images/blank.png width =""800"" height = ""200""></p>","","","","","","","","","","","",""
"","1446.3450000621378","sequential-stimulus-presentation","267","541822","0.0-50.0-1.3","SS1613138422649","trial","","40","800","2246.345000062138","images/stimuli/spore_stims/simple_16_A_c.gif","images/stimuli/spore_stims/simple_16_B_c.gif","","","","","14","simple_similar","images/stimuli/spore_stims/simple_16_A_c.gif","right","","","","",""
"","null","html-keyboard-response","268","542737","0.0-50.0-0.4","SS1613138422649","","","null","","","","","<p><img src= images/blank.png width =""200"" height = ""200"" style = ""float:right""></p><p><img src=images/blank.png width =""800"" height = ""200""></p>","","","","","","","","","","","",""
"","775.4649999551475","sequential-stimulus-presentation","269","544342","0.0-50.0-1.4","SS1613138422649","trial","","40","800","1575.4649999551475","images/stimuli/spore_stims/simple_16_A_c.gif","images/stimuli/spore_stims/simple_16_B_c.gif","","","","","14","simple_similar","images/stimuli/spore_stims/simple_16_B_c.gif","left","","","","",""
"","null","html-keyboard-response","270","545361","0.0-50.0-0.5","SS1613138422649","","","null","","","","","<p><img src= images/blank.png width =""200"" height = ""200"" style = ""float:right""></p><p><img src=images/blank.png width =""800"" height = ""200""></p>","","","","","","","","","","","",""
"","490.9149999730289","sequential-stimulus-presentation","271","546679","0.0-50.0-1.5","SS1613138422649","trial","","40","800","1290.914999973029","images/stimuli/spore_stims/simple_16_A_c.gif","images/stimuli/spore_stims/simple_16_B_c.gif","","","","","14","simple_similar","images/stimuli/spore_stims/simple_16_B_c.gif","left","","","","",""
"","null","html-keyboard-response","272","547987","0.0-50.0-0.6","SS1613138422649","","","null","","","","","<p><img src= images/blank.png width =""200"" height = ""200"" style = ""float:right""></p><p><img src=images/blank.png width =""800"" height = ""200""></p>","","","","","","","","","","","",""
"","673.9699998870492","sequential-stimulus-presentation","273","549487","0.0-50.0-1.6","SS1613138422649","trial","","40","800","1473.9699998870492","images/stimuli/spore_stims/simple_16_A_c.gif","images/stimuli/spore_stims/simple_16_B_c.gif","","","","","14","simple_similar","images/stimuli/spore_stims/simple_16_B_c.gif","left","","","","",""
"","null","html-keyboard-response","274","550408","0.0-50.0-0.7","SS1613138422649","","","null","","","","","<p><img src= images/blank.png width =""200"" height = ""200"" style = ""float:right""></p><p><img src=images/blank.png width =""800"" height = ""200""></p>","","","","","","","","","","","",""
"","1048.0850001331419","sequential-stimulus-presentation","275","552286","0.0-50.0-1.7","SS1613138422649","trial","","40","800","1848.0850001331419","images/stimuli/spore_stims/simple_16_A_c.gif","images/stimuli/spore_stims/simple_16_B_c.gif","","","","","14","simple_similar","images/stimuli/spore_stims/simple_16_B_c.gif","left","","","","",""
"","1642.4199999310076","html-keyboard-response","276","553958","0.0-51.0","SS1613138422649","pref_question","","50","","","","","<video width ='960' height = '540' style='padding-top:8%' autoplay muted><source src='images/stimuli/wall_pref.mp4' type='video/mp4'></video>","2","middle","45%","14","","","","","","","",""
"","890.4600001405925","sequential-stimulus-presentation","277","555677","0.0-52.0","SS1613138422649","pref_reveal","","40","800","1690.4600001405925","null","null","","","","","14","","","","novel","","","",""
"","null","html-keyboard-response","278","556984","0.0-53.0-0.0","SS1613138422649","","","null","","","","","<p><img src= images/blank.png width =""200"" height = ""200"" style = ""float:right""></p><p><img src=images/blank.png width =""800"" height = ""200""></p>","","","","","","","","","","","",""
"","865.4000000096858","sequential-stimulus-presentation","279","558678","0.0-53.0-1.0","SS1613138422649","trial","","40","800","1665.4000000096858","images/stimuli/spore_stims/simple_09_A_b.gif","images/stimuli/spore_stims/simple_18_A_a.gif","","","","","15","simple_dissimilar","images/stimuli/spore_stims/simple_18_A_a.gif","right","","","","",""
"","null","html-keyboard-response","280","559580","0.0-53.0-0.1","SS1613138422649","","","null","","","","","<p><img src= images/blank.png width =""200"" height = ""200"" style = ""float:right""></p><p><img src=images/blank.png width =""800"" height = ""200""></p>","","","","","","","","","","","",""
"","1216.1650001071393","sequential-stimulus-presentation","281","561625","0.0-53.0-1.1","SS1613138422649","trial","","40","800","2016.1650001071393","images/stimuli/spore_stims/simple_09_A_b.gif","images/stimuli/spore_stims/simple_18_A_a.gif","","","","","15","simple_dissimilar","images/stimuli/spore_stims/simple_18_A_a.gif","right","","","","",""
"","null","html-keyboard-response","282","562547","0.0-53.0-0.2","SS1613138422649","","","null","","","","","<p><img src= images/blank.png width =""200"" height = ""200"" style = ""float:right""></p><p><img src=images/blank.png width =""800"" height = ""200""></p>","","","","","","","","","","","",""
"","863.4899999015033","sequential-stimulus-presentation","283","564249","0.0-53.0-1.2","SS1613138422649","trial","","40","800","1663.4899999015033","images/stimuli/spore_stims/simple_09_A_b.gif","images/stimuli/spore_stims/simple_18_A_a.gif","","","","","15","simple_dissimilar","images/stimuli/spore_stims/simple_18_A_a.gif","right","","","","",""
"","null","html-keyboard-response","284","565314","0.0-53.0-0.3","SS1613138422649","","","null","","","","","<p><img src= images/blank.png width =""200"" height = ""200"" style = ""float:right""></p><p><img src=images/blank.png width =""800"" height = ""200""></p>","","","","","","","","","","","",""
"","2119.3549998570234","sequential-stimulus-presentation","285","568273","0.0-53.0-1.3","SS1613138422649","trial","","40","800","2919.3549998570234","images/stimuli/spore_stims/simple_09_A_b.gif","images/stimuli/spore_stims/simple_18_A_a.gif","","","","","15","simple_dissimilar","images/stimuli/spore_stims/simple_18_A_a.gif","right","","","","",""
"","null","html-keyboard-response","286","569266","0.0-53.0-0.4","SS1613138422649","","","null","","","","","<p><img src= images/blank.png width =""200"" height = ""200"" style = ""float:right""></p><p><img src=images/blank.png width =""800"" height = ""200""></p>","","","","","","","","","","","",""
"","532.6299997977912","sequential-stimulus-presentation","287","570632","0.0-53.0-1.4","SS1613138422649","trial","","40","800","1332.6299997977912","images/stimuli/spore_stims/simple_09_A_b.gif","images/stimuli/spore_stims/simple_18_A_a.gif","","","","","15","simple_dissimilar","images/stimuli/spore_stims/simple_18_A_a.gif","right","","","","",""
"","null","html-keyboard-response","288","571812","0.0-53.0-0.5","SS1613138422649","","","null","","","","","<p><img src= images/blank.png width =""200"" height = ""200"" style = ""float:right""></p><p><img src=images/blank.png width =""800"" height = ""200""></p>","","","","","","","","","","","",""
"","639.4200001377612","sequential-stimulus-presentation","289","573288","0.0-53.0-1.5","SS1613138422649","trial","","40","800","1439.4200001377612","images/stimuli/spore_stims/simple_09_A_b.gif","images/stimuli/spore_stims/simple_18_A_a.gif","","","","","15","simple_dissimilar","images/stimuli/spore_stims/simple_18_A_a.gif","right","","","","",""
"","null","html-keyboard-response","290","574188","0.0-53.0-0.6","SS1613138422649","","","null","","","","","<p><img src= images/blank.png width =""200"" height = ""200"" style = ""float:right""></p><p><img src=images/blank.png width =""800"" height = ""200""></p>","","","","","","","","","","","",""
"","849.9600000213832","sequential-stimulus-presentation","291","575848","0.0-53.0-1.6","SS1613138422649","trial","","40","800","1649.9600000213832","images/stimuli/spore_stims/simple_09_A_b.gif","images/stimuli/spore_stims/simple_18_A_a.gif","","","","","15","simple_dissimilar","images/stimuli/spore_stims/simple_09_A_b.gif","left","","","","",""
"","null","html-keyboard-response","292","577030","0.0-53.0-0.7","SS1613138422649","","","null","","","","","<p><img src= images/blank.png width =""200"" height = ""200"" style = ""float:right""></p><p><img src=images/blank.png width =""800"" height = ""200""></p>","","","","","","","","","","","",""
"","551.2850000523031","sequential-stimulus-presentation","293","578416","0.0-53.0-1.7","SS1613138422649","trial","","40","800","1351.285000052303","images/stimuli/spore_stims/simple_09_A_b.gif","images/stimuli/spore_stims/simple_18_A_a.gif","","","","","15","simple_dissimilar","images/stimuli/spore_stims/simple_18_A_a.gif","right","","","","",""
"","1553.9949999656528","html-keyboard-response","294","580000","0.0-54.0","SS1613138422649","pref_question","","51","","","","","<video width ='960' height = '540' style='padding-top:8%' autoplay muted><source src='images/stimuli/wall_pref.mp4' type='video/mp4'></video>","3","right","66%","15","","","","","","","",""
"","469.18000001460314","sequential-stimulus-presentation","295","581296","0.0-55.0","SS1613138422649","pref_reveal","","40","800","1269.1800000146031","null","null","","","","","15","","","","background","","","",""
"","null","html-keyboard-response","296","582139","0.0-56.0-0.0","SS1613138422649","","","null","","","","","<p><img src= images/blank.png width =""200"" height = ""200"" style = ""float:right""></p><p><img src=images/blank.png width =""800"" height = ""200""></p>","","","","","","","","","","","",""
"","1471.4299999177456","sequential-stimulus-presentation","297","584441","0.0-56.0-1.0","SS1613138422649","trial","","40","800","2271.4299999177456","images/stimuli/spore_stims/complex_16_A_d.gif","images/stimuli/spore_stims/complex_17_B_b.gif","","","","","16","complex_dissimilar","images/stimuli/spore_stims/complex_17_B_b.gif","left","","","","",""
"","null","html-keyboard-response","298","585528","0.0-56.0-0.1","SS1613138422649","","","null","","","","","<p><img src= images/blank.png width =""200"" height = ""200"" style = ""float:right""></p><p><img src=images/blank.png width =""800"" height = ""200""></p>","","","","","","","","","","","",""
"","292.22499998286366","sequential-stimulus-presentation","299","586649","0.0-56.0-1.1","SS1613138422649","trial","","40","800","1092.2249999828637","images/stimuli/spore_stims/complex_16_A_d.gif","images/stimuli/spore_stims/complex_17_B_b.gif","","","","","16","complex_dissimilar","images/stimuli/spore_stims/complex_17_B_b.gif","left","","","","",""
"","null","html-keyboard-response","300","587915","0.0-56.0-0.2","SS1613138422649","","","null","","","","","<p><img src= images/blank.png width =""200"" height = ""200"" style = ""float:right""></p><p><img src=images/blank.png width =""800"" height = ""200""></p>","","","","","","","","","","","",""
"","1140.7850000541657","sequential-stimulus-presentation","301","589887","0.0-56.0-1.2","SS1613138422649","trial","","40","800","1940.7850000541657","images/stimuli/spore_stims/complex_16_A_d.gif","images/stimuli/spore_stims/complex_17_B_b.gif","","","","","16","complex_dissimilar","images/stimuli/spore_stims/complex_16_A_d.gif","right","","","","",""
"","null","html-keyboard-response","302","591137","0.0-56.0-0.3","SS1613138422649","","","null","","","","","<p><img src= images/blank.png width =""200"" height = ""200"" style = ""float:right""></p><p><img src=images/blank.png width =""800"" height = ""200""></p>","","","","","","","","","","","",""
"","342.6549998112023","sequential-stimulus-presentation","303","592312","0.0-56.0-1.3","SS1613138422649","trial","","40","800","1142.6549998112023","images/stimuli/spore_stims/complex_16_A_d.gif","images/stimuli/spore_stims/complex_17_B_b.gif","","","","","16","complex_dissimilar","images/stimuli/spore_stims/complex_17_B_b.gif","left","","","","",""
"","null","html-keyboard-response","304","593542","0.0-56.0-0.4","SS1613138422649","","","null","","","","","<p><img src= images/blank.png width =""200"" height = ""200"" style = ""float:right""></p><p><img src=images/blank.png width =""800"" height = ""200""></p>","","","","","","","","","","","",""
"","256.5150000154972","sequential-stimulus-presentation","305","594628","0.0-56.0-1.4","SS1613138422649","trial","","40","800","1056.5150000154972","images/stimuli/spore_stims/complex_16_A_d.gif","images/stimuli/spore_stims/complex_17_B_b.gif","","","","","16","complex_dissimilar","images/stimuli/spore_stims/complex_17_B_b.gif","left","","","","",""
"","null","html-keyboard-response","306","595823","0.0-56.0-0.5","SS1613138422649","","","null","","","","","<p><img src= images/blank.png width =""200"" height = ""200"" style = ""float:right""></p><p><img src=images/blank.png width =""800"" height = ""200""></p>","","","","","","","","","","","",""
"","307.6599999330938","sequential-stimulus-presentation","307","596958","0.0-56.0-1.5","SS1613138422649","trial","","40","800","1107.6599999330938","images/stimuli/spore_stims/complex_16_A_d.gif","images/stimuli/spore_stims/complex_17_B_b.gif","","","","","16","complex_dissimilar","images/stimuli/spore_stims/complex_17_B_b.gif","left","","","","",""
"","null","html-keyboard-response","308","598197","0.0-56.0-0.6","SS1613138422649","","","null","","","","","<p><img src= images/blank.png width =""200"" height = ""200"" style = ""float:right""></p><p><img src=images/blank.png width =""800"" height = ""200""></p>","","","","","","","","","","","",""
"","571.1349998600781","sequential-stimulus-presentation","309","599631","0.0-56.0-1.6","SS1613138422649","trial","","40","800","1371.134999860078","images/stimuli/spore_stims/complex_16_A_d.gif","images/stimuli/spore_stims/complex_17_B_b.gif","","","","","16","complex_dissimilar","images/stimuli/spore_stims/complex_17_B_b.gif","left","","","","",""
"","null","html-keyboard-response","310","600821","0.0-56.0-0.7","SS1613138422649","","","null","","","","","<p><img src= images/blank.png width =""200"" height = ""200"" style = ""float:right""></p><p><img src=images/blank.png width =""800"" height = ""200""></p>","","","","","","","","","","","",""
"","659.9400001578033","sequential-stimulus-presentation","311","602367","0.0-56.0-1.7","SS1613138422649","trial","","40","800","1459.9400001578033","images/stimuli/spore_stims/complex_16_A_d.gif","images/stimuli/spore_stims/complex_17_B_b.gif","","","","","16","complex_dissimilar","images/stimuli/spore_stims/complex_17_B_b.gif","left","","","","",""
"","1821.1000000592321","html-keyboard-response","312","604215","0.0-57.0","SS1613138422649","pref_question","","50","","","","","<video width ='960' height = '540' style='padding-top:8%' autoplay muted><source src='images/stimuli/wall_pref.mp4' type='video/mp4'></video>","2","middle","45%","16","","","","","","","",""
