"view_history","rt","trial_type","trial_index","time_elapsed","internal_node_id","subject","stimulus_type","trial_stimulus","key_press","minimum_viewing_duration","trial_looking_time","block_deviant","block_background","stimulus","wall_pref","location","location_percent","block_number","block_type","stimulus_displayed","position_displayed","stim_type_selected","responses","question_order","stimulus_left","stimulus_right"
"[{""page_index"":0,""viewing_time"":121523.46499999975}]","121524.28499999996","instructions","0","121529","0.0-0.0","SS1613102579384","","","","","","","","","","","","","","","","","","","",""
"[{""page_index"":0,""viewing_time"":10034.024999999936},{""page_index"":1,""viewing_time"":14198.925000000163}]","24233.180000000197","instructions","1","147764","0.0-1.0","SS1613102579384","instructions","","","","","","","","","","","","","","","","","","",""
"","3154.975000000384","sequential-stimulus-presentation","2","151725","0.0-2.0","SS1613102579384","","","40","800","3954.975000000384","null","null","","","","","","","","","","","","",""
"","225.3399999999674","sequential-stimulus-presentation","3","152755","0.0-3.0","SS1613102579384","","","40","800","1025.3399999999674","null","null","","","","","","","","","","","","",""
"[{""page_index"":0,""viewing_time"":3460.2049999998417}]","3460.524999999936","instructions","4","156216","0.0-4.0","SS1613102579384","instructions","","","","","","","","","","","","","","","","","","",""
"","10802.57499999972","html-keyboard-response","5","167023","0.0-5.0","SS1613102579384","instructions","","97","","","","","<video width ='960' height = '540' autoplay muted><source src='images/stimuli/wall_pref.mp4' type='video/mp4'></video>","1","left","25%","","","","","","","","",""
"","86.38999999992666","sequential-stimulus-presentation","6","167913","0.0-6.0","SS1613102579384","pref_reveal","","40","800","886.3899999999267","null","null","","","","","","","","","","","","",""
"[{""page_index"":0,""viewing_time"":3321.1750000000466},{""page_index"":1,""viewing_time"":1962.6149999999034},{""page_index"":2,""viewing_time"":1451.3299999998708},{""page_index"":3,""viewing_time"":2144.9250000000757},{""page_index"":2,""viewing_time"":932.4700000001758},{""page_index"":1,""viewing_time"":960.2449999997625},{""page_index"":0,""viewing_time"":1096.0500000001048},{""page_index"":1,""viewing_time"":509.054999999993},{""page_index"":2,""viewing_time"":1284.1199999997916},{""page_index"":3,""viewing_time"":865.3550000003888}]","14527.73999999999","instructions","7","182444","0.0-7.0","SS1613102579384","instructions","","","","","","","","","","","","","","","","","","",""
"","null","html-keyboard-response","8","183332","0.0-8.0-0.0","SS1613102579384","","","null","","","","","<p><img src= images/blank.png width =""200"" height = ""200"" style = ""float:right""></p><p><img src=images/blank.png width =""800"" height = ""200""></p>","","","","","","","","","","","",""
"","602.9100000000617","sequential-stimulus-presentation","9","184740","0.0-8.0-1.0","SS1613102579384","trial","","40","800","1402.9100000000617","images/stimuli/spore_stims/complex_17_B_c.gif","images/stimuli/spore_stims/complex_17_A_c.gif","","","","","0","complex_similar","images/stimuli/spore_stims/complex_17_A_c.gif","right","","","","",""
"","null","html-keyboard-response","10","186030","0.0-8.0-0.1","SS1613102579384","","","null","","","","","<p><img src= images/blank.png width =""200"" height = ""200"" style = ""float:right""></p><p><img src=images/blank.png width =""800"" height = ""200""></p>","","","","","","","","","","","",""
"","3236.0949999997683","sequential-stimulus-presentation","11","190071","0.0-8.0-1.1","SS1613102579384","trial","","40","800","4036.0949999997683","images/stimuli/spore_stims/complex_17_B_c.gif","images/stimuli/spore_stims/complex_17_A_c.gif","","","","","0","complex_similar","images/stimuli/spore_stims/complex_17_A_c.gif","right","","","","",""
"","null","html-keyboard-response","12","191231","0.0-8.0-0.2","SS1613102579384","","","null","","","","","<p><img src= images/blank.png width =""200"" height = ""200"" style = ""float:right""></p><p><img src=images/blank.png width =""800"" height = ""200""></p>","","","","","","","","","","","",""
"","405.61999999999534","sequential-stimulus-presentation","13","192442","0.0-8.0-1.2","SS1613102579384","trial","","40","800","1205.6199999999953","images/stimuli/spore_stims/complex_17_B_c.gif","images/stimuli/spore_stims/complex_17_A_c.gif","","","","","0","complex_similar","images/stimuli/spore_stims/complex_17_A_c.gif","right","","","","",""
"","null","html-keyboard-response","14","193730","0.0-8.0-0.3","SS1613102579384","","","null","","","","","<p><img src= images/blank.png width =""200"" height = ""200"" style = ""float:right""></p><p><img src=images/blank.png width =""800"" height = ""200""></p>","","","","","","","","","","","",""
"","153.15999999985797","sequential-stimulus-presentation","15","194689","0.0-8.0-1.3","SS1613102579384","trial","","40","800","953.159999999858","images/stimuli/spore_stims/complex_17_B_c.gif","images/stimuli/spore_stims/complex_17_A_c.gif","","","","","0","complex_similar","images/stimuli/spore_stims/complex_17_B_c.gif","left","","","","",""
"","null","html-keyboard-response","16","195837","0.0-8.0-0.4","SS1613102579384","","","null","","","","","<p><img src= images/blank.png width =""200"" height = ""200"" style = ""float:right""></p><p><img src=images/blank.png width =""800"" height = ""200""></p>","","","","","","","","","","","",""
"","525.5000000002037","sequential-stimulus-presentation","17","197169","0.0-8.0-1.4","SS1613102579384","trial","","40","800","1325.5000000002037","images/stimuli/spore_stims/complex_17_B_c.gif","images/stimuli/spore_stims/complex_17_A_c.gif","","","","","0","complex_similar","images/stimuli/spore_stims/complex_17_A_c.gif","right","","","","",""
"","null","html-keyboard-response","18","197980","0.0-8.0-0.5","SS1613102579384","","","null","","","","","<p><img src= images/blank.png width =""200"" height = ""200"" style = ""float:right""></p><p><img src=images/blank.png width =""800"" height = ""200""></p>","","","","","","","","","","","",""
"","753.9050000000279","sequential-stimulus-presentation","19","199538","0.0-8.0-1.5","SS1613102579384","trial","","40","800","1553.905000000028","images/stimuli/spore_stims/complex_17_B_c.gif","images/stimuli/spore_stims/complex_17_A_c.gif","","","","","0","complex_similar","images/stimuli/spore_stims/complex_17_A_c.gif","right","","","","",""
"","null","html-keyboard-response","20","200539","0.0-8.0-0.6","SS1613102579384","","","null","","","","","<p><img src= images/blank.png width =""200"" height = ""200"" style = ""float:right""></p><p><img src=images/blank.png width =""800"" height = ""200""></p>","","","","","","","","","","","",""
"","60.14999999979045","sequential-stimulus-presentation","21","201405","0.0-8.0-1.6","SS1613102579384","trial","","40","800","860.1499999997905","images/stimuli/spore_stims/complex_17_B_c.gif","images/stimuli/spore_stims/complex_17_A_c.gif","","","","","0","complex_similar","images/stimuli/spore_stims/complex_17_A_c.gif","right","","","","",""
"","null","html-keyboard-response","22","202472","0.0-8.0-0.7","SS1613102579384","","","null","","","","","<p><img src= images/blank.png width =""200"" height = ""200"" style = ""float:right""></p><p><img src=images/blank.png width =""800"" height = ""200""></p>","","","","","","","","","","","",""
"","1552.6950000003271","sequential-stimulus-presentation","23","204830","0.0-8.0-1.7","SS1613102579384","trial","","40","800","2352.695000000327","images/stimuli/spore_stims/complex_17_B_c.gif","images/stimuli/spore_stims/complex_17_A_c.gif","","","","","0","complex_similar","images/stimuli/spore_stims/complex_17_A_c.gif","right","","","","",""
"","528.7450000000827","html-keyboard-response","24","205362","0.0-9.0","SS1613102579384","pref_question","","98","","","","","<video width ='960' height = '540' style='padding-top:8%' autoplay muted><source src='images/stimuli/wall_pref.mp4' type='video/mp4'></video>","2","middle","45%","0","","","","","","","",""
"","167.01500000001397","sequential-stimulus-presentation","25","206334","0.0-10.0","SS1613102579384","pref_reveal","","40","800","967.015000000014","null","null","","","","","0","","","","novel","","","",""
"","null","html-keyboard-response","26","207552","0.0-11.0-0.0","SS1613102579384","","","null","","","","","<p><img src= images/blank.png width =""200"" height = ""200"" style = ""float:right""></p><p><img src=images/blank.png width =""800"" height = ""200""></p>","","","","","","","","","","","",""
"","2716.155000000057","sequential-stimulus-presentation","27","211073","0.0-11.0-1.0","SS1613102579384","trial","","40","800","3516.155000000057","images/stimuli/spore_stims/complex_09_A_c.gif","images/stimuli/spore_stims/complex_08_B_b.gif","","","","","1","complex_dissimilar","images/stimuli/spore_stims/complex_08_B_b.gif","middle","","","","",""
"","null","html-keyboard-response","28","212111","0.0-11.0-0.1","SS1613102579384","","","null","","","","","<p><img src= images/blank.png width =""200"" height = ""200"" style = ""float:right""></p><p><img src=images/blank.png width =""800"" height = ""200""></p>","","","","","","","","","","","",""
"","131.91499999992084","sequential-stimulus-presentation","29","213048","0.0-11.0-1.1","SS1613102579384","trial","","40","800","931.9149999999208","images/stimuli/spore_stims/complex_09_A_c.gif","images/stimuli/spore_stims/complex_08_B_b.gif","","","","","1","complex_dissimilar","images/stimuli/spore_stims/complex_08_B_b.gif","middle","","","","",""
"","null","html-keyboard-response","30","214255","0.0-11.0-0.2","SS1613102579384","","","null","","","","","<p><img src= images/blank.png width =""200"" height = ""200"" style = ""float:right""></p><p><img src=images/blank.png width =""800"" height = ""200""></p>","","","","","","","","","","","",""
"","22.064999999653082","sequential-stimulus-presentation","31","215084","0.0-11.0-1.2","SS1613102579384","trial","","40","800","822.0649999996531","images/stimuli/spore_stims/complex_09_A_c.gif","images/stimuli/spore_stims/complex_08_B_b.gif","","","","","1","complex_dissimilar","images/stimuli/spore_stims/complex_08_B_b.gif","middle","","","","",""
"","null","html-keyboard-response","32","216218","0.0-11.0-0.3","SS1613102579384","","","null","","","","","<p><img src= images/blank.png width =""200"" height = ""200"" style = ""float:right""></p><p><img src=images/blank.png width =""800"" height = ""200""></p>","","","","","","","","","","","",""
"","435.73500000004424","sequential-stimulus-presentation","33","217458","0.0-11.0-1.3","SS1613102579384","trial","","40","800","1235.7350000000442","images/stimuli/spore_stims/complex_09_A_c.gif","images/stimuli/spore_stims/complex_08_B_b.gif","","","","","1","complex_dissimilar","images/stimuli/spore_stims/complex_08_B_b.gif","middle","","","","",""
"","null","html-keyboard-response","34","218620","0.0-11.0-0.4","SS1613102579384","","","null","","","","","<p><img src= images/blank.png width =""200"" height = ""200"" style = ""float:right""></p><p><img src=images/blank.png width =""800"" height = ""200""></p>","","","","","","","","","","","",""
"","383.10499999986496","sequential-stimulus-presentation","35","219811","0.0-11.0-1.4","SS1613102579384","trial","","40","800","1183.104999999865","images/stimuli/spore_stims/complex_09_A_c.gif","images/stimuli/spore_stims/complex_08_B_b.gif","","","","","1","complex_dissimilar","images/stimuli/spore_stims/complex_08_B_b.gif","middle","","","","",""
"","null","html-keyboard-response","36","220632","0.0-11.0-0.5","SS1613102579384","","","null","","","","","<p><img src= images/blank.png width =""200"" height = ""200"" style = ""float:right""></p><p><img src=images/blank.png width =""800"" height = ""200""></p>","","","","","","","","","","","",""
"","774.6349999997474","sequential-stimulus-presentation","37","222212","0.0-11.0-1.5","SS1613102579384","trial","","40","800","1574.6349999997474","images/stimuli/spore_stims/complex_09_A_c.gif","images/stimuli/spore_stims/complex_08_B_b.gif","","","","","1","complex_dissimilar","images/stimuli/spore_stims/complex_09_A_c.gif","right","","","","",""
"","null","html-keyboard-response","38","223331","0.0-11.0-0.6","SS1613102579384","","","null","","","","","<p><img src= images/blank.png width =""200"" height = ""200"" style = ""float:right""></p><p><img src=images/blank.png width =""800"" height = ""200""></p>","","","","","","","","","","","",""
"","269.53000000002794","sequential-stimulus-presentation","39","224405","0.0-11.0-1.6","SS1613102579384","trial","","40","800","1069.530000000028","images/stimuli/spore_stims/complex_09_A_c.gif","images/stimuli/spore_stims/complex_08_B_b.gif","","","","","1","complex_dissimilar","images/stimuli/spore_stims/complex_08_B_b.gif","middle","","","","",""
"","null","html-keyboard-response","40","225591","0.0-11.0-0.7","SS1613102579384","","","null","","","","","<p><img src= images/blank.png width =""200"" height = ""200"" style = ""float:right""></p><p><img src=images/blank.png width =""800"" height = ""200""></p>","","","","","","","","","","","",""
"","535.5549999999348","sequential-stimulus-presentation","41","226931","0.0-11.0-1.7","SS1613102579384","trial","","40","800","1335.5549999999348","images/stimuli/spore_stims/complex_09_A_c.gif","images/stimuli/spore_stims/complex_08_B_b.gif","","","","","1","complex_dissimilar","images/stimuli/spore_stims/complex_08_B_b.gif","middle","","","","",""
"","993.6900000002352","html-keyboard-response","42","227927","0.0-12.0","SS1613102579384","pref_question","","97","","","","","<video width ='960' height = '540' style='padding-top:8%' autoplay muted><source src='images/stimuli/wall_pref.mp4' type='video/mp4'></video>","1","left","25%","1","","","","","","","",""
"","474.3499999999476","sequential-stimulus-presentation","43","229207","0.0-13.0","SS1613102579384","pref_reveal","","40","800","1274.3499999999476","null","null","","","","","1","","","","novel","","","",""
"","null","html-keyboard-response","44","230426","0.0-14.0-0.0","SS1613102579384","","","null","","","","","<p><img src= images/blank.png width =""200"" height = ""200"" style = ""float:right""></p><p><img src=images/blank.png width =""800"" height = ""200""></p>","","","","","","","","","","","",""
"","875.0700000000361","sequential-stimulus-presentation","45","232105","0.0-14.0-1.0","SS1613102579384","trial","","40","800","1675.070000000036","images/stimuli/spore_stims/simple_12_B_c.gif","images/stimuli/spore_stims/simple_10_B_a.gif","","","","","2","simple_dissimilar","images/stimuli/spore_stims/simple_10_B_a.gif","right","","","","",""
"","null","html-keyboard-response","46","233266","0.0-14.0-0.1","SS1613102579384","","","null","","","","","<p><img src= images/blank.png width =""200"" height = ""200"" style = ""float:right""></p><p><img src=images/blank.png width =""800"" height = ""200""></p>","","","","","","","","","","","",""
"","218.27000000030966","sequential-stimulus-presentation","47","234288","0.0-14.0-1.1","SS1613102579384","trial","","40","800","1018.2700000003097","images/stimuli/spore_stims/simple_12_B_c.gif","images/stimuli/spore_stims/simple_10_B_a.gif","","","","","2","simple_dissimilar","images/stimuli/spore_stims/simple_10_B_a.gif","right","","","","",""
"","null","html-keyboard-response","48","235472","0.0-14.0-0.2","SS1613102579384","","","null","","","","","<p><img src= images/blank.png width =""200"" height = ""200"" style = ""float:right""></p><p><img src=images/blank.png width =""800"" height = ""200""></p>","","","","","","","","","","","",""
"","183.21000000013737","sequential-stimulus-presentation","49","236460","0.0-14.0-1.2","SS1613102579384","trial","","40","800","983.2100000001374","images/stimuli/spore_stims/simple_12_B_c.gif","images/stimuli/spore_stims/simple_10_B_a.gif","","","","","2","simple_dissimilar","images/stimuli/spore_stims/simple_10_B_a.gif","right","","","","",""
"","null","html-keyboard-response","50","237325","0.0-14.0-0.3","SS1613102579384","","","null","","","","","<p><img src= images/blank.png width =""200"" height = ""200"" style = ""float:right""></p><p><img src=images/blank.png width =""800"" height = ""200""></p>","","","","","","","","","","","",""
"","14.430000000167638","sequential-stimulus-presentation","51","238144","0.0-14.0-1.3","SS1613102579384","trial","","40","800","814.4300000001676","images/stimuli/spore_stims/simple_12_B_c.gif","images/stimuli/spore_stims/simple_10_B_a.gif","","","","","2","simple_dissimilar","images/stimuli/spore_stims/simple_12_B_c.gif","middle","","","","",""
"","null","html-keyboard-response","52","238987","0.0-14.0-0.4","SS1613102579384","","","null","","","","","<p><img src= images/blank.png width =""200"" height = ""200"" style = ""float:right""></p><p><img src=images/blank.png width =""800"" height = ""200""></p>","","","","","","","","","","","",""
"","284.5749999996915","sequential-stimulus-presentation","53","240077","0.0-14.0-1.4","SS1613102579384","trial","","40","800","1084.5749999996915","images/stimuli/spore_stims/simple_12_B_c.gif","images/stimuli/spore_stims/simple_10_B_a.gif","","","","","2","simple_dissimilar","images/stimuli/spore_stims/simple_10_B_a.gif","right","","","","",""
"","null","html-keyboard-response","54","241035","0.0-14.0-0.5","SS1613102579384","","","null","","","","","<p><img src= images/blank.png width =""200"" height = ""200"" style = ""float:right""></p><p><img src=images/blank.png width =""800"" height = ""200""></p>","","","","","","","","","","","",""
"","379.5499999996391","sequential-stimulus-presentation","55","242222","0.0-14.0-1.5","SS1613102579384","trial","","40","800","1179.549999999639","images/stimuli/spore_stims/simple_12_B_c.gif","images/stimuli/spore_stims/simple_10_B_a.gif","","","","","2","simple_dissimilar","images/stimuli/spore_stims/simple_10_B_a.gif","right","","","","",""
"","null","html-keyboard-response","56","243152","0.0-14.0-0.6","SS1613102579384","","","null","","","","","<p><img src= images/blank.png width =""200"" height = ""200"" style = ""float:right""></p><p><img src=images/blank.png width =""800"" height = ""200""></p>","","","","","","","","","","","",""
"","64.08000000013271","sequential-stimulus-presentation","57","244027","0.0-14.0-1.6","SS1613102579384","trial","","40","800","864.0800000001327","images/stimuli/spore_stims/simple_12_B_c.gif","images/stimuli/spore_stims/simple_10_B_a.gif","","","","","2","simple_dissimilar","images/stimuli/spore_stims/simple_10_B_a.gif","right","","","","",""
"","null","html-keyboard-response","58","245121","0.0-14.0-0.7","SS1613102579384","","","null","","","","","<p><img src= images/blank.png width =""200"" height = ""200"" style = ""float:right""></p><p><img src=images/blank.png width =""800"" height = ""200""></p>","","","","","","","","","","","",""
"","44.88499999977648","sequential-stimulus-presentation","59","245972","0.0-14.0-1.7","SS1613102579384","trial","","40","800","844.8849999997765","images/stimuli/spore_stims/simple_12_B_c.gif","images/stimuli/spore_stims/simple_10_B_a.gif","","","","","2","simple_dissimilar","images/stimuli/spore_stims/simple_10_B_a.gif","right","","","","",""
"","661.9550000000745","html-keyboard-response","60","246639","0.0-15.0","SS1613102579384","pref_question","","99","","","","","<video width ='960' height = '540' style='padding-top:8%' autoplay muted><source src='images/stimuli/wall_pref.mp4' type='video/mp4'></video>","3","right","66%","2","","","","","","","",""
"","381.6050000000396","sequential-stimulus-presentation","61","247840","0.0-16.0","SS1613102579384","pref_reveal","","40","800","1181.6050000000396","null","null","","","","","2","","","","background","","","",""
"","null","html-keyboard-response","62","248654","0.0-17.0-0.0","SS1613102579384","","","null","","","","","<p><img src= images/blank.png width =""200"" height = ""200"" style = ""float:right""></p><p><img src=images/blank.png width =""800"" height = ""200""></p>","","","","","","","","","","","",""
"","10.304999999818392","sequential-stimulus-presentation","63","249472","0.0-17.0-1.0","SS1613102579384","trial","","40","800","810.3049999998184","images/stimuli/spore_stims/complex_12_B_a.gif","images/stimuli/spore_stims/complex_07_B_a.gif","","","","","3","complex_dissimilar","images/stimuli/spore_stims/complex_07_B_a.gif","right","","","","",""
"","null","html-keyboard-response","64","250548","0.0-17.0-0.1","SS1613102579384","","","null","","","","","<p><img src= images/blank.png width =""200"" height = ""200"" style = ""float:right""></p><p><img src=images/blank.png width =""800"" height = ""200""></p>","","","","","","","","","","","",""
"","69.80000000022119","sequential-stimulus-presentation","65","251424","0.0-17.0-1.1","SS1613102579384","trial","","40","800","869.8000000002212","images/stimuli/spore_stims/complex_12_B_a.gif","images/stimuli/spore_stims/complex_07_B_a.gif","","","","","3","complex_dissimilar","images/stimuli/spore_stims/complex_07_B_a.gif","right","","","","",""
"","null","html-keyboard-response","66","252724","0.0-17.0-0.2","SS1613102579384","","","null","","","","","<p><img src= images/blank.png width =""200"" height = ""200"" style = ""float:right""></p><p><img src=images/blank.png width =""800"" height = ""200""></p>","","","","","","","","","","","",""
"","221.63999999972293","sequential-stimulus-presentation","67","253750","0.0-17.0-1.2","SS1613102579384","trial","","40","800","1021.6399999997229","images/stimuli/spore_stims/complex_12_B_a.gif","images/stimuli/spore_stims/complex_07_B_a.gif","","","","","3","complex_dissimilar","images/stimuli/spore_stims/complex_07_B_a.gif","right","","","","",""
"","null","html-keyboard-response","68","254558","0.0-17.0-0.3","SS1613102579384","","","null","","","","","<p><img src= images/blank.png width =""200"" height = ""200"" style = ""float:right""></p><p><img src=images/blank.png width =""800"" height = ""200""></p>","","","","","","","","","","","",""
"","2537.1949999998906","sequential-stimulus-presentation","69","257899","0.0-17.0-1.3","SS1613102579384","trial","","40","800","3337.1949999998906","images/stimuli/spore_stims/complex_12_B_a.gif","images/stimuli/spore_stims/complex_07_B_a.gif","","","","","3","complex_dissimilar","images/stimuli/spore_stims/complex_12_B_a.gif","left","","","","",""
"","null","html-keyboard-response","70","258836","0.0-17.0-0.4","SS1613102579384","","","null","","","","","<p><img src= images/blank.png width =""200"" height = ""200"" style = ""float:right""></p><p><img src=images/blank.png width =""800"" height = ""200""></p>","","","","","","","","","","","",""
"","2261.4399999997695","sequential-stimulus-presentation","71","261903","0.0-17.0-1.4","SS1613102579384","trial","","40","800","3061.4399999997695","images/stimuli/spore_stims/complex_12_B_a.gif","images/stimuli/spore_stims/complex_07_B_a.gif","","","","","3","complex_dissimilar","images/stimuli/spore_stims/complex_07_B_a.gif","right","","","","",""
"","null","html-keyboard-response","72","263014","0.0-17.0-0.5","SS1613102579384","","","null","","","","","<p><img src= images/blank.png width =""200"" height = ""200"" style = ""float:right""></p><p><img src=images/blank.png width =""800"" height = ""200""></p>","","","","","","","","","","","",""
"","553.7500000000582","sequential-stimulus-presentation","73","264373","0.0-17.0-1.5","SS1613102579384","trial","","40","800","1353.7500000000582","images/stimuli/spore_stims/complex_12_B_a.gif","images/stimuli/spore_stims/complex_07_B_a.gif","","","","","3","complex_dissimilar","images/stimuli/spore_stims/complex_07_B_a.gif","right","","","","",""
"","null","html-keyboard-response","74","265436","0.0-17.0-0.6","SS1613102579384","","","null","","","","","<p><img src= images/blank.png width =""200"" height = ""200"" style = ""float:right""></p><p><img src=images/blank.png width =""800"" height = ""200""></p>","","","","","","","","","","","",""
"","117.82999999966705","sequential-stimulus-presentation","75","266359","0.0-17.0-1.6","SS1613102579384","trial","","40","800","917.829999999667","images/stimuli/spore_stims/complex_12_B_a.gif","images/stimuli/spore_stims/complex_07_B_a.gif","","","","","3","complex_dissimilar","images/stimuli/spore_stims/complex_07_B_a.gif","right","","","","",""
"","null","html-keyboard-response","76","267293","0.0-17.0-0.7","SS1613102579384","","","null","","","","","<p><img src= images/blank.png width =""200"" height = ""200"" style = ""float:right""></p><p><img src=images/blank.png width =""800"" height = ""200""></p>","","","","","","","","","","","",""
"","427.06999999971595","sequential-stimulus-presentation","77","268524","0.0-17.0-1.7","SS1613102579384","trial","","40","800","1227.069999999716","images/stimuli/spore_stims/complex_12_B_a.gif","images/stimuli/spore_stims/complex_07_B_a.gif","","","","","3","complex_dissimilar","images/stimuli/spore_stims/complex_07_B_a.gif","right","","","","",""
"","1538.9899999999907","html-keyboard-response","78","270067","0.0-18.0","SS1613102579384","pref_question","","98","","","","","<video width ='960' height = '540' style='padding-top:8%' autoplay muted><source src='images/stimuli/wall_pref.mp4' type='video/mp4'></video>","2","middle","45%","3","","","","","","","",""
"","1698.9999999996508","sequential-stimulus-presentation","79","272574","0.0-19.0","SS1613102579384","pref_reveal","","40","800","2498.9999999996508","null","null","","","","","3","","","","novel","","","",""
"","null","html-keyboard-response","80","273558","0.0-20.0-0.0","SS1613102579384","","","null","","","","","<p><img src= images/blank.png width =""200"" height = ""200"" style = ""float:right""></p><p><img src=images/blank.png width =""800"" height = ""200""></p>","","","","","","","","","","","",""
"","133.39999999973224","sequential-stimulus-presentation","81","274498","0.0-20.0-1.0","SS1613102579384","trial","","40","800","933.3999999997322","images/stimuli/spore_stims/simple_08_B_d.gif","images/stimuli/spore_stims/simple_08_A_d.gif","","","","","4","simple_similar","images/stimuli/spore_stims/simple_08_A_d.gif","middle","","","","",""
"","null","html-keyboard-response","82","275703","0.0-20.0-0.1","SS1613102579384","","","null","","","","","<p><img src= images/blank.png width =""200"" height = ""200"" style = ""float:right""></p><p><img src=images/blank.png width =""800"" height = ""200""></p>","","","","","","","","","","","",""
"","169.2149999999092","sequential-stimulus-presentation","83","276701","0.0-20.0-1.1","SS1613102579384","trial","","40","800","969.2149999999092","images/stimuli/spore_stims/simple_08_B_d.gif","images/stimuli/spore_stims/simple_08_A_d.gif","","","","","4","simple_similar","images/stimuli/spore_stims/simple_08_A_d.gif","middle","","","","",""
"","null","html-keyboard-response","84","277778","0.0-20.0-0.2","SS1613102579384","","","null","","","","","<p><img src= images/blank.png width =""200"" height = ""200"" style = ""float:right""></p><p><img src=images/blank.png width =""800"" height = ""200""></p>","","","","","","","","","","","",""
"","2448.470000000263","sequential-stimulus-presentation","85","281031","0.0-20.0-1.2","SS1613102579384","trial","","40","800","3248.470000000263","images/stimuli/spore_stims/simple_08_B_d.gif","images/stimuli/spore_stims/simple_08_A_d.gif","","","","","4","simple_similar","images/stimuli/spore_stims/simple_08_A_d.gif","middle","","","","",""
"","null","html-keyboard-response","86","282011","0.0-20.0-0.3","SS1613102579384","","","null","","","","","<p><img src= images/blank.png width =""200"" height = ""200"" style = ""float:right""></p><p><img src=images/blank.png width =""800"" height = ""200""></p>","","","","","","","","","","","",""
"","1086.9600000000792","sequential-stimulus-presentation","87","283903","0.0-20.0-1.3","SS1613102579384","trial","","40","800","1886.9600000000792","images/stimuli/spore_stims/simple_08_B_d.gif","images/stimuli/spore_stims/simple_08_A_d.gif","","","","","4","simple_similar","images/stimuli/spore_stims/simple_08_A_d.gif","middle","","","","",""
"","null","html-keyboard-response","88","284868","0.0-20.0-0.4","SS1613102579384","","","null","","","","","<p><img src= images/blank.png width =""200"" height = ""200"" style = ""float:right""></p><p><img src=images/blank.png width =""800"" height = ""200""></p>","","","","","","","","","","","",""
"","513.0450000001001","sequential-stimulus-presentation","89","286185","0.0-20.0-1.4","SS1613102579384","trial","","40","800","1313.0450000001001","images/stimuli/spore_stims/simple_08_B_d.gif","images/stimuli/spore_stims/simple_08_A_d.gif","","","","","4","simple_similar","images/stimuli/spore_stims/simple_08_B_d.gif","right","","","","",""
"","null","html-keyboard-response","90","287254","0.0-20.0-0.5","SS1613102579384","","","null","","","","","<p><img src= images/blank.png width =""200"" height = ""200"" style = ""float:right""></p><p><img src=images/blank.png width =""800"" height = ""200""></p>","","","","","","","","","","","",""
"","2690.0149999996647","sequential-stimulus-presentation","91","290749","0.0-20.0-1.5","SS1613102579384","trial","","40","800","3490.0149999996647","images/stimuli/spore_stims/simple_08_B_d.gif","images/stimuli/spore_stims/simple_08_A_d.gif","","","","","4","simple_similar","images/stimuli/spore_stims/simple_08_A_d.gif","middle","","","","",""
"","null","html-keyboard-response","92","291905","0.0-20.0-0.6","SS1613102579384","","","null","","","","","<p><img src= images/blank.png width =""200"" height = ""200"" style = ""float:right""></p><p><img src=images/blank.png width =""800"" height = ""200""></p>","","","","","","","","","","","",""
"","2629.5","sequential-stimulus-presentation","93","295373","0.0-20.0-1.6","SS1613102579384","trial","","40","800","3429.5","images/stimuli/spore_stims/simple_08_B_d.gif","images/stimuli/spore_stims/simple_08_A_d.gif","","","","","4","simple_similar","images/stimuli/spore_stims/simple_08_A_d.gif","middle","","","","",""
"","null","html-keyboard-response","94","296599","0.0-20.0-0.7","SS1613102579384","","","null","","","","","<p><img src= images/blank.png width =""200"" height = ""200"" style = ""float:right""></p><p><img src=images/blank.png width =""800"" height = ""200""></p>","","","","","","","","","","","",""
"","2670.2650000001886","sequential-stimulus-presentation","95","300074","0.0-20.0-1.7","SS1613102579384","trial","","40","800","3470.2650000001886","images/stimuli/spore_stims/simple_08_B_d.gif","images/stimuli/spore_stims/simple_08_A_d.gif","","","","","4","simple_similar","images/stimuli/spore_stims/simple_08_A_d.gif","middle","","","","",""
"","776.0849999999627","html-keyboard-response","96","300858","0.0-21.0","SS1613102579384","pref_question","","99","","","","","<video width ='960' height = '540' style='padding-top:8%' autoplay muted><source src='images/stimuli/wall_pref.mp4' type='video/mp4'></video>","3","right","66%","4","","","","","","","",""
"","3531.8299999999","sequential-stimulus-presentation","97","305195","0.0-22.0","SS1613102579384","pref_reveal","","40","800","4331.8299999999","null","null","","","","","4","","","","deviant","","","",""
"","null","html-keyboard-response","98","306393","0.0-23.0-0.0","SS1613102579384","","","null","","","","","<p><img src= images/blank.png width =""200"" height = ""200"" style = ""float:right""></p><p><img src=images/blank.png width =""800"" height = ""200""></p>","","","","","","","","","","","",""
"","5555.62999999983","sequential-stimulus-presentation","99","312754","0.0-23.0-1.0","SS1613102579384","trial","","40","800","6355.62999999983","images/stimuli/spore_stims/simple_20_A_c.gif","images/stimuli/spore_stims/simple_03_A_c.gif","","","","","5","simple_dissimilar","images/stimuli/spore_stims/simple_03_A_c.gif","middle","","","","",""
"","null","html-keyboard-response","100","313973","0.0-23.0-0.1","SS1613102579384","","","null","","","","","<p><img src= images/blank.png width =""200"" height = ""200"" style = ""float:right""></p><p><img src=images/blank.png width =""800"" height = ""200""></p>","","","","","","","","","","","",""
"","533.6800000000512","sequential-stimulus-presentation","101","315314","0.0-23.0-1.1","SS1613102579384","trial","","40","800","1333.6800000000512","images/stimuli/spore_stims/simple_20_A_c.gif","images/stimuli/spore_stims/simple_03_A_c.gif","","","","","5","simple_dissimilar","images/stimuli/spore_stims/simple_03_A_c.gif","middle","","","","",""
"","null","html-keyboard-response","102","316318","0.0-23.0-0.2","SS1613102579384","","","null","","","","","<p><img src= images/blank.png width =""200"" height = ""200"" style = ""float:right""></p><p><img src=images/blank.png width =""800"" height = ""200""></p>","","","","","","","","","","","",""
"","127.19500000000698","sequential-stimulus-presentation","103","317250","0.0-23.0-1.2","SS1613102579384","trial","","40","800","927.195000000007","images/stimuli/spore_stims/simple_20_A_c.gif","images/stimuli/spore_stims/simple_03_A_c.gif","","","","","5","simple_dissimilar","images/stimuli/spore_stims/simple_03_A_c.gif","middle","","","","",""
"","null","html-keyboard-response","104","318473","0.0-23.0-0.3","SS1613102579384","","","null","","","","","<p><img src= images/blank.png width =""200"" height = ""200"" style = ""float:right""></p><p><img src=images/blank.png width =""800"" height = ""200""></p>","","","","","","","","","","","",""
"","695.090000000142","sequential-stimulus-presentation","105","320000","0.0-23.0-1.3","SS1613102579384","trial","","40","800","1495.090000000142","images/stimuli/spore_stims/simple_20_A_c.gif","images/stimuli/spore_stims/simple_03_A_c.gif","","","","","5","simple_dissimilar","images/stimuli/spore_stims/simple_03_A_c.gif","middle","","","","",""
"","null","html-keyboard-response","106","320968","0.0-23.0-0.4","SS1613102579384","","","null","","","","","<p><img src= images/blank.png width =""200"" height = ""200"" style = ""float:right""></p><p><img src=images/blank.png width =""800"" height = ""200""></p>","","","","","","","","","","","",""
"","404.07499999995343","sequential-stimulus-presentation","107","322177","0.0-23.0-1.4","SS1613102579384","trial","","40","800","1204.0749999999534","images/stimuli/spore_stims/simple_20_A_c.gif","images/stimuli/spore_stims/simple_03_A_c.gif","","","","","5","simple_dissimilar","images/stimuli/spore_stims/simple_03_A_c.gif","middle","","","","",""
"","null","html-keyboard-response","108","323141","0.0-23.0-0.5","SS1613102579384","","","null","","","","","<p><img src= images/blank.png width =""200"" height = ""200"" style = ""float:right""></p><p><img src=images/blank.png width =""800"" height = ""200""></p>","","","","","","","","","","","",""
"","450.8399999999674","sequential-stimulus-presentation","109","324401","0.0-23.0-1.5","SS1613102579384","trial","","40","800","1250.8399999999674","images/stimuli/spore_stims/simple_20_A_c.gif","images/stimuli/spore_stims/simple_03_A_c.gif","","","","","5","simple_dissimilar","images/stimuli/spore_stims/simple_20_A_c.gif","right","","","","",""
"","null","html-keyboard-response","110","325681","0.0-23.0-0.6","SS1613102579384","","","null","","","","","<p><img src= images/blank.png width =""200"" height = ""200"" style = ""float:right""></p><p><img src=images/blank.png width =""800"" height = ""200""></p>","","","","","","","","","","","",""
"","750.3099999998813","sequential-stimulus-presentation","111","327259","0.0-23.0-1.6","SS1613102579384","trial","","40","800","1550.3099999998813","images/stimuli/spore_stims/simple_20_A_c.gif","images/stimuli/spore_stims/simple_03_A_c.gif","","","","","5","simple_dissimilar","images/stimuli/spore_stims/simple_03_A_c.gif","middle","","","","",""
"","null","html-keyboard-response","112","328078","0.0-23.0-0.7","SS1613102579384","","","null","","","","","<p><img src= images/blank.png width =""200"" height = ""200"" style = ""float:right""></p><p><img src=images/blank.png width =""800"" height = ""200""></p>","","","","","","","","","","","",""
"","622.2700000003097","sequential-stimulus-presentation","113","329515","0.0-23.0-1.7","SS1613102579384","trial","","40","800","1422.2700000003097","images/stimuli/spore_stims/simple_20_A_c.gif","images/stimuli/spore_stims/simple_03_A_c.gif","","","","","5","simple_dissimilar","images/stimuli/spore_stims/simple_03_A_c.gif","middle","","","","",""
"","814.2350000002771","html-keyboard-response","114","330335","0.0-24.0","SS1613102579384","pref_question","","99","","","","","<video width ='960' height = '540' style='padding-top:8%' autoplay muted><source src='images/stimuli/wall_pref.mp4' type='video/mp4'></video>","3","right","66%","5","","","","","","","",""
"","29.61499999993248","sequential-stimulus-presentation","115","331170","0.0-25.0","SS1613102579384","pref_reveal","","40","800","829.6149999999325","null","null","","","","","5","","","","deviant","","","",""
"","null","html-keyboard-response","116","332467","0.0-26.0-0.0","SS1613102579384","","","null","","","","","<p><img src= images/blank.png width =""200"" height = ""200"" style = ""float:right""></p><p><img src=images/blank.png width =""800"" height = ""200""></p>","","","","","","","","","","","",""
"","638.6999999999534","sequential-stimulus-presentation","117","333925","0.0-26.0-1.0","SS1613102579384","trial","","40","800","1438.6999999999534","images/stimuli/spore_stims/complex_04_A_a.gif","images/stimuli/spore_stims/complex_04_B_a.gif","","","","","6","complex_similar","images/stimuli/spore_stims/complex_04_B_a.gif","left","","","","",""
"","null","html-keyboard-response","118","335106","0.0-26.0-0.1","SS1613102579384","","","null","","","","","<p><img src= images/blank.png width =""200"" height = ""200"" style = ""float:right""></p><p><img src=images/blank.png width =""800"" height = ""200""></p>","","","","","","","","","","","",""
"","2084.4550000001327","sequential-stimulus-presentation","119","337998","0.0-26.0-1.1","SS1613102579384","trial","","40","800","2884.4550000001327","images/stimuli/spore_stims/complex_04_A_a.gif","images/stimuli/spore_stims/complex_04_B_a.gif","","","","","6","complex_similar","images/stimuli/spore_stims/complex_04_B_a.gif","left","","","","",""
"","null","html-keyboard-response","120","339119","0.0-26.0-0.2","SS1613102579384","","","null","","","","","<p><img src= images/blank.png width =""200"" height = ""200"" style = ""float:right""></p><p><img src=images/blank.png width =""800"" height = ""200""></p>","","","","","","","","","","","",""
"","373.56999999971595","sequential-stimulus-presentation","121","340300","0.0-26.0-1.2","SS1613102579384","trial","","40","800","1173.569999999716","images/stimuli/spore_stims/complex_04_A_a.gif","images/stimuli/spore_stims/complex_04_B_a.gif","","","","","6","complex_similar","images/stimuli/spore_stims/complex_04_B_a.gif","left","","","","",""
"","null","html-keyboard-response","122","341242","0.0-26.0-0.3","SS1613102579384","","","null","","","","","<p><img src= images/blank.png width =""200"" height = ""200"" style = ""float:right""></p><p><img src=images/blank.png width =""800"" height = ""200""></p>","","","","","","","","","","","",""
"","149.36500000022352","sequential-stimulus-presentation","123","342198","0.0-26.0-1.3","SS1613102579384","trial","","40","800","949.3650000002235","images/stimuli/spore_stims/complex_04_A_a.gif","images/stimuli/spore_stims/complex_04_B_a.gif","","","","","6","complex_similar","images/stimuli/spore_stims/complex_04_A_a.gif","middle","","","","",""
"","null","html-keyboard-response","124","343468","0.0-26.0-0.4","SS1613102579384","","","null","","","","","<p><img src= images/blank.png width =""200"" height = ""200"" style = ""float:right""></p><p><img src=images/blank.png width =""800"" height = ""200""></p>","","","","","","","","","","","",""
"","1277.5700000002398","sequential-stimulus-presentation","125","345555","0.0-26.0-1.4","SS1613102579384","trial","","40","800","2077.57000000024","images/stimuli/spore_stims/complex_04_A_a.gif","images/stimuli/spore_stims/complex_04_B_a.gif","","","","","6","complex_similar","images/stimuli/spore_stims/complex_04_B_a.gif","left","","","","",""
"","null","html-keyboard-response","126","346404","0.0-26.0-0.5","SS1613102579384","","","null","","","","","<p><img src= images/blank.png width =""200"" height = ""200"" style = ""float:right""></p><p><img src=images/blank.png width =""800"" height = ""200""></p>","","","","","","","","","","","",""
"","807.0900000002584","sequential-stimulus-presentation","127","348016","0.0-26.0-1.5","SS1613102579384","trial","","40","800","1607.0900000002584","images/stimuli/spore_stims/complex_04_A_a.gif","images/stimuli/spore_stims/complex_04_B_a.gif","","","","","6","complex_similar","images/stimuli/spore_stims/complex_04_B_a.gif","left","","","","",""
"","null","html-keyboard-response","128","349000","0.0-26.0-0.6","SS1613102579384","","","null","","","","","<p><img src= images/blank.png width =""200"" height = ""200"" style = ""float:right""></p><p><img src=images/blank.png width =""800"" height = ""200""></p>","","","","","","","","","","","",""
"","703.9749999998603","sequential-stimulus-presentation","129","350515","0.0-26.0-1.6","SS1613102579384","trial","","40","800","1503.9749999998603","images/stimuli/spore_stims/complex_04_A_a.gif","images/stimuli/spore_stims/complex_04_B_a.gif","","","","","6","complex_similar","images/stimuli/spore_stims/complex_04_B_a.gif","left","","","","",""
"","null","html-keyboard-response","130","351330","0.0-26.0-0.7","SS1613102579384","","","null","","","","","<p><img src= images/blank.png width =""200"" height = ""200"" style = ""float:right""></p><p><img src=images/blank.png width =""800"" height = ""200""></p>","","","","","","","","","","","",""
"","914.1100000001607","sequential-stimulus-presentation","131","353060","0.0-26.0-1.7","SS1613102579384","trial","","40","800","1714.1100000001607","images/stimuli/spore_stims/complex_04_A_a.gif","images/stimuli/spore_stims/complex_04_B_a.gif","","","","","6","complex_similar","images/stimuli/spore_stims/complex_04_B_a.gif","left","","","","",""
"","798.6650000002701","html-keyboard-response","132","353865","0.0-27.0","SS1613102579384","pref_question","","98","","","","","<video width ='960' height = '540' style='padding-top:8%' autoplay muted><source src='images/stimuli/wall_pref.mp4' type='video/mp4'></video>","2","middle","45%","6","","","","","","","",""
"","23.494999999878928","sequential-stimulus-presentation","133","354733","0.0-28.0","SS1613102579384","pref_reveal","","40","800","823.4949999998789","null","null","","","","","6","","","","deviant","","","",""
"","null","html-keyboard-response","134","355853","0.0-29.0-0.0","SS1613102579384","","","null","","","","","<p><img src= images/blank.png width =""200"" height = ""200"" style = ""float:right""></p><p><img src=images/blank.png width =""800"" height = ""200""></p>","","","","","","","","","","","",""
"","3431.2999999997555","sequential-stimulus-presentation","135","360095","0.0-29.0-1.0","SS1613102579384","trial","","40","800","4231.2999999997555","images/stimuli/spore_stims/complex_10_B_c.gif","images/stimuli/spore_stims/complex_10_A_c.gif","","","","","7","complex_similar","images/stimuli/spore_stims/complex_10_A_c.gif","middle","","","","",""
"","null","html-keyboard-response","136","361013","0.0-29.0-0.1","SS1613102579384","","","null","","","","","<p><img src= images/blank.png width =""200"" height = ""200"" style = ""float:right""></p><p><img src=images/blank.png width =""800"" height = ""200""></p>","","","","","","","","","","","",""
"","169.46000000007916","sequential-stimulus-presentation","137","361988","0.0-29.0-1.1","SS1613102579384","trial","","40","800","969.4600000000792","images/stimuli/spore_stims/complex_10_B_c.gif","images/stimuli/spore_stims/complex_10_A_c.gif","","","","","7","complex_similar","images/stimuli/spore_stims/complex_10_A_c.gif","middle","","","","",""
"","null","html-keyboard-response","138","363130","0.0-29.0-0.2","SS1613102579384","","","null","","","","","<p><img src= images/blank.png width =""200"" height = ""200"" style = ""float:right""></p><p><img src=images/blank.png width =""800"" height = ""200""></p>","","","","","","","","","","","",""
"","366.3699999997625","sequential-stimulus-presentation","139","364319","0.0-29.0-1.2","SS1613102579384","trial","","40","800","1166.3699999997625","images/stimuli/spore_stims/complex_10_B_c.gif","images/stimuli/spore_stims/complex_10_A_c.gif","","","","","7","complex_similar","images/stimuli/spore_stims/complex_10_A_c.gif","middle","","","","",""
"","null","html-keyboard-response","140","365346","0.0-29.0-0.3","SS1613102579384","","","null","","","","","<p><img src= images/blank.png width =""200"" height = ""200"" style = ""float:right""></p><p><img src=images/blank.png width =""800"" height = ""200""></p>","","","","","","","","","","","",""
"","190.1600000000908","sequential-stimulus-presentation","141","366343","0.0-29.0-1.3","SS1613102579384","trial","","40","800","990.1600000000908","images/stimuli/spore_stims/complex_10_B_c.gif","images/stimuli/spore_stims/complex_10_A_c.gif","","","","","7","complex_similar","images/stimuli/spore_stims/complex_10_A_c.gif","middle","","","","",""
"","null","html-keyboard-response","142","367570","0.0-29.0-0.4","SS1613102579384","","","null","","","","","<p><img src= images/blank.png width =""200"" height = ""200"" style = ""float:right""></p><p><img src=images/blank.png width =""800"" height = ""200""></p>","","","","","","","","","","","",""
"","112.05999999993946","sequential-stimulus-presentation","143","368488","0.0-29.0-1.4","SS1613102579384","trial","","40","800","912.0599999999395","images/stimuli/spore_stims/complex_10_B_c.gif","images/stimuli/spore_stims/complex_10_A_c.gif","","","","","7","complex_similar","images/stimuli/spore_stims/complex_10_A_c.gif","middle","","","","",""
"","null","html-keyboard-response","144","369512","0.0-29.0-0.5","SS1613102579384","","","null","","","","","<p><img src= images/blank.png width =""200"" height = ""200"" style = ""float:right""></p><p><img src=images/blank.png width =""800"" height = ""200""></p>","","","","","","","","","","","",""
"","372.570000000007","sequential-stimulus-presentation","145","370693","0.0-29.0-1.5","SS1613102579384","trial","","40","800","1172.570000000007","images/stimuli/spore_stims/complex_10_B_c.gif","images/stimuli/spore_stims/complex_10_A_c.gif","","","","","7","complex_similar","images/stimuli/spore_stims/complex_10_A_c.gif","middle","","","","",""
"","null","html-keyboard-response","146","371546","0.0-29.0-0.6","SS1613102579384","","","null","","","","","<p><img src= images/blank.png width =""200"" height = ""200"" style = ""float:right""></p><p><img src=images/blank.png width =""800"" height = ""200""></p>","","","","","","","","","","","",""
"","63.40000000002328","sequential-stimulus-presentation","147","372415","0.0-29.0-1.6","SS1613102579384","trial","","40","800","863.4000000000233","images/stimuli/spore_stims/complex_10_B_c.gif","images/stimuli/spore_stims/complex_10_A_c.gif","","","","","7","complex_similar","images/stimuli/spore_stims/complex_10_A_c.gif","middle","","","","",""
"","null","html-keyboard-response","148","373638","0.0-29.0-0.7","SS1613102579384","","","null","","","","","<p><img src= images/blank.png width =""200"" height = ""200"" style = ""float:right""></p><p><img src=images/blank.png width =""800"" height = ""200""></p>","","","","","","","","","","","",""
"","386.550000000163","sequential-stimulus-presentation","149","374876","0.0-29.0-1.7","SS1613102579384","trial","","40","800","1186.550000000163","images/stimuli/spore_stims/complex_10_B_c.gif","images/stimuli/spore_stims/complex_10_A_c.gif","","","","","7","complex_similar","images/stimuli/spore_stims/complex_10_B_c.gif","right","","","","",""
"","755.1950000001816","html-keyboard-response","150","375636","0.0-30.0","SS1613102579384","pref_question","","99","","","","","<video width ='960' height = '540' style='padding-top:8%' autoplay muted><source src='images/stimuli/wall_pref.mp4' type='video/mp4'></video>","3","right","66%","7","","","","","","","",""
"","1755.6849999995902","sequential-stimulus-presentation","151","378197","0.0-31.0","SS1613102579384","pref_reveal","","40","800","2555.68499999959","null","null","","","","","7","","","","deviant","","","",""
"","null","html-keyboard-response","152","379218","0.0-32.0-0.0","SS1613102579384","","","null","","","","","<p><img src= images/blank.png width =""200"" height = ""200"" style = ""float:right""></p><p><img src=images/blank.png width =""800"" height = ""200""></p>","","","","","","","","","","","",""
"","1297.4349999999977","sequential-stimulus-presentation","153","381325","0.0-32.0-1.0","SS1613102579384","trial","","40","800","2097.4349999999977","images/stimuli/spore_stims/simple_02_A_c.gif","images/stimuli/spore_stims/simple_09_A_c.gif","","","","","8","simple_dissimilar","images/stimuli/spore_stims/simple_09_A_c.gif","middle","","","","",""
"","null","html-keyboard-response","154","382344","0.0-32.0-0.1","SS1613102579384","","","null","","","","","<p><img src= images/blank.png width =""200"" height = ""200"" style = ""float:right""></p><p><img src=images/blank.png width =""800"" height = ""200""></p>","","","","","","","","","","","",""
"","202.78000000002794","sequential-stimulus-presentation","155","383352","0.0-32.0-1.1","SS1613102579384","trial","","40","800","1002.7800000000279","images/stimuli/spore_stims/simple_02_A_c.gif","images/stimuli/spore_stims/simple_09_A_c.gif","","","","","8","simple_dissimilar","images/stimuli/spore_stims/simple_09_A_c.gif","middle","","","","",""
"","null","html-keyboard-response","156","384561","0.0-32.0-0.2","SS1613102579384","","","null","","","","","<p><img src= images/blank.png width =""200"" height = ""200"" style = ""float:right""></p><p><img src=images/blank.png width =""800"" height = ""200""></p>","","","","","","","","","","","",""
"","253.5500000003958","sequential-stimulus-presentation","157","385621","0.0-32.0-1.2","SS1613102579384","trial","","40","800","1053.5500000003958","images/stimuli/spore_stims/simple_02_A_c.gif","images/stimuli/spore_stims/simple_09_A_c.gif","","","","","8","simple_dissimilar","images/stimuli/spore_stims/simple_09_A_c.gif","middle","","","","",""
"","null","html-keyboard-response","158","386870","0.0-32.0-0.3","SS1613102579384","","","null","","","","","<p><img src= images/blank.png width =""200"" height = ""200"" style = ""float:right""></p><p><img src=images/blank.png width =""800"" height = ""200""></p>","","","","","","","","","","","",""
"","312.19000000011874","sequential-stimulus-presentation","159","387988","0.0-32.0-1.3","SS1613102579384","trial","","40","800","1112.1900000001187","images/stimuli/spore_stims/simple_02_A_c.gif","images/stimuli/spore_stims/simple_09_A_c.gif","","","","","8","simple_dissimilar","images/stimuli/spore_stims/simple_09_A_c.gif","middle","","","","",""
"","null","html-keyboard-response","160","388836","0.0-32.0-0.4","SS1613102579384","","","null","","","","","<p><img src= images/blank.png width =""200"" height = ""200"" style = ""float:right""></p><p><img src=images/blank.png width =""800"" height = ""200""></p>","","","","","","","","","","","",""
"","180.2750000001397","sequential-stimulus-presentation","161","389823","0.0-32.0-1.4","SS1613102579384","trial","","40","800","980.2750000001397","images/stimuli/spore_stims/simple_02_A_c.gif","images/stimuli/spore_stims/simple_09_A_c.gif","","","","","8","simple_dissimilar","images/stimuli/spore_stims/simple_02_A_c.gif","left","","","","",""
"","null","html-keyboard-response","162","390679","0.0-32.0-0.5","SS1613102579384","","","null","","","","","<p><img src= images/blank.png width =""200"" height = ""200"" style = ""float:right""></p><p><img src=images/blank.png width =""800"" height = ""200""></p>","","","","","","","","","","","",""
"","38.50999999983469","sequential-stimulus-presentation","163","391524","0.0-32.0-1.5","SS1613102579384","trial","","40","800","838.5099999998347","images/stimuli/spore_stims/simple_02_A_c.gif","images/stimuli/spore_stims/simple_09_A_c.gif","","","","","8","simple_dissimilar","images/stimuli/spore_stims/simple_09_A_c.gif","middle","","","","",""
"","null","html-keyboard-response","164","392435","0.0-32.0-0.6","SS1613102579384","","","null","","","","","<p><img src= images/blank.png width =""200"" height = ""200"" style = ""float:right""></p><p><img src=images/blank.png width =""800"" height = ""200""></p>","","","","","","","","","","","",""
"","859.6950000001234","sequential-stimulus-presentation","165","394106","0.0-32.0-1.6","SS1613102579384","trial","","40","800","1659.6950000001234","images/stimuli/spore_stims/simple_02_A_c.gif","images/stimuli/spore_stims/simple_09_A_c.gif","","","","","8","simple_dissimilar","images/stimuli/spore_stims/simple_09_A_c.gif","middle","","","","",""
"","null","html-keyboard-response","166","395305","0.0-32.0-0.7","SS1613102579384","","","null","","","","","<p><img src= images/blank.png width =""200"" height = ""200"" style = ""float:right""></p><p><img src=images/blank.png width =""800"" height = ""200""></p>","","","","","","","","","","","",""
"","261.4700000003213","sequential-stimulus-presentation","167","396378","0.0-32.0-1.7","SS1613102579384","trial","","40","800","1061.4700000003213","images/stimuli/spore_stims/simple_02_A_c.gif","images/stimuli/spore_stims/simple_09_A_c.gif","","","","","8","simple_dissimilar","images/stimuli/spore_stims/simple_09_A_c.gif","middle","","","","",""
"","2264.979999999923","html-keyboard-response","168","398651","0.0-33.0","SS1613102579384","pref_question","","99","","","","","<video width ='960' height = '540' style='padding-top:8%' autoplay muted><source src='images/stimuli/wall_pref.mp4' type='video/mp4'></video>","3","right","66%","8","","","","","","","",""
"","299.0749999998952","sequential-stimulus-presentation","169","399757","0.0-34.0","SS1613102579384","pref_reveal","","40","800","1099.0749999998952","null","null","","","","","8","","","","novel","","","",""
"","null","html-keyboard-response","170","400939","0.0-35.0-0.0","SS1613102579384","","","null","","","","","<p><img src= images/blank.png width =""200"" height = ""200"" style = ""float:right""></p><p><img src=images/blank.png width =""800"" height = ""200""></p>","","","","","","","","","","","",""
"","291.91999999963446","sequential-stimulus-presentation","171","402038","0.0-35.0-1.0","SS1613102579384","trial","","40","800","1091.9199999996345","images/stimuli/spore_stims/complex_08_A_a.gif","images/stimuli/spore_stims/complex_02_A_a.gif","","","","","9","complex_dissimilar","images/stimuli/spore_stims/complex_02_A_a.gif","right","","","","",""
"","null","html-keyboard-response","172","402949","0.0-35.0-0.1","SS1613102579384","","","null","","","","","<p><img src= images/blank.png width =""200"" height = ""200"" style = ""float:right""></p><p><img src=images/blank.png width =""800"" height = ""200""></p>","","","","","","","","","","","",""
"","12.194999999774154","sequential-stimulus-presentation","173","403766","0.0-35.0-1.1","SS1613102579384","trial","","40","800","812.1949999997742","images/stimuli/spore_stims/complex_08_A_a.gif","images/stimuli/spore_stims/complex_02_A_a.gif","","","","","9","complex_dissimilar","images/stimuli/spore_stims/complex_02_A_a.gif","right","","","","",""
"","null","html-keyboard-response","174","404986","0.0-35.0-0.2","SS1613102579384","","","null","","","","","<p><img src= images/blank.png width =""200"" height = ""200"" style = ""float:right""></p><p><img src=images/blank.png width =""800"" height = ""200""></p>","","","","","","","","","","","",""
"","243.54500000027474","sequential-stimulus-presentation","175","406036","0.0-35.0-1.2","SS1613102579384","trial","","40","800","1043.5450000002747","images/stimuli/spore_stims/complex_08_A_a.gif","images/stimuli/spore_stims/complex_02_A_a.gif","","","","","9","complex_dissimilar","images/stimuli/spore_stims/complex_02_A_a.gif","right","","","","",""
"","null","html-keyboard-response","176","407291","0.0-35.0-0.3","SS1613102579384","","","null","","","","","<p><img src= images/blank.png width =""200"" height = ""200"" style = ""float:right""></p><p><img src=images/blank.png width =""800"" height = ""200""></p>","","","","","","","","","","","",""
"","245.5","sequential-stimulus-presentation","177","408342","0.0-35.0-1.3","SS1613102579384","trial","","40","800","1045.5","images/stimuli/spore_stims/complex_08_A_a.gif","images/stimuli/spore_stims/complex_02_A_a.gif","","","","","9","complex_dissimilar","images/stimuli/spore_stims/complex_02_A_a.gif","right","","","","",""
"","null","html-keyboard-response","178","409162","0.0-35.0-0.4","SS1613102579384","","","null","","","","","<p><img src= images/blank.png width =""200"" height = ""200"" style = ""float:right""></p><p><img src=images/blank.png width =""800"" height = ""200""></p>","","","","","","","","","","","",""
"","353.31999999971595","sequential-stimulus-presentation","179","410323","0.0-35.0-1.4","SS1613102579384","trial","","40","800","1153.319999999716","images/stimuli/spore_stims/complex_08_A_a.gif","images/stimuli/spore_stims/complex_02_A_a.gif","","","","","9","complex_dissimilar","images/stimuli/spore_stims/complex_02_A_a.gif","right","","","","",""
"","null","html-keyboard-response","180","411271","0.0-35.0-0.5","SS1613102579384","","","null","","","","","<p><img src= images/blank.png width =""200"" height = ""200"" style = ""float:right""></p><p><img src=images/blank.png width =""800"" height = ""200""></p>","","","","","","","","","","","",""
"","225.32000000000698","sequential-stimulus-presentation","181","412302","0.0-35.0-1.5","SS1613102579384","trial","","40","800","1025.320000000007","images/stimuli/spore_stims/complex_08_A_a.gif","images/stimuli/spore_stims/complex_02_A_a.gif","","","","","9","complex_dissimilar","images/stimuli/spore_stims/complex_08_A_a.gif","left","","","","",""
"","null","html-keyboard-response","182","413335","0.0-35.0-0.6","SS1613102579384","","","null","","","","","<p><img src= images/blank.png width =""200"" height = ""200"" style = ""float:right""></p><p><img src=images/blank.png width =""800"" height = ""200""></p>","","","","","","","","","","","",""
"","289.0099999999511","sequential-stimulus-presentation","183","414435","0.0-35.0-1.6","SS1613102579384","trial","","40","800","1089.009999999951","images/stimuli/spore_stims/complex_08_A_a.gif","images/stimuli/spore_stims/complex_02_A_a.gif","","","","","9","complex_dissimilar","images/stimuli/spore_stims/complex_02_A_a.gif","right","","","","",""
"","null","html-keyboard-response","184","415702","0.0-35.0-0.7","SS1613102579384","","","null","","","","","<p><img src= images/blank.png width =""200"" height = ""200"" style = ""float:right""></p><p><img src=images/blank.png width =""800"" height = ""200""></p>","","","","","","","","","","","",""
"","233.79999999998836","sequential-stimulus-presentation","185","416742","0.0-35.0-1.7","SS1613102579384","trial","","40","800","1033.7999999999884","images/stimuli/spore_stims/complex_08_A_a.gif","images/stimuli/spore_stims/complex_02_A_a.gif","","","","","9","complex_dissimilar","images/stimuli/spore_stims/complex_02_A_a.gif","right","","","","",""
"","693.6199999999953","html-keyboard-response","186","417454","0.0-36.0","SS1613102579384","pref_question","","99","","","","","<video width ='960' height = '540' style='padding-top:8%' autoplay muted><source src='images/stimuli/wall_pref.mp4' type='video/mp4'></video>","3","right","66%","9","","","","","","","",""
"","172.65999999974156","sequential-stimulus-presentation","187","418433","0.0-37.0","SS1613102579384","pref_reveal","","40","800","972.6599999997416","null","null","","","","","9","","","","background","","","",""
"","null","html-keyboard-response","188","419302","0.0-38.0-0.0","SS1613102579384","","","null","","","","","<p><img src= images/blank.png width =""200"" height = ""200"" style = ""float:right""></p><p><img src=images/blank.png width =""800"" height = ""200""></p>","","","","","","","","","","","",""
"","1048.949999999837","sequential-stimulus-presentation","189","421160","0.0-38.0-1.0","SS1613102579384","trial","","40","800","1848.949999999837","images/stimuli/spore_stims/complex_16_B_a.gif","images/stimuli/spore_stims/complex_16_A_a.gif","","","","","10","complex_similar","images/stimuli/spore_stims/complex_16_A_a.gif","left","","","","",""
"","null","html-keyboard-response","190","422253","0.0-38.0-0.1","SS1613102579384","","","null","","","","","<p><img src= images/blank.png width =""200"" height = ""200"" style = ""float:right""></p><p><img src=images/blank.png width =""800"" height = ""200""></p>","","","","","","","","","","","",""
"","1117.2300000002724","sequential-stimulus-presentation","191","424176","0.0-38.0-1.1","SS1613102579384","trial","","40","800","1917.2300000002724","images/stimuli/spore_stims/complex_16_B_a.gif","images/stimuli/spore_stims/complex_16_A_a.gif","","","","","10","complex_similar","images/stimuli/spore_stims/complex_16_A_a.gif","left","","","","",""
"","null","html-keyboard-response","192","425123","0.0-38.0-0.2","SS1613102579384","","","null","","","","","<p><img src= images/blank.png width =""200"" height = ""200"" style = ""float:right""></p><p><img src=images/blank.png width =""800"" height = ""200""></p>","","","","","","","","","","","",""
"","801.2599999997183","sequential-stimulus-presentation","193","426731","0.0-38.0-1.2","SS1613102579384","trial","","40","800","1601.2599999997183","images/stimuli/spore_stims/complex_16_B_a.gif","images/stimuli/spore_stims/complex_16_A_a.gif","","","","","10","complex_similar","images/stimuli/spore_stims/complex_16_A_a.gif","left","","","","",""
"","null","html-keyboard-response","194","428020","0.0-38.0-0.3","SS1613102579384","","","null","","","","","<p><img src= images/blank.png width =""200"" height = ""200"" style = ""float:right""></p><p><img src=images/blank.png width =""800"" height = ""200""></p>","","","","","","","","","","","",""
"","647.8050000000512","sequential-stimulus-presentation","195","429476","0.0-38.0-1.3","SS1613102579384","trial","","40","800","1447.8050000000512","images/stimuli/spore_stims/complex_16_B_a.gif","images/stimuli/spore_stims/complex_16_A_a.gif","","","","","10","complex_similar","images/stimuli/spore_stims/complex_16_A_a.gif","left","","","","",""
"","null","html-keyboard-response","196","430559","0.0-38.0-0.4","SS1613102579384","","","null","","","","","<p><img src= images/blank.png width =""200"" height = ""200"" style = ""float:right""></p><p><img src=images/blank.png width =""800"" height = ""200""></p>","","","","","","","","","","","",""
"","364.72999999980675","sequential-stimulus-presentation","197","431732","0.0-38.0-1.4","SS1613102579384","trial","","40","800","1164.7299999998068","images/stimuli/spore_stims/complex_16_B_a.gif","images/stimuli/spore_stims/complex_16_A_a.gif","","","","","10","complex_similar","images/stimuli/spore_stims/complex_16_B_a.gif","right","","","","",""
"","null","html-keyboard-response","198","432758","0.0-38.0-0.5","SS1613102579384","","","null","","","","","<p><img src= images/blank.png width =""200"" height = ""200"" style = ""float:right""></p><p><img src=images/blank.png width =""800"" height = ""200""></p>","","","","","","","","","","","",""
"","912.9200000002165","sequential-stimulus-presentation","199","434479","0.0-38.0-1.5","SS1613102579384","trial","","40","800","1712.9200000002165","images/stimuli/spore_stims/complex_16_B_a.gif","images/stimuli/spore_stims/complex_16_A_a.gif","","","","","10","complex_similar","images/stimuli/spore_stims/complex_16_A_a.gif","left","","","","",""
"","null","html-keyboard-response","200","435475","0.0-38.0-0.6","SS1613102579384","","","null","","","","","<p><img src= images/blank.png width =""200"" height = ""200"" style = ""float:right""></p><p><img src=images/blank.png width =""800"" height = ""200""></p>","","","","","","","","","","","",""
"","728.8250000001863","sequential-stimulus-presentation","201","437012","0.0-38.0-1.6","SS1613102579384","trial","","40","800","1528.8250000001863","images/stimuli/spore_stims/complex_16_B_a.gif","images/stimuli/spore_stims/complex_16_A_a.gif","","","","","10","complex_similar","images/stimuli/spore_stims/complex_16_A_a.gif","left","","","","",""
"","null","html-keyboard-response","202","438234","0.0-38.0-0.7","SS1613102579384","","","null","","","","","<p><img src= images/blank.png width =""200"" height = ""200"" style = ""float:right""></p><p><img src=images/blank.png width =""800"" height = ""200""></p>","","","","","","","","","","","",""
"","800.2299999998068","sequential-stimulus-presentation","203","439841","0.0-38.0-1.7","SS1613102579384","trial","","40","800","1600.2299999998068","images/stimuli/spore_stims/complex_16_B_a.gif","images/stimuli/spore_stims/complex_16_A_a.gif","","","","","10","complex_similar","images/stimuli/spore_stims/complex_16_A_a.gif","left","","","","",""
"","785.75","html-keyboard-response","204","440633","0.0-39.0","SS1613102579384","pref_question","","99","","","","","<video width ='960' height = '540' style='padding-top:8%' autoplay muted><source src='images/stimuli/wall_pref.mp4' type='video/mp4'></video>","3","right","66%","10","","","","","","","",""
"","107.46000000019558","sequential-stimulus-presentation","205","441547","0.0-40.0","SS1613102579384","pref_reveal","","40","800","907.4600000001956","null","null","","","","","10","","","","deviant","","","",""
"","null","html-keyboard-response","206","442394","0.0-41.0-0.0","SS1613102579384","","","null","","","","","<p><img src= images/blank.png width =""200"" height = ""200"" style = ""float:right""></p><p><img src=images/blank.png width =""800"" height = ""200""></p>","","","","","","","","","","","",""
"","411.12499999959255","sequential-stimulus-presentation","207","443612","0.0-41.0-1.0","SS1613102579384","trial","","40","800","1211.1249999995925","images/stimuli/spore_stims/simple_14_B_b.gif","images/stimuli/spore_stims/simple_14_A_b.gif","","","","","11","simple_similar","images/stimuli/spore_stims/simple_14_A_b.gif","left","","","","",""
"","null","html-keyboard-response","208","444657","0.0-41.0-0.1","SS1613102579384","","","null","","","","","<p><img src= images/blank.png width =""200"" height = ""200"" style = ""float:right""></p><p><img src=images/blank.png width =""800"" height = ""200""></p>","","","","","","","","","","","",""
"","2924.680000000051","sequential-stimulus-presentation","209","448393","0.0-41.0-1.1","SS1613102579384","trial","","40","800","3724.680000000051","images/stimuli/spore_stims/simple_14_B_b.gif","images/stimuli/spore_stims/simple_14_A_b.gif","","","","","11","simple_similar","images/stimuli/spore_stims/simple_14_A_b.gif","left","","","","",""
"","null","html-keyboard-response","210","449254","0.0-41.0-0.2","SS1613102579384","","","null","","","","","<p><img src= images/blank.png width =""200"" height = ""200"" style = ""float:right""></p><p><img src=images/blank.png width =""800"" height = ""200""></p>","","","","","","","","","","","",""
"","1094.8799999996554","sequential-stimulus-presentation","211","451159","0.0-41.0-1.2","SS1613102579384","trial","","40","800","1894.8799999996554","images/stimuli/spore_stims/simple_14_B_b.gif","images/stimuli/spore_stims/simple_14_A_b.gif","","","","","11","simple_similar","images/stimuli/spore_stims/simple_14_A_b.gif","left","","","","",""
"","null","html-keyboard-response","212","452260","0.0-41.0-0.3","SS1613102579384","","","null","","","","","<p><img src= images/blank.png width =""200"" height = ""200"" style = ""float:right""></p><p><img src=images/blank.png width =""800"" height = ""200""></p>","","","","","","","","","","","",""
"","1311.7649999998976","sequential-stimulus-presentation","213","454378","0.0-41.0-1.3","SS1613102579384","trial","","40","800","2111.7649999998976","images/stimuli/spore_stims/simple_14_B_b.gif","images/stimuli/spore_stims/simple_14_A_b.gif","","","","","11","simple_similar","images/stimuli/spore_stims/simple_14_B_b.gif","right","","","","",""
"","null","html-keyboard-response","214","455256","0.0-41.0-0.4","SS1613102579384","","","null","","","","","<p><img src= images/blank.png width =""200"" height = ""200"" style = ""float:right""></p><p><img src=images/blank.png width =""800"" height = ""200""></p>","","","","","","","","","","","",""
"","1154.474999999802","sequential-stimulus-presentation","215","457219","0.0-41.0-1.4","SS1613102579384","trial","","40","800","1954.474999999802","images/stimuli/spore_stims/simple_14_B_b.gif","images/stimuli/spore_stims/simple_14_A_b.gif","","","","","11","simple_similar","images/stimuli/spore_stims/simple_14_A_b.gif","left","","","","",""
"","null","html-keyboard-response","216","458454","0.0-41.0-0.5","SS1613102579384","","","null","","","","","<p><img src= images/blank.png width =""200"" height = ""200"" style = ""float:right""></p><p><img src=images/blank.png width =""800"" height = ""200""></p>","","","","","","","","","","","",""
"","32.51000000000931","sequential-stimulus-presentation","217","459301","0.0-41.0-1.5","SS1613102579384","trial","","40","800","832.5100000000093","images/stimuli/spore_stims/simple_14_B_b.gif","images/stimuli/spore_stims/simple_14_A_b.gif","","","","","11","simple_similar","images/stimuli/spore_stims/simple_14_A_b.gif","left","","","","",""
"","null","html-keyboard-response","218","460309","0.0-41.0-0.6","SS1613102579384","","","null","","","","","<p><img src= images/blank.png width =""200"" height = ""200"" style = ""float:right""></p><p><img src=images/blank.png width =""800"" height = ""200""></p>","","","","","","","","","","","",""
"","557.6749999999884","sequential-stimulus-presentation","219","461686","0.0-41.0-1.6","SS1613102579384","trial","","40","800","1357.6749999999884","images/stimuli/spore_stims/simple_14_B_b.gif","images/stimuli/spore_stims/simple_14_A_b.gif","","","","","11","simple_similar","images/stimuli/spore_stims/simple_14_A_b.gif","left","","","","",""
"","null","html-keyboard-response","220","462773","0.0-41.0-0.7","SS1613102579384","","","null","","","","","<p><img src= images/blank.png width =""200"" height = ""200"" style = ""float:right""></p><p><img src=images/blank.png width =""800"" height = ""200""></p>","","","","","","","","","","","",""
"","456.4299999997602","sequential-stimulus-presentation","221","464037","0.0-41.0-1.7","SS1613102579384","trial","","40","800","1256.4299999997602","images/stimuli/spore_stims/simple_14_B_b.gif","images/stimuli/spore_stims/simple_14_A_b.gif","","","","","11","simple_similar","images/stimuli/spore_stims/simple_14_A_b.gif","left","","","","",""
"","777.6749999998137","html-keyboard-response","222","464821","0.0-42.0","SS1613102579384","pref_question","","97","","","","","<video width ='960' height = '540' style='padding-top:8%' autoplay muted><source src='images/stimuli/wall_pref.mp4' type='video/mp4'></video>","1","left","25%","11","","","","","","","",""
"","113.64499999990221","sequential-stimulus-presentation","223","465743","0.0-43.0","SS1613102579384","pref_reveal","","40","800","913.6449999999022","null","null","","","","","11","","","","background","","","",""
"","null","html-keyboard-response","224","466578","0.0-44.0-0.0","SS1613102579384","","","null","","","","","<p><img src= images/blank.png width =""200"" height = ""200"" style = ""float:right""></p><p><img src=images/blank.png width =""800"" height = ""200""></p>","","","","","","","","","","","",""
"","1218.3549999999814","sequential-stimulus-presentation","225","468602","0.0-44.0-1.0","SS1613102579384","trial","","40","800","2018.3549999999814","images/stimuli/spore_stims/simple_13_B_a.gif","images/stimuli/spore_stims/simple_13_A_a.gif","","","","","12","simple_similar","images/stimuli/spore_stims/simple_13_A_a.gif","left","","","","",""
"","null","html-keyboard-response","226","469490","0.0-44.0-0.1","SS1613102579384","","","null","","","","","<p><img src= images/blank.png width =""200"" height = ""200"" style = ""float:right""></p><p><img src=images/blank.png width =""800"" height = ""200""></p>","","","","","","","","","","","",""
"","746.3450000000303","sequential-stimulus-presentation","227","471044","0.0-44.0-1.1","SS1613102579384","trial","","40","800","1546.3450000000303","images/stimuli/spore_stims/simple_13_B_a.gif","images/stimuli/spore_stims/simple_13_A_a.gif","","","","","12","simple_similar","images/stimuli/spore_stims/simple_13_A_a.gif","left","","","","",""
"","null","html-keyboard-response","228","472217","0.0-44.0-0.2","SS1613102579384","","","null","","","","","<p><img src= images/blank.png width =""200"" height = ""200"" style = ""float:right""></p><p><img src=images/blank.png width =""800"" height = ""200""></p>","","","","","","","","","","","",""
"","730.6400000002468","sequential-stimulus-presentation","229","473760","0.0-44.0-1.2","SS1613102579384","trial","","40","800","1530.6400000002468","images/stimuli/spore_stims/simple_13_B_a.gif","images/stimuli/spore_stims/simple_13_A_a.gif","","","","","12","simple_similar","images/stimuli/spore_stims/simple_13_B_a.gif","right","","","","",""
"","null","html-keyboard-response","230","474888","0.0-44.0-0.3","SS1613102579384","","","null","","","","","<p><img src= images/blank.png width =""200"" height = ""200"" style = ""float:right""></p><p><img src=images/blank.png width =""800"" height = ""200""></p>","","","","","","","","","","","",""
"","383.9049999997369","sequential-stimulus-presentation","231","476094","0.0-44.0-1.3","SS1613102579384","trial","","40","800","1183.904999999737","images/stimuli/spore_stims/simple_13_B_a.gif","images/stimuli/spore_stims/simple_13_A_a.gif","","","","","12","simple_similar","images/stimuli/spore_stims/simple_13_A_a.gif","left","","","","",""
"","null","html-keyboard-response","232","476917","0.0-44.0-0.4","SS1613102579384","","","null","","","","","<p><img src= images/blank.png width =""200"" height = ""200"" style = ""float:right""></p><p><img src=images/blank.png width =""800"" height = ""200""></p>","","","","","","","","","","","",""
"","457.9100000000908","sequential-stimulus-presentation","233","478183","0.0-44.0-1.4","SS1613102579384","trial","","40","800","1257.9100000000908","images/stimuli/spore_stims/simple_13_B_a.gif","images/stimuli/spore_stims/simple_13_A_a.gif","","","","","12","simple_similar","images/stimuli/spore_stims/simple_13_A_a.gif","left","","","","",""
"","null","html-keyboard-response","234","479371","0.0-44.0-0.5","SS1613102579384","","","null","","","","","<p><img src= images/blank.png width =""200"" height = ""200"" style = ""float:right""></p><p><img src=images/blank.png width =""800"" height = ""200""></p>","","","","","","","","","","","",""
"","1049.8899999997811","sequential-stimulus-presentation","235","481229","0.0-44.0-1.5","SS1613102579384","trial","","40","800","1849.8899999997811","images/stimuli/spore_stims/simple_13_B_a.gif","images/stimuli/spore_stims/simple_13_A_a.gif","","","","","12","simple_similar","images/stimuli/spore_stims/simple_13_A_a.gif","left","","","","",""
"","null","html-keyboard-response","236","482335","0.0-44.0-0.6","SS1613102579384","","","null","","","","","<p><img src= images/blank.png width =""200"" height = ""200"" style = ""float:right""></p><p><img src=images/blank.png width =""800"" height = ""200""></p>","","","","","","","","","","","",""
"","126.54999999998836","sequential-stimulus-presentation","237","483276","0.0-44.0-1.6","SS1613102579384","trial","","40","800","926.5499999999884","images/stimuli/spore_stims/simple_13_B_a.gif","images/stimuli/spore_stims/simple_13_A_a.gif","","","","","12","simple_similar","images/stimuli/spore_stims/simple_13_A_a.gif","left","","","","",""
"","null","html-keyboard-response","238","484335","0.0-44.0-0.7","SS1613102579384","","","null","","","","","<p><img src= images/blank.png width =""200"" height = ""200"" style = ""float:right""></p><p><img src=images/blank.png width =""800"" height = ""200""></p>","","","","","","","","","","","",""
"","421.0399999997462","sequential-stimulus-presentation","239","485565","0.0-44.0-1.7","SS1613102579384","trial","","40","800","1221.0399999997462","images/stimuli/spore_stims/simple_13_B_a.gif","images/stimuli/spore_stims/simple_13_A_a.gif","","","","","12","simple_similar","images/stimuli/spore_stims/simple_13_A_a.gif","left","","","","",""
"","1471.1400000001304","html-keyboard-response","240","487042","0.0-45.0","SS1613102579384","pref_question","","99","","","","","<video width ='960' height = '540' style='padding-top:8%' autoplay muted><source src='images/stimuli/wall_pref.mp4' type='video/mp4'></video>","3","right","66%","12","","","","","","","",""
"","1381.7850000000326","sequential-stimulus-presentation","241","489234","0.0-46.0","SS1613102579384","pref_reveal","","40","800","2181.7850000000326","null","null","","","","","12","","","","deviant","","","",""
"","null","html-keyboard-response","242","490096","0.0-47.0-0.0","SS1613102579384","","","null","","","","","<p><img src= images/blank.png width =""200"" height = ""200"" style = ""float:right""></p><p><img src=images/blank.png width =""800"" height = ""200""></p>","","","","","","","","","","","",""
"","687.9649999996182","sequential-stimulus-presentation","243","491591","0.0-47.0-1.0","SS1613102579384","trial","","40","800","1487.9649999996182","images/stimuli/spore_stims/simple_04_B_b.gif","images/stimuli/spore_stims/simple_04_A_b.gif","","","","","13","simple_similar","images/stimuli/spore_stims/simple_04_A_b.gif","middle","","","","",""
"","null","html-keyboard-response","244","492610","0.0-47.0-0.1","SS1613102579384","","","null","","","","","<p><img src= images/blank.png width =""200"" height = ""200"" style = ""float:right""></p><p><img src=images/blank.png width =""800"" height = ""200""></p>","","","","","","","","","","","",""
"","447.4350000000559","sequential-stimulus-presentation","245","493866","0.0-47.0-1.1","SS1613102579384","trial","","40","800","1247.4350000000559","images/stimuli/spore_stims/simple_04_B_b.gif","images/stimuli/spore_stims/simple_04_A_b.gif","","","","","13","simple_similar","images/stimuli/spore_stims/simple_04_A_b.gif","middle","","","","",""
"","null","html-keyboard-response","246","494793","0.0-47.0-0.2","SS1613102579384","","","null","","","","","<p><img src= images/blank.png width =""200"" height = ""200"" style = ""float:right""></p><p><img src=images/blank.png width =""800"" height = ""200""></p>","","","","","","","","","","","",""
"","908.6349999997765","sequential-stimulus-presentation","247","496515","0.0-47.0-1.2","SS1613102579384","trial","","40","800","1708.6349999997765","images/stimuli/spore_stims/simple_04_B_b.gif","images/stimuli/spore_stims/simple_04_A_b.gif","","","","","13","simple_similar","images/stimuli/spore_stims/simple_04_A_b.gif","middle","","","","",""
"","null","html-keyboard-response","248","497355","0.0-47.0-0.3","SS1613102579384","","","null","","","","","<p><img src= images/blank.png width =""200"" height = ""200"" style = ""float:right""></p><p><img src=images/blank.png width =""800"" height = ""200""></p>","","","","","","","","","","","",""
"","622.2199999997392","sequential-stimulus-presentation","249","498783","0.0-47.0-1.3","SS1613102579384","trial","","40","800","1422.2199999997392","images/stimuli/spore_stims/simple_04_B_b.gif","images/stimuli/spore_stims/simple_04_A_b.gif","","","","","13","simple_similar","images/stimuli/spore_stims/simple_04_A_b.gif","middle","","","","",""
"","null","html-keyboard-response","250","500059","0.0-47.0-0.4","SS1613102579384","","","null","","","","","<p><img src= images/blank.png width =""200"" height = ""200"" style = ""float:right""></p><p><img src=images/blank.png width =""800"" height = ""200""></p>","","","","","","","","","","","",""
"","401.13999999995576","sequential-stimulus-presentation","251","501268","0.0-47.0-1.4","SS1613102579384","trial","","40","800","1201.1399999999558","images/stimuli/spore_stims/simple_04_B_b.gif","images/stimuli/spore_stims/simple_04_A_b.gif","","","","","13","simple_similar","images/stimuli/spore_stims/simple_04_B_b.gif","left","","","","",""
"","null","html-keyboard-response","252","502524","0.0-47.0-0.5","SS1613102579384","","","null","","","","","<p><img src= images/blank.png width =""200"" height = ""200"" style = ""float:right""></p><p><img src=images/blank.png width =""800"" height = ""200""></p>","","","","","","","","","","","",""
"","605.600000000326","sequential-stimulus-presentation","253","503939","0.0-47.0-1.5","SS1613102579384","trial","","40","800","1405.600000000326","images/stimuli/spore_stims/simple_04_B_b.gif","images/stimuli/spore_stims/simple_04_A_b.gif","","","","","13","simple_similar","images/stimuli/spore_stims/simple_04_A_b.gif","middle","","","","",""
"","null","html-keyboard-response","254","505237","0.0-47.0-0.6","SS1613102579384","","","null","","","","","<p><img src= images/blank.png width =""200"" height = ""200"" style = ""float:right""></p><p><img src=images/blank.png width =""800"" height = ""200""></p>","","","","","","","","","","","",""
"","596.9549999999581","sequential-stimulus-presentation","255","506646","0.0-47.0-1.6","SS1613102579384","trial","","40","800","1396.954999999958","images/stimuli/spore_stims/simple_04_B_b.gif","images/stimuli/spore_stims/simple_04_A_b.gif","","","","","13","simple_similar","images/stimuli/spore_stims/simple_04_A_b.gif","middle","","","","",""
"","null","html-keyboard-response","256","507721","0.0-47.0-0.7","SS1613102579384","","","null","","","","","<p><img src= images/blank.png width =""200"" height = ""200"" style = ""float:right""></p><p><img src=images/blank.png width =""800"" height = ""200""></p>","","","","","","","","","","","",""
"","702.6999999997206","sequential-stimulus-presentation","257","509231","0.0-47.0-1.7","SS1613102579384","trial","","40","800","1502.6999999997206","images/stimuli/spore_stims/simple_04_B_b.gif","images/stimuli/spore_stims/simple_04_A_b.gif","","","","","13","simple_similar","images/stimuli/spore_stims/simple_04_A_b.gif","middle","","","","",""
"","1216.0349999999162","html-keyboard-response","258","510458","0.0-48.0","SS1613102579384","pref_question","","99","","","","","<video width ='960' height = '540' style='padding-top:8%' autoplay muted><source src='images/stimuli/wall_pref.mp4' type='video/mp4'></video>","3","right","66%","13","","","","","","","",""
"","53.82999999972526","sequential-stimulus-presentation","259","511320","0.0-49.0","SS1613102579384","pref_reveal","","40","800","853.8299999997253","null","null","","","","","13","","","","novel","","","",""
"","null","html-keyboard-response","260","512458","0.0-50.0-0.0","SS1613102579384","","","null","","","","","<p><img src= images/blank.png width =""200"" height = ""200"" style = ""float:right""></p><p><img src=images/blank.png width =""800"" height = ""200""></p>","","","","","","","","","","","",""
"","539.839999999851","sequential-stimulus-presentation","261","513804","0.0-50.0-1.0","SS1613102579384","trial","","40","800","1339.839999999851","images/stimuli/spore_stims/simple_19_B_b.gif","images/stimuli/spore_stims/simple_19_A_b.gif","","","","","14","simple_similar","images/stimuli/spore_stims/simple_19_A_b.gif","right","","","","",""
"","null","html-keyboard-response","262","515103","0.0-50.0-0.1","SS1613102579384","","","null","","","","","<p><img src= images/blank.png width =""200"" height = ""200"" style = ""float:right""></p><p><img src=images/blank.png width =""800"" height = ""200""></p>","","","","","","","","","","","",""
"","386.425000000163","sequential-stimulus-presentation","263","516298","0.0-50.0-1.1","SS1613102579384","trial","","40","800","1186.425000000163","images/stimuli/spore_stims/simple_19_B_b.gif","images/stimuli/spore_stims/simple_19_A_b.gif","","","","","14","simple_similar","images/stimuli/spore_stims/simple_19_A_b.gif","right","","","","",""
"","null","html-keyboard-response","264","517380","0.0-50.0-0.2","SS1613102579384","","","null","","","","","<p><img src= images/blank.png width =""200"" height = ""200"" style = ""float:right""></p><p><img src=images/blank.png width =""800"" height = ""200""></p>","","","","","","","","","","","",""
"","757.8100000000559","sequential-stimulus-presentation","265","518957","0.0-50.0-1.2","SS1613102579384","trial","","40","800","1557.8100000000559","images/stimuli/spore_stims/simple_19_B_b.gif","images/stimuli/spore_stims/simple_19_A_b.gif","","","","","14","simple_similar","images/stimuli/spore_stims/simple_19_A_b.gif","right","","","","",""
"","null","html-keyboard-response","266","519943","0.0-50.0-0.3","SS1613102579384","","","null","","","","","<p><img src= images/blank.png width =""200"" height = ""200"" style = ""float:right""></p><p><img src=images/blank.png width =""800"" height = ""200""></p>","","","","","","","","","","","",""
"","926.0749999999534","sequential-stimulus-presentation","267","521676","0.0-50.0-1.3","SS1613102579384","trial","","40","800","1726.0749999999534","images/stimuli/spore_stims/simple_19_B_b.gif","images/stimuli/spore_stims/simple_19_A_b.gif","","","","","14","simple_similar","images/stimuli/spore_stims/simple_19_A_b.gif","right","","","","",""
"","null","html-keyboard-response","268","522568","0.0-50.0-0.4","SS1613102579384","","","null","","","","","<p><img src= images/blank.png width =""200"" height = ""200"" style = ""float:right""></p><p><img src=images/blank.png width =""800"" height = ""200""></p>","","","","","","","","","","","",""
"","1101.869999999879","sequential-stimulus-presentation","269","524476","0.0-50.0-1.4","SS1613102579384","trial","","40","800","1901.869999999879","images/stimuli/spore_stims/simple_19_B_b.gif","images/stimuli/spore_stims/simple_19_A_b.gif","","","","","14","simple_similar","images/stimuli/spore_stims/simple_19_A_b.gif","right","","","","",""
"","null","html-keyboard-response","270","525610","0.0-50.0-0.5","SS1613102579384","","","null","","","","","<p><img src= images/blank.png width =""200"" height = ""200"" style = ""float:right""></p><p><img src=images/blank.png width =""800"" height = ""200""></p>","","","","","","","","","","","",""
"","822.0649999998277","sequential-stimulus-presentation","271","527239","0.0-50.0-1.5","SS1613102579384","trial","","40","800","1622.0649999998277","images/stimuli/spore_stims/simple_19_B_b.gif","images/stimuli/spore_stims/simple_19_A_b.gif","","","","","14","simple_similar","images/stimuli/spore_stims/simple_19_A_b.gif","right","","","","",""
"","null","html-keyboard-response","272","528283","0.0-50.0-0.6","SS1613102579384","","","null","","","","","<p><img src= images/blank.png width =""200"" height = ""200"" style = ""float:right""></p><p><img src=images/blank.png width =""800"" height = ""200""></p>","","","","","","","","","","","",""
"","574.2750000000233","sequential-stimulus-presentation","273","529665","0.0-50.0-1.6","SS1613102579384","trial","","40","800","1374.2750000000233","images/stimuli/spore_stims/simple_19_B_b.gif","images/stimuli/spore_stims/simple_19_A_b.gif","","","","","14","simple_similar","images/stimuli/spore_stims/simple_19_A_b.gif","right","","","","",""
"","null","html-keyboard-response","274","530569","0.0-50.0-0.7","SS1613102579384","","","null","","","","","<p><img src= images/blank.png width =""200"" height = ""200"" style = ""float:right""></p><p><img src=images/blank.png width =""800"" height = ""200""></p>","","","","","","","","","","","",""
"","1779.265000000014","sequential-stimulus-presentation","275","533158","0.0-50.0-1.7","SS1613102579384","trial","","40","800","2579.265000000014","images/stimuli/spore_stims/simple_19_B_b.gif","images/stimuli/spore_stims/simple_19_A_b.gif","","","","","14","simple_similar","images/stimuli/spore_stims/simple_19_B_b.gif","middle","","","","",""
"","1053.1500000001397","html-keyboard-response","276","534220","0.0-51.0","SS1613102579384","pref_question","","97","","","","","<video width ='960' height = '540' style='padding-top:8%' autoplay muted><source src='images/stimuli/wall_pref.mp4' type='video/mp4'></video>","1","left","25%","14","","","","","","","",""
"","151.039999999688","sequential-stimulus-presentation","277","535180","0.0-52.0","SS1613102579384","pref_reveal","","40","800","951.039999999688","null","null","","","","","14","","","","novel","","","",""
"","null","html-keyboard-response","278","536303","0.0-53.0-0.0","SS1613102579384","","","null","","","","","<p><img src= images/blank.png width =""200"" height = ""200"" style = ""float:right""></p><p><img src=images/blank.png width =""800"" height = ""200""></p>","","","","","","","","","","","",""
"","1405.7650000004796","sequential-stimulus-presentation","279","538537","0.0-53.0-1.0","SS1613102579384","trial","","40","800","2205.7650000004796","images/stimuli/spore_stims/complex_05_B_a.gif","images/stimuli/spore_stims/complex_05_A_a.gif","","","","","15","complex_similar","images/stimuli/spore_stims/complex_05_A_a.gif","right","","","","",""
"","null","html-keyboard-response","280","539578","0.0-53.0-0.1","SS1613102579384","","","null","","","","","<p><img src= images/blank.png width =""200"" height = ""200"" style = ""float:right""></p><p><img src=images/blank.png width =""800"" height = ""200""></p>","","","","","","","","","","","",""
"","655.3299999999581","sequential-stimulus-presentation","281","541043","0.0-53.0-1.1","SS1613102579384","trial","","40","800","1455.329999999958","images/stimuli/spore_stims/complex_05_B_a.gif","images/stimuli/spore_stims/complex_05_A_a.gif","","","","","15","complex_similar","images/stimuli/spore_stims/complex_05_A_a.gif","right","","","","",""
"","null","html-keyboard-response","282","542012","0.0-53.0-0.2","SS1613102579384","","","null","","","","","<p><img src= images/blank.png width =""200"" height = ""200"" style = ""float:right""></p><p><img src=images/blank.png width =""800"" height = ""200""></p>","","","","","","","","","","","",""
"","582.9899999998743","sequential-stimulus-presentation","283","543403","0.0-53.0-1.2","SS1613102579384","trial","","40","800","1382.9899999998743","images/stimuli/spore_stims/complex_05_B_a.gif","images/stimuli/spore_stims/complex_05_A_a.gif","","","","","15","complex_similar","images/stimuli/spore_stims/complex_05_A_a.gif","right","","","","",""
"","null","html-keyboard-response","284","544453","0.0-53.0-0.3","SS1613102579384","","","null","","","","","<p><img src= images/blank.png width =""200"" height = ""200"" style = ""float:right""></p><p><img src=images/blank.png width =""800"" height = ""200""></p>","","","","","","","","","","","",""
"","1796.7450000001118","sequential-stimulus-presentation","285","547058","0.0-53.0-1.3","SS1613102579384","trial","","40","800","2596.7450000001118","images/stimuli/spore_stims/complex_05_B_a.gif","images/stimuli/spore_stims/complex_05_A_a.gif","","","","","15","complex_similar","images/stimuli/spore_stims/complex_05_B_a.gif","left","","","","",""
"","null","html-keyboard-response","286","548041","0.0-53.0-0.4","SS1613102579384","","","null","","","","","<p><img src= images/blank.png width =""200"" height = ""200"" style = ""float:right""></p><p><img src=images/blank.png width =""800"" height = ""200""></p>","","","","","","","","","","","",""
"","482.6899999998277","sequential-stimulus-presentation","287","549331","0.0-53.0-1.4","SS1613102579384","trial","","40","800","1282.6899999998277","images/stimuli/spore_stims/complex_05_B_a.gif","images/stimuli/spore_stims/complex_05_A_a.gif","","","","","15","complex_similar","images/stimuli/spore_stims/complex_05_A_a.gif","right","","","","",""
"","null","html-keyboard-response","288","550581","0.0-53.0-0.5","SS1613102579384","","","null","","","","","<p><img src= images/blank.png width =""200"" height = ""200"" style = ""float:right""></p><p><img src=images/blank.png width =""800"" height = ""200""></p>","","","","","","","","","","","",""
"","441.3650000001071","sequential-stimulus-presentation","289","551833","0.0-53.0-1.5","SS1613102579384","trial","","40","800","1241.365000000107","images/stimuli/spore_stims/complex_05_B_a.gif","images/stimuli/spore_stims/complex_05_A_a.gif","","","","","15","complex_similar","images/stimuli/spore_stims/complex_05_A_a.gif","right","","","","",""
"","null","html-keyboard-response","290","553059","0.0-53.0-0.6","SS1613102579384","","","null","","","","","<p><img src= images/blank.png width =""200"" height = ""200"" style = ""float:right""></p><p><img src=images/blank.png width =""800"" height = ""200""></p>","","","","","","","","","","","",""
"","787.0800000000745","sequential-stimulus-presentation","291","554653","0.0-53.0-1.6","SS1613102579384","trial","","40","800","1587.0800000000745","images/stimuli/spore_stims/complex_05_B_a.gif","images/stimuli/spore_stims/complex_05_A_a.gif","","","","","15","complex_similar","images/stimuli/spore_stims/complex_05_A_a.gif","right","","","","",""
"","null","html-keyboard-response","292","555848","0.0-53.0-0.7","SS1613102579384","","","null","","","","","<p><img src= images/blank.png width =""200"" height = ""200"" style = ""float:right""></p><p><img src=images/blank.png width =""800"" height = ""200""></p>","","","","","","","","","","","",""
"","665.6100000001024","sequential-stimulus-presentation","293","557331","0.0-53.0-1.7","SS1613102579384","trial","","40","800","1465.6100000001024","images/stimuli/spore_stims/complex_05_B_a.gif","images/stimuli/spore_stims/complex_05_A_a.gif","","","","","15","complex_similar","images/stimuli/spore_stims/complex_05_A_a.gif","right","","","","",""
"","1294.2799999996787","html-keyboard-response","294","558632","0.0-54.0","SS1613102579384","pref_question","","98","","","","","<video width ='960' height = '540' style='padding-top:8%' autoplay muted><source src='images/stimuli/wall_pref.mp4' type='video/mp4'></video>","2","middle","45%","15","","","","","","","",""
"","58.78500000014901","sequential-stimulus-presentation","295","559500","0.0-55.0","SS1613102579384","pref_reveal","","40","800","858.785000000149","null","null","","","","","15","","","","novel","","","",""
"","null","html-keyboard-response","296","560331","0.0-56.0-0.0","SS1613102579384","","","null","","","","","<p><img src= images/blank.png width =""200"" height = ""200"" style = ""float:right""></p><p><img src=images/blank.png width =""800"" height = ""200""></p>","","","","","","","","","","","",""
"","671.3250000001863","sequential-stimulus-presentation","297","561813","0.0-56.0-1.0","SS1613102579384","trial","","40","800","1471.3250000001863","images/stimuli/spore_stims/complex_11_A_b.gif","images/stimuli/spore_stims/complex_15_A_d.gif","","","","","16","complex_dissimilar","images/stimuli/spore_stims/complex_15_A_d.gif","middle","","","","",""
"","null","html-keyboard-response","298","562666","0.0-56.0-0.1","SS1613102579384","","","null","","","","","<p><img src= images/blank.png width =""200"" height = ""200"" style = ""float:right""></p><p><img src=images/blank.png width =""800"" height = ""200""></p>","","","","","","","","","","","",""
"","693.5900000003166","sequential-stimulus-presentation","299","564168","0.0-56.0-1.1","SS1613102579384","trial","","40","800","1493.5900000003166","images/stimuli/spore_stims/complex_11_A_b.gif","images/stimuli/spore_stims/complex_15_A_d.gif","","","","","16","complex_dissimilar","images/stimuli/spore_stims/complex_15_A_d.gif","middle","","","","",""
"","null","html-keyboard-response","300","565373","0.0-56.0-0.2","SS1613102579384","","","null","","","","","<p><img src= images/blank.png width =""200"" height = ""200"" style = ""float:right""></p><p><img src=images/blank.png width =""800"" height = ""200""></p>","","","","","","","","","","","",""
"","525.6199999994133","sequential-stimulus-presentation","301","566708","0.0-56.0-1.2","SS1613102579384","trial","","40","800","1325.6199999994133","images/stimuli/spore_stims/complex_11_A_b.gif","images/stimuli/spore_stims/complex_15_A_d.gif","","","","","16","complex_dissimilar","images/stimuli/spore_stims/complex_15_A_d.gif","middle","","","","",""
"","null","html-keyboard-response","302","567985","0.0-56.0-0.3","SS1613102579384","","","null","","","","","<p><img src= images/blank.png width =""200"" height = ""200"" style = ""float:right""></p><p><img src=images/blank.png width =""800"" height = ""200""></p>","","","","","","","","","","","",""
"","670.8799999996554","sequential-stimulus-presentation","303","569463","0.0-56.0-1.3","SS1613102579384","trial","","40","800","1470.8799999996554","images/stimuli/spore_stims/complex_11_A_b.gif","images/stimuli/spore_stims/complex_15_A_d.gif","","","","","16","complex_dissimilar","images/stimuli/spore_stims/complex_15_A_d.gif","middle","","","","",""
"","null","html-keyboard-response","304","570703","0.0-56.0-0.4","SS1613102579384","","","null","","","","","<p><img src= images/blank.png width =""200"" height = ""200"" style = ""float:right""></p><p><img src=images/blank.png width =""800"" height = ""200""></p>","","","","","","","","","","","",""
"","663.9150000000373","sequential-stimulus-presentation","305","572177","0.0-56.0-1.4","SS1613102579384","trial","","40","800","1463.9150000000373","images/stimuli/spore_stims/complex_11_A_b.gif","images/stimuli/spore_stims/complex_15_A_d.gif","","","","","16","complex_dissimilar","images/stimuli/spore_stims/complex_15_A_d.gif","middle","","","","",""
"","null","html-keyboard-response","306","572992","0.0-56.0-0.5","SS1613102579384","","","null","","","","","<p><img src= images/blank.png width =""200"" height = ""200"" style = ""float:right""></p><p><img src=images/blank.png width =""800"" height = ""200""></p>","","","","","","","","","","","",""
"","681.7750000000233","sequential-stimulus-presentation","307","574481","0.0-56.0-1.5","SS1613102579384","trial","","40","800","1481.7750000000233","images/stimuli/spore_stims/complex_11_A_b.gif","images/stimuli/spore_stims/complex_15_A_d.gif","","","","","16","complex_dissimilar","images/stimuli/spore_stims/complex_15_A_d.gif","middle","","","","",""
"","null","html-keyboard-response","308","575577","0.0-56.0-0.6","SS1613102579384","","","null","","","","","<p><img src= images/blank.png width =""200"" height = ""200"" style = ""float:right""></p><p><img src=images/blank.png width =""800"" height = ""200""></p>","","","","","","","","","","","",""
"","959.1849999997066","sequential-stimulus-presentation","309","577346","0.0-56.0-1.6","SS1613102579384","trial","","40","800","1759.1849999997066","images/stimuli/spore_stims/complex_11_A_b.gif","images/stimuli/spore_stims/complex_15_A_d.gif","","","","","16","complex_dissimilar","images/stimuli/spore_stims/complex_15_A_d.gif","middle","","","","",""
"","null","html-keyboard-response","310","578424","0.0-56.0-0.7","SS1613102579384","","","null","","","","","<p><img src= images/blank.png width =""200"" height = ""200"" style = ""float:right""></p><p><img src=images/blank.png width =""800"" height = ""200""></p>","","","","","","","","","","","",""
"","838.5049999996554","sequential-stimulus-presentation","311","580073","0.0-56.0-1.7","SS1613102579384","trial","","40","800","1638.5049999996554","images/stimuli/spore_stims/complex_11_A_b.gif","images/stimuli/spore_stims/complex_15_A_d.gif","","","","","16","complex_dissimilar","images/stimuli/spore_stims/complex_11_A_b.gif","right","","","","",""
