"view_history","rt","trial_type","trial_index","time_elapsed","internal_node_id","subject","stimulus_type","trial_stimulus","key_press","minimum_viewing_duration","trial_looking_time","block_deviant","block_background","stimulus","wall_pref","location","location_percent","block_number","block_type","stimulus_displayed","position_displayed","stim_type_selected","responses","question_order","stimulus_left","stimulus_right"
"[{""page_index"":0,""viewing_time"":33056.699999993725}]","33057.21999999514","instructions","0","33059","0.0-0.0","SS1613140264425","","","","","","","","","","","","","","","","","","","",""
"[{""page_index"":0,""viewing_time"":16981.400000004214},{""page_index"":1,""viewing_time"":7599.754999995639}]","24581.36000000377","instructions","1","59641","0.0-1.0","SS1613140264425","instructions","","","","","","","","","","","","","","","","","","",""
"","8017.29499999783","sequential-stimulus-presentation","2","68464","0.0-2.0","SS1613140264425","","","40","800","8817.29499999783","null","null","","","","","","","","","","","","",""
"","3315.63499999902","sequential-stimulus-presentation","3","72582","0.0-3.0","SS1613140264425","","","40","800","4115.63499999902","null","null","","","","","","","","","","","","",""
"[{""page_index"":0,""viewing_time"":7422.904999999446}]","7423.060000000987","instructions","4","80005","0.0-4.0","SS1613140264425","instructions","","","","","","","","","","","","","","","","","","",""
"","20302.765000000363","html-keyboard-response","5","100310","0.0-5.0","SS1613140264425","instructions","","49","","","","","<video width ='960' height = '540' autoplay muted><source src='images/stimuli/wall_pref.mp4' type='video/mp4'></video>","1","left","25%","","","","","","","","",""
"","2132.2049999944284","sequential-stimulus-presentation","6","103246","0.0-6.0","SS1613140264425","pref_reveal","","40","800","2932.2049999944284","null","null","","","","","","","","","","","","",""
"[{""page_index"":0,""viewing_time"":14342.82499999972},{""page_index"":1,""viewing_time"":8679.859999996552},{""page_index"":2,""viewing_time"":2552.609999998822},{""page_index"":3,""viewing_time"":975.0050000002375}]","26550.389999996696","instructions","7","129797","0.0-7.0","SS1613140264425","instructions","","","","","","","","","","","","","","","","","","",""
"","null","html-keyboard-response","8","130861","0.0-8.0-0.0","SS1613140264425","","","null","","","","","<p><img src= images/blank.png width =""200"" height = ""200"" style = ""float:right""></p><p><img src=images/blank.png width =""800"" height = ""200""></p>","","","","","","","","","","","",""
"","1941.1699999982375","sequential-stimulus-presentation","9","133606","0.0-8.0-1.0","SS1613140264425","trial","","40","800","2741.1699999982375","images/stimuli/spore_stims/simple_16_B_d.gif","images/stimuli/spore_stims/simple_16_A_d.gif","","","","","0","simple_similar","images/stimuli/spore_stims/simple_16_A_d.gif","left","","","","",""
"","null","html-keyboard-response","10","134904","0.0-8.0-0.1","SS1613140264425","","","null","","","","","<p><img src= images/blank.png width =""200"" height = ""200"" style = ""float:right""></p><p><img src=images/blank.png width =""800"" height = ""200""></p>","","","","","","","","","","","",""
"","1842.7500000034343","sequential-stimulus-presentation","11","137550","0.0-8.0-1.1","SS1613140264425","trial","","40","800","2642.7500000034343","images/stimuli/spore_stims/simple_16_B_d.gif","images/stimuli/spore_stims/simple_16_A_d.gif","","","","","0","simple_similar","images/stimuli/spore_stims/simple_16_A_d.gif","left","","","","",""
"","null","html-keyboard-response","12","138618","0.0-8.0-0.2","SS1613140264425","","","null","","","","","<p><img src= images/blank.png width =""200"" height = ""200"" style = ""float:right""></p><p><img src=images/blank.png width =""800"" height = ""200""></p>","","","","","","","","","","","",""
"","838.5250000064843","sequential-stimulus-presentation","13","140261","0.0-8.0-1.2","SS1613140264425","trial","","40","800","1638.5250000064843","images/stimuli/spore_stims/simple_16_B_d.gif","images/stimuli/spore_stims/simple_16_A_d.gif","","","","","0","simple_similar","images/stimuli/spore_stims/simple_16_A_d.gif","left","","","","",""
"","null","html-keyboard-response","14","141495","0.0-8.0-0.3","SS1613140264425","","","null","","","","","<p><img src= images/blank.png width =""200"" height = ""200"" style = ""float:right""></p><p><img src=images/blank.png width =""800"" height = ""200""></p>","","","","","","","","","","","",""
"","260.3349999990314","sequential-stimulus-presentation","15","142558","0.0-8.0-1.3","SS1613140264425","trial","","40","800","1060.3349999990314","images/stimuli/spore_stims/simple_16_B_d.gif","images/stimuli/spore_stims/simple_16_A_d.gif","","","","","0","simple_similar","images/stimuli/spore_stims/simple_16_A_d.gif","left","","","","",""
"","null","html-keyboard-response","16","143373","0.0-8.0-0.4","SS1613140264425","","","null","","","","","<p><img src= images/blank.png width =""200"" height = ""200"" style = ""float:right""></p><p><img src=images/blank.png width =""800"" height = ""200""></p>","","","","","","","","","","","",""
"","318.8399999999092","sequential-stimulus-presentation","17","144494","0.0-8.0-1.4","SS1613140264425","trial","","40","800","1118.8399999999092","images/stimuli/spore_stims/simple_16_B_d.gif","images/stimuli/spore_stims/simple_16_A_d.gif","","","","","0","simple_similar","images/stimuli/spore_stims/simple_16_A_d.gif","left","","","","",""
"","null","html-keyboard-response","18","145427","0.0-8.0-0.5","SS1613140264425","","","null","","","","","<p><img src= images/blank.png width =""200"" height = ""200"" style = ""float:right""></p><p><img src=images/blank.png width =""800"" height = ""200""></p>","","","","","","","","","","","",""
"","360.01000000396743","sequential-stimulus-presentation","19","146589","0.0-8.0-1.5","SS1613140264425","trial","","40","800","1160.0100000039674","images/stimuli/spore_stims/simple_16_B_d.gif","images/stimuli/spore_stims/simple_16_A_d.gif","","","","","0","simple_similar","images/stimuli/spore_stims/simple_16_A_d.gif","left","","","","",""
"","null","html-keyboard-response","20","147622","0.0-8.0-0.6","SS1613140264425","","","null","","","","","<p><img src= images/blank.png width =""200"" height = ""200"" style = ""float:right""></p><p><img src=images/blank.png width =""800"" height = ""200""></p>","","","","","","","","","","","",""
"","1428.1249999985448","sequential-stimulus-presentation","21","149854","0.0-8.0-1.6","SS1613140264425","trial","","40","800","2228.124999998545","images/stimuli/spore_stims/simple_16_B_d.gif","images/stimuli/spore_stims/simple_16_A_d.gif","","","","","0","simple_similar","images/stimuli/spore_stims/simple_16_B_d.gif","middle","","","","",""
"","null","html-keyboard-response","22","150822","0.0-8.0-0.7","SS1613140264425","","","null","","","","","<p><img src= images/blank.png width =""200"" height = ""200"" style = ""float:right""></p><p><img src=images/blank.png width =""800"" height = ""200""></p>","","","","","","","","","","","",""
"","404.50500000588363","sequential-stimulus-presentation","23","152030","0.0-8.0-1.7","SS1613140264425","trial","","40","800","1204.5050000058836","images/stimuli/spore_stims/simple_16_B_d.gif","images/stimuli/spore_stims/simple_16_A_d.gif","","","","","0","simple_similar","images/stimuli/spore_stims/simple_16_A_d.gif","left","","","","",""
"","2492.3149999958696","html-keyboard-response","24","154534","0.0-9.0","SS1613140264425","pref_question","","51","","","","","<video width ='960' height = '540' style='padding-top:8%' autoplay muted><source src='images/stimuli/wall_pref.mp4' type='video/mp4'></video>","3","right","66%","0","","","","","","","",""
"","3595.6650000007357","sequential-stimulus-presentation","25","158933","0.0-10.0","SS1613140264425","pref_reveal","","40","800","4395.665000000736","null","null","","","","","0","","","","novel","","","",""
"","null","html-keyboard-response","26","160145","0.0-11.0-0.0","SS1613140264425","","","null","","","","","<p><img src= images/blank.png width =""200"" height = ""200"" style = ""float:right""></p><p><img src=images/blank.png width =""800"" height = ""200""></p>","","","","","","","","","","","",""
"","3464.834999998857","sequential-stimulus-presentation","27","164414","0.0-11.0-1.0","SS1613140264425","trial","","40","800","4264.834999998857","images/stimuli/spore_stims/complex_17_A_c.gif","images/stimuli/spore_stims/complex_17_B_c.gif","","","","","1","complex_similar","images/stimuli/spore_stims/complex_17_B_c.gif","left","","","","",""
"","null","html-keyboard-response","28","165654","0.0-11.0-0.1","SS1613140264425","","","null","","","","","<p><img src= images/blank.png width =""200"" height = ""200"" style = ""float:right""></p><p><img src=images/blank.png width =""800"" height = ""200""></p>","","","","","","","","","","","",""
"","964.7650000042631","sequential-stimulus-presentation","29","167422","0.0-11.0-1.1","SS1613140264425","trial","","40","800","1764.7650000042631","images/stimuli/spore_stims/complex_17_A_c.gif","images/stimuli/spore_stims/complex_17_B_c.gif","","","","","1","complex_similar","images/stimuli/spore_stims/complex_17_B_c.gif","left","","","","",""
"","null","html-keyboard-response","30","168667","0.0-11.0-0.2","SS1613140264425","","","null","","","","","<p><img src= images/blank.png width =""200"" height = ""200"" style = ""float:right""></p><p><img src=images/blank.png width =""800"" height = ""200""></p>","","","","","","","","","","","",""
"","359.8500000007334","sequential-stimulus-presentation","31","169830","0.0-11.0-1.2","SS1613140264425","trial","","40","800","1159.8500000007334","images/stimuli/spore_stims/complex_17_A_c.gif","images/stimuli/spore_stims/complex_17_B_c.gif","","","","","1","complex_similar","images/stimuli/spore_stims/complex_17_B_c.gif","left","","","","",""
"","null","html-keyboard-response","32","170773","0.0-11.0-0.3","SS1613140264425","","","null","","","","","<p><img src= images/blank.png width =""200"" height = ""200"" style = ""float:right""></p><p><img src=images/blank.png width =""800"" height = ""200""></p>","","","","","","","","","","","",""
"","308.96999999822583","sequential-stimulus-presentation","33","171886","0.0-11.0-1.3","SS1613140264425","trial","","40","800","1108.9699999982258","images/stimuli/spore_stims/complex_17_A_c.gif","images/stimuli/spore_stims/complex_17_B_c.gif","","","","","1","complex_similar","images/stimuli/spore_stims/complex_17_B_c.gif","left","","","","",""
"","null","html-keyboard-response","34","173007","0.0-11.0-0.4","SS1613140264425","","","null","","","","","<p><img src= images/blank.png width =""200"" height = ""200"" style = ""float:right""></p><p><img src=images/blank.png width =""800"" height = ""200""></p>","","","","","","","","","","","",""
"","1442.2900000063237","sequential-stimulus-presentation","35","175254","0.0-11.0-1.4","SS1613140264425","trial","","40","800","2242.2900000063237","images/stimuli/spore_stims/complex_17_A_c.gif","images/stimuli/spore_stims/complex_17_B_c.gif","","","","","1","complex_similar","images/stimuli/spore_stims/complex_17_A_c.gif","right","","","","",""
"","null","html-keyboard-response","36","176504","0.0-11.0-0.5","SS1613140264425","","","null","","","","","<p><img src= images/blank.png width =""200"" height = ""200"" style = ""float:right""></p><p><img src=images/blank.png width =""800"" height = ""200""></p>","","","","","","","","","","","",""
"","448.83000000118045","sequential-stimulus-presentation","37","177757","0.0-11.0-1.5","SS1613140264425","trial","","40","800","1248.8300000011805","images/stimuli/spore_stims/complex_17_A_c.gif","images/stimuli/spore_stims/complex_17_B_c.gif","","","","","1","complex_similar","images/stimuli/spore_stims/complex_17_B_c.gif","left","","","","",""
"","null","html-keyboard-response","38","178636","0.0-11.0-0.6","SS1613140264425","","","null","","","","","<p><img src= images/blank.png width =""200"" height = ""200"" style = ""float:right""></p><p><img src=images/blank.png width =""800"" height = ""200""></p>","","","","","","","","","","","",""
"","278.0050000001211","sequential-stimulus-presentation","39","179717","0.0-11.0-1.6","SS1613140264425","trial","","40","800","1078.005000000121","images/stimuli/spore_stims/complex_17_A_c.gif","images/stimuli/spore_stims/complex_17_B_c.gif","","","","","1","complex_similar","images/stimuli/spore_stims/complex_17_B_c.gif","left","","","","",""
"","null","html-keyboard-response","40","180545","0.0-11.0-0.7","SS1613140264425","","","null","","","","","<p><img src= images/blank.png width =""200"" height = ""200"" style = ""float:right""></p><p><img src=images/blank.png width =""800"" height = ""200""></p>","","","","","","","","","","","",""
"","369.010000002163","sequential-stimulus-presentation","41","181717","0.0-11.0-1.7","SS1613140264425","trial","","40","800","1169.010000002163","images/stimuli/spore_stims/complex_17_A_c.gif","images/stimuli/spore_stims/complex_17_B_c.gif","","","","","1","complex_similar","images/stimuli/spore_stims/complex_17_B_c.gif","left","","","","",""
"","1126.7250000018976","html-keyboard-response","42","182846","0.0-12.0","SS1613140264425","pref_question","","50","","","","","<video width ='960' height = '540' style='padding-top:8%' autoplay muted><source src='images/stimuli/wall_pref.mp4' type='video/mp4'></video>","2","middle","45%","1","","","","","","","",""
"","1988.3949999930337","sequential-stimulus-presentation","43","185637","0.0-13.0","SS1613140264425","pref_reveal","","40","800","2788.3949999930337","null","null","","","","","1","","","","novel","","","",""
"","null","html-keyboard-response","44","186488","0.0-14.0-0.0","SS1613140264425","","","null","","","","","<p><img src= images/blank.png width =""200"" height = ""200"" style = ""float:right""></p><p><img src=images/blank.png width =""800"" height = ""200""></p>","","","","","","","","","","","",""
"","1217.6200000030803","sequential-stimulus-presentation","45","188510","0.0-14.0-1.0","SS1613140264425","trial","","40","800","2017.6200000030803","images/stimuli/spore_stims/simple_07_A_b.gif","images/stimuli/spore_stims/simple_15_B_c.gif","","","","","2","simple_dissimilar","images/stimuli/spore_stims/simple_15_B_c.gif","middle","","","","",""
"","null","html-keyboard-response","46","189704","0.0-14.0-0.1","SS1613140264425","","","null","","","","","<p><img src= images/blank.png width =""200"" height = ""200"" style = ""float:right""></p><p><img src=images/blank.png width =""800"" height = ""200""></p>","","","","","","","","","","","",""
"","74.61499999772059","sequential-stimulus-presentation","47","190582","0.0-14.0-1.1","SS1613140264425","trial","","40","800","874.6149999977206","images/stimuli/spore_stims/simple_07_A_b.gif","images/stimuli/spore_stims/simple_15_B_c.gif","","","","","2","simple_dissimilar","images/stimuli/spore_stims/simple_15_B_c.gif","middle","","","","",""
"","null","html-keyboard-response","48","191420","0.0-14.0-0.2","SS1613140264425","","","null","","","","","<p><img src= images/blank.png width =""200"" height = ""200"" style = ""float:right""></p><p><img src=images/blank.png width =""800"" height = ""200""></p>","","","","","","","","","","","",""
"","933.854999995674","sequential-stimulus-presentation","49","193157","0.0-14.0-1.2","SS1613140264425","trial","","40","800","1733.854999995674","images/stimuli/spore_stims/simple_07_A_b.gif","images/stimuli/spore_stims/simple_15_B_c.gif","","","","","2","simple_dissimilar","images/stimuli/spore_stims/simple_07_A_b.gif","left","","","","",""
"","null","html-keyboard-response","50","194324","0.0-14.0-0.3","SS1613140264425","","","null","","","","","<p><img src= images/blank.png width =""200"" height = ""200"" style = ""float:right""></p><p><img src=images/blank.png width =""800"" height = ""200""></p>","","","","","","","","","","","",""
"","213.3899999971618","sequential-stimulus-presentation","51","195342","0.0-14.0-1.3","SS1613140264425","trial","","40","800","1013.3899999971618","images/stimuli/spore_stims/simple_07_A_b.gif","images/stimuli/spore_stims/simple_15_B_c.gif","","","","","2","simple_dissimilar","images/stimuli/spore_stims/simple_15_B_c.gif","middle","","","","",""
"","null","html-keyboard-response","52","196201","0.0-14.0-0.4","SS1613140264425","","","null","","","","","<p><img src= images/blank.png width =""200"" height = ""200"" style = ""float:right""></p><p><img src=images/blank.png width =""800"" height = ""200""></p>","","","","","","","","","","","",""
"","297.6100000014412","sequential-stimulus-presentation","53","197309","0.0-14.0-1.4","SS1613140264425","trial","","40","800","1097.6100000014412","images/stimuli/spore_stims/simple_07_A_b.gif","images/stimuli/spore_stims/simple_15_B_c.gif","","","","","2","simple_dissimilar","images/stimuli/spore_stims/simple_15_B_c.gif","middle","","","","",""
"","null","html-keyboard-response","54","198210","0.0-14.0-0.5","SS1613140264425","","","null","","","","","<p><img src= images/blank.png width =""200"" height = ""200"" style = ""float:right""></p><p><img src=images/blank.png width =""800"" height = ""200""></p>","","","","","","","","","","","",""
"","329.8899999936111","sequential-stimulus-presentation","55","199342","0.0-14.0-1.5","SS1613140264425","trial","","40","800","1129.8899999936111","images/stimuli/spore_stims/simple_07_A_b.gif","images/stimuli/spore_stims/simple_15_B_c.gif","","","","","2","simple_dissimilar","images/stimuli/spore_stims/simple_15_B_c.gif","middle","","","","",""
"","null","html-keyboard-response","56","200611","0.0-14.0-0.6","SS1613140264425","","","null","","","","","<p><img src= images/blank.png width =""200"" height = ""200"" style = ""float:right""></p><p><img src=images/blank.png width =""800"" height = ""200""></p>","","","","","","","","","","","",""
"","190.86999999854015","sequential-stimulus-presentation","57","201606","0.0-14.0-1.6","SS1613140264425","trial","","40","800","990.8699999985402","images/stimuli/spore_stims/simple_07_A_b.gif","images/stimuli/spore_stims/simple_15_B_c.gif","","","","","2","simple_dissimilar","images/stimuli/spore_stims/simple_15_B_c.gif","middle","","","","",""
"","null","html-keyboard-response","58","202457","0.0-14.0-0.7","SS1613140264425","","","null","","","","","<p><img src= images/blank.png width =""200"" height = ""200"" style = ""float:right""></p><p><img src=images/blank.png width =""800"" height = ""200""></p>","","","","","","","","","","","",""
"","167.54000000219094","sequential-stimulus-presentation","59","203437","0.0-14.0-1.7","SS1613140264425","trial","","40","800","967.5400000021909","images/stimuli/spore_stims/simple_07_A_b.gif","images/stimuli/spore_stims/simple_15_B_c.gif","","","","","2","simple_dissimilar","images/stimuli/spore_stims/simple_15_B_c.gif","middle","","","","",""
"","726.7100000026403","html-keyboard-response","60","204166","0.0-15.0","SS1613140264425","pref_question","","51","","","","","<video width ='960' height = '540' style='padding-top:8%' autoplay muted><source src='images/stimuli/wall_pref.mp4' type='video/mp4'></video>","3","right","66%","2","","","","","","","",""
"","27.709999994840473","sequential-stimulus-presentation","61","204998","0.0-16.0","SS1613140264425","pref_reveal","","40","800","827.7099999948405","null","null","","","","","2","","","","novel","","","",""
"","null","html-keyboard-response","62","206065","0.0-17.0-0.0","SS1613140264425","","","null","","","","","<p><img src= images/blank.png width =""200"" height = ""200"" style = ""float:right""></p><p><img src=images/blank.png width =""800"" height = ""200""></p>","","","","","","","","","","","",""
"","1242.4250000040047","sequential-stimulus-presentation","63","208117","0.0-17.0-1.0","SS1613140264425","trial","","40","800","2042.4250000040047","images/stimuli/spore_stims/complex_05_A_c.gif","images/stimuli/spore_stims/complex_14_B_a.gif","","","","","3","complex_dissimilar","images/stimuli/spore_stims/complex_14_B_a.gif","right","","","","",""
"","null","html-keyboard-response","64","209269","0.0-17.0-0.1","SS1613140264425","","","null","","","","","<p><img src= images/blank.png width =""200"" height = ""200"" style = ""float:right""></p><p><img src=images/blank.png width =""800"" height = ""200""></p>","","","","","","","","","","","",""
"","1028.615000002901","sequential-stimulus-presentation","65","211102","0.0-17.0-1.1","SS1613140264425","trial","","40","800","1828.615000002901","images/stimuli/spore_stims/complex_05_A_c.gif","images/stimuli/spore_stims/complex_14_B_a.gif","","","","","3","complex_dissimilar","images/stimuli/spore_stims/complex_14_B_a.gif","right","","","","",""
"","null","html-keyboard-response","66","212137","0.0-17.0-0.2","SS1613140264425","","","null","","","","","<p><img src= images/blank.png width =""200"" height = ""200"" style = ""float:right""></p><p><img src=images/blank.png width =""800"" height = ""200""></p>","","","","","","","","","","","",""
"","648.815000000468","sequential-stimulus-presentation","67","213589","0.0-17.0-1.2","SS1613140264425","trial","","40","800","1448.815000000468","images/stimuli/spore_stims/complex_05_A_c.gif","images/stimuli/spore_stims/complex_14_B_a.gif","","","","","3","complex_dissimilar","images/stimuli/spore_stims/complex_14_B_a.gif","right","","","","",""
"","null","html-keyboard-response","68","214507","0.0-17.0-0.3","SS1613140264425","","","null","","","","","<p><img src= images/blank.png width =""200"" height = ""200"" style = ""float:right""></p><p><img src=images/blank.png width =""800"" height = ""200""></p>","","","","","","","","","","","",""
"","549.7599999944214","sequential-stimulus-presentation","69","215861","0.0-17.0-1.3","SS1613140264425","trial","","40","800","1349.7599999944214","images/stimuli/spore_stims/complex_05_A_c.gif","images/stimuli/spore_stims/complex_14_B_a.gif","","","","","3","complex_dissimilar","images/stimuli/spore_stims/complex_14_B_a.gif","right","","","","",""
"","null","html-keyboard-response","70","217027","0.0-17.0-0.4","SS1613140264425","","","null","","","","","<p><img src= images/blank.png width =""200"" height = ""200"" style = ""float:right""></p><p><img src=images/blank.png width =""800"" height = ""200""></p>","","","","","","","","","","","",""
"","223.82500000094296","sequential-stimulus-presentation","71","218053","0.0-17.0-1.4","SS1613140264425","trial","","40","800","1023.825000000943","images/stimuli/spore_stims/complex_05_A_c.gif","images/stimuli/spore_stims/complex_14_B_a.gif","","","","","3","complex_dissimilar","images/stimuli/spore_stims/complex_14_B_a.gif","right","","","","",""
"","null","html-keyboard-response","72","219001","0.0-17.0-0.5","SS1613140264425","","","null","","","","","<p><img src= images/blank.png width =""200"" height = ""200"" style = ""float:right""></p><p><img src=images/blank.png width =""800"" height = ""200""></p>","","","","","","","","","","","",""
"","329.69999999477295","sequential-stimulus-presentation","73","220150","0.0-17.0-1.5","SS1613140264425","trial","","40","800","1129.699999994773","images/stimuli/spore_stims/complex_05_A_c.gif","images/stimuli/spore_stims/complex_14_B_a.gif","","","","","3","complex_dissimilar","images/stimuli/spore_stims/complex_14_B_a.gif","right","","","","",""
"","null","html-keyboard-response","74","221243","0.0-17.0-0.6","SS1613140264425","","","null","","","","","<p><img src= images/blank.png width =""200"" height = ""200"" style = ""float:right""></p><p><img src=images/blank.png width =""800"" height = ""200""></p>","","","","","","","","","","","",""
"","503.76999999571126","sequential-stimulus-presentation","75","222550","0.0-17.0-1.6","SS1613140264425","trial","","40","800","1303.7699999957113","images/stimuli/spore_stims/complex_05_A_c.gif","images/stimuli/spore_stims/complex_14_B_a.gif","","","","","3","complex_dissimilar","images/stimuli/spore_stims/complex_14_B_a.gif","right","","","","",""
"","null","html-keyboard-response","76","223722","0.0-17.0-0.7","SS1613140264425","","","null","","","","","<p><img src= images/blank.png width =""200"" height = ""200"" style = ""float:right""></p><p><img src=images/blank.png width =""800"" height = ""200""></p>","","","","","","","","","","","",""
"","1656.5249999985099","sequential-stimulus-presentation","77","226182","0.0-17.0-1.7","SS1613140264425","trial","","40","800","2456.52499999851","images/stimuli/spore_stims/complex_05_A_c.gif","images/stimuli/spore_stims/complex_14_B_a.gif","","","","","3","complex_dissimilar","images/stimuli/spore_stims/complex_05_A_c.gif","left","","","","",""
"","830.1199999987148","html-keyboard-response","78","227014","0.0-18.0","SS1613140264425","pref_question","","50","","","","","<video width ='960' height = '540' style='padding-top:8%' autoplay muted><source src='images/stimuli/wall_pref.mp4' type='video/mp4'></video>","2","middle","45%","3","","","","","","","",""
"","1753.1200000012177","sequential-stimulus-presentation","79","229582","0.0-19.0","SS1613140264425","pref_reveal","","40","800","2553.1200000012177","null","null","","","","","3","","","","novel","","","",""
"","null","html-keyboard-response","80","230569","0.0-20.0-0.0","SS1613140264425","","","null","","","","","<p><img src= images/blank.png width =""200"" height = ""200"" style = ""float:right""></p><p><img src=images/blank.png width =""800"" height = ""200""></p>","","","","","","","","","","","",""
"","1730.4050000020652","sequential-stimulus-presentation","81","233102","0.0-20.0-1.0","SS1613140264425","trial","","40","800","2530.405000002065","images/stimuli/spore_stims/complex_20_B_c.gif","images/stimuli/spore_stims/complex_16_B_d.gif","","","","","4","complex_dissimilar","images/stimuli/spore_stims/complex_16_B_d.gif","left","","","","",""
"","null","html-keyboard-response","82","234337","0.0-20.0-0.1","SS1613140264425","","","null","","","","","<p><img src= images/blank.png width =""200"" height = ""200"" style = ""float:right""></p><p><img src=images/blank.png width =""800"" height = ""200""></p>","","","","","","","","","","","",""
"","1376.989999997022","sequential-stimulus-presentation","83","236518","0.0-20.0-1.1","SS1613140264425","trial","","40","800","2176.989999997022","images/stimuli/spore_stims/complex_20_B_c.gif","images/stimuli/spore_stims/complex_16_B_d.gif","","","","","4","complex_dissimilar","images/stimuli/spore_stims/complex_16_B_d.gif","left","","","","",""
"","null","html-keyboard-response","84","237734","0.0-20.0-0.2","SS1613140264425","","","null","","","","","<p><img src= images/blank.png width =""200"" height = ""200"" style = ""float:right""></p><p><img src=images/blank.png width =""800"" height = ""200""></p>","","","","","","","","","","","",""
"","595.8499999978812","sequential-stimulus-presentation","85","239143","0.0-20.0-1.2","SS1613140264425","trial","","40","800","1395.8499999978812","images/stimuli/spore_stims/complex_20_B_c.gif","images/stimuli/spore_stims/complex_16_B_d.gif","","","","","4","complex_dissimilar","images/stimuli/spore_stims/complex_16_B_d.gif","left","","","","",""
"","null","html-keyboard-response","86","240441","0.0-20.0-0.3","SS1613140264425","","","null","","","","","<p><img src= images/blank.png width =""200"" height = ""200"" style = ""float:right""></p><p><img src=images/blank.png width =""800"" height = ""200""></p>","","","","","","","","","","","",""
"","449.42999999329913","sequential-stimulus-presentation","87","241701","0.0-20.0-1.3","SS1613140264425","trial","","40","800","1249.4299999932991","images/stimuli/spore_stims/complex_20_B_c.gif","images/stimuli/spore_stims/complex_16_B_d.gif","","","","","4","complex_dissimilar","images/stimuli/spore_stims/complex_16_B_d.gif","left","","","","",""
"","null","html-keyboard-response","88","242751","0.0-20.0-0.4","SS1613140264425","","","null","","","","","<p><img src= images/blank.png width =""200"" height = ""200"" style = ""float:right""></p><p><img src=images/blank.png width =""800"" height = ""200""></p>","","","","","","","","","","","",""
"","554.9699999974109","sequential-stimulus-presentation","89","244110","0.0-20.0-1.4","SS1613140264425","trial","","40","800","1354.969999997411","images/stimuli/spore_stims/complex_20_B_c.gif","images/stimuli/spore_stims/complex_16_B_d.gif","","","","","4","complex_dissimilar","images/stimuli/spore_stims/complex_16_B_d.gif","left","","","","",""
"","null","html-keyboard-response","90","244952","0.0-20.0-0.5","SS1613140264425","","","null","","","","","<p><img src= images/blank.png width =""200"" height = ""200"" style = ""float:right""></p><p><img src=images/blank.png width =""800"" height = ""200""></p>","","","","","","","","","","","",""
"","419.12500000034925","sequential-stimulus-presentation","91","246174","0.0-20.0-1.5","SS1613140264425","trial","","40","800","1219.1250000003492","images/stimuli/spore_stims/complex_20_B_c.gif","images/stimuli/spore_stims/complex_16_B_d.gif","","","","","4","complex_dissimilar","images/stimuli/spore_stims/complex_16_B_d.gif","left","","","","",""
"","null","html-keyboard-response","92","247093","0.0-20.0-0.6","SS1613140264425","","","null","","","","","<p><img src= images/blank.png width =""200"" height = ""200"" style = ""float:right""></p><p><img src=images/blank.png width =""800"" height = ""200""></p>","","","","","","","","","","","",""
"","444.0549999999348","sequential-stimulus-presentation","93","248341","0.0-20.0-1.6","SS1613140264425","trial","","40","800","1244.0549999999348","images/stimuli/spore_stims/complex_20_B_c.gif","images/stimuli/spore_stims/complex_16_B_d.gif","","","","","4","complex_dissimilar","images/stimuli/spore_stims/complex_16_B_d.gif","left","","","","",""
"","null","html-keyboard-response","94","249489","0.0-20.0-0.7","SS1613140264425","","","null","","","","","<p><img src= images/blank.png width =""200"" height = ""200"" style = ""float:right""></p><p><img src=images/blank.png width =""800"" height = ""200""></p>","","","","","","","","","","","",""
"","1688.4250000002794","sequential-stimulus-presentation","95","251982","0.0-20.0-1.7","SS1613140264425","trial","","40","800","2488.4250000002794","images/stimuli/spore_stims/complex_20_B_c.gif","images/stimuli/spore_stims/complex_16_B_d.gif","","","","","4","complex_dissimilar","images/stimuli/spore_stims/complex_20_B_c.gif","right","","","","",""
"","741.0050000034971","html-keyboard-response","96","252726","0.0-21.0","SS1613140264425","pref_question","","50","","","","","<video width ='960' height = '540' style='padding-top:8%' autoplay muted><source src='images/stimuli/wall_pref.mp4' type='video/mp4'></video>","2","middle","45%","4","","","","","","","",""
"","3532.744999996794","sequential-stimulus-presentation","97","257062","0.0-22.0","SS1613140264425","pref_reveal","","40","800","4332.744999996794","null","null","","","","","4","","","","novel","","","",""
"","null","html-keyboard-response","98","258168","0.0-23.0-0.0","SS1613140264425","","","null","","","","","<p><img src= images/blank.png width =""200"" height = ""200"" style = ""float:right""></p><p><img src=images/blank.png width =""800"" height = ""200""></p>","","","","","","","","","","","",""
"","418.16999999718973","sequential-stimulus-presentation","99","259390","0.0-23.0-1.0","SS1613140264425","trial","","40","800","1218.1699999971897","images/stimuli/spore_stims/simple_11_B_c.gif","images/stimuli/spore_stims/simple_11_A_c.gif","","","","","5","simple_similar","images/stimuli/spore_stims/simple_11_A_c.gif","middle","","","","",""
"","null","html-keyboard-response","100","260673","0.0-23.0-0.1","SS1613140264425","","","null","","","","","<p><img src= images/blank.png width =""200"" height = ""200"" style = ""float:right""></p><p><img src=images/blank.png width =""800"" height = ""200""></p>","","","","","","","","","","","",""
"","816.6950000013458","sequential-stimulus-presentation","101","262294","0.0-23.0-1.1","SS1613140264425","trial","","40","800","1616.6950000013458","images/stimuli/spore_stims/simple_11_B_c.gif","images/stimuli/spore_stims/simple_11_A_c.gif","","","","","5","simple_similar","images/stimuli/spore_stims/simple_11_A_c.gif","middle","","","","",""
"","null","html-keyboard-response","102","263211","0.0-23.0-0.2","SS1613140264425","","","null","","","","","<p><img src= images/blank.png width =""200"" height = ""200"" style = ""float:right""></p><p><img src=images/blank.png width =""800"" height = ""200""></p>","","","","","","","","","","","",""
"","2031.6650000022491","sequential-stimulus-presentation","103","266046","0.0-23.0-1.2","SS1613140264425","trial","","40","800","2831.665000002249","images/stimuli/spore_stims/simple_11_B_c.gif","images/stimuli/spore_stims/simple_11_A_c.gif","","","","","5","simple_similar","images/stimuli/spore_stims/simple_11_A_c.gif","middle","","","","",""
"","null","html-keyboard-response","104","267126","0.0-23.0-0.3","SS1613140264425","","","null","","","","","<p><img src= images/blank.png width =""200"" height = ""200"" style = ""float:right""></p><p><img src=images/blank.png width =""800"" height = ""200""></p>","","","","","","","","","","","",""
"","451.91999999951804","sequential-stimulus-presentation","105","268382","0.0-23.0-1.3","SS1613140264425","trial","","40","800","1251.919999999518","images/stimuli/spore_stims/simple_11_B_c.gif","images/stimuli/spore_stims/simple_11_A_c.gif","","","","","5","simple_similar","images/stimuli/spore_stims/simple_11_A_c.gif","middle","","","","",""
"","null","html-keyboard-response","106","269357","0.0-23.0-0.4","SS1613140264425","","","null","","","","","<p><img src= images/blank.png width =""200"" height = ""200"" style = ""float:right""></p><p><img src=images/blank.png width =""800"" height = ""200""></p>","","","","","","","","","","","",""
"","453.3050000027288","sequential-stimulus-presentation","107","270613","0.0-23.0-1.4","SS1613140264425","trial","","40","800","1253.3050000027288","images/stimuli/spore_stims/simple_11_B_c.gif","images/stimuli/spore_stims/simple_11_A_c.gif","","","","","5","simple_similar","images/stimuli/spore_stims/simple_11_A_c.gif","middle","","","","",""
"","null","html-keyboard-response","108","271555","0.0-23.0-0.5","SS1613140264425","","","null","","","","","<p><img src= images/blank.png width =""200"" height = ""200"" style = ""float:right""></p><p><img src=images/blank.png width =""800"" height = ""200""></p>","","","","","","","","","","","",""
"","294.78999999992084","sequential-stimulus-presentation","109","272662","0.0-23.0-1.5","SS1613140264425","trial","","40","800","1094.7899999999208","images/stimuli/spore_stims/simple_11_B_c.gif","images/stimuli/spore_stims/simple_11_A_c.gif","","","","","5","simple_similar","images/stimuli/spore_stims/simple_11_A_c.gif","middle","","","","",""
"","null","html-keyboard-response","110","273907","0.0-23.0-0.6","SS1613140264425","","","null","","","","","<p><img src= images/blank.png width =""200"" height = ""200"" style = ""float:right""></p><p><img src=images/blank.png width =""800"" height = ""200""></p>","","","","","","","","","","","",""
"","2246.624999999767","sequential-stimulus-presentation","111","276966","0.0-23.0-1.6","SS1613140264425","trial","","40","800","3046.624999999767","images/stimuli/spore_stims/simple_11_B_c.gif","images/stimuli/spore_stims/simple_11_A_c.gif","","","","","5","simple_similar","images/stimuli/spore_stims/simple_11_B_c.gif","right","","","","",""
"","null","html-keyboard-response","112","277834","0.0-23.0-0.7","SS1613140264425","","","null","","","","","<p><img src= images/blank.png width =""200"" height = ""200"" style = ""float:right""></p><p><img src=images/blank.png width =""800"" height = ""200""></p>","","","","","","","","","","","",""
"","561.1849999986589","sequential-stimulus-presentation","113","279198","0.0-23.0-1.7","SS1613140264425","trial","","40","800","1361.184999998659","images/stimuli/spore_stims/simple_11_B_c.gif","images/stimuli/spore_stims/simple_11_A_c.gif","","","","","5","simple_similar","images/stimuli/spore_stims/simple_11_A_c.gif","middle","","","","",""
"","1004.8400000014226","html-keyboard-response","114","280205","0.0-24.0","SS1613140264425","pref_question","","49","","","","","<video width ='960' height = '540' style='padding-top:8%' autoplay muted><source src='images/stimuli/wall_pref.mp4' type='video/mp4'></video>","1","left","25%","5","","","","","","","",""
"","2537.6299999988987","sequential-stimulus-presentation","115","283558","0.0-25.0","SS1613140264425","pref_reveal","","40","800","3337.6299999988987","null","null","","","","","5","","","","novel","","","",""
"","null","html-keyboard-response","116","284759","0.0-26.0-0.0","SS1613140264425","","","null","","","","","<p><img src= images/blank.png width =""200"" height = ""200"" style = ""float:right""></p><p><img src=images/blank.png width =""800"" height = ""200""></p>","","","","","","","","","","","",""
"","1234.5150000037393","sequential-stimulus-presentation","117","286798","0.0-26.0-1.0","SS1613140264425","trial","","40","800","2034.5150000037393","images/stimuli/spore_stims/complex_12_A_a.gif","images/stimuli/spore_stims/complex_17_A_c.gif","","","","","6","complex_dissimilar","images/stimuli/spore_stims/complex_17_A_c.gif","middle","","","","",""
"","null","html-keyboard-response","118","288038","0.0-26.0-0.1","SS1613140264425","","","null","","","","","<p><img src= images/blank.png width =""200"" height = ""200"" style = ""float:right""></p><p><img src=images/blank.png width =""800"" height = ""200""></p>","","","","","","","","","","","",""
"","362.1899999998277","sequential-stimulus-presentation","119","289206","0.0-26.0-1.1","SS1613140264425","trial","","40","800","1162.1899999998277","images/stimuli/spore_stims/complex_12_A_a.gif","images/stimuli/spore_stims/complex_17_A_c.gif","","","","","6","complex_dissimilar","images/stimuli/spore_stims/complex_17_A_c.gif","middle","","","","",""
"","null","html-keyboard-response","120","290349","0.0-26.0-0.2","SS1613140264425","","","null","","","","","<p><img src= images/blank.png width =""200"" height = ""200"" style = ""float:right""></p><p><img src=images/blank.png width =""800"" height = ""200""></p>","","","","","","","","","","","",""
"","476.95000000385335","sequential-stimulus-presentation","121","291629","0.0-26.0-1.2","SS1613140264425","trial","","40","800","1276.9500000038533","images/stimuli/spore_stims/complex_12_A_a.gif","images/stimuli/spore_stims/complex_17_A_c.gif","","","","","6","complex_dissimilar","images/stimuli/spore_stims/complex_17_A_c.gif","middle","","","","",""
"","null","html-keyboard-response","122","292873","0.0-26.0-0.3","SS1613140264425","","","null","","","","","<p><img src= images/blank.png width =""200"" height = ""200"" style = ""float:right""></p><p><img src=images/blank.png width =""800"" height = ""200""></p>","","","","","","","","","","","",""
"","2064.895000003162","sequential-stimulus-presentation","123","295741","0.0-26.0-1.3","SS1613140264425","trial","","40","800","2864.895000003162","images/stimuli/spore_stims/complex_12_A_a.gif","images/stimuli/spore_stims/complex_17_A_c.gif","","","","","6","complex_dissimilar","images/stimuli/spore_stims/complex_12_A_a.gif","left","","","","",""
"","null","html-keyboard-response","124","296635","0.0-26.0-0.4","SS1613140264425","","","null","","","","","<p><img src= images/blank.png width =""200"" height = ""200"" style = ""float:right""></p><p><img src=images/blank.png width =""800"" height = ""200""></p>","","","","","","","","","","","",""
"","646.4749999940977","sequential-stimulus-presentation","125","298085","0.0-26.0-1.4","SS1613140264425","trial","","40","800","1446.4749999940977","images/stimuli/spore_stims/complex_12_A_a.gif","images/stimuli/spore_stims/complex_17_A_c.gif","","","","","6","complex_dissimilar","images/stimuli/spore_stims/complex_17_A_c.gif","middle","","","","",""
"","null","html-keyboard-response","126","298916","0.0-26.0-0.5","SS1613140264425","","","null","","","","","<p><img src= images/blank.png width =""200"" height = ""200"" style = ""float:right""></p><p><img src=images/blank.png width =""800"" height = ""200""></p>","","","","","","","","","","","",""
"","332.8250000049593","sequential-stimulus-presentation","127","300053","0.0-26.0-1.5","SS1613140264425","trial","","40","800","1132.8250000049593","images/stimuli/spore_stims/complex_12_A_a.gif","images/stimuli/spore_stims/complex_17_A_c.gif","","","","","6","complex_dissimilar","images/stimuli/spore_stims/complex_17_A_c.gif","middle","","","","",""
"","null","html-keyboard-response","128","301036","0.0-26.0-0.6","SS1613140264425","","","null","","","","","<p><img src= images/blank.png width =""200"" height = ""200"" style = ""float:right""></p><p><img src=images/blank.png width =""800"" height = ""200""></p>","","","","","","","","","","","",""
"","293.7000000019907","sequential-stimulus-presentation","129","302134","0.0-26.0-1.6","SS1613140264425","trial","","40","800","1093.7000000019907","images/stimuli/spore_stims/complex_12_A_a.gif","images/stimuli/spore_stims/complex_17_A_c.gif","","","","","6","complex_dissimilar","images/stimuli/spore_stims/complex_17_A_c.gif","middle","","","","",""
"","null","html-keyboard-response","130","303386","0.0-26.0-0.7","SS1613140264425","","","null","","","","","<p><img src= images/blank.png width =""200"" height = ""200"" style = ""float:right""></p><p><img src=images/blank.png width =""800"" height = ""200""></p>","","","","","","","","","","","",""
"","151.5300000028219","sequential-stimulus-presentation","131","304342","0.0-26.0-1.7","SS1613140264425","trial","","40","800","951.5300000028219","images/stimuli/spore_stims/complex_12_A_a.gif","images/stimuli/spore_stims/complex_17_A_c.gif","","","","","6","complex_dissimilar","images/stimuli/spore_stims/complex_17_A_c.gif","middle","","","","",""
"","589.5999999993364","html-keyboard-response","132","304934","0.0-27.0","SS1613140264425","pref_question","","51","","","","","<video width ='960' height = '540' style='padding-top:8%' autoplay muted><source src='images/stimuli/wall_pref.mp4' type='video/mp4'></video>","3","right","66%","6","","","","","","","",""
"","1321.1799999990035","sequential-stimulus-presentation","133","307069","0.0-28.0","SS1613140264425","pref_reveal","","40","800","2121.1799999990035","null","null","","","","","6","","","","novel","","","",""
"","null","html-keyboard-response","134","308180","0.0-29.0-0.0","SS1613140264425","","","null","","","","","<p><img src= images/blank.png width =""200"" height = ""200"" style = ""float:right""></p><p><img src=images/blank.png width =""800"" height = ""200""></p>","","","","","","","","","","","",""
"","1340.2999999962049","sequential-stimulus-presentation","135","310325","0.0-29.0-1.0","SS1613140264425","trial","","40","800","2140.299999996205","images/stimuli/spore_stims/simple_11_B_c.gif","images/stimuli/spore_stims/simple_08_B_a.gif","","","","","7","simple_dissimilar","images/stimuli/spore_stims/simple_08_B_a.gif","left","","","","",""
"","null","html-keyboard-response","136","311477","0.0-29.0-0.1","SS1613140264425","","","null","","","","","<p><img src= images/blank.png width =""200"" height = ""200"" style = ""float:right""></p><p><img src=images/blank.png width =""800"" height = ""200""></p>","","","","","","","","","","","",""
"","227.6800000036019","sequential-stimulus-presentation","137","312509","0.0-29.0-1.1","SS1613140264425","trial","","40","800","1027.680000003602","images/stimuli/spore_stims/simple_11_B_c.gif","images/stimuli/spore_stims/simple_08_B_a.gif","","","","","7","simple_dissimilar","images/stimuli/spore_stims/simple_08_B_a.gif","left","","","","",""
"","null","html-keyboard-response","138","313356","0.0-29.0-0.2","SS1613140264425","","","null","","","","","<p><img src= images/blank.png width =""200"" height = ""200"" style = ""float:right""></p><p><img src=images/blank.png width =""800"" height = ""200""></p>","","","","","","","","","","","",""
"","251.4500000033877","sequential-stimulus-presentation","139","314413","0.0-29.0-1.2","SS1613140264425","trial","","40","800","1051.4500000033877","images/stimuli/spore_stims/simple_11_B_c.gif","images/stimuli/spore_stims/simple_08_B_a.gif","","","","","7","simple_dissimilar","images/stimuli/spore_stims/simple_08_B_a.gif","left","","","","",""
"","null","html-keyboard-response","140","315585","0.0-29.0-0.3","SS1613140264425","","","null","","","","","<p><img src= images/blank.png width =""200"" height = ""200"" style = ""float:right""></p><p><img src=images/blank.png width =""800"" height = ""200""></p>","","","","","","","","","","","",""
"","224.22999999980675","sequential-stimulus-presentation","141","316613","0.0-29.0-1.3","SS1613140264425","trial","","40","800","1024.2299999998068","images/stimuli/spore_stims/simple_11_B_c.gif","images/stimuli/spore_stims/simple_08_B_a.gif","","","","","7","simple_dissimilar","images/stimuli/spore_stims/simple_08_B_a.gif","left","","","","",""
"","null","html-keyboard-response","142","317799","0.0-29.0-0.4","SS1613140264425","","","null","","","","","<p><img src= images/blank.png width =""200"" height = ""200"" style = ""float:right""></p><p><img src=images/blank.png width =""800"" height = ""200""></p>","","","","","","","","","","","",""
"","242.93999999645166","sequential-stimulus-presentation","143","318846","0.0-29.0-1.4","SS1613140264425","trial","","40","800","1042.9399999964517","images/stimuli/spore_stims/simple_11_B_c.gif","images/stimuli/spore_stims/simple_08_B_a.gif","","","","","7","simple_dissimilar","images/stimuli/spore_stims/simple_08_B_a.gif","left","","","","",""
"","null","html-keyboard-response","144","319936","0.0-29.0-0.5","SS1613140264425","","","null","","","","","<p><img src= images/blank.png width =""200"" height = ""200"" style = ""float:right""></p><p><img src=images/blank.png width =""800"" height = ""200""></p>","","","","","","","","","","","",""
"","802.479999998468","sequential-stimulus-presentation","145","321542","0.0-29.0-1.5","SS1613140264425","trial","","40","800","1602.479999998468","images/stimuli/spore_stims/simple_11_B_c.gif","images/stimuli/spore_stims/simple_08_B_a.gif","","","","","7","simple_dissimilar","images/stimuli/spore_stims/simple_11_B_c.gif","middle","","","","",""
"","null","html-keyboard-response","146","322470","0.0-29.0-0.6","SS1613140264425","","","null","","","","","<p><img src= images/blank.png width =""200"" height = ""200"" style = ""float:right""></p><p><img src=images/blank.png width =""800"" height = ""200""></p>","","","","","","","","","","","",""
"","224.15999999793712","sequential-stimulus-presentation","147","323502","0.0-29.0-1.6","SS1613140264425","trial","","40","800","1024.1599999979371","images/stimuli/spore_stims/simple_11_B_c.gif","images/stimuli/spore_stims/simple_08_B_a.gif","","","","","7","simple_dissimilar","images/stimuli/spore_stims/simple_08_B_a.gif","left","","","","",""
"","null","html-keyboard-response","148","324763","0.0-29.0-0.7","SS1613140264425","","","null","","","","","<p><img src= images/blank.png width =""200"" height = ""200"" style = ""float:right""></p><p><img src=images/blank.png width =""800"" height = ""200""></p>","","","","","","","","","","","",""
"","46.750000001338776","sequential-stimulus-presentation","149","325613","0.0-29.0-1.7","SS1613140264425","trial","","40","800","846.7500000013388","images/stimuli/spore_stims/simple_11_B_c.gif","images/stimuli/spore_stims/simple_08_B_a.gif","","","","","7","simple_dissimilar","images/stimuli/spore_stims/simple_08_B_a.gif","left","","","","",""
"","661.0150000051362","html-keyboard-response","150","326277","0.0-30.0","SS1613140264425","pref_question","","51","","","","","<video width ='960' height = '540' style='padding-top:8%' autoplay muted><source src='images/stimuli/wall_pref.mp4' type='video/mp4'></video>","3","right","66%","7","","","","","","","",""
"","2364.3450000017765","sequential-stimulus-presentation","151","329445","0.0-31.0","SS1613140264425","pref_reveal","","40","800","3164.3450000017765","null","null","","","","","7","","","","novel","","","",""
"","null","html-keyboard-response","152","330369","0.0-32.0-0.0","SS1613140264425","","","null","","","","","<p><img src= images/blank.png width =""200"" height = ""200"" style = ""float:right""></p><p><img src=images/blank.png width =""800"" height = ""200""></p>","","","","","","","","","","","",""
"","1127.120000004652","sequential-stimulus-presentation","153","332302","0.0-32.0-1.0","SS1613140264425","trial","","40","800","1927.120000004652","images/stimuli/spore_stims/complex_18_A_d.gif","images/stimuli/spore_stims/complex_18_B_d.gif","","","","","8","complex_similar","images/stimuli/spore_stims/complex_18_B_d.gif","right","","","","",""
"","null","html-keyboard-response","154","333151","0.0-32.0-0.1","SS1613140264425","","","null","","","","","<p><img src= images/blank.png width =""200"" height = ""200"" style = ""float:right""></p><p><img src=images/blank.png width =""800"" height = ""200""></p>","","","","","","","","","","","",""
"","351.86999999859836","sequential-stimulus-presentation","155","334309","0.0-32.0-1.1","SS1613140264425","trial","","40","800","1151.8699999985984","images/stimuli/spore_stims/complex_18_A_d.gif","images/stimuli/spore_stims/complex_18_B_d.gif","","","","","8","complex_similar","images/stimuli/spore_stims/complex_18_B_d.gif","right","","","","",""
"","null","html-keyboard-response","156","335284","0.0-32.0-0.2","SS1613140264425","","","null","","","","","<p><img src= images/blank.png width =""200"" height = ""200"" style = ""float:right""></p><p><img src=images/blank.png width =""800"" height = ""200""></p>","","","","","","","","","","","",""
"","485.63000000285683","sequential-stimulus-presentation","157","336574","0.0-32.0-1.2","SS1613140264425","trial","","40","800","1285.6300000028568","images/stimuli/spore_stims/complex_18_A_d.gif","images/stimuli/spore_stims/complex_18_B_d.gif","","","","","8","complex_similar","images/stimuli/spore_stims/complex_18_B_d.gif","right","","","","",""
"","null","html-keyboard-response","158","337741","0.0-32.0-0.3","SS1613140264425","","","null","","","","","<p><img src= images/blank.png width =""200"" height = ""200"" style = ""float:right""></p><p><img src=images/blank.png width =""800"" height = ""200""></p>","","","","","","","","","","","",""
"","627.1750000014435","sequential-stimulus-presentation","159","339173","0.0-32.0-1.3","SS1613140264425","trial","","40","800","1427.1750000014435","images/stimuli/spore_stims/complex_18_A_d.gif","images/stimuli/spore_stims/complex_18_B_d.gif","","","","","8","complex_similar","images/stimuli/spore_stims/complex_18_A_d.gif","middle","","","","",""
"","null","html-keyboard-response","160","340120","0.0-32.0-0.4","SS1613140264425","","","null","","","","","<p><img src= images/blank.png width =""200"" height = ""200"" style = ""float:right""></p><p><img src=images/blank.png width =""800"" height = ""200""></p>","","","","","","","","","","","",""
"","336.2199999974109","sequential-stimulus-presentation","161","341270","0.0-32.0-1.4","SS1613140264425","trial","","40","800","1136.219999997411","images/stimuli/spore_stims/complex_18_A_d.gif","images/stimuli/spore_stims/complex_18_B_d.gif","","","","","8","complex_similar","images/stimuli/spore_stims/complex_18_B_d.gif","right","","","","",""
"","null","html-keyboard-response","162","342160","0.0-32.0-0.5","SS1613140264425","","","null","","","","","<p><img src= images/blank.png width =""200"" height = ""200"" style = ""float:right""></p><p><img src=images/blank.png width =""800"" height = ""200""></p>","","","","","","","","","","","",""
"","208.60499999980675","sequential-stimulus-presentation","163","343173","0.0-32.0-1.5","SS1613140264425","trial","","40","800","1008.6049999998068","images/stimuli/spore_stims/complex_18_A_d.gif","images/stimuli/spore_stims/complex_18_B_d.gif","","","","","8","complex_similar","images/stimuli/spore_stims/complex_18_B_d.gif","right","","","","",""
"","null","html-keyboard-response","164","344173","0.0-32.0-0.6","SS1613140264425","","","null","","","","","<p><img src= images/blank.png width =""200"" height = ""200"" style = ""float:right""></p><p><img src=images/blank.png width =""800"" height = ""200""></p>","","","","","","","","","","","",""
"","267.63000000210013","sequential-stimulus-presentation","165","345245","0.0-32.0-1.6","SS1613140264425","trial","","40","800","1067.6300000021001","images/stimuli/spore_stims/complex_18_A_d.gif","images/stimuli/spore_stims/complex_18_B_d.gif","","","","","8","complex_similar","images/stimuli/spore_stims/complex_18_B_d.gif","right","","","","",""
"","null","html-keyboard-response","166","346080","0.0-32.0-0.7","SS1613140264425","","","null","","","","","<p><img src= images/blank.png width =""200"" height = ""200"" style = ""float:right""></p><p><img src=images/blank.png width =""800"" height = ""200""></p>","","","","","","","","","","","",""
"","306.0800000021118","sequential-stimulus-presentation","167","347189","0.0-32.0-1.7","SS1613140264425","trial","","40","800","1106.0800000021118","images/stimuli/spore_stims/complex_18_A_d.gif","images/stimuli/spore_stims/complex_18_B_d.gif","","","","","8","complex_similar","images/stimuli/spore_stims/complex_18_B_d.gif","right","","","","",""
"","669.5400000025984","html-keyboard-response","168","347862","0.0-33.0","SS1613140264425","pref_question","","49","","","","","<video width ='960' height = '540' style='padding-top:8%' autoplay muted><source src='images/stimuli/wall_pref.mp4' type='video/mp4'></video>","1","left","25%","8","","","","","","","",""
"","2930.93499999668","sequential-stimulus-presentation","169","351596","0.0-34.0","SS1613140264425","pref_reveal","","40","800","3730.93499999668","null","null","","","","","8","","","","novel","","","",""
"","null","html-keyboard-response","170","352876","0.0-35.0-0.0","SS1613140264425","","","null","","","","","<p><img src= images/blank.png width =""200"" height = ""200"" style = ""float:right""></p><p><img src=images/blank.png width =""800"" height = ""200""></p>","","","","","","","","","","","",""
"","1845.4149999961373","sequential-stimulus-presentation","171","355525","0.0-35.0-1.0","SS1613140264425","trial","","40","800","2645.4149999961373","images/stimuli/spore_stims/simple_12_B_b.gif","images/stimuli/spore_stims/simple_09_A_d.gif","","","","","9","simple_dissimilar","images/stimuli/spore_stims/simple_09_A_d.gif","left","","","","",""
"","null","html-keyboard-response","172","356746","0.0-35.0-0.1","SS1613140264425","","","null","","","","","<p><img src= images/blank.png width =""200"" height = ""200"" style = ""float:right""></p><p><img src=images/blank.png width =""800"" height = ""200""></p>","","","","","","","","","","","",""
"","2030.415000001085","sequential-stimulus-presentation","173","359581","0.0-35.0-1.1","SS1613140264425","trial","","40","800","2830.415000001085","images/stimuli/spore_stims/simple_12_B_b.gif","images/stimuli/spore_stims/simple_09_A_d.gif","","","","","9","simple_dissimilar","images/stimuli/spore_stims/simple_09_A_d.gif","left","","","","",""
"","null","html-keyboard-response","174","360802","0.0-35.0-0.2","SS1613140264425","","","null","","","","","<p><img src= images/blank.png width =""200"" height = ""200"" style = ""float:right""></p><p><img src=images/blank.png width =""800"" height = ""200""></p>","","","","","","","","","","","",""
"","166.43499999918276","sequential-stimulus-presentation","175","361773","0.0-35.0-1.2","SS1613140264425","trial","","40","800","966.4349999991828","images/stimuli/spore_stims/simple_12_B_b.gif","images/stimuli/spore_stims/simple_09_A_d.gif","","","","","9","simple_dissimilar","images/stimuli/spore_stims/simple_09_A_d.gif","left","","","","",""
"","null","html-keyboard-response","176","362952","0.0-35.0-0.3","SS1613140264425","","","null","","","","","<p><img src= images/blank.png width =""200"" height = ""200"" style = ""float:right""></p><p><img src=images/blank.png width =""800"" height = ""200""></p>","","","","","","","","","","","",""
"","295.734999999695","sequential-stimulus-presentation","177","364054","0.0-35.0-1.3","SS1613140264425","trial","","40","800","1095.734999999695","images/stimuli/spore_stims/simple_12_B_b.gif","images/stimuli/spore_stims/simple_09_A_d.gif","","","","","9","simple_dissimilar","images/stimuli/spore_stims/simple_09_A_d.gif","left","","","","",""
"","null","html-keyboard-response","178","364896","0.0-35.0-0.4","SS1613140264425","","","null","","","","","<p><img src= images/blank.png width =""200"" height = ""200"" style = ""float:right""></p><p><img src=images/blank.png width =""800"" height = ""200""></p>","","","","","","","","","","","",""
"","1079.474999998638","sequential-stimulus-presentation","179","366781","0.0-35.0-1.4","SS1613140264425","trial","","40","800","1879.474999998638","images/stimuli/spore_stims/simple_12_B_b.gif","images/stimuli/spore_stims/simple_09_A_d.gif","","","","","9","simple_dissimilar","images/stimuli/spore_stims/simple_12_B_b.gif","middle","","","","",""
"","null","html-keyboard-response","180","367693","0.0-35.0-0.5","SS1613140264425","","","null","","","","","<p><img src= images/blank.png width =""200"" height = ""200"" style = ""float:right""></p><p><img src=images/blank.png width =""800"" height = ""200""></p>","","","","","","","","","","","",""
"","203.3400000000256","sequential-stimulus-presentation","181","368701","0.0-35.0-1.5","SS1613140264425","trial","","40","800","1003.3400000000256","images/stimuli/spore_stims/simple_12_B_b.gif","images/stimuli/spore_stims/simple_09_A_d.gif","","","","","9","simple_dissimilar","images/stimuli/spore_stims/simple_09_A_d.gif","left","","","","",""
"","null","html-keyboard-response","182","369825","0.0-35.0-0.6","SS1613140264425","","","null","","","","","<p><img src= images/blank.png width =""200"" height = ""200"" style = ""float:right""></p><p><img src=images/blank.png width =""800"" height = ""200""></p>","","","","","","","","","","","",""
"","96.67500000068685","sequential-stimulus-presentation","183","370725","0.0-35.0-1.6","SS1613140264425","trial","","40","800","896.6750000006869","images/stimuli/spore_stims/simple_12_B_b.gif","images/stimuli/spore_stims/simple_09_A_d.gif","","","","","9","simple_dissimilar","images/stimuli/spore_stims/simple_09_A_d.gif","left","","","","",""
"","null","html-keyboard-response","184","371870","0.0-35.0-0.7","SS1613140264425","","","null","","","","","<p><img src= images/blank.png width =""200"" height = ""200"" style = ""float:right""></p><p><img src=images/blank.png width =""800"" height = ""200""></p>","","","","","","","","","","","",""
"","234.62000000290573","sequential-stimulus-presentation","185","372909","0.0-35.0-1.7","SS1613140264425","trial","","40","800","1034.6200000029057","images/stimuli/spore_stims/simple_12_B_b.gif","images/stimuli/spore_stims/simple_09_A_d.gif","","","","","9","simple_dissimilar","images/stimuli/spore_stims/simple_09_A_d.gif","left","","","","",""
"","677.4650000006659","html-keyboard-response","186","373589","0.0-36.0","SS1613140264425","pref_question","","51","","","","","<video width ='960' height = '540' style='padding-top:8%' autoplay muted><source src='images/stimuli/wall_pref.mp4' type='video/mp4'></video>","3","right","66%","9","","","","","","","",""
"","5211.215000002994","sequential-stimulus-presentation","187","379605","0.0-37.0","SS1613140264425","pref_reveal","","40","800","6011.215000002994","null","null","","","","","9","","","","novel","","","",""
"","null","html-keyboard-response","188","380853","0.0-38.0-0.0","SS1613140264425","","","null","","","","","<p><img src= images/blank.png width =""200"" height = ""200"" style = ""float:right""></p><p><img src=images/blank.png width =""800"" height = ""200""></p>","","","","","","","","","","","",""
"","2169.7500000009313","sequential-stimulus-presentation","189","383829","0.0-38.0-1.0","SS1613140264425","trial","","40","800","2969.7500000009313","images/stimuli/spore_stims/complex_01_B_b.gif","images/stimuli/spore_stims/complex_11_A_c.gif","","","","","10","complex_dissimilar","images/stimuli/spore_stims/complex_11_A_c.gif","right","","","","",""
"","null","html-keyboard-response","190","385122","0.0-38.0-0.1","SS1613140264425","","","null","","","","","<p><img src= images/blank.png width =""200"" height = ""200"" style = ""float:right""></p><p><img src=images/blank.png width =""800"" height = ""200""></p>","","","","","","","","","","","",""
"","245.8699999988312","sequential-stimulus-presentation","191","386173","0.0-38.0-1.1","SS1613140264425","trial","","40","800","1045.8699999988312","images/stimuli/spore_stims/complex_01_B_b.gif","images/stimuli/spore_stims/complex_11_A_c.gif","","","","","10","complex_dissimilar","images/stimuli/spore_stims/complex_11_A_c.gif","right","","","","",""
"","null","html-keyboard-response","192","387466","0.0-38.0-0.2","SS1613140264425","","","null","","","","","<p><img src= images/blank.png width =""200"" height = ""200"" style = ""float:right""></p><p><img src=images/blank.png width =""800"" height = ""200""></p>","","","","","","","","","","","",""
"","279.7000000064145","sequential-stimulus-presentation","193","388549","0.0-38.0-1.2","SS1613140264425","trial","","40","800","1079.7000000064145","images/stimuli/spore_stims/complex_01_B_b.gif","images/stimuli/spore_stims/complex_11_A_c.gif","","","","","10","complex_dissimilar","images/stimuli/spore_stims/complex_11_A_c.gif","right","","","","",""
"","null","html-keyboard-response","194","389793","0.0-38.0-0.3","SS1613140264425","","","null","","","","","<p><img src= images/blank.png width =""200"" height = ""200"" style = ""float:right""></p><p><img src=images/blank.png width =""800"" height = ""200""></p>","","","","","","","","","","","",""
"","199.31500000529923","sequential-stimulus-presentation","195","390797","0.0-38.0-1.3","SS1613140264425","trial","","40","800","999.3150000052992","images/stimuli/spore_stims/complex_01_B_b.gif","images/stimuli/spore_stims/complex_11_A_c.gif","","","","","10","complex_dissimilar","images/stimuli/spore_stims/complex_11_A_c.gif","right","","","","",""
"","null","html-keyboard-response","196","391741","0.0-38.0-0.4","SS1613140264425","","","null","","","","","<p><img src= images/blank.png width =""200"" height = ""200"" style = ""float:right""></p><p><img src=images/blank.png width =""800"" height = ""200""></p>","","","","","","","","","","","",""
"","201.9799999980023","sequential-stimulus-presentation","197","392749","0.0-38.0-1.4","SS1613140264425","trial","","40","800","1001.9799999980023","images/stimuli/spore_stims/complex_01_B_b.gif","images/stimuli/spore_stims/complex_11_A_c.gif","","","","","10","complex_dissimilar","images/stimuli/spore_stims/complex_11_A_c.gif","right","","","","",""
"","null","html-keyboard-response","198","393933","0.0-38.0-0.5","SS1613140264425","","","null","","","","","<p><img src= images/blank.png width =""200"" height = ""200"" style = ""float:right""></p><p><img src=images/blank.png width =""800"" height = ""200""></p>","","","","","","","","","","","",""
"","1123.4499999991385","sequential-stimulus-presentation","199","395861","0.0-38.0-1.5","SS1613140264425","trial","","40","800","1923.4499999991385","images/stimuli/spore_stims/complex_01_B_b.gif","images/stimuli/spore_stims/complex_11_A_c.gif","","","","","10","complex_dissimilar","images/stimuli/spore_stims/complex_01_B_b.gif","left","","","","",""
"","null","html-keyboard-response","200","396707","0.0-38.0-0.6","SS1613140264425","","","null","","","","","<p><img src= images/blank.png width =""200"" height = ""200"" style = ""float:right""></p><p><img src=images/blank.png width =""800"" height = ""200""></p>","","","","","","","","","","","",""
"","348.74999999738066","sequential-stimulus-presentation","201","397861","0.0-38.0-1.6","SS1613140264425","trial","","40","800","1148.7499999973807","images/stimuli/spore_stims/complex_01_B_b.gif","images/stimuli/spore_stims/complex_11_A_c.gif","","","","","10","complex_dissimilar","images/stimuli/spore_stims/complex_11_A_c.gif","right","","","","",""
"","null","html-keyboard-response","202","399064","0.0-38.0-0.7","SS1613140264425","","","null","","","","","<p><img src= images/blank.png width =""200"" height = ""200"" style = ""float:right""></p><p><img src=images/blank.png width =""800"" height = ""200""></p>","","","","","","","","","","","",""
"","150.42999999423046","sequential-stimulus-presentation","203","400022","0.0-38.0-1.7","SS1613140264425","trial","","40","800","950.4299999942305","images/stimuli/spore_stims/complex_01_B_b.gif","images/stimuli/spore_stims/complex_11_A_c.gif","","","","","10","complex_dissimilar","images/stimuli/spore_stims/complex_11_A_c.gif","right","","","","",""
"","761.5200000000186","html-keyboard-response","204","400797","0.0-39.0","SS1613140264425","pref_question","","50","","","","","<video width ='960' height = '540' style='padding-top:8%' autoplay muted><source src='images/stimuli/wall_pref.mp4' type='video/mp4'></video>","2","middle","45%","10","","","","","","","",""
"","1756.7249999992782","sequential-stimulus-presentation","205","403358","0.0-40.0","SS1613140264425","pref_reveal","","40","800","2556.724999999278","null","null","","","","","10","","","","novel","","","",""
"","null","html-keyboard-response","206","404512","0.0-41.0-0.0","SS1613140264425","","","null","","","","","<p><img src= images/blank.png width =""200"" height = ""200"" style = ""float:right""></p><p><img src=images/blank.png width =""800"" height = ""200""></p>","","","","","","","","","","","",""
"","1070.9050000004936","sequential-stimulus-presentation","207","406389","0.0-41.0-1.0","SS1613140264425","trial","","40","800","1870.9050000004936","images/stimuli/spore_stims/simple_17_A_b.gif","images/stimuli/spore_stims/simple_17_B_b.gif","","","","","11","simple_similar","images/stimuli/spore_stims/simple_17_B_b.gif","left","","","","",""
"","null","html-keyboard-response","208","407553","0.0-41.0-0.1","SS1613140264425","","","null","","","","","<p><img src= images/blank.png width =""200"" height = ""200"" style = ""float:right""></p><p><img src=images/blank.png width =""800"" height = ""200""></p>","","","","","","","","","","","",""
"","360.0099999966915","sequential-stimulus-presentation","209","408718","0.0-41.0-1.1","SS1613140264425","trial","","40","800","1160.0099999966915","images/stimuli/spore_stims/simple_17_A_b.gif","images/stimuli/spore_stims/simple_17_B_b.gif","","","","","11","simple_similar","images/stimuli/spore_stims/simple_17_B_b.gif","left","","","","",""
"","null","html-keyboard-response","210","410001","0.0-41.0-0.2","SS1613140264425","","","null","","","","","<p><img src= images/blank.png width =""200"" height = ""200"" style = ""float:right""></p><p><img src=images/blank.png width =""800"" height = ""200""></p>","","","","","","","","","","","",""
"","351.69499999756226","sequential-stimulus-presentation","211","411157","0.0-41.0-1.2","SS1613140264425","trial","","40","800","1151.6949999975623","images/stimuli/spore_stims/simple_17_A_b.gif","images/stimuli/spore_stims/simple_17_B_b.gif","","","","","11","simple_similar","images/stimuli/spore_stims/simple_17_A_b.gif","middle","","","","",""
"","null","html-keyboard-response","212","412335","0.0-41.0-0.3","SS1613140264425","","","null","","","","","<p><img src= images/blank.png width =""200"" height = ""200"" style = ""float:right""></p><p><img src=images/blank.png width =""800"" height = ""200""></p>","","","","","","","","","","","",""
"","538.4350000022096","sequential-stimulus-presentation","213","413677","0.0-41.0-1.3","SS1613140264425","trial","","40","800","1338.4350000022096","images/stimuli/spore_stims/simple_17_A_b.gif","images/stimuli/spore_stims/simple_17_B_b.gif","","","","","11","simple_similar","images/stimuli/spore_stims/simple_17_B_b.gif","left","","","","",""
"","null","html-keyboard-response","214","414706","0.0-41.0-0.4","SS1613140264425","","","null","","","","","<p><img src= images/blank.png width =""200"" height = ""200"" style = ""float:right""></p><p><img src=images/blank.png width =""800"" height = ""200""></p>","","","","","","","","","","","",""
"","326.46000000386266","sequential-stimulus-presentation","215","415837","0.0-41.0-1.4","SS1613140264425","trial","","40","800","1126.4600000038627","images/stimuli/spore_stims/simple_17_A_b.gif","images/stimuli/spore_stims/simple_17_B_b.gif","","","","","11","simple_similar","images/stimuli/spore_stims/simple_17_B_b.gif","left","","","","",""
"","null","html-keyboard-response","216","417019","0.0-41.0-0.5","SS1613140264425","","","null","","","","","<p><img src= images/blank.png width =""200"" height = ""200"" style = ""float:right""></p><p><img src=images/blank.png width =""800"" height = ""200""></p>","","","","","","","","","","","",""
"","228.7399999986519","sequential-stimulus-presentation","217","418053","0.0-41.0-1.5","SS1613140264425","trial","","40","800","1028.739999998652","images/stimuli/spore_stims/simple_17_A_b.gif","images/stimuli/spore_stims/simple_17_B_b.gif","","","","","11","simple_similar","images/stimuli/spore_stims/simple_17_B_b.gif","left","","","","",""
"","null","html-keyboard-response","218","419301","0.0-41.0-0.6","SS1613140264425","","","null","","","","","<p><img src= images/blank.png width =""200"" height = ""200"" style = ""float:right""></p><p><img src=images/blank.png width =""800"" height = ""200""></p>","","","","","","","","","","","",""
"","219.32000000379048","sequential-stimulus-presentation","219","420325","0.0-41.0-1.6","SS1613140264425","trial","","40","800","1019.3200000037905","images/stimuli/spore_stims/simple_17_A_b.gif","images/stimuli/spore_stims/simple_17_B_b.gif","","","","","11","simple_similar","images/stimuli/spore_stims/simple_17_B_b.gif","left","","","","",""
"","null","html-keyboard-response","220","421145","0.0-41.0-0.7","SS1613140264425","","","null","","","","","<p><img src= images/blank.png width =""200"" height = ""200"" style = ""float:right""></p><p><img src=images/blank.png width =""800"" height = ""200""></p>","","","","","","","","","","","",""
"","422.9399999967427","sequential-stimulus-presentation","221","422374","0.0-41.0-1.7","SS1613140264425","trial","","40","800","1222.9399999967427","images/stimuli/spore_stims/simple_17_A_b.gif","images/stimuli/spore_stims/simple_17_B_b.gif","","","","","11","simple_similar","images/stimuli/spore_stims/simple_17_B_b.gif","left","","","","",""
"","1357.1549999978743","html-keyboard-response","222","423734","0.0-42.0","SS1613140264425","pref_question","","51","","","","","<video width ='960' height = '540' style='padding-top:8%' autoplay muted><source src='images/stimuli/wall_pref.mp4' type='video/mp4'></video>","3","right","66%","11","","","","","","","",""
"","1769.735000001674","sequential-stimulus-presentation","223","426310","0.0-43.0","SS1613140264425","pref_reveal","","40","800","2569.735000001674","null","null","","","","","11","","","","novel","","","",""
"","null","html-keyboard-response","224","427313","0.0-44.0-0.0","SS1613140264425","","","null","","","","","<p><img src= images/blank.png width =""200"" height = ""200"" style = ""float:right""></p><p><img src=images/blank.png width =""800"" height = ""200""></p>","","","","","","","","","","","",""
"","2007.659999995667","sequential-stimulus-presentation","225","430125","0.0-44.0-1.0","SS1613140264425","trial","","40","800","2807.659999995667","images/stimuli/spore_stims/simple_10_A_b.gif","images/stimuli/spore_stims/simple_10_B_b.gif","","","","","12","simple_similar","images/stimuli/spore_stims/simple_10_B_b.gif","middle","","","","",""
"","null","html-keyboard-response","226","431386","0.0-44.0-0.1","SS1613140264425","","","null","","","","","<p><img src= images/blank.png width =""200"" height = ""200"" style = ""float:right""></p><p><img src=images/blank.png width =""800"" height = ""200""></p>","","","","","","","","","","","",""
"","265.47999999456806","sequential-stimulus-presentation","227","432469","0.0-44.0-1.1","SS1613140264425","trial","","40","800","1065.479999994568","images/stimuli/spore_stims/simple_10_A_b.gif","images/stimuli/spore_stims/simple_10_B_b.gif","","","","","12","simple_similar","images/stimuli/spore_stims/simple_10_B_b.gif","middle","","","","",""
"","null","html-keyboard-response","228","433536","0.0-44.0-0.2","SS1613140264425","","","null","","","","","<p><img src= images/blank.png width =""200"" height = ""200"" style = ""float:right""></p><p><img src=images/blank.png width =""800"" height = ""200""></p>","","","","","","","","","","","",""
"","488.7700000035693","sequential-stimulus-presentation","229","434829","0.0-44.0-1.2","SS1613140264425","trial","","40","800","1288.7700000035693","images/stimuli/spore_stims/simple_10_A_b.gif","images/stimuli/spore_stims/simple_10_B_b.gif","","","","","12","simple_similar","images/stimuli/spore_stims/simple_10_B_b.gif","middle","","","","",""
"","null","html-keyboard-response","230","435957","0.0-44.0-0.3","SS1613140264425","","","null","","","","","<p><img src= images/blank.png width =""200"" height = ""200"" style = ""float:right""></p><p><img src=images/blank.png width =""800"" height = ""200""></p>","","","","","","","","","","","",""
"","219.09999999479624","sequential-stimulus-presentation","231","436981","0.0-44.0-1.3","SS1613140264425","trial","","40","800","1019.0999999947962","images/stimuli/spore_stims/simple_10_A_b.gif","images/stimuli/spore_stims/simple_10_B_b.gif","","","","","12","simple_similar","images/stimuli/spore_stims/simple_10_B_b.gif","middle","","","","",""
"","null","html-keyboard-response","232","437976","0.0-44.0-0.4","SS1613140264425","","","null","","","","","<p><img src= images/blank.png width =""200"" height = ""200"" style = ""float:right""></p><p><img src=images/blank.png width =""800"" height = ""200""></p>","","","","","","","","","","","",""
"","441.4450000040233","sequential-stimulus-presentation","233","439223","0.0-44.0-1.4","SS1613140264425","trial","","40","800","1241.4450000040233","images/stimuli/spore_stims/simple_10_A_b.gif","images/stimuli/spore_stims/simple_10_B_b.gif","","","","","12","simple_similar","images/stimuli/spore_stims/simple_10_B_b.gif","middle","","","","",""
"","null","html-keyboard-response","234","440482","0.0-44.0-0.5","SS1613140264425","","","null","","","","","<p><img src= images/blank.png width =""200"" height = ""200"" style = ""float:right""></p><p><img src=images/blank.png width =""800"" height = ""200""></p>","","","","","","","","","","","",""
"","604.299999999057","sequential-stimulus-presentation","235","441902","0.0-44.0-1.5","SS1613140264425","trial","","40","800","1404.299999999057","images/stimuli/spore_stims/simple_10_A_b.gif","images/stimuli/spore_stims/simple_10_B_b.gif","","","","","12","simple_similar","images/stimuli/spore_stims/simple_10_B_b.gif","middle","","","","",""
"","null","html-keyboard-response","236","442988","0.0-44.0-0.6","SS1613140264425","","","null","","","","","<p><img src= images/blank.png width =""200"" height = ""200"" style = ""float:right""></p><p><img src=images/blank.png width =""800"" height = ""200""></p>","","","","","","","","","","","",""
"","605.7100000034552","sequential-stimulus-presentation","237","444406","0.0-44.0-1.6","SS1613140264425","trial","","40","800","1405.7100000034552","images/stimuli/spore_stims/simple_10_A_b.gif","images/stimuli/spore_stims/simple_10_B_b.gif","","","","","12","simple_similar","images/stimuli/spore_stims/simple_10_B_b.gif","middle","","","","",""
"","null","html-keyboard-response","238","445409","0.0-44.0-0.7","SS1613140264425","","","null","","","","","<p><img src= images/blank.png width =""200"" height = ""200"" style = ""float:right""></p><p><img src=images/blank.png width =""800"" height = ""200""></p>","","","","","","","","","","","",""
"","766.3200000024517","sequential-stimulus-presentation","239","446990","0.0-44.0-1.7","SS1613140264425","trial","","40","800","1566.3200000024517","images/stimuli/spore_stims/simple_10_A_b.gif","images/stimuli/spore_stims/simple_10_B_b.gif","","","","","12","simple_similar","images/stimuli/spore_stims/simple_10_A_b.gif","left","","","","",""
"","988.0700000067009","html-keyboard-response","240","447981","0.0-45.0","SS1613140264425","pref_question","","51","","","","","<video width ='960' height = '540' style='padding-top:8%' autoplay muted><source src='images/stimuli/wall_pref.mp4' type='video/mp4'></video>","3","right","66%","12","","","","","","","",""
"","2113.3649999974295","sequential-stimulus-presentation","241","450909","0.0-46.0","SS1613140264425","pref_reveal","","40","800","2913.3649999974295","null","null","","","","","12","","","","novel","","","",""
"","null","html-keyboard-response","242","451833","0.0-47.0-0.0","SS1613140264425","","","null","","","","","<p><img src= images/blank.png width =""200"" height = ""200"" style = ""float:right""></p><p><img src=images/blank.png width =""800"" height = ""200""></p>","","","","","","","","","","","",""
"","1256.280000001425","sequential-stimulus-presentation","243","453894","0.0-47.0-1.0","SS1613140264425","trial","","40","800","2056.280000001425","images/stimuli/spore_stims/simple_18_B_a.gif","images/stimuli/spore_stims/simple_20_B_a.gif","","","","","13","simple_dissimilar","images/stimuli/spore_stims/simple_20_B_a.gif","middle","","","","",""
"","null","html-keyboard-response","244","454854","0.0-47.0-0.1","SS1613140264425","","","null","","","","","<p><img src= images/blank.png width =""200"" height = ""200"" style = ""float:right""></p><p><img src=images/blank.png width =""800"" height = ""200""></p>","","","","","","","","","","","",""
"","626.8250000066473","sequential-stimulus-presentation","245","456285","0.0-47.0-1.1","SS1613140264425","trial","","40","800","1426.8250000066473","images/stimuli/spore_stims/simple_18_B_a.gif","images/stimuli/spore_stims/simple_20_B_a.gif","","","","","13","simple_dissimilar","images/stimuli/spore_stims/simple_20_B_a.gif","middle","","","","",""
"","null","html-keyboard-response","246","457461","0.0-47.0-0.2","SS1613140264425","","","null","","","","","<p><img src= images/blank.png width =""200"" height = ""200"" style = ""float:right""></p><p><img src=images/blank.png width =""800"" height = ""200""></p>","","","","","","","","","","","",""
"","4747.745000000577","sequential-stimulus-presentation","247","463013","0.0-47.0-1.2","SS1613140264425","trial","","40","800","5547.745000000577","images/stimuli/spore_stims/simple_18_B_a.gif","images/stimuli/spore_stims/simple_20_B_a.gif","","","","","13","simple_dissimilar","images/stimuli/spore_stims/simple_20_B_a.gif","middle","","","","",""
"","null","html-keyboard-response","248","464011","0.0-47.0-0.3","SS1613140264425","","","null","","","","","<p><img src= images/blank.png width =""200"" height = ""200"" style = ""float:right""></p><p><img src=images/blank.png width =""800"" height = ""200""></p>","","","","","","","","","","","",""
"","516.8499999999767","sequential-stimulus-presentation","249","465333","0.0-47.0-1.3","SS1613140264425","trial","","40","800","1316.8499999999767","images/stimuli/spore_stims/simple_18_B_a.gif","images/stimuli/spore_stims/simple_20_B_a.gif","","","","","13","simple_dissimilar","images/stimuli/spore_stims/simple_20_B_a.gif","middle","","","","",""
"","null","html-keyboard-response","250","466148","0.0-47.0-0.4","SS1613140264425","","","null","","","","","<p><img src= images/blank.png width =""200"" height = ""200"" style = ""float:right""></p><p><img src=images/blank.png width =""800"" height = ""200""></p>","","","","","","","","","","","",""
"","257.5899999937974","sequential-stimulus-presentation","251","467221","0.0-47.0-1.4","SS1613140264425","trial","","40","800","1057.5899999937974","images/stimuli/spore_stims/simple_18_B_a.gif","images/stimuli/spore_stims/simple_20_B_a.gif","","","","","13","simple_dissimilar","images/stimuli/spore_stims/simple_20_B_a.gif","middle","","","","",""
"","null","html-keyboard-response","252","468481","0.0-47.0-0.5","SS1613140264425","","","null","","","","","<p><img src= images/blank.png width =""200"" height = ""200"" style = ""float:right""></p><p><img src=images/blank.png width =""800"" height = ""200""></p>","","","","","","","","","","","",""
"","894.0000000002328","sequential-stimulus-presentation","253","470181","0.0-47.0-1.5","SS1613140264425","trial","","40","800","1694.0000000002328","images/stimuli/spore_stims/simple_18_B_a.gif","images/stimuli/spore_stims/simple_20_B_a.gif","","","","","13","simple_dissimilar","images/stimuli/spore_stims/simple_18_B_a.gif","left","","","","",""
"","null","html-keyboard-response","254","471208","0.0-47.0-0.6","SS1613140264425","","","null","","","","","<p><img src= images/blank.png width =""200"" height = ""200"" style = ""float:right""></p><p><img src=images/blank.png width =""800"" height = ""200""></p>","","","","","","","","","","","",""
"","336.56499999779044","sequential-stimulus-presentation","255","472349","0.0-47.0-1.6","SS1613140264425","trial","","40","800","1136.5649999977904","images/stimuli/spore_stims/simple_18_B_a.gif","images/stimuli/spore_stims/simple_20_B_a.gif","","","","","13","simple_dissimilar","images/stimuli/spore_stims/simple_20_B_a.gif","middle","","","","",""
"","null","html-keyboard-response","256","473613","0.0-47.0-0.7","SS1613140264425","","","null","","","","","<p><img src= images/blank.png width =""200"" height = ""200"" style = ""float:right""></p><p><img src=images/blank.png width =""800"" height = ""200""></p>","","","","","","","","","","","",""
"","402.3400000005495","sequential-stimulus-presentation","257","474821","0.0-47.0-1.7","SS1613140264425","trial","","40","800","1202.3400000005495","images/stimuli/spore_stims/simple_18_B_a.gif","images/stimuli/spore_stims/simple_20_B_a.gif","","","","","13","simple_dissimilar","images/stimuli/spore_stims/simple_20_B_a.gif","middle","","","","",""
"","644.6300000025076","html-keyboard-response","258","475469","0.0-48.0","SS1613140264425","pref_question","","51","","","","","<video width ='960' height = '540' style='padding-top:8%' autoplay muted><source src='images/stimuli/wall_pref.mp4' type='video/mp4'></video>","3","right","66%","13","","","","","","","",""
"","2201.6099999964354","sequential-stimulus-presentation","259","478484","0.0-49.0","SS1613140264425","pref_reveal","","40","800","3001.6099999964354","null","null","","","","","13","","","","novel","","","",""
"","null","html-keyboard-response","260","479600","0.0-50.0-0.0","SS1613140264425","","","null","","","","","<p><img src= images/blank.png width =""200"" height = ""200"" style = ""float:right""></p><p><img src=images/blank.png width =""800"" height = ""200""></p>","","","","","","","","","","","",""
"","700.250000001688","sequential-stimulus-presentation","261","481108","0.0-50.0-1.0","SS1613140264425","trial","","40","800","1500.250000001688","images/stimuli/spore_stims/complex_02_A_c.gif","images/stimuli/spore_stims/complex_02_B_c.gif","","","","","14","complex_similar","images/stimuli/spore_stims/complex_02_B_c.gif","right","","","","",""
"","null","html-keyboard-response","262","482368","0.0-50.0-0.1","SS1613140264425","","","null","","","","","<p><img src= images/blank.png width =""200"" height = ""200"" style = ""float:right""></p><p><img src=images/blank.png width =""800"" height = ""200""></p>","","","","","","","","","","","",""
"","502.4550000016461","sequential-stimulus-presentation","263","483676","0.0-50.0-1.1","SS1613140264425","trial","","40","800","1302.455000001646","images/stimuli/spore_stims/complex_02_A_c.gif","images/stimuli/spore_stims/complex_02_B_c.gif","","","","","14","complex_similar","images/stimuli/spore_stims/complex_02_B_c.gif","right","","","","",""
"","null","html-keyboard-response","264","484962","0.0-50.0-0.2","SS1613140264425","","","null","","","","","<p><img src= images/blank.png width =""200"" height = ""200"" style = ""float:right""></p><p><img src=images/blank.png width =""800"" height = ""200""></p>","","","","","","","","","","","",""
"","270.30500000546454","sequential-stimulus-presentation","265","486036","0.0-50.0-1.2","SS1613140264425","trial","","40","800","1070.3050000054645","images/stimuli/spore_stims/complex_02_A_c.gif","images/stimuli/spore_stims/complex_02_B_c.gif","","","","","14","complex_similar","images/stimuli/spore_stims/complex_02_B_c.gif","right","","","","",""
"","null","html-keyboard-response","266","487006","0.0-50.0-0.3","SS1613140264425","","","null","","","","","<p><img src= images/blank.png width =""200"" height = ""200"" style = ""float:right""></p><p><img src=images/blank.png width =""800"" height = ""200""></p>","","","","","","","","","","","",""
"","361.11499999969965","sequential-stimulus-presentation","267","488172","0.0-50.0-1.3","SS1613140264425","trial","","40","800","1161.1149999996996","images/stimuli/spore_stims/complex_02_A_c.gif","images/stimuli/spore_stims/complex_02_B_c.gif","","","","","14","complex_similar","images/stimuli/spore_stims/complex_02_B_c.gif","right","","","","",""
"","null","html-keyboard-response","268","489379","0.0-50.0-0.4","SS1613140264425","","","null","","","","","<p><img src= images/blank.png width =""200"" height = ""200"" style = ""float:right""></p><p><img src=images/blank.png width =""800"" height = ""200""></p>","","","","","","","","","","","",""
"","196.62000000244007","sequential-stimulus-presentation","269","490381","0.0-50.0-1.4","SS1613140264425","trial","","40","800","996.6200000024401","images/stimuli/spore_stims/complex_02_A_c.gif","images/stimuli/spore_stims/complex_02_B_c.gif","","","","","14","complex_similar","images/stimuli/spore_stims/complex_02_B_c.gif","right","","","","",""
"","null","html-keyboard-response","270","491675","0.0-50.0-0.5","SS1613140264425","","","null","","","","","<p><img src= images/blank.png width =""200"" height = ""200"" style = ""float:right""></p><p><img src=images/blank.png width =""800"" height = ""200""></p>","","","","","","","","","","","",""
"","877.1949999936623","sequential-stimulus-presentation","271","493357","0.0-50.0-1.5","SS1613140264425","trial","","40","800","1677.1949999936623","images/stimuli/spore_stims/complex_02_A_c.gif","images/stimuli/spore_stims/complex_02_B_c.gif","","","","","14","complex_similar","images/stimuli/spore_stims/complex_02_A_c.gif","left","","","","",""
"","null","html-keyboard-response","272","494475","0.0-50.0-0.6","SS1613140264425","","","null","","","","","<p><img src= images/blank.png width =""200"" height = ""200"" style = ""float:right""></p><p><img src=images/blank.png width =""800"" height = ""200""></p>","","","","","","","","","","","",""
"","203.20499999797903","sequential-stimulus-presentation","273","495485","0.0-50.0-1.6","SS1613140264425","trial","","40","800","1003.204999997979","images/stimuli/spore_stims/complex_02_A_c.gif","images/stimuli/spore_stims/complex_02_B_c.gif","","","","","14","complex_similar","images/stimuli/spore_stims/complex_02_B_c.gif","right","","","","",""
"","null","html-keyboard-response","274","496529","0.0-50.0-0.7","SS1613140264425","","","null","","","","","<p><img src= images/blank.png width =""200"" height = ""200"" style = ""float:right""></p><p><img src=images/blank.png width =""800"" height = ""200""></p>","","","","","","","","","","","",""
"","351.6650000019581","sequential-stimulus-presentation","275","497684","0.0-50.0-1.7","SS1613140264425","trial","","40","800","1151.665000001958","images/stimuli/spore_stims/complex_02_A_c.gif","images/stimuli/spore_stims/complex_02_B_c.gif","","","","","14","complex_similar","images/stimuli/spore_stims/complex_02_B_c.gif","right","","","","",""
"","571.6249999968568","html-keyboard-response","276","498260","0.0-51.0","SS1613140264425","pref_question","","50","","","","","<video width ='960' height = '540' style='padding-top:8%' autoplay muted><source src='images/stimuli/wall_pref.mp4' type='video/mp4'></video>","2","middle","45%","14","","","","","","","",""
"","2070.8900000026915","sequential-stimulus-presentation","277","501149","0.0-52.0","SS1613140264425","pref_reveal","","40","800","2870.8900000026915","null","null","","","","","14","","","","novel","","","",""
"","null","html-keyboard-response","278","502156","0.0-53.0-0.0","SS1613140264425","","","null","","","","","<p><img src= images/blank.png width =""200"" height = ""200"" style = ""float:right""></p><p><img src=images/blank.png width =""800"" height = ""200""></p>","","","","","","","","","","","",""
"","1195.6800000043586","sequential-stimulus-presentation","279","504157","0.0-53.0-1.0","SS1613140264425","trial","","40","800","1995.6800000043586","images/stimuli/spore_stims/complex_10_A_c.gif","images/stimuli/spore_stims/complex_12_B_b.gif","","","","","15","complex_dissimilar","images/stimuli/spore_stims/complex_12_B_b.gif","middle","","","","",""
"","null","html-keyboard-response","280","505239","0.0-53.0-0.1","SS1613140264425","","","null","","","","","<p><img src= images/blank.png width =""200"" height = ""200"" style = ""float:right""></p><p><img src=images/blank.png width =""800"" height = ""200""></p>","","","","","","","","","","","",""
"","337.59500000439584","sequential-stimulus-presentation","281","506380","0.0-53.0-1.1","SS1613140264425","trial","","40","800","1137.5950000043958","images/stimuli/spore_stims/complex_10_A_c.gif","images/stimuli/spore_stims/complex_12_B_b.gif","","","","","15","complex_dissimilar","images/stimuli/spore_stims/complex_12_B_b.gif","middle","","","","",""
"","null","html-keyboard-response","282","507380","0.0-53.0-0.2","SS1613140264425","","","null","","","","","<p><img src= images/blank.png width =""200"" height = ""200"" style = ""float:right""></p><p><img src=images/blank.png width =""800"" height = ""200""></p>","","","","","","","","","","","",""
"","340.90999999898486","sequential-stimulus-presentation","283","508541","0.0-53.0-1.2","SS1613140264425","trial","","40","800","1140.9099999989849","images/stimuli/spore_stims/complex_10_A_c.gif","images/stimuli/spore_stims/complex_12_B_b.gif","","","","","15","complex_dissimilar","images/stimuli/spore_stims/complex_12_B_b.gif","middle","","","","",""
"","null","html-keyboard-response","284","509465","0.0-53.0-0.3","SS1613140264425","","","null","","","","","<p><img src= images/blank.png width =""200"" height = ""200"" style = ""float:right""></p><p><img src=images/blank.png width =""800"" height = ""200""></p>","","","","","","","","","","","",""
"","294.56000000203494","sequential-stimulus-presentation","285","510565","0.0-53.0-1.3","SS1613140264425","trial","","40","800","1094.560000002035","images/stimuli/spore_stims/complex_10_A_c.gif","images/stimuli/spore_stims/complex_12_B_b.gif","","","","","15","complex_dissimilar","images/stimuli/spore_stims/complex_12_B_b.gif","middle","","","","",""
"","null","html-keyboard-response","286","511606","0.0-53.0-0.4","SS1613140264425","","","null","","","","","<p><img src= images/blank.png width =""200"" height = ""200"" style = ""float:right""></p><p><img src=images/blank.png width =""800"" height = ""200""></p>","","","","","","","","","","","",""
"","967.3149999943562","sequential-stimulus-presentation","287","513381","0.0-53.0-1.4","SS1613140264425","trial","","40","800","1767.3149999943562","images/stimuli/spore_stims/complex_10_A_c.gif","images/stimuli/spore_stims/complex_12_B_b.gif","","","","","15","complex_dissimilar","images/stimuli/spore_stims/complex_10_A_c.gif","left","","","","",""
"","null","html-keyboard-response","288","514523","0.0-53.0-0.5","SS1613140264425","","","null","","","","","<p><img src= images/blank.png width =""200"" height = ""200"" style = ""float:right""></p><p><img src=images/blank.png width =""800"" height = ""200""></p>","","","","","","","","","","","",""
"","181.67499999981374","sequential-stimulus-presentation","289","515509","0.0-53.0-1.5","SS1613140264425","trial","","40","800","981.6749999998137","images/stimuli/spore_stims/complex_10_A_c.gif","images/stimuli/spore_stims/complex_12_B_b.gif","","","","","15","complex_dissimilar","images/stimuli/spore_stims/complex_12_B_b.gif","middle","","","","",""
"","null","html-keyboard-response","290","516638","0.0-53.0-0.6","SS1613140264425","","","null","","","","","<p><img src= images/blank.png width =""200"" height = ""200"" style = ""float:right""></p><p><img src=images/blank.png width =""800"" height = ""200""></p>","","","","","","","","","","","",""
"","600.7899999967776","sequential-stimulus-presentation","291","518045","0.0-53.0-1.6","SS1613140264425","trial","","40","800","1400.7899999967776","images/stimuli/spore_stims/complex_10_A_c.gif","images/stimuli/spore_stims/complex_12_B_b.gif","","","","","15","complex_dissimilar","images/stimuli/spore_stims/complex_12_B_b.gif","middle","","","","",""
"","null","html-keyboard-response","292","519170","0.0-53.0-0.7","SS1613140264425","","","null","","","","","<p><img src= images/blank.png width =""200"" height = ""200"" style = ""float:right""></p><p><img src=images/blank.png width =""800"" height = ""200""></p>","","","","","","","","","","","",""
"","127.0749999966938","sequential-stimulus-presentation","293","520101","0.0-53.0-1.7","SS1613140264425","trial","","40","800","927.0749999966938","images/stimuli/spore_stims/complex_10_A_c.gif","images/stimuli/spore_stims/complex_12_B_b.gif","","","","","15","complex_dissimilar","images/stimuli/spore_stims/complex_12_B_b.gif","middle","","","","",""
"","538.0000000004657","html-keyboard-response","294","520644","0.0-54.0","SS1613140264425","pref_question","","51","","","","","<video width ='960' height = '540' style='padding-top:8%' autoplay muted><source src='images/stimuli/wall_pref.mp4' type='video/mp4'></video>","3","right","66%","15","","","","","","","",""
"","1563.4050000008428","sequential-stimulus-presentation","295","523013","0.0-55.0","SS1613140264425","pref_reveal","","40","800","2363.405000000843","null","null","","","","","15","","","","novel","","","",""
"","null","html-keyboard-response","296","523887","0.0-56.0-0.0","SS1613140264425","","","null","","","","","<p><img src= images/blank.png width =""200"" height = ""200"" style = ""float:right""></p><p><img src=images/blank.png width =""800"" height = ""200""></p>","","","","","","","","","","","",""
"","79.54500000062399","sequential-stimulus-presentation","297","524781","0.0-56.0-1.0","SS1613140264425","trial","","40","800","879.545000000624","images/stimuli/spore_stims/complex_13_B_d.gif","images/stimuli/spore_stims/complex_13_A_d.gif","","","","","16","complex_similar","images/stimuli/spore_stims/complex_13_A_d.gif","right","","","","",""
"","null","html-keyboard-response","298","525947","0.0-56.0-0.1","SS1613140264425","","","null","","","","","<p><img src= images/blank.png width =""200"" height = ""200"" style = ""float:right""></p><p><img src=images/blank.png width =""800"" height = ""200""></p>","","","","","","","","","","","",""
"","462.1800000022631","sequential-stimulus-presentation","299","527229","0.0-56.0-1.1","SS1613140264425","trial","","40","800","1262.1800000022631","images/stimuli/spore_stims/complex_13_B_d.gif","images/stimuli/spore_stims/complex_13_A_d.gif","","","","","16","complex_similar","images/stimuli/spore_stims/complex_13_A_d.gif","right","","","","",""
"","null","html-keyboard-response","300","528513","0.0-56.0-0.2","SS1613140264425","","","null","","","","","<p><img src= images/blank.png width =""200"" height = ""200"" style = ""float:right""></p><p><img src=images/blank.png width =""800"" height = ""200""></p>","","","","","","","","","","","",""
"","477.8000000005122","sequential-stimulus-presentation","301","529796","0.0-56.0-1.2","SS1613140264425","trial","","40","800","1277.8000000005122","images/stimuli/spore_stims/complex_13_B_d.gif","images/stimuli/spore_stims/complex_13_A_d.gif","","","","","16","complex_similar","images/stimuli/spore_stims/complex_13_A_d.gif","right","","","","",""
"","null","html-keyboard-response","302","530990","0.0-56.0-0.3","SS1613140264425","","","null","","","","","<p><img src= images/blank.png width =""200"" height = ""200"" style = ""float:right""></p><p><img src=images/blank.png width =""800"" height = ""200""></p>","","","","","","","","","","","",""
"","305.9450000000652","sequential-stimulus-presentation","303","532101","0.0-56.0-1.3","SS1613140264425","trial","","40","800","1105.9450000000652","images/stimuli/spore_stims/complex_13_B_d.gif","images/stimuli/spore_stims/complex_13_A_d.gif","","","","","16","complex_similar","images/stimuli/spore_stims/complex_13_A_d.gif","right","","","","",""
"","null","html-keyboard-response","304","533364","0.0-56.0-0.4","SS1613140264425","","","null","","","","","<p><img src= images/blank.png width =""200"" height = ""200"" style = ""float:right""></p><p><img src=images/blank.png width =""800"" height = ""200""></p>","","","","","","","","","","","",""
"","457.53500000131316","sequential-stimulus-presentation","305","534629","0.0-56.0-1.4","SS1613140264425","trial","","40","800","1257.5350000013132","images/stimuli/spore_stims/complex_13_B_d.gif","images/stimuli/spore_stims/complex_13_A_d.gif","","","","","16","complex_similar","images/stimuli/spore_stims/complex_13_B_d.gif","left","","","","",""
"","null","html-keyboard-response","306","535587","0.0-56.0-0.5","SS1613140264425","","","null","","","","","<p><img src= images/blank.png width =""200"" height = ""200"" style = ""float:right""></p><p><img src=images/blank.png width =""800"" height = ""200""></p>","","","","","","","","","","","",""
"","372.8099999935366","sequential-stimulus-presentation","307","536764","0.0-56.0-1.5","SS1613140264425","trial","","40","800","1172.8099999935366","images/stimuli/spore_stims/complex_13_B_d.gif","images/stimuli/spore_stims/complex_13_A_d.gif","","","","","16","complex_similar","images/stimuli/spore_stims/complex_13_A_d.gif","right","","","","",""
"","null","html-keyboard-response","308","537976","0.0-56.0-0.6","SS1613140264425","","","null","","","","","<p><img src= images/blank.png width =""200"" height = ""200"" style = ""float:right""></p><p><img src=images/blank.png width =""800"" height = ""200""></p>","","","","","","","","","","","",""
"","248.13000000000466","sequential-stimulus-presentation","309","539029","0.0-56.0-1.6","SS1613140264425","trial","","40","800","1048.1300000000047","images/stimuli/spore_stims/complex_13_B_d.gif","images/stimuli/spore_stims/complex_13_A_d.gif","","","","","16","complex_similar","images/stimuli/spore_stims/complex_13_A_d.gif","right","","","","",""
"","null","html-keyboard-response","310","540302","0.0-56.0-0.7","SS1613140264425","","","null","","","","","<p><img src= images/blank.png width =""200"" height = ""200"" style = ""float:right""></p><p><img src=images/blank.png width =""800"" height = ""200""></p>","","","","","","","","","","","",""
"","257.2550000040792","sequential-stimulus-presentation","311","541364","0.0-56.0-1.7","SS1613140264425","trial","","40","800","1057.2550000040792","images/stimuli/spore_stims/complex_13_B_d.gif","images/stimuli/spore_stims/complex_13_A_d.gif","","","","","16","complex_similar","images/stimuli/spore_stims/complex_13_A_d.gif","right","","","","",""
"","692.4500000022817","html-keyboard-response","312","542060","0.0-57.0","SS1613140264425","pref_question","","50","","","","","<video width ='960' height = '540' style='padding-top:8%' autoplay muted><source src='images/stimuli/wall_pref.mp4' type='video/mp4'></video>","2","middle","45%","16","","","","","","","",""
