"view_history","rt","trial_type","trial_index","time_elapsed","internal_node_id","subject","stimulus_type","trial_stimulus","key_press","minimum_viewing_duration","trial_looking_time","block_deviant","block_background","stimulus","wall_pref","location","location_percent","block_number","block_type","stimulus_displayed","position_displayed","stim_type_selected","responses","question_order","stimulus_left","stimulus_right"
"[{""page_index"":0,""viewing_time"":7793.084999999337}]","7793.334999999388","instructions","0","7795","0.0-0.0","SS1613141601490","","","","","","","","","","","","","","","","","","","",""
"[{""page_index"":0,""viewing_time"":31188.3399999997},{""page_index"":1,""viewing_time"":6552.095000000008}]","37740.60499999996","instructions","1","47538","0.0-1.0","SS1613141601490","instructions","","","","","","","","","","","","","","","","","","",""
"","6947.715000000244","sequential-stimulus-presentation","2","55291","0.0-2.0","SS1613141601490","","","40","800","7747.715000000244","null","null","","","","","","","","","","","","",""
"","4178.42000000018","sequential-stimulus-presentation","3","60274","0.0-3.0","SS1613141601490","","","40","800","4978.42000000018","null","null","","","","","","","","","","","","",""
"[{""page_index"":0,""viewing_time"":6223.544999999838}]","6223.709999999293","instructions","4","66498","0.0-4.0","SS1613141601490","instructions","","","","","","","","","","","","","","","","","","",""
"","8773.960000000443","html-keyboard-response","5","75274","0.0-5.0","SS1613141601490","instructions","","50","","","","","<video width ='960' height = '540' autoplay muted><source src='images/stimuli/wall_pref.mp4' type='video/mp4'></video>","2","middle","45%","","","","","","","","",""
"","1275.8949999997712","sequential-stimulus-presentation","6","77354","0.0-6.0","SS1613141601490","pref_reveal","","40","800","2075.8949999997712","null","null","","","","","","","","","","","","",""
"[{""page_index"":0,""viewing_time"":9839.10500000001},{""page_index"":1,""viewing_time"":5239.870000000345},{""page_index"":2,""viewing_time"":1271.7999999995227},{""page_index"":3,""viewing_time"":904.3400000000547}]","17255.285000000178","instructions","7","94610","0.0-7.0","SS1613141601490","instructions","","","","","","","","","","","","","","","","","","",""
"","null","html-keyboard-response","8","95840","0.0-8.0-0.0","SS1613141601490","","","null","","","","","<p><img src= images/blank.png width =""200"" height = ""200"" style = ""float:right""></p><p><img src=images/blank.png width =""800"" height = ""200""></p>","","","","","","","","","","","",""
"","2504.974999999831","sequential-stimulus-presentation","9","99155","0.0-8.0-1.0","SS1613141601490","trial","","40","800","3304.974999999831","images/stimuli/spore_stims/simple_14_A_b.gif","images/stimuli/spore_stims/simple_16_A_c.gif","","","","","0","simple_dissimilar","images/stimuli/spore_stims/simple_16_A_c.gif","right","","","","",""
"","null","html-keyboard-response","10","100302","0.0-8.0-0.1","SS1613141601490","","","null","","","","","<p><img src= images/blank.png width =""200"" height = ""200"" style = ""float:right""></p><p><img src=images/blank.png width =""800"" height = ""200""></p>","","","","","","","","","","","",""
"","1346.8749999992724","sequential-stimulus-presentation","11","102455","0.0-8.0-1.1","SS1613141601490","trial","","40","800","2146.8749999992724","images/stimuli/spore_stims/simple_14_A_b.gif","images/stimuli/spore_stims/simple_16_A_c.gif","","","","","0","simple_dissimilar","images/stimuli/spore_stims/simple_16_A_c.gif","right","","","","",""
"","null","html-keyboard-response","12","103372","0.0-8.0-0.2","SS1613141601490","","","null","","","","","<p><img src= images/blank.png width =""200"" height = ""200"" style = ""float:right""></p><p><img src=images/blank.png width =""800"" height = ""200""></p>","","","","","","","","","","","",""
"","789.8500000001077","sequential-stimulus-presentation","13","104965","0.0-8.0-1.2","SS1613141601490","trial","","40","800","1589.8500000001077","images/stimuli/spore_stims/simple_14_A_b.gif","images/stimuli/spore_stims/simple_16_A_c.gif","","","","","0","simple_dissimilar","images/stimuli/spore_stims/simple_16_A_c.gif","right","","","","",""
"","null","html-keyboard-response","14","106188","0.0-8.0-0.3","SS1613141601490","","","null","","","","","<p><img src= images/blank.png width =""200"" height = ""200"" style = ""float:right""></p><p><img src=images/blank.png width =""800"" height = ""200""></p>","","","","","","","","","","","",""
"","478.32500000004075","sequential-stimulus-presentation","15","107474","0.0-8.0-1.3","SS1613141601490","trial","","40","800","1278.3250000000407","images/stimuli/spore_stims/simple_14_A_b.gif","images/stimuli/spore_stims/simple_16_A_c.gif","","","","","0","simple_dissimilar","images/stimuli/spore_stims/simple_16_A_c.gif","right","","","","",""
"","null","html-keyboard-response","16","108386","0.0-8.0-0.4","SS1613141601490","","","null","","","","","<p><img src= images/blank.png width =""200"" height = ""200"" style = ""float:right""></p><p><img src=images/blank.png width =""800"" height = ""200""></p>","","","","","","","","","","","",""
"","2766.169999999882","sequential-stimulus-presentation","17","111954","0.0-8.0-1.4","SS1613141601490","trial","","40","800","3566.169999999882","images/stimuli/spore_stims/simple_14_A_b.gif","images/stimuli/spore_stims/simple_16_A_c.gif","","","","","0","simple_dissimilar","images/stimuli/spore_stims/simple_16_A_c.gif","right","","","","",""
"","null","html-keyboard-response","18","112999","0.0-8.0-0.5","SS1613141601490","","","null","","","","","<p><img src= images/blank.png width =""200"" height = ""200"" style = ""float:right""></p><p><img src=images/blank.png width =""800"" height = ""200""></p>","","","","","","","","","","","",""
"","4606.819999999978","sequential-stimulus-presentation","19","118411","0.0-8.0-1.5","SS1613141601490","trial","","40","800","5406.819999999978","images/stimuli/spore_stims/simple_14_A_b.gif","images/stimuli/spore_stims/simple_16_A_c.gif","","","","","0","simple_dissimilar","images/stimuli/spore_stims/simple_14_A_b.gif","middle","","","","",""
"","null","html-keyboard-response","20","119298","0.0-8.0-0.6","SS1613141601490","","","null","","","","","<p><img src= images/blank.png width =""200"" height = ""200"" style = ""float:right""></p><p><img src=images/blank.png width =""800"" height = ""200""></p>","","","","","","","","","","","",""
"","499.01999999929103","sequential-stimulus-presentation","21","120605","0.0-8.0-1.6","SS1613141601490","trial","","40","800","1299.019999999291","images/stimuli/spore_stims/simple_14_A_b.gif","images/stimuli/spore_stims/simple_16_A_c.gif","","","","","0","simple_dissimilar","images/stimuli/spore_stims/simple_16_A_c.gif","right","","","","",""
"","null","html-keyboard-response","22","121675","0.0-8.0-0.7","SS1613141601490","","","null","","","","","<p><img src= images/blank.png width =""200"" height = ""200"" style = ""float:right""></p><p><img src=images/blank.png width =""800"" height = ""200""></p>","","","","","","","","","","","",""
"","432.25999999960186","sequential-stimulus-presentation","23","122914","0.0-8.0-1.7","SS1613141601490","trial","","40","800","1232.2599999996019","images/stimuli/spore_stims/simple_14_A_b.gif","images/stimuli/spore_stims/simple_16_A_c.gif","","","","","0","simple_dissimilar","images/stimuli/spore_stims/simple_16_A_c.gif","right","","","","",""
"","1984.655000000188","html-keyboard-response","24","124902","0.0-9.0","SS1613141601490","pref_question","","49","","","","","<video width ='960' height = '540' style='padding-top:8%' autoplay muted><source src='images/stimuli/wall_pref.mp4' type='video/mp4'></video>","1","left","25%","0","","","","","","","",""
"","3924.2400000002817","sequential-stimulus-presentation","25","129636","0.0-10.0","SS1613141601490","pref_reveal","","40","800","4724.240000000282","null","null","","","","","0","","","","novel","","","",""
"","null","html-keyboard-response","26","130544","0.0-11.0-0.0","SS1613141601490","","","null","","","","","<p><img src= images/blank.png width =""200"" height = ""200"" style = ""float:right""></p><p><img src=images/blank.png width =""800"" height = ""200""></p>","","","","","","","","","","","",""
"","3069.2500000004657","sequential-stimulus-presentation","27","134431","0.0-11.0-1.0","SS1613141601490","trial","","40","800","3869.2500000004657","images/stimuli/spore_stims/simple_20_B_c.gif","images/stimuli/spore_stims/simple_08_B_c.gif","","","","","1","simple_dissimilar","images/stimuli/spore_stims/simple_08_B_c.gif","middle","","","","",""
"","null","html-keyboard-response","28","135268","0.0-11.0-0.1","SS1613141601490","","","null","","","","","<p><img src= images/blank.png width =""200"" height = ""200"" style = ""float:right""></p><p><img src=images/blank.png width =""800"" height = ""200""></p>","","","","","","","","","","","",""
"","989.4799999992829","sequential-stimulus-presentation","29","137066","0.0-11.0-1.1","SS1613141601490","trial","","40","800","1789.4799999992829","images/stimuli/spore_stims/simple_20_B_c.gif","images/stimuli/spore_stims/simple_08_B_c.gif","","","","","1","simple_dissimilar","images/stimuli/spore_stims/simple_08_B_c.gif","middle","","","","",""
"","null","html-keyboard-response","30","138307","0.0-11.0-0.2","SS1613141601490","","","null","","","","","<p><img src= images/blank.png width =""200"" height = ""200"" style = ""float:right""></p><p><img src=images/blank.png width =""800"" height = ""200""></p>","","","","","","","","","","","",""
"","1162.5050000002375","sequential-stimulus-presentation","31","140275","0.0-11.0-1.2","SS1613141601490","trial","","40","800","1962.5050000002375","images/stimuli/spore_stims/simple_20_B_c.gif","images/stimuli/spore_stims/simple_08_B_c.gif","","","","","1","simple_dissimilar","images/stimuli/spore_stims/simple_08_B_c.gif","middle","","","","",""
"","null","html-keyboard-response","32","141475","0.0-11.0-0.3","SS1613141601490","","","null","","","","","<p><img src= images/blank.png width =""200"" height = ""200"" style = ""float:right""></p><p><img src=images/blank.png width =""800"" height = ""200""></p>","","","","","","","","","","","",""
"","2782.280000000377","sequential-stimulus-presentation","33","145061","0.0-11.0-1.3","SS1613141601490","trial","","40","800","3582.280000000377","images/stimuli/spore_stims/simple_20_B_c.gif","images/stimuli/spore_stims/simple_08_B_c.gif","","","","","1","simple_dissimilar","images/stimuli/spore_stims/simple_20_B_c.gif","right","","","","",""
"","null","html-keyboard-response","34","146234","0.0-11.0-0.4","SS1613141601490","","","null","","","","","<p><img src= images/blank.png width =""200"" height = ""200"" style = ""float:right""></p><p><img src=images/blank.png width =""800"" height = ""200""></p>","","","","","","","","","","","",""
"","845.0300000004354","sequential-stimulus-presentation","35","147883","0.0-11.0-1.4","SS1613141601490","trial","","40","800","1645.0300000004354","images/stimuli/spore_stims/simple_20_B_c.gif","images/stimuli/spore_stims/simple_08_B_c.gif","","","","","1","simple_dissimilar","images/stimuli/spore_stims/simple_08_B_c.gif","middle","","","","",""
"","null","html-keyboard-response","36","149021","0.0-11.0-0.5","SS1613141601490","","","null","","","","","<p><img src= images/blank.png width =""200"" height = ""200"" style = ""float:right""></p><p><img src=images/blank.png width =""800"" height = ""200""></p>","","","","","","","","","","","",""
"","576.5199999996112","sequential-stimulus-presentation","37","150405","0.0-11.0-1.5","SS1613141601490","trial","","40","800","1376.5199999996112","images/stimuli/spore_stims/simple_20_B_c.gif","images/stimuli/spore_stims/simple_08_B_c.gif","","","","","1","simple_dissimilar","images/stimuli/spore_stims/simple_08_B_c.gif","middle","","","","",""
"","null","html-keyboard-response","38","151474","0.0-11.0-0.6","SS1613141601490","","","null","","","","","<p><img src= images/blank.png width =""200"" height = ""200"" style = ""float:right""></p><p><img src=images/blank.png width =""800"" height = ""200""></p>","","","","","","","","","","","",""
"","495.2249999996566","sequential-stimulus-presentation","39","152784","0.0-11.0-1.6","SS1613141601490","trial","","40","800","1295.2249999996566","images/stimuli/spore_stims/simple_20_B_c.gif","images/stimuli/spore_stims/simple_08_B_c.gif","","","","","1","simple_dissimilar","images/stimuli/spore_stims/simple_08_B_c.gif","middle","","","","",""
"","null","html-keyboard-response","40","153663","0.0-11.0-0.7","SS1613141601490","","","null","","","","","<p><img src= images/blank.png width =""200"" height = ""200"" style = ""float:right""></p><p><img src=images/blank.png width =""800"" height = ""200""></p>","","","","","","","","","","","",""
"","491.9399999998859","sequential-stimulus-presentation","41","154963","0.0-11.0-1.7","SS1613141601490","trial","","40","800","1291.939999999886","images/stimuli/spore_stims/simple_20_B_c.gif","images/stimuli/spore_stims/simple_08_B_c.gif","","","","","1","simple_dissimilar","images/stimuli/spore_stims/simple_08_B_c.gif","middle","","","","",""
"","1629.0200000003097","html-keyboard-response","42","156594","0.0-12.0","SS1613141601490","pref_question","","49","","","","","<video width ='960' height = '540' style='padding-top:8%' autoplay muted><source src='images/stimuli/wall_pref.mp4' type='video/mp4'></video>","1","left","25%","1","","","","","","","",""
"","4177.625000000262","sequential-stimulus-presentation","43","161576","0.0-13.0","SS1613141601490","pref_reveal","","40","800","4977.625000000262","null","null","","","","","1","","","","novel","","","",""
"","null","html-keyboard-response","44","162847","0.0-14.0-0.0","SS1613141601490","","","null","","","","","<p><img src= images/blank.png width =""200"" height = ""200"" style = ""float:right""></p><p><img src=images/blank.png width =""800"" height = ""200""></p>","","","","","","","","","","","",""
"","2181.0649999997695","sequential-stimulus-presentation","45","165835","0.0-14.0-1.0","SS1613141601490","trial","","40","800","2981.0649999997695","images/stimuli/spore_stims/complex_15_A_c.gif","images/stimuli/spore_stims/complex_04_B_a.gif","","","","","2","complex_dissimilar","images/stimuli/spore_stims/complex_04_B_a.gif","middle","","","","",""
"","null","html-keyboard-response","46","167072","0.0-14.0-0.1","SS1613141601490","","","null","","","","","<p><img src= images/blank.png width =""200"" height = ""200"" style = ""float:right""></p><p><img src=images/blank.png width =""800"" height = ""200""></p>","","","","","","","","","","","",""
"","1323.045000000071","sequential-stimulus-presentation","47","169202","0.0-14.0-1.1","SS1613141601490","trial","","40","800","2123.045000000071","images/stimuli/spore_stims/complex_15_A_c.gif","images/stimuli/spore_stims/complex_04_B_a.gif","","","","","2","complex_dissimilar","images/stimuli/spore_stims/complex_04_B_a.gif","middle","","","","",""
"","null","html-keyboard-response","48","170195","0.0-14.0-0.2","SS1613141601490","","","null","","","","","<p><img src= images/blank.png width =""200"" height = ""200"" style = ""float:right""></p><p><img src=images/blank.png width =""800"" height = ""200""></p>","","","","","","","","","","","",""
"","690.5749999996042","sequential-stimulus-presentation","49","171692","0.0-14.0-1.2","SS1613141601490","trial","","40","800","1490.5749999996042","images/stimuli/spore_stims/complex_15_A_c.gif","images/stimuli/spore_stims/complex_04_B_a.gif","","","","","2","complex_dissimilar","images/stimuli/spore_stims/complex_04_B_a.gif","middle","","","","",""
"","null","html-keyboard-response","50","172656","0.0-14.0-0.3","SS1613141601490","","","null","","","","","<p><img src= images/blank.png width =""200"" height = ""200"" style = ""float:right""></p><p><img src=images/blank.png width =""800"" height = ""200""></p>","","","","","","","","","","","",""
"","405.66000000035274","sequential-stimulus-presentation","51","173866","0.0-14.0-1.3","SS1613141601490","trial","","40","800","1205.6600000003527","images/stimuli/spore_stims/complex_15_A_c.gif","images/stimuli/spore_stims/complex_04_B_a.gif","","","","","2","complex_dissimilar","images/stimuli/spore_stims/complex_04_B_a.gif","middle","","","","",""
"","null","html-keyboard-response","52","174692","0.0-14.0-0.4","SS1613141601490","","","null","","","","","<p><img src= images/blank.png width =""200"" height = ""200"" style = ""float:right""></p><p><img src=images/blank.png width =""800"" height = ""200""></p>","","","","","","","","","","","",""
"","476.5950000000885","sequential-stimulus-presentation","53","175978","0.0-14.0-1.4","SS1613141601490","trial","","40","800","1276.5950000000885","images/stimuli/spore_stims/complex_15_A_c.gif","images/stimuli/spore_stims/complex_04_B_a.gif","","","","","2","complex_dissimilar","images/stimuli/spore_stims/complex_04_B_a.gif","middle","","","","",""
"","null","html-keyboard-response","54","176841","0.0-14.0-0.5","SS1613141601490","","","null","","","","","<p><img src= images/blank.png width =""200"" height = ""200"" style = ""float:right""></p><p><img src=images/blank.png width =""800"" height = ""200""></p>","","","","","","","","","","","",""
"","2578.8949999996403","sequential-stimulus-presentation","55","180226","0.0-14.0-1.5","SS1613141601490","trial","","40","800","3378.8949999996403","images/stimuli/spore_stims/complex_15_A_c.gif","images/stimuli/spore_stims/complex_04_B_a.gif","","","","","2","complex_dissimilar","images/stimuli/spore_stims/complex_15_A_c.gif","right","","","","",""
"","null","html-keyboard-response","56","181450","0.0-14.0-0.6","SS1613141601490","","","null","","","","","<p><img src= images/blank.png width =""200"" height = ""200"" style = ""float:right""></p><p><img src=images/blank.png width =""800"" height = ""200""></p>","","","","","","","","","","","",""
"","460.8049999997311","sequential-stimulus-presentation","57","182715","0.0-14.0-1.6","SS1613141601490","trial","","40","800","1260.804999999731","images/stimuli/spore_stims/complex_15_A_c.gif","images/stimuli/spore_stims/complex_04_B_a.gif","","","","","2","complex_dissimilar","images/stimuli/spore_stims/complex_04_B_a.gif","middle","","","","",""
"","null","html-keyboard-response","58","183725","0.0-14.0-0.7","SS1613141601490","","","null","","","","","<p><img src= images/blank.png width =""200"" height = ""200"" style = ""float:right""></p><p><img src=images/blank.png width =""800"" height = ""200""></p>","","","","","","","","","","","",""
"","438.709999999468","sequential-stimulus-presentation","59","184971","0.0-14.0-1.7","SS1613141601490","trial","","40","800","1238.709999999468","images/stimuli/spore_stims/complex_15_A_c.gif","images/stimuli/spore_stims/complex_04_B_a.gif","","","","","2","complex_dissimilar","images/stimuli/spore_stims/complex_04_B_a.gif","middle","","","","",""
"","1245.4500000003318","html-keyboard-response","60","186218","0.0-15.0","SS1613141601490","pref_question","","49","","","","","<video width ='960' height = '540' style='padding-top:8%' autoplay muted><source src='images/stimuli/wall_pref.mp4' type='video/mp4'></video>","1","left","25%","2","","","","","","","",""
"","2439.2399999996996","sequential-stimulus-presentation","61","189462","0.0-16.0","SS1613141601490","pref_reveal","","40","800","3239.2399999996996","null","null","","","","","2","","","","novel","","","",""
"","null","html-keyboard-response","62","190682","0.0-17.0-0.0","SS1613141601490","","","null","","","","","<p><img src= images/blank.png width =""200"" height = ""200"" style = ""float:right""></p><p><img src=images/blank.png width =""800"" height = ""200""></p>","","","","","","","","","","","",""
"","1468.034999999858","sequential-stimulus-presentation","63","192958","0.0-17.0-1.0","SS1613141601490","trial","","40","800","2268.034999999858","images/stimuli/spore_stims/complex_13_B_c.gif","images/stimuli/spore_stims/complex_13_A_c.gif","","","","","3","complex_similar","images/stimuli/spore_stims/complex_13_A_c.gif","middle","","","","",""
"","null","html-keyboard-response","64","194225","0.0-17.0-0.1","SS1613141601490","","","null","","","","","<p><img src= images/blank.png width =""200"" height = ""200"" style = ""float:right""></p><p><img src=images/blank.png width =""800"" height = ""200""></p>","","","","","","","","","","","",""
"","577.8049999999057","sequential-stimulus-presentation","65","195610","0.0-17.0-1.1","SS1613141601490","trial","","40","800","1377.8049999999057","images/stimuli/spore_stims/complex_13_B_c.gif","images/stimuli/spore_stims/complex_13_A_c.gif","","","","","3","complex_similar","images/stimuli/spore_stims/complex_13_A_c.gif","middle","","","","",""
"","null","html-keyboard-response","66","196706","0.0-17.0-0.2","SS1613141601490","","","null","","","","","<p><img src= images/blank.png width =""200"" height = ""200"" style = ""float:right""></p><p><img src=images/blank.png width =""800"" height = ""200""></p>","","","","","","","","","","","",""
"","562.2499999999418","sequential-stimulus-presentation","67","198074","0.0-17.0-1.2","SS1613141601490","trial","","40","800","1362.2499999999418","images/stimuli/spore_stims/complex_13_B_c.gif","images/stimuli/spore_stims/complex_13_A_c.gif","","","","","3","complex_similar","images/stimuli/spore_stims/complex_13_A_c.gif","middle","","","","",""
"","null","html-keyboard-response","68","199151","0.0-17.0-0.3","SS1613141601490","","","null","","","","","<p><img src= images/blank.png width =""200"" height = ""200"" style = ""float:right""></p><p><img src=images/blank.png width =""800"" height = ""200""></p>","","","","","","","","","","","",""
"","1155.354999999865","sequential-stimulus-presentation","69","201118","0.0-17.0-1.3","SS1613141601490","trial","","40","800","1955.354999999865","images/stimuli/spore_stims/complex_13_B_c.gif","images/stimuli/spore_stims/complex_13_A_c.gif","","","","","3","complex_similar","images/stimuli/spore_stims/complex_13_B_c.gif","right","","","","",""
"","null","html-keyboard-response","70","201970","0.0-17.0-0.4","SS1613141601490","","","null","","","","","<p><img src= images/blank.png width =""200"" height = ""200"" style = ""float:right""></p><p><img src=images/blank.png width =""800"" height = ""200""></p>","","","","","","","","","","","",""
"","480.3599999995495","sequential-stimulus-presentation","71","203259","0.0-17.0-1.4","SS1613141601490","trial","","40","800","1280.3599999995495","images/stimuli/spore_stims/complex_13_B_c.gif","images/stimuli/spore_stims/complex_13_A_c.gif","","","","","3","complex_similar","images/stimuli/spore_stims/complex_13_A_c.gif","middle","","","","",""
"","null","html-keyboard-response","72","204465","0.0-17.0-0.5","SS1613141601490","","","null","","","","","<p><img src= images/blank.png width =""200"" height = ""200"" style = ""float:right""></p><p><img src=images/blank.png width =""800"" height = ""200""></p>","","","","","","","","","","","",""
"","373.72500000038417","sequential-stimulus-presentation","73","205643","0.0-17.0-1.5","SS1613141601490","trial","","40","800","1173.7250000003842","images/stimuli/spore_stims/complex_13_B_c.gif","images/stimuli/spore_stims/complex_13_A_c.gif","","","","","3","complex_similar","images/stimuli/spore_stims/complex_13_A_c.gif","middle","","","","",""
"","null","html-keyboard-response","74","206580","0.0-17.0-0.6","SS1613141601490","","","null","","","","","<p><img src= images/blank.png width =""200"" height = ""200"" style = ""float:right""></p><p><img src=images/blank.png width =""800"" height = ""200""></p>","","","","","","","","","","","",""
"","435.9800000002142","sequential-stimulus-presentation","75","207819","0.0-17.0-1.6","SS1613141601490","trial","","40","800","1235.9800000002142","images/stimuli/spore_stims/complex_13_B_c.gif","images/stimuli/spore_stims/complex_13_A_c.gif","","","","","3","complex_similar","images/stimuli/spore_stims/complex_13_A_c.gif","middle","","","","",""
"","null","html-keyboard-response","76","208883","0.0-17.0-0.7","SS1613141601490","","","null","","","","","<p><img src= images/blank.png width =""200"" height = ""200"" style = ""float:right""></p><p><img src=images/blank.png width =""800"" height = ""200""></p>","","","","","","","","","","","",""
"","467.99499999996624","sequential-stimulus-presentation","77","210170","0.0-17.0-1.7","SS1613141601490","trial","","40","800","1267.9949999999662","images/stimuli/spore_stims/complex_13_B_c.gif","images/stimuli/spore_stims/complex_13_A_c.gif","","","","","3","complex_similar","images/stimuli/spore_stims/complex_13_A_c.gif","middle","","","","",""
"","1360.5699999998324","html-keyboard-response","78","211534","0.0-18.0","SS1613141601490","pref_question","","49","","","","","<video width ='960' height = '540' style='padding-top:8%' autoplay muted><source src='images/stimuli/wall_pref.mp4' type='video/mp4'></video>","1","left","25%","3","","","","","","","",""
"","10928.254999999801","sequential-stimulus-presentation","79","223269","0.0-19.0","SS1613141601490","pref_reveal","","40","800","11728.254999999801","null","null","","","","","3","","","","novel","","","",""
"","null","html-keyboard-response","80","224109","0.0-20.0-0.0","SS1613141601490","","","null","","","","","<p><img src= images/blank.png width =""200"" height = ""200"" style = ""float:right""></p><p><img src=images/blank.png width =""800"" height = ""200""></p>","","","","","","","","","","","",""
"","1303.2650000004796","sequential-stimulus-presentation","81","226220","0.0-20.0-1.0","SS1613141601490","trial","","40","800","2103.2650000004796","images/stimuli/spore_stims/simple_02_A_b.gif","images/stimuli/spore_stims/simple_01_A_d.gif","","","","","4","simple_dissimilar","images/stimuli/spore_stims/simple_01_A_d.gif","right","","","","",""
"","null","html-keyboard-response","82","227319","0.0-20.0-0.1","SS1613141601490","","","null","","","","","<p><img src= images/blank.png width =""200"" height = ""200"" style = ""float:right""></p><p><img src=images/blank.png width =""800"" height = ""200""></p>","","","","","","","","","","","",""
"","785.5449999997218","sequential-stimulus-presentation","83","228910","0.0-20.0-1.1","SS1613141601490","trial","","40","800","1585.5449999997218","images/stimuli/spore_stims/simple_02_A_b.gif","images/stimuli/spore_stims/simple_01_A_d.gif","","","","","4","simple_dissimilar","images/stimuli/spore_stims/simple_01_A_d.gif","right","","","","",""
"","null","html-keyboard-response","84","229721","0.0-20.0-0.2","SS1613141601490","","","null","","","","","<p><img src= images/blank.png width =""200"" height = ""200"" style = ""float:right""></p><p><img src=images/blank.png width =""800"" height = ""200""></p>","","","","","","","","","","","",""
"","552.8500000000349","sequential-stimulus-presentation","85","231077","0.0-20.0-1.2","SS1613141601490","trial","","40","800","1352.850000000035","images/stimuli/spore_stims/simple_02_A_b.gif","images/stimuli/spore_stims/simple_01_A_d.gif","","","","","4","simple_dissimilar","images/stimuli/spore_stims/simple_01_A_d.gif","right","","","","",""
"","null","html-keyboard-response","86","232221","0.0-20.0-0.3","SS1613141601490","","","null","","","","","<p><img src= images/blank.png width =""200"" height = ""200"" style = ""float:right""></p><p><img src=images/blank.png width =""800"" height = ""200""></p>","","","","","","","","","","","",""
"","429.47000000003027","sequential-stimulus-presentation","87","233453","0.0-20.0-1.3","SS1613141601490","trial","","40","800","1229.4700000000303","images/stimuli/spore_stims/simple_02_A_b.gif","images/stimuli/spore_stims/simple_01_A_d.gif","","","","","4","simple_dissimilar","images/stimuli/spore_stims/simple_01_A_d.gif","right","","","","",""
"","null","html-keyboard-response","88","234532","0.0-20.0-0.4","SS1613141601490","","","null","","","","","<p><img src= images/blank.png width =""200"" height = ""200"" style = ""float:right""></p><p><img src=images/blank.png width =""800"" height = ""200""></p>","","","","","","","","","","","",""
"","1343.4749999996857","sequential-stimulus-presentation","89","236683","0.0-20.0-1.4","SS1613141601490","trial","","40","800","2143.4749999996857","images/stimuli/spore_stims/simple_02_A_b.gif","images/stimuli/spore_stims/simple_01_A_d.gif","","","","","4","simple_dissimilar","images/stimuli/spore_stims/simple_02_A_b.gif","middle","","","","",""
"","null","html-keyboard-response","90","237835","0.0-20.0-0.5","SS1613141601490","","","null","","","","","<p><img src= images/blank.png width =""200"" height = ""200"" style = ""float:right""></p><p><img src=images/blank.png width =""800"" height = ""200""></p>","","","","","","","","","","","",""
"","406.46999999988475","sequential-stimulus-presentation","91","239053","0.0-20.0-1.5","SS1613141601490","trial","","40","800","1206.4699999998847","images/stimuli/spore_stims/simple_02_A_b.gif","images/stimuli/spore_stims/simple_01_A_d.gif","","","","","4","simple_dissimilar","images/stimuli/spore_stims/simple_01_A_d.gif","right","","","","",""
"","null","html-keyboard-response","92","240183","0.0-20.0-0.6","SS1613141601490","","","null","","","","","<p><img src= images/blank.png width =""200"" height = ""200"" style = ""float:right""></p><p><img src=images/blank.png width =""800"" height = ""200""></p>","","","","","","","","","","","",""
"","444.685000000376","sequential-stimulus-presentation","93","241460","0.0-20.0-1.6","SS1613141601490","trial","","40","800","1244.685000000376","images/stimuli/spore_stims/simple_02_A_b.gif","images/stimuli/spore_stims/simple_01_A_d.gif","","","","","4","simple_dissimilar","images/stimuli/spore_stims/simple_01_A_d.gif","right","","","","",""
"","null","html-keyboard-response","94","242613","0.0-20.0-0.7","SS1613141601490","","","null","","","","","<p><img src= images/blank.png width =""200"" height = ""200"" style = ""float:right""></p><p><img src=images/blank.png width =""800"" height = ""200""></p>","","","","","","","","","","","",""
"","370.55499999949825","sequential-stimulus-presentation","95","243790","0.0-20.0-1.7","SS1613141601490","trial","","40","800","1170.5549999994982","images/stimuli/spore_stims/simple_02_A_b.gif","images/stimuli/spore_stims/simple_01_A_d.gif","","","","","4","simple_dissimilar","images/stimuli/spore_stims/simple_01_A_d.gif","right","","","","",""
"","705.1250000004075","html-keyboard-response","96","244506","0.0-21.0","SS1613141601490","pref_question","","49","","","","","<video width ='960' height = '540' style='padding-top:8%' autoplay muted><source src='images/stimuli/wall_pref.mp4' type='video/mp4'></video>","1","left","25%","4","","","","","","","",""
"","1861.4800000004761","sequential-stimulus-presentation","97","247171","0.0-22.0","SS1613141601490","pref_reveal","","40","800","2661.480000000476","null","null","","","","","4","","","","novel","","","",""
"","null","html-keyboard-response","98","248187","0.0-23.0-0.0","SS1613141601490","","","null","","","","","<p><img src= images/blank.png width =""200"" height = ""200"" style = ""float:right""></p><p><img src=images/blank.png width =""800"" height = ""200""></p>","","","","","","","","","","","",""
"","374.51999999937834","sequential-stimulus-presentation","99","249370","0.0-23.0-1.0","SS1613141601490","trial","","40","800","1174.5199999993783","images/stimuli/spore_stims/complex_20_A_d.gif","images/stimuli/spore_stims/complex_06_A_b.gif","","","","","5","complex_dissimilar","images/stimuli/spore_stims/complex_06_A_b.gif","right","","","","",""
"","null","html-keyboard-response","100","250354","0.0-23.0-0.1","SS1613141601490","","","null","","","","","<p><img src= images/blank.png width =""200"" height = ""200"" style = ""float:right""></p><p><img src=images/blank.png width =""800"" height = ""200""></p>","","","","","","","","","","","",""
"","1573.470000000263","sequential-stimulus-presentation","101","252733","0.0-23.0-1.1","SS1613141601490","trial","","40","800","2373.470000000263","images/stimuli/spore_stims/complex_20_A_d.gif","images/stimuli/spore_stims/complex_06_A_b.gif","","","","","5","complex_dissimilar","images/stimuli/spore_stims/complex_06_A_b.gif","right","","","","",""
"","null","html-keyboard-response","102","253903","0.0-23.0-0.2","SS1613141601490","","","null","","","","","<p><img src= images/blank.png width =""200"" height = ""200"" style = ""float:right""></p><p><img src=images/blank.png width =""800"" height = ""200""></p>","","","","","","","","","","","",""
"","2183.7999999998137","sequential-stimulus-presentation","103","256891","0.0-23.0-1.2","SS1613141601490","trial","","40","800","2983.7999999998137","images/stimuli/spore_stims/complex_20_A_d.gif","images/stimuli/spore_stims/complex_06_A_b.gif","","","","","5","complex_dissimilar","images/stimuli/spore_stims/complex_20_A_d.gif","middle","","","","",""
"","null","html-keyboard-response","104","257792","0.0-23.0-0.3","SS1613141601490","","","null","","","","","<p><img src= images/blank.png width =""200"" height = ""200"" style = ""float:right""></p><p><img src=images/blank.png width =""800"" height = ""200""></p>","","","","","","","","","","","",""
"","382.8849999999511","sequential-stimulus-presentation","105","258979","0.0-23.0-1.3","SS1613141601490","trial","","40","800","1182.884999999951","images/stimuli/spore_stims/complex_20_A_d.gif","images/stimuli/spore_stims/complex_06_A_b.gif","","","","","5","complex_dissimilar","images/stimuli/spore_stims/complex_06_A_b.gif","right","","","","",""
"","null","html-keyboard-response","106","260171","0.0-23.0-0.4","SS1613141601490","","","null","","","","","<p><img src= images/blank.png width =""200"" height = ""200"" style = ""float:right""></p><p><img src=images/blank.png width =""800"" height = ""200""></p>","","","","","","","","","","","",""
"","471.7049999999581","sequential-stimulus-presentation","107","261450","0.0-23.0-1.4","SS1613141601490","trial","","40","800","1271.704999999958","images/stimuli/spore_stims/complex_20_A_d.gif","images/stimuli/spore_stims/complex_06_A_b.gif","","","","","5","complex_dissimilar","images/stimuli/spore_stims/complex_06_A_b.gif","right","","","","",""
"","null","html-keyboard-response","108","262578","0.0-23.0-0.5","SS1613141601490","","","null","","","","","<p><img src= images/blank.png width =""200"" height = ""200"" style = ""float:right""></p><p><img src=images/blank.png width =""800"" height = ""200""></p>","","","","","","","","","","","",""
"","442.09000000043306","sequential-stimulus-presentation","109","263827","0.0-23.0-1.5","SS1613141601490","trial","","40","800","1242.090000000433","images/stimuli/spore_stims/complex_20_A_d.gif","images/stimuli/spore_stims/complex_06_A_b.gif","","","","","5","complex_dissimilar","images/stimuli/spore_stims/complex_06_A_b.gif","right","","","","",""
"","null","html-keyboard-response","110","264831","0.0-23.0-0.6","SS1613141601490","","","null","","","","","<p><img src= images/blank.png width =""200"" height = ""200"" style = ""float:right""></p><p><img src=images/blank.png width =""800"" height = ""200""></p>","","","","","","","","","","","",""
"","331.7600000000093","sequential-stimulus-presentation","111","265971","0.0-23.0-1.6","SS1613141601490","trial","","40","800","1131.7600000000093","images/stimuli/spore_stims/complex_20_A_d.gif","images/stimuli/spore_stims/complex_06_A_b.gif","","","","","5","complex_dissimilar","images/stimuli/spore_stims/complex_06_A_b.gif","right","","","","",""
"","null","html-keyboard-response","112","266942","0.0-23.0-0.7","SS1613141601490","","","null","","","","","<p><img src= images/blank.png width =""200"" height = ""200"" style = ""float:right""></p><p><img src=images/blank.png width =""800"" height = ""200""></p>","","","","","","","","","","","",""
"","366.55499999958556","sequential-stimulus-presentation","113","268122","0.0-23.0-1.7","SS1613141601490","trial","","40","800","1166.5549999995856","images/stimuli/spore_stims/complex_20_A_d.gif","images/stimuli/spore_stims/complex_06_A_b.gif","","","","","5","complex_dissimilar","images/stimuli/spore_stims/complex_06_A_b.gif","right","","","","",""
"","614.0150000001304","html-keyboard-response","114","268739","0.0-24.0","SS1613141601490","pref_question","","49","","","","","<video width ='960' height = '540' style='padding-top:8%' autoplay muted><source src='images/stimuli/wall_pref.mp4' type='video/mp4'></video>","1","left","25%","5","","","","","","","",""
"","2846.3849999998347","sequential-stimulus-presentation","115","272411","0.0-25.0","SS1613141601490","pref_reveal","","40","800","3646.3849999998347","null","null","","","","","5","","","","novel","","","",""
"","null","html-keyboard-response","116","273606","0.0-26.0-0.0","SS1613141601490","","","null","","","","","<p><img src= images/blank.png width =""200"" height = ""200"" style = ""float:right""></p><p><img src=images/blank.png width =""800"" height = ""200""></p>","","","","","","","","","","","",""
"","1057.320000000822","sequential-stimulus-presentation","117","275478","0.0-26.0-1.0","SS1613141601490","trial","","40","800","1857.320000000822","images/stimuli/spore_stims/simple_13_B_b.gif","images/stimuli/spore_stims/simple_13_A_b.gif","","","","","6","simple_similar","images/stimuli/spore_stims/simple_13_A_b.gif","left","","","","",""
"","null","html-keyboard-response","118","276762","0.0-26.0-0.1","SS1613141601490","","","null","","","","","<p><img src= images/blank.png width =""200"" height = ""200"" style = ""float:right""></p><p><img src=images/blank.png width =""800"" height = ""200""></p>","","","","","","","","","","","",""
"","1805.5949999997974","sequential-stimulus-presentation","119","279373","0.0-26.0-1.1","SS1613141601490","trial","","40","800","2605.5949999997974","images/stimuli/spore_stims/simple_13_B_b.gif","images/stimuli/spore_stims/simple_13_A_b.gif","","","","","6","simple_similar","images/stimuli/spore_stims/simple_13_A_b.gif","left","","","","",""
"","null","html-keyboard-response","120","280615","0.0-26.0-0.2","SS1613141601490","","","null","","","","","<p><img src= images/blank.png width =""200"" height = ""200"" style = ""float:right""></p><p><img src=images/blank.png width =""800"" height = ""200""></p>","","","","","","","","","","","",""
"","337.8099999999977","sequential-stimulus-presentation","121","281764","0.0-26.0-1.2","SS1613141601490","trial","","40","800","1137.8099999999977","images/stimuli/spore_stims/simple_13_B_b.gif","images/stimuli/spore_stims/simple_13_A_b.gif","","","","","6","simple_similar","images/stimuli/spore_stims/simple_13_A_b.gif","left","","","","",""
"","null","html-keyboard-response","122","282747","0.0-26.0-0.3","SS1613141601490","","","null","","","","","<p><img src= images/blank.png width =""200"" height = ""200"" style = ""float:right""></p><p><img src=images/blank.png width =""800"" height = ""200""></p>","","","","","","","","","","","",""
"","411.42000000039116","sequential-stimulus-presentation","123","283967","0.0-26.0-1.3","SS1613141601490","trial","","40","800","1211.4200000003912","images/stimuli/spore_stims/simple_13_B_b.gif","images/stimuli/spore_stims/simple_13_A_b.gif","","","","","6","simple_similar","images/stimuli/spore_stims/simple_13_A_b.gif","left","","","","",""
"","null","html-keyboard-response","124","285171","0.0-26.0-0.4","SS1613141601490","","","null","","","","","<p><img src= images/blank.png width =""200"" height = ""200"" style = ""float:right""></p><p><img src=images/blank.png width =""800"" height = ""200""></p>","","","","","","","","","","","",""
"","289.260000000475","sequential-stimulus-presentation","125","286270","0.0-26.0-1.4","SS1613141601490","trial","","40","800","1089.260000000475","images/stimuli/spore_stims/simple_13_B_b.gif","images/stimuli/spore_stims/simple_13_A_b.gif","","","","","6","simple_similar","images/stimuli/spore_stims/simple_13_A_b.gif","left","","","","",""
"","null","html-keyboard-response","126","287190","0.0-26.0-0.5","SS1613141601490","","","null","","","","","<p><img src= images/blank.png width =""200"" height = ""200"" style = ""float:right""></p><p><img src=images/blank.png width =""800"" height = ""200""></p>","","","","","","","","","","","",""
"","410.42500000004657","sequential-stimulus-presentation","127","288415","0.0-26.0-1.5","SS1613141601490","trial","","40","800","1210.4250000000466","images/stimuli/spore_stims/simple_13_B_b.gif","images/stimuli/spore_stims/simple_13_A_b.gif","","","","","6","simple_similar","images/stimuli/spore_stims/simple_13_A_b.gif","left","","","","",""
"","null","html-keyboard-response","128","289317","0.0-26.0-0.6","SS1613141601490","","","null","","","","","<p><img src= images/blank.png width =""200"" height = ""200"" style = ""float:right""></p><p><img src=images/blank.png width =""800"" height = ""200""></p>","","","","","","","","","","","",""
"","612.9950000004028","sequential-stimulus-presentation","129","290746","0.0-26.0-1.6","SS1613141601490","trial","","40","800","1412.9950000004028","images/stimuli/spore_stims/simple_13_B_b.gif","images/stimuli/spore_stims/simple_13_A_b.gif","","","","","6","simple_similar","images/stimuli/spore_stims/simple_13_B_b.gif","middle","","","","",""
"","null","html-keyboard-response","130","291836","0.0-26.0-0.7","SS1613141601490","","","null","","","","","<p><img src= images/blank.png width =""200"" height = ""200"" style = ""float:right""></p><p><img src=images/blank.png width =""800"" height = ""200""></p>","","","","","","","","","","","",""
"","692.0849999996717","sequential-stimulus-presentation","131","293342","0.0-26.0-1.7","SS1613141601490","trial","","40","800","1492.0849999996717","images/stimuli/spore_stims/simple_13_B_b.gif","images/stimuli/spore_stims/simple_13_A_b.gif","","","","","6","simple_similar","images/stimuli/spore_stims/simple_13_A_b.gif","left","","","","",""
"","1581.304999999702","html-keyboard-response","132","294936","0.0-27.0","SS1613141601490","pref_question","","51","","","","","<video width ='960' height = '540' style='padding-top:8%' autoplay muted><source src='images/stimuli/wall_pref.mp4' type='video/mp4'></video>","3","right","66%","6","","","","","","","",""
"","1903.3799999997136","sequential-stimulus-presentation","133","297669","0.0-28.0","SS1613141601490","pref_reveal","","40","800","2703.3799999997136","null","null","","","","","6","","","","novel","","","",""
"","null","html-keyboard-response","134","298922","0.0-29.0-0.0","SS1613141601490","","","null","","","","","<p><img src= images/blank.png width =""200"" height = ""200"" style = ""float:right""></p><p><img src=images/blank.png width =""800"" height = ""200""></p>","","","","","","","","","","","",""
"","469.9100000007311","sequential-stimulus-presentation","135","300205","0.0-29.0-1.0","SS1613141601490","trial","","40","800","1269.910000000731","images/stimuli/spore_stims/simple_18_B_d.gif","images/stimuli/spore_stims/simple_11_A_b.gif","","","","","7","simple_dissimilar","images/stimuli/spore_stims/simple_11_A_b.gif","right","","","","",""
"","null","html-keyboard-response","136","301432","0.0-29.0-0.1","SS1613141601490","","","null","","","","","<p><img src= images/blank.png width =""200"" height = ""200"" style = ""float:right""></p><p><img src=images/blank.png width =""800"" height = ""200""></p>","","","","","","","","","","","",""
"","1160.6950000004726","sequential-stimulus-presentation","137","303397","0.0-29.0-1.1","SS1613141601490","trial","","40","800","1960.6950000004726","images/stimuli/spore_stims/simple_18_B_d.gif","images/stimuli/spore_stims/simple_11_A_b.gif","","","","","7","simple_dissimilar","images/stimuli/spore_stims/simple_11_A_b.gif","right","","","","",""
"","null","html-keyboard-response","138","304251","0.0-29.0-0.2","SS1613141601490","","","null","","","","","<p><img src= images/blank.png width =""200"" height = ""200"" style = ""float:right""></p><p><img src=images/blank.png width =""800"" height = ""200""></p>","","","","","","","","","","","",""
"","506.24999999947613","sequential-stimulus-presentation","139","305564","0.0-29.0-1.2","SS1613141601490","trial","","40","800","1306.2499999994761","images/stimuli/spore_stims/simple_18_B_d.gif","images/stimuli/spore_stims/simple_11_A_b.gif","","","","","7","simple_dissimilar","images/stimuli/spore_stims/simple_11_A_b.gif","right","","","","",""
"","null","html-keyboard-response","140","306390","0.0-29.0-0.3","SS1613141601490","","","null","","","","","<p><img src= images/blank.png width =""200"" height = ""200"" style = ""float:right""></p><p><img src=images/blank.png width =""800"" height = ""200""></p>","","","","","","","","","","","",""
"","1279.504999999539","sequential-stimulus-presentation","141","308474","0.0-29.0-1.3","SS1613141601490","trial","","40","800","2079.504999999539","images/stimuli/spore_stims/simple_18_B_d.gif","images/stimuli/spore_stims/simple_11_A_b.gif","","","","","7","simple_dissimilar","images/stimuli/spore_stims/simple_11_A_b.gif","right","","","","",""
"","null","html-keyboard-response","142","309669","0.0-29.0-0.4","SS1613141601490","","","null","","","","","<p><img src= images/blank.png width =""200"" height = ""200"" style = ""float:right""></p><p><img src=images/blank.png width =""800"" height = ""200""></p>","","","","","","","","","","","",""
"","372.9000000003143","sequential-stimulus-presentation","143","310874","0.0-29.0-1.4","SS1613141601490","trial","","40","800","1172.9000000003143","images/stimuli/spore_stims/simple_18_B_d.gif","images/stimuli/spore_stims/simple_11_A_b.gif","","","","","7","simple_dissimilar","images/stimuli/spore_stims/simple_11_A_b.gif","right","","","","",""
"","null","html-keyboard-response","144","311774","0.0-29.0-0.5","SS1613141601490","","","null","","","","","<p><img src= images/blank.png width =""200"" height = ""200"" style = ""float:right""></p><p><img src=images/blank.png width =""800"" height = ""200""></p>","","","","","","","","","","","",""
"","384.4899999994668","sequential-stimulus-presentation","145","312962","0.0-29.0-1.5","SS1613141601490","trial","","40","800","1184.4899999994668","images/stimuli/spore_stims/simple_18_B_d.gif","images/stimuli/spore_stims/simple_11_A_b.gif","","","","","7","simple_dissimilar","images/stimuli/spore_stims/simple_11_A_b.gif","right","","","","",""
"","null","html-keyboard-response","146","314249","0.0-29.0-0.6","SS1613141601490","","","null","","","","","<p><img src= images/blank.png width =""200"" height = ""200"" style = ""float:right""></p><p><img src=images/blank.png width =""800"" height = ""200""></p>","","","","","","","","","","","",""
"","987.1599999996834","sequential-stimulus-presentation","147","316051","0.0-29.0-1.6","SS1613141601490","trial","","40","800","1787.1599999996834","images/stimuli/spore_stims/simple_18_B_d.gif","images/stimuli/spore_stims/simple_11_A_b.gif","","","","","7","simple_dissimilar","images/stimuli/spore_stims/simple_18_B_d.gif","left","","","","",""
"","null","html-keyboard-response","148","316895","0.0-29.0-0.7","SS1613141601490","","","null","","","","","<p><img src= images/blank.png width =""200"" height = ""200"" style = ""float:right""></p><p><img src=images/blank.png width =""800"" height = ""200""></p>","","","","","","","","","","","",""
"","757.4649999996764","sequential-stimulus-presentation","149","318462","0.0-29.0-1.7","SS1613141601490","trial","","40","800","1557.4649999996764","images/stimuli/spore_stims/simple_18_B_d.gif","images/stimuli/spore_stims/simple_11_A_b.gif","","","","","7","simple_dissimilar","images/stimuli/spore_stims/simple_11_A_b.gif","right","","","","",""
"","1346.5150000001886","html-keyboard-response","150","319821","0.0-30.0","SS1613141601490","pref_question","","50","","","","","<video width ='960' height = '540' style='padding-top:8%' autoplay muted><source src='images/stimuli/wall_pref.mp4' type='video/mp4'></video>","2","middle","45%","7","","","","","","","",""
"","2170.530000000319","sequential-stimulus-presentation","151","322804","0.0-31.0","SS1613141601490","pref_reveal","","40","800","2970.530000000319","null","null","","","","","7","","","","novel","","","",""
"","null","html-keyboard-response","152","323977","0.0-32.0-0.0","SS1613141601490","","","null","","","","","<p><img src= images/blank.png width =""200"" height = ""200"" style = ""float:right""></p><p><img src=images/blank.png width =""800"" height = ""200""></p>","","","","","","","","","","","",""
"","8607.43999999977","sequential-stimulus-presentation","153","333392","0.0-32.0-1.0","SS1613141601490","trial","","40","800","9407.43999999977","images/stimuli/spore_stims/complex_07_A_a.gif","images/stimuli/spore_stims/complex_07_B_a.gif","","","","","8","complex_similar","images/stimuli/spore_stims/complex_07_B_a.gif","right","","","","",""
"","null","html-keyboard-response","154","334502","0.0-32.0-0.1","SS1613141601490","","","null","","","","","<p><img src= images/blank.png width =""200"" height = ""200"" style = ""float:right""></p><p><img src=images/blank.png width =""800"" height = ""200""></p>","","","","","","","","","","","",""
"","1529.1949999991339","sequential-stimulus-presentation","155","336837","0.0-32.0-1.1","SS1613141601490","trial","","40","800","2329.194999999134","images/stimuli/spore_stims/complex_07_A_a.gif","images/stimuli/spore_stims/complex_07_B_a.gif","","","","","8","complex_similar","images/stimuli/spore_stims/complex_07_B_a.gif","right","","","","",""
"","null","html-keyboard-response","156","337700","0.0-32.0-0.2","SS1613141601490","","","null","","","","","<p><img src= images/blank.png width =""200"" height = ""200"" style = ""float:right""></p><p><img src=images/blank.png width =""800"" height = ""200""></p>","","","","","","","","","","","",""
"","887.2800000008428","sequential-stimulus-presentation","157","339394","0.0-32.0-1.2","SS1613141601490","trial","","40","800","1687.2800000008428","images/stimuli/spore_stims/complex_07_A_a.gif","images/stimuli/spore_stims/complex_07_B_a.gif","","","","","8","complex_similar","images/stimuli/spore_stims/complex_07_B_a.gif","right","","","","",""
"","null","html-keyboard-response","158","340341","0.0-32.0-0.3","SS1613141601490","","","null","","","","","<p><img src= images/blank.png width =""200"" height = ""200"" style = ""float:right""></p><p><img src=images/blank.png width =""800"" height = ""200""></p>","","","","","","","","","","","",""
"","457.4350000002305","sequential-stimulus-presentation","159","341604","0.0-32.0-1.3","SS1613141601490","trial","","40","800","1257.4350000002305","images/stimuli/spore_stims/complex_07_A_a.gif","images/stimuli/spore_stims/complex_07_B_a.gif","","","","","8","complex_similar","images/stimuli/spore_stims/complex_07_B_a.gif","right","","","","",""
"","null","html-keyboard-response","160","342596","0.0-32.0-0.4","SS1613141601490","","","null","","","","","<p><img src= images/blank.png width =""200"" height = ""200"" style = ""float:right""></p><p><img src=images/blank.png width =""800"" height = ""200""></p>","","","","","","","","","","","",""
"","453.7200000004377","sequential-stimulus-presentation","161","343855","0.0-32.0-1.4","SS1613141601490","trial","","40","800","1253.7200000004377","images/stimuli/spore_stims/complex_07_A_a.gif","images/stimuli/spore_stims/complex_07_B_a.gif","","","","","8","complex_similar","images/stimuli/spore_stims/complex_07_B_a.gif","right","","","","",""
"","null","html-keyboard-response","162","345072","0.0-32.0-0.5","SS1613141601490","","","null","","","","","<p><img src= images/blank.png width =""200"" height = ""200"" style = ""float:right""></p><p><img src=images/blank.png width =""800"" height = ""200""></p>","","","","","","","","","","","",""
"","378.84000000031665","sequential-stimulus-presentation","163","346259","0.0-32.0-1.5","SS1613141601490","trial","","40","800","1178.8400000003166","images/stimuli/spore_stims/complex_07_A_a.gif","images/stimuli/spore_stims/complex_07_B_a.gif","","","","","8","complex_similar","images/stimuli/spore_stims/complex_07_B_a.gif","right","","","","",""
"","null","html-keyboard-response","164","347230","0.0-32.0-0.6","SS1613141601490","","","null","","","","","<p><img src= images/blank.png width =""200"" height = ""200"" style = ""float:right""></p><p><img src=images/blank.png width =""800"" height = ""200""></p>","","","","","","","","","","","",""
"","462.4599999997881","sequential-stimulus-presentation","165","348501","0.0-32.0-1.6","SS1613141601490","trial","","40","800","1262.4599999997881","images/stimuli/spore_stims/complex_07_A_a.gif","images/stimuli/spore_stims/complex_07_B_a.gif","","","","","8","complex_similar","images/stimuli/spore_stims/complex_07_B_a.gif","right","","","","",""
"","null","html-keyboard-response","166","349519","0.0-32.0-0.7","SS1613141601490","","","null","","","","","<p><img src= images/blank.png width =""200"" height = ""200"" style = ""float:right""></p><p><img src=images/blank.png width =""800"" height = ""200""></p>","","","","","","","","","","","",""
"","1253.694999999425","sequential-stimulus-presentation","167","351581","0.0-32.0-1.7","SS1613141601490","trial","","40","800","2053.694999999425","images/stimuli/spore_stims/complex_07_A_a.gif","images/stimuli/spore_stims/complex_07_B_a.gif","","","","","8","complex_similar","images/stimuli/spore_stims/complex_07_A_a.gif","left","","","","",""
"","1167.3950000003679","html-keyboard-response","168","352757","0.0-33.0","SS1613141601490","pref_question","","50","","","","","<video width ='960' height = '540' style='padding-top:8%' autoplay muted><source src='images/stimuli/wall_pref.mp4' type='video/mp4'></video>","2","middle","45%","8","","","","","","","",""
"","1024.7300000000978","sequential-stimulus-presentation","169","354610","0.0-34.0","SS1613141601490","pref_reveal","","40","800","1824.7300000000978","null","null","","","","","8","","","","novel","","","",""
"","null","html-keyboard-response","170","355911","0.0-35.0-0.0","SS1613141601490","","","null","","","","","<p><img src= images/blank.png width =""200"" height = ""200"" style = ""float:right""></p><p><img src=images/blank.png width =""800"" height = ""200""></p>","","","","","","","","","","","",""
"","865.5600000001723","sequential-stimulus-presentation","171","357586","0.0-35.0-1.0","SS1613141601490","trial","","40","800","1665.5600000001723","images/stimuli/spore_stims/simple_12_B_c.gif","images/stimuli/spore_stims/simple_12_A_c.gif","","","","","9","simple_similar","images/stimuli/spore_stims/simple_12_A_c.gif","left","","","","",""
"","null","html-keyboard-response","172","358765","0.0-35.0-0.1","SS1613141601490","","","null","","","","","<p><img src= images/blank.png width =""200"" height = ""200"" style = ""float:right""></p><p><img src=images/blank.png width =""800"" height = ""200""></p>","","","","","","","","","","","",""
"","639.5849999999045","sequential-stimulus-presentation","173","360213","0.0-35.0-1.1","SS1613141601490","trial","","40","800","1439.5849999999045","images/stimuli/spore_stims/simple_12_B_c.gif","images/stimuli/spore_stims/simple_12_A_c.gif","","","","","9","simple_similar","images/stimuli/spore_stims/simple_12_A_c.gif","left","","","","",""
"","null","html-keyboard-response","174","361418","0.0-35.0-0.2","SS1613141601490","","","null","","","","","<p><img src= images/blank.png width =""200"" height = ""200"" style = ""float:right""></p><p><img src=images/blank.png width =""800"" height = ""200""></p>","","","","","","","","","","","",""
"","482.28999999992084","sequential-stimulus-presentation","175","362709","0.0-35.0-1.2","SS1613141601490","trial","","40","800","1282.2899999999208","images/stimuli/spore_stims/simple_12_B_c.gif","images/stimuli/spore_stims/simple_12_A_c.gif","","","","","9","simple_similar","images/stimuli/spore_stims/simple_12_A_c.gif","left","","","","",""
"","null","html-keyboard-response","176","363599","0.0-35.0-0.3","SS1613141601490","","","null","","","","","<p><img src= images/blank.png width =""200"" height = ""200"" style = ""float:right""></p><p><img src=images/blank.png width =""800"" height = ""200""></p>","","","","","","","","","","","",""
"","456.64500000019325","sequential-stimulus-presentation","177","364863","0.0-35.0-1.3","SS1613141601490","trial","","40","800","1256.6450000001932","images/stimuli/spore_stims/simple_12_B_c.gif","images/stimuli/spore_stims/simple_12_A_c.gif","","","","","9","simple_similar","images/stimuli/spore_stims/simple_12_A_c.gif","left","","","","",""
"","null","html-keyboard-response","178","365903","0.0-35.0-0.4","SS1613141601490","","","null","","","","","<p><img src= images/blank.png width =""200"" height = ""200"" style = ""float:right""></p><p><img src=images/blank.png width =""800"" height = ""200""></p>","","","","","","","","","","","",""
"","822.3450000004377","sequential-stimulus-presentation","179","367538","0.0-35.0-1.4","SS1613141601490","trial","","40","800","1622.3450000004377","images/stimuli/spore_stims/simple_12_B_c.gif","images/stimuli/spore_stims/simple_12_A_c.gif","","","","","9","simple_similar","images/stimuli/spore_stims/simple_12_B_c.gif","middle","","","","",""
"","null","html-keyboard-response","180","368650","0.0-35.0-0.5","SS1613141601490","","","null","","","","","<p><img src= images/blank.png width =""200"" height = ""200"" style = ""float:right""></p><p><img src=images/blank.png width =""800"" height = ""200""></p>","","","","","","","","","","","",""
"","1290.364999999816","sequential-stimulus-presentation","181","370749","0.0-35.0-1.5","SS1613141601490","trial","","40","800","2090.364999999816","images/stimuli/spore_stims/simple_12_B_c.gif","images/stimuli/spore_stims/simple_12_A_c.gif","","","","","9","simple_similar","images/stimuli/spore_stims/simple_12_A_c.gif","left","","","","",""
"","null","html-keyboard-response","182","371634","0.0-35.0-0.6","SS1613141601490","","","null","","","","","<p><img src= images/blank.png width =""200"" height = ""200"" style = ""float:right""></p><p><img src=images/blank.png width =""800"" height = ""200""></p>","","","","","","","","","","","",""
"","418.6300000001211","sequential-stimulus-presentation","183","372869","0.0-35.0-1.6","SS1613141601490","trial","","40","800","1218.630000000121","images/stimuli/spore_stims/simple_12_B_c.gif","images/stimuli/spore_stims/simple_12_A_c.gif","","","","","9","simple_similar","images/stimuli/spore_stims/simple_12_A_c.gif","left","","","","",""
"","null","html-keyboard-response","184","373919","0.0-35.0-0.7","SS1613141601490","","","null","","","","","<p><img src= images/blank.png width =""200"" height = ""200"" style = ""float:right""></p><p><img src=images/blank.png width =""800"" height = ""200""></p>","","","","","","","","","","","",""
"","451.8200000002398","sequential-stimulus-presentation","185","375178","0.0-35.0-1.7","SS1613141601490","trial","","40","800","1251.8200000002398","images/stimuli/spore_stims/simple_12_B_c.gif","images/stimuli/spore_stims/simple_12_A_c.gif","","","","","9","simple_similar","images/stimuli/spore_stims/simple_12_A_c.gif","left","","","","",""
"","636.759999999369","html-keyboard-response","186","375818","0.0-36.0","SS1613141601490","pref_question","","99","","","","","<video width ='960' height = '540' style='padding-top:8%' autoplay muted><source src='images/stimuli/wall_pref.mp4' type='video/mp4'></video>","3","right","66%","9","","","","","","","",""
"","1195.0399999996298","sequential-stimulus-presentation","187","377821","0.0-37.0","SS1613141601490","pref_reveal","","40","800","1995.0399999996298","null","null","","","","","9","","","","novel","","","",""
"","null","html-keyboard-response","188","378657","0.0-38.0-0.0","SS1613141601490","","","null","","","","","<p><img src= images/blank.png width =""200"" height = ""200"" style = ""float:right""></p><p><img src=images/blank.png width =""800"" height = ""200""></p>","","","","","","","","","","","",""
"","407.4250000002794","sequential-stimulus-presentation","189","379898","0.0-38.0-1.0","SS1613141601490","trial","","40","800","1207.4250000002794","images/stimuli/spore_stims/simple_15_B_c.gif","images/stimuli/spore_stims/simple_15_A_c.gif","","","","","10","simple_similar","images/stimuli/spore_stims/simple_15_A_c.gif","middle","","","","",""
"","null","html-keyboard-response","190","380795","0.0-38.0-0.1","SS1613141601490","","","null","","","","","<p><img src= images/blank.png width =""200"" height = ""200"" style = ""float:right""></p><p><img src=images/blank.png width =""800"" height = ""200""></p>","","","","","","","","","","","",""
"","830.6899999997695","sequential-stimulus-presentation","191","382434","0.0-38.0-1.1","SS1613141601490","trial","","40","800","1630.6899999997695","images/stimuli/spore_stims/simple_15_B_c.gif","images/stimuli/spore_stims/simple_15_A_c.gif","","","","","10","simple_similar","images/stimuli/spore_stims/simple_15_A_c.gif","middle","","","","",""
"","null","html-keyboard-response","192","383304","0.0-38.0-0.2","SS1613141601490","","","null","","","","","<p><img src= images/blank.png width =""200"" height = ""200"" style = ""float:right""></p><p><img src=images/blank.png width =""800"" height = ""200""></p>","","","","","","","","","","","",""
"","409.69999999925494","sequential-stimulus-presentation","193","384522","0.0-38.0-1.2","SS1613141601490","trial","","40","800","1209.699999999255","images/stimuli/spore_stims/simple_15_B_c.gif","images/stimuli/spore_stims/simple_15_A_c.gif","","","","","10","simple_similar","images/stimuli/spore_stims/simple_15_A_c.gif","middle","","","","",""
"","null","html-keyboard-response","194","385337","0.0-38.0-0.3","SS1613141601490","","","null","","","","","<p><img src= images/blank.png width =""200"" height = ""200"" style = ""float:right""></p><p><img src=images/blank.png width =""800"" height = ""200""></p>","","","","","","","","","","","",""
"","590.1699999994598","sequential-stimulus-presentation","195","386730","0.0-38.0-1.3","SS1613141601490","trial","","40","800","1390.1699999994598","images/stimuli/spore_stims/simple_15_B_c.gif","images/stimuli/spore_stims/simple_15_A_c.gif","","","","","10","simple_similar","images/stimuli/spore_stims/simple_15_A_c.gif","middle","","","","",""
"","null","html-keyboard-response","196","387950","0.0-38.0-0.4","SS1613141601490","","","null","","","","","<p><img src= images/blank.png width =""200"" height = ""200"" style = ""float:right""></p><p><img src=images/blank.png width =""800"" height = ""200""></p>","","","","","","","","","","","",""
"","578.2949999993434","sequential-stimulus-presentation","197","389354","0.0-38.0-1.4","SS1613141601490","trial","","40","800","1378.2949999993434","images/stimuli/spore_stims/simple_15_B_c.gif","images/stimuli/spore_stims/simple_15_A_c.gif","","","","","10","simple_similar","images/stimuli/spore_stims/simple_15_B_c.gif","left","","","","",""
"","null","html-keyboard-response","198","390611","0.0-38.0-0.5","SS1613141601490","","","null","","","","","<p><img src= images/blank.png width =""200"" height = ""200"" style = ""float:right""></p><p><img src=images/blank.png width =""800"" height = ""200""></p>","","","","","","","","","","","",""
"","392.4050000004936","sequential-stimulus-presentation","199","391811","0.0-38.0-1.5","SS1613141601490","trial","","40","800","1192.4050000004936","images/stimuli/spore_stims/simple_15_B_c.gif","images/stimuli/spore_stims/simple_15_A_c.gif","","","","","10","simple_similar","images/stimuli/spore_stims/simple_15_A_c.gif","middle","","","","",""
"","null","html-keyboard-response","200","393049","0.0-38.0-0.6","SS1613141601490","","","null","","","","","<p><img src= images/blank.png width =""200"" height = ""200"" style = ""float:right""></p><p><img src=images/blank.png width =""800"" height = ""200""></p>","","","","","","","","","","","",""
"","897.0200000003097","sequential-stimulus-presentation","201","394754","0.0-38.0-1.6","SS1613141601490","trial","","40","800","1697.0200000003097","images/stimuli/spore_stims/simple_15_B_c.gif","images/stimuli/spore_stims/simple_15_A_c.gif","","","","","10","simple_similar","images/stimuli/spore_stims/simple_15_A_c.gif","middle","","","","",""
"","null","html-keyboard-response","202","395878","0.0-38.0-0.7","SS1613141601490","","","null","","","","","<p><img src= images/blank.png width =""200"" height = ""200"" style = ""float:right""></p><p><img src=images/blank.png width =""800"" height = ""200""></p>","","","","","","","","","","","",""
"","411.9750000000349","sequential-stimulus-presentation","203","397098","0.0-38.0-1.7","SS1613141601490","trial","","40","800","1211.975000000035","images/stimuli/spore_stims/simple_15_B_c.gif","images/stimuli/spore_stims/simple_15_A_c.gif","","","","","10","simple_similar","images/stimuli/spore_stims/simple_15_A_c.gif","middle","","","","",""
"","596.4000000003143","html-keyboard-response","204","397699","0.0-39.0","SS1613141601490","pref_question","","99","","","","","<video width ='960' height = '540' style='padding-top:8%' autoplay muted><source src='images/stimuli/wall_pref.mp4' type='video/mp4'></video>","3","right","66%","10","","","","","","","",""
"","1591.4899999997579","sequential-stimulus-presentation","205","400099","0.0-40.0","SS1613141601490","pref_reveal","","40","800","2391.489999999758","null","null","","","","","10","","","","novel","","","",""
"","null","html-keyboard-response","206","401391","0.0-41.0-0.0","SS1613141601490","","","null","","","","","<p><img src= images/blank.png width =""200"" height = ""200"" style = ""float:right""></p><p><img src=images/blank.png width =""800"" height = ""200""></p>","","","","","","","","","","","",""
"","965.3799999996554","sequential-stimulus-presentation","207","403170","0.0-41.0-1.0","SS1613141601490","trial","","40","800","1765.3799999996554","images/stimuli/spore_stims/simple_03_B_a.gif","images/stimuli/spore_stims/simple_03_A_a.gif","","","","","11","simple_similar","images/stimuli/spore_stims/simple_03_A_a.gif","middle","","","","",""
"","null","html-keyboard-response","208","404375","0.0-41.0-0.1","SS1613141601490","","","null","","","","","<p><img src= images/blank.png width =""200"" height = ""200"" style = ""float:right""></p><p><img src=images/blank.png width =""800"" height = ""200""></p>","","","","","","","","","","","",""
"","461.84499999979744","sequential-stimulus-presentation","209","405642","0.0-41.0-1.1","SS1613141601490","trial","","40","800","1261.8449999997974","images/stimuli/spore_stims/simple_03_B_a.gif","images/stimuli/spore_stims/simple_03_A_a.gif","","","","","11","simple_similar","images/stimuli/spore_stims/simple_03_A_a.gif","middle","","","","",""
"","null","html-keyboard-response","210","406590","0.0-41.0-0.2","SS1613141601490","","","null","","","","","<p><img src= images/blank.png width =""200"" height = ""200"" style = ""float:right""></p><p><img src=images/blank.png width =""800"" height = ""200""></p>","","","","","","","","","","","",""
"","594.7699999996694","sequential-stimulus-presentation","211","407994","0.0-41.0-1.2","SS1613141601490","trial","","40","800","1394.7699999996694","images/stimuli/spore_stims/simple_03_B_a.gif","images/stimuli/spore_stims/simple_03_A_a.gif","","","","","11","simple_similar","images/stimuli/spore_stims/simple_03_A_a.gif","middle","","","","",""
"","null","html-keyboard-response","212","408850","0.0-41.0-0.3","SS1613141601490","","","null","","","","","<p><img src= images/blank.png width =""200"" height = ""200"" style = ""float:right""></p><p><img src=images/blank.png width =""800"" height = ""200""></p>","","","","","","","","","","","",""
"","708.009999999369","sequential-stimulus-presentation","213","410363","0.0-41.0-1.3","SS1613141601490","trial","","40","800","1508.009999999369","images/stimuli/spore_stims/simple_03_B_a.gif","images/stimuli/spore_stims/simple_03_A_a.gif","","","","","11","simple_similar","images/stimuli/spore_stims/simple_03_A_a.gif","middle","","","","",""
"","null","html-keyboard-response","214","411171","0.0-41.0-0.4","SS1613141601490","","","null","","","","","<p><img src= images/blank.png width =""200"" height = ""200"" style = ""float:right""></p><p><img src=images/blank.png width =""800"" height = ""200""></p>","","","","","","","","","","","",""
"","1140.13499999966","sequential-stimulus-presentation","215","413131","0.0-41.0-1.4","SS1613141601490","trial","","40","800","1940.13499999966","images/stimuli/spore_stims/simple_03_B_a.gif","images/stimuli/spore_stims/simple_03_A_a.gif","","","","","11","simple_similar","images/stimuli/spore_stims/simple_03_B_a.gif","right","","","","",""
"","null","html-keyboard-response","216","414134","0.0-41.0-0.5","SS1613141601490","","","null","","","","","<p><img src= images/blank.png width =""200"" height = ""200"" style = ""float:right""></p><p><img src=images/blank.png width =""800"" height = ""200""></p>","","","","","","","","","","","",""
"","7665.699999999546","sequential-stimulus-presentation","217","423179","0.0-41.0-1.5","SS1613141601490","trial","","40","800","8465.699999999546","images/stimuli/spore_stims/simple_03_B_a.gif","images/stimuli/spore_stims/simple_03_A_a.gif","","","","","11","simple_similar","images/stimuli/spore_stims/simple_03_A_a.gif","middle","","","","",""
"","null","html-keyboard-response","218","424415","0.0-41.0-0.6","SS1613141601490","","","null","","","","","<p><img src= images/blank.png width =""200"" height = ""200"" style = ""float:right""></p><p><img src=images/blank.png width =""800"" height = ""200""></p>","","","","","","","","","","","",""
"","594.7900000001537","sequential-stimulus-presentation","219","425819","0.0-41.0-1.6","SS1613141601490","trial","","40","800","1394.7900000001537","images/stimuli/spore_stims/simple_03_B_a.gif","images/stimuli/spore_stims/simple_03_A_a.gif","","","","","11","simple_similar","images/stimuli/spore_stims/simple_03_A_a.gif","middle","","","","",""
"","null","html-keyboard-response","220","427003","0.0-41.0-0.7","SS1613141601490","","","null","","","","","<p><img src= images/blank.png width =""200"" height = ""200"" style = ""float:right""></p><p><img src=images/blank.png width =""800"" height = ""200""></p>","","","","","","","","","","","",""
"","619.2449999998789","sequential-stimulus-presentation","221","428427","0.0-41.0-1.7","SS1613141601490","trial","","40","800","1419.244999999879","images/stimuli/spore_stims/simple_03_B_a.gif","images/stimuli/spore_stims/simple_03_A_a.gif","","","","","11","simple_similar","images/stimuli/spore_stims/simple_03_A_a.gif","middle","","","","",""
"","580.5350000000908","html-keyboard-response","222","429011","0.0-42.0","SS1613141601490","pref_question","","97","","","","","<video width ='960' height = '540' style='padding-top:8%' autoplay muted><source src='images/stimuli/wall_pref.mp4' type='video/mp4'></video>","1","left","25%","11","","","","","","","",""
"","1975.9650000005495","sequential-stimulus-presentation","223","431795","0.0-43.0","SS1613141601490","pref_reveal","","40","800","2775.9650000005495","null","null","","","","","11","","","","novel","","","",""
"","null","html-keyboard-response","224","432859","0.0-44.0-0.0","SS1613141601490","","","null","","","","","<p><img src= images/blank.png width =""200"" height = ""200"" style = ""float:right""></p><p><img src=images/blank.png width =""800"" height = ""200""></p>","","","","","","","","","","","",""
"","1004.7850000000908","sequential-stimulus-presentation","225","434691","0.0-44.0-1.0","SS1613141601490","trial","","40","800","1804.7850000000908","images/stimuli/spore_stims/complex_11_A_b.gif","images/stimuli/spore_stims/complex_02_B_c.gif","","","","","12","complex_dissimilar","images/stimuli/spore_stims/complex_02_B_c.gif","middle","","","","",""
"","null","html-keyboard-response","226","435722","0.0-44.0-0.1","SS1613141601490","","","null","","","","","<p><img src= images/blank.png width =""200"" height = ""200"" style = ""float:right""></p><p><img src=images/blank.png width =""800"" height = ""200""></p>","","","","","","","","","","","",""
"","762.625000000291","sequential-stimulus-presentation","227","437291","0.0-44.0-1.1","SS1613141601490","trial","","40","800","1562.625000000291","images/stimuli/spore_stims/complex_11_A_b.gif","images/stimuli/spore_stims/complex_02_B_c.gif","","","","","12","complex_dissimilar","images/stimuli/spore_stims/complex_02_B_c.gif","middle","","","","",""
"","null","html-keyboard-response","228","438235","0.0-44.0-0.2","SS1613141601490","","","null","","","","","<p><img src= images/blank.png width =""200"" height = ""200"" style = ""float:right""></p><p><img src=images/blank.png width =""800"" height = ""200""></p>","","","","","","","","","","","",""
"","770.6500000003725","sequential-stimulus-presentation","229","439814","0.0-44.0-1.2","SS1613141601490","trial","","40","800","1570.6500000003725","images/stimuli/spore_stims/complex_11_A_b.gif","images/stimuli/spore_stims/complex_02_B_c.gif","","","","","12","complex_dissimilar","images/stimuli/spore_stims/complex_02_B_c.gif","middle","","","","",""
"","null","html-keyboard-response","230","440825","0.0-44.0-0.3","SS1613141601490","","","null","","","","","<p><img src= images/blank.png width =""200"" height = ""200"" style = ""float:right""></p><p><img src=images/blank.png width =""800"" height = ""200""></p>","","","","","","","","","","","",""
"","652.5500000006869","sequential-stimulus-presentation","231","442283","0.0-44.0-1.3","SS1613141601490","trial","","40","800","1452.5500000006869","images/stimuli/spore_stims/complex_11_A_b.gif","images/stimuli/spore_stims/complex_02_B_c.gif","","","","","12","complex_dissimilar","images/stimuli/spore_stims/complex_02_B_c.gif","middle","","","","",""
"","null","html-keyboard-response","232","443465","0.0-44.0-0.4","SS1613141601490","","","null","","","","","<p><img src= images/blank.png width =""200"" height = ""200"" style = ""float:right""></p><p><img src=images/blank.png width =""800"" height = ""200""></p>","","","","","","","","","","","",""
"","465.3899999993737","sequential-stimulus-presentation","233","444740","0.0-44.0-1.4","SS1613141601490","trial","","40","800","1265.3899999993737","images/stimuli/spore_stims/complex_11_A_b.gif","images/stimuli/spore_stims/complex_02_B_c.gif","","","","","12","complex_dissimilar","images/stimuli/spore_stims/complex_02_B_c.gif","middle","","","","",""
"","null","html-keyboard-response","234","445644","0.0-44.0-0.5","SS1613141601490","","","null","","","","","<p><img src= images/blank.png width =""200"" height = ""200"" style = ""float:right""></p><p><img src=images/blank.png width =""800"" height = ""200""></p>","","","","","","","","","","","",""
"","517.815000000177","sequential-stimulus-presentation","235","446971","0.0-44.0-1.5","SS1613141601490","trial","","40","800","1317.815000000177","images/stimuli/spore_stims/complex_11_A_b.gif","images/stimuli/spore_stims/complex_02_B_c.gif","","","","","12","complex_dissimilar","images/stimuli/spore_stims/complex_02_B_c.gif","middle","","","","",""
"","null","html-keyboard-response","236","448104","0.0-44.0-0.6","SS1613141601490","","","null","","","","","<p><img src= images/blank.png width =""200"" height = ""200"" style = ""float:right""></p><p><img src=images/blank.png width =""800"" height = ""200""></p>","","","","","","","","","","","",""
"","722.8099999992992","sequential-stimulus-presentation","237","449634","0.0-44.0-1.6","SS1613141601490","trial","","40","800","1522.8099999992992","images/stimuli/spore_stims/complex_11_A_b.gif","images/stimuli/spore_stims/complex_02_B_c.gif","","","","","12","complex_dissimilar","images/stimuli/spore_stims/complex_02_B_c.gif","middle","","","","",""
"","null","html-keyboard-response","238","450472","0.0-44.0-0.7","SS1613141601490","","","null","","","","","<p><img src= images/blank.png width =""200"" height = ""200"" style = ""float:right""></p><p><img src=images/blank.png width =""800"" height = ""200""></p>","","","","","","","","","","","",""
"","1324.344999999972","sequential-stimulus-presentation","239","452624","0.0-44.0-1.7","SS1613141601490","trial","","40","800","2124.344999999972","images/stimuli/spore_stims/complex_11_A_b.gif","images/stimuli/spore_stims/complex_02_B_c.gif","","","","","12","complex_dissimilar","images/stimuli/spore_stims/complex_11_A_b.gif","left","","","","",""
"","1206.5550000006333","html-keyboard-response","240","453834","0.0-45.0","SS1613141601490","pref_question","","99","","","","","<video width ='960' height = '540' style='padding-top:8%' autoplay muted><source src='images/stimuli/wall_pref.mp4' type='video/mp4'></video>","3","right","66%","12","","","","","","","",""
"","1130.6949999998324","sequential-stimulus-presentation","241","455773","0.0-46.0","SS1613141601490","pref_reveal","","40","800","1930.6949999998324","null","null","","","","","12","","","","novel","","","",""
"","null","html-keyboard-response","242","457041","0.0-47.0-0.0","SS1613141601490","","","null","","","","","<p><img src= images/blank.png width =""200"" height = ""200"" style = ""float:right""></p><p><img src=images/blank.png width =""800"" height = ""200""></p>","","","","","","","","","","","",""
"","3765.499999999476","sequential-stimulus-presentation","243","461627","0.0-47.0-1.0","SS1613141601490","trial","","40","800","4565.499999999476","images/stimuli/spore_stims/complex_12_A_a.gif","images/stimuli/spore_stims/complex_12_B_a.gif","","","","","13","complex_similar","images/stimuli/spore_stims/complex_12_B_a.gif","middle","","","","",""
"","null","html-keyboard-response","244","462873","0.0-47.0-0.1","SS1613141601490","","","null","","","","","<p><img src= images/blank.png width =""200"" height = ""200"" style = ""float:right""></p><p><img src=images/blank.png width =""800"" height = ""200""></p>","","","","","","","","","","","",""
"","3776.5399999998626","sequential-stimulus-presentation","245","467459","0.0-47.0-1.1","SS1613141601490","trial","","40","800","4576.539999999863","images/stimuli/spore_stims/complex_12_A_a.gif","images/stimuli/spore_stims/complex_12_B_a.gif","","","","","13","complex_similar","images/stimuli/spore_stims/complex_12_B_a.gif","middle","","","","",""
"","null","html-keyboard-response","246","468628","0.0-47.0-0.2","SS1613141601490","","","null","","","","","<p><img src= images/blank.png width =""200"" height = ""200"" style = ""float:right""></p><p><img src=images/blank.png width =""800"" height = ""200""></p>","","","","","","","","","","","",""
"","12970.875","sequential-stimulus-presentation","247","482404","0.0-47.0-1.2","SS1613141601490","trial","","40","800","13770.875","images/stimuli/spore_stims/complex_12_A_a.gif","images/stimuli/spore_stims/complex_12_B_a.gif","","","","","13","complex_similar","images/stimuli/spore_stims/complex_12_B_a.gif","middle","","","","",""
"","null","html-keyboard-response","248","483706","0.0-47.0-0.3","SS1613141601490","","","null","","","","","<p><img src= images/blank.png width =""200"" height = ""200"" style = ""float:right""></p><p><img src=images/blank.png width =""800"" height = ""200""></p>","","","","","","","","","","","",""
"","12232.960000000254","sequential-stimulus-presentation","249","496752","0.0-47.0-1.3","SS1613141601490","trial","","40","800","13032.960000000254","images/stimuli/spore_stims/complex_12_A_a.gif","images/stimuli/spore_stims/complex_12_B_a.gif","","","","","13","complex_similar","images/stimuli/spore_stims/complex_12_B_a.gif","middle","","","","",""
"","null","html-keyboard-response","250","497859","0.0-47.0-0.4","SS1613141601490","","","null","","","","","<p><img src= images/blank.png width =""200"" height = ""200"" style = ""float:right""></p><p><img src=images/blank.png width =""800"" height = ""200""></p>","","","","","","","","","","","",""
"","6229.059999999648","sequential-stimulus-presentation","251","504915","0.0-47.0-1.4","SS1613141601490","trial","","40","800","7029.059999999648","images/stimuli/spore_stims/complex_12_A_a.gif","images/stimuli/spore_stims/complex_12_B_a.gif","","","","","13","complex_similar","images/stimuli/spore_stims/complex_12_A_a.gif","right","","","","",""
"","null","html-keyboard-response","252","505867","0.0-47.0-0.5","SS1613141601490","","","null","","","","","<p><img src= images/blank.png width =""200"" height = ""200"" style = ""float:right""></p><p><img src=images/blank.png width =""800"" height = ""200""></p>","","","","","","","","","","","",""
"","430.8400000000256","sequential-stimulus-presentation","253","507107","0.0-47.0-1.5","SS1613141601490","trial","","40","800","1230.8400000000256","images/stimuli/spore_stims/complex_12_A_a.gif","images/stimuli/spore_stims/complex_12_B_a.gif","","","","","13","complex_similar","images/stimuli/spore_stims/complex_12_B_a.gif","middle","","","","",""
"","null","html-keyboard-response","254","508242","0.0-47.0-0.6","SS1613141601490","","","null","","","","","<p><img src= images/blank.png width =""200"" height = ""200"" style = ""float:right""></p><p><img src=images/blank.png width =""800"" height = ""200""></p>","","","","","","","","","","","",""
"","295.2249999998603","sequential-stimulus-presentation","255","509347","0.0-47.0-1.6","SS1613141601490","trial","","40","800","1095.2249999998603","images/stimuli/spore_stims/complex_12_A_a.gif","images/stimuli/spore_stims/complex_12_B_a.gif","","","","","13","complex_similar","images/stimuli/spore_stims/complex_12_B_a.gif","middle","","","","",""
"","null","html-keyboard-response","256","510435","0.0-47.0-0.7","SS1613141601490","","","null","","","","","<p><img src= images/blank.png width =""200"" height = ""200"" style = ""float:right""></p><p><img src=images/blank.png width =""800"" height = ""200""></p>","","","","","","","","","","","",""
"","542.890000000596","sequential-stimulus-presentation","257","511787","0.0-47.0-1.7","SS1613141601490","trial","","40","800","1342.890000000596","images/stimuli/spore_stims/complex_12_A_a.gif","images/stimuli/spore_stims/complex_12_B_a.gif","","","","","13","complex_similar","images/stimuli/spore_stims/complex_12_B_a.gif","middle","","","","",""
"","730.0999999997439","html-keyboard-response","258","512523","0.0-48.0","SS1613141601490","pref_question","","97","","","","","<video width ='960' height = '540' style='padding-top:8%' autoplay muted><source src='images/stimuli/wall_pref.mp4' type='video/mp4'></video>","1","left","25%","13","","","","","","","",""
"","1764.6900000000023","sequential-stimulus-presentation","259","515102","0.0-49.0","SS1613141601490","pref_reveal","","40","800","2564.6900000000023","null","null","","","","","13","","","","novel","","","",""
"","null","html-keyboard-response","260","516061","0.0-50.0-0.0","SS1613141601490","","","null","","","","","<p><img src= images/blank.png width =""200"" height = ""200"" style = ""float:right""></p><p><img src=images/blank.png width =""800"" height = ""200""></p>","","","","","","","","","","","",""
"","2180.4549999997253","sequential-stimulus-presentation","261","519067","0.0-50.0-1.0","SS1613141601490","trial","","40","800","2980.4549999997253","images/stimuli/spore_stims/complex_17_B_c.gif","images/stimuli/spore_stims/complex_17_A_c.gif","","","","","14","complex_similar","images/stimuli/spore_stims/complex_17_A_c.gif","left","","","","",""
"","null","html-keyboard-response","262","520340","0.0-50.0-0.1","SS1613141601490","","","null","","","","","<p><img src= images/blank.png width =""200"" height = ""200"" style = ""float:right""></p><p><img src=images/blank.png width =""800"" height = ""200""></p>","","","","","","","","","","","",""
"","987.1200000006938","sequential-stimulus-presentation","263","522134","0.0-50.0-1.1","SS1613141601490","trial","","40","800","1787.1200000006938","images/stimuli/spore_stims/complex_17_B_c.gif","images/stimuli/spore_stims/complex_17_A_c.gif","","","","","14","complex_similar","images/stimuli/spore_stims/complex_17_A_c.gif","left","","","","",""
"","null","html-keyboard-response","264","522962","0.0-50.0-0.2","SS1613141601490","","","null","","","","","<p><img src= images/blank.png width =""200"" height = ""200"" style = ""float:right""></p><p><img src=images/blank.png width =""800"" height = ""200""></p>","","","","","","","","","","","",""
"","546.0149999998976","sequential-stimulus-presentation","265","524318","0.0-50.0-1.2","SS1613141601490","trial","","40","800","1346.0149999998976","images/stimuli/spore_stims/complex_17_B_c.gif","images/stimuli/spore_stims/complex_17_A_c.gif","","","","","14","complex_similar","images/stimuli/spore_stims/complex_17_A_c.gif","left","","","","",""
"","null","html-keyboard-response","266","525464","0.0-50.0-0.3","SS1613141601490","","","null","","","","","<p><img src= images/blank.png width =""200"" height = ""200"" style = ""float:right""></p><p><img src=images/blank.png width =""800"" height = ""200""></p>","","","","","","","","","","","",""
"","696.859999999986","sequential-stimulus-presentation","267","526974","0.0-50.0-1.3","SS1613141601490","trial","","40","800","1496.859999999986","images/stimuli/spore_stims/complex_17_B_c.gif","images/stimuli/spore_stims/complex_17_A_c.gif","","","","","14","complex_similar","images/stimuli/spore_stims/complex_17_A_c.gif","left","","","","",""
"","null","html-keyboard-response","268","527785","0.0-50.0-0.4","SS1613141601490","","","null","","","","","<p><img src= images/blank.png width =""200"" height = ""200"" style = ""float:right""></p><p><img src=images/blank.png width =""800"" height = ""200""></p>","","","","","","","","","","","",""
"","1066.8800000002375","sequential-stimulus-presentation","269","529672","0.0-50.0-1.4","SS1613141601490","trial","","40","800","1866.8800000002375","images/stimuli/spore_stims/complex_17_B_c.gif","images/stimuli/spore_stims/complex_17_A_c.gif","","","","","14","complex_similar","images/stimuli/spore_stims/complex_17_A_c.gif","left","","","","",""
"","null","html-keyboard-response","270","530728","0.0-50.0-0.5","SS1613141601490","","","null","","","","","<p><img src= images/blank.png width =""200"" height = ""200"" style = ""float:right""></p><p><img src=images/blank.png width =""800"" height = ""200""></p>","","","","","","","","","","","",""
"","482.35999999998603","sequential-stimulus-presentation","271","532027","0.0-50.0-1.5","SS1613141601490","trial","","40","800","1282.359999999986","images/stimuli/spore_stims/complex_17_B_c.gif","images/stimuli/spore_stims/complex_17_A_c.gif","","","","","14","complex_similar","images/stimuli/spore_stims/complex_17_B_c.gif","middle","","","","",""
"","null","html-keyboard-response","272","532846","0.0-50.0-0.6","SS1613141601490","","","null","","","","","<p><img src= images/blank.png width =""200"" height = ""200"" style = ""float:right""></p><p><img src=images/blank.png width =""800"" height = ""200""></p>","","","","","","","","","","","",""
"","889.479999999865","sequential-stimulus-presentation","273","534546","0.0-50.0-1.6","SS1613141601490","trial","","40","800","1689.479999999865","images/stimuli/spore_stims/complex_17_B_c.gif","images/stimuli/spore_stims/complex_17_A_c.gif","","","","","14","complex_similar","images/stimuli/spore_stims/complex_17_A_c.gif","left","","","","",""
"","null","html-keyboard-response","274","535411","0.0-50.0-0.7","SS1613141601490","","","null","","","","","<p><img src= images/blank.png width =""200"" height = ""200"" style = ""float:right""></p><p><img src=images/blank.png width =""800"" height = ""200""></p>","","","","","","","","","","","",""
"","627.5850000001956","sequential-stimulus-presentation","275","536850","0.0-50.0-1.7","SS1613141601490","trial","","40","800","1427.5850000001956","images/stimuli/spore_stims/complex_17_B_c.gif","images/stimuli/spore_stims/complex_17_A_c.gif","","","","","14","complex_similar","images/stimuli/spore_stims/complex_17_A_c.gif","left","","","","",""
"","882.2000000000698","html-keyboard-response","276","537738","0.0-51.0","SS1613141601490","pref_question","","99","","","","","<video width ='960' height = '540' style='padding-top:8%' autoplay muted><source src='images/stimuli/wall_pref.mp4' type='video/mp4'></video>","3","right","66%","14","","","","","","","",""
"","1309.450000000652","sequential-stimulus-presentation","277","539855","0.0-52.0","SS1613141601490","pref_reveal","","40","800","2109.450000000652","null","null","","","","","14","","","","novel","","","",""
"","null","html-keyboard-response","278","541015","0.0-53.0-0.0","SS1613141601490","","","null","","","","","<p><img src= images/blank.png width =""200"" height = ""200"" style = ""float:right""></p><p><img src=images/blank.png width =""800"" height = ""200""></p>","","","","","","","","","","","",""
"","699.0449999994598","sequential-stimulus-presentation","279","542538","0.0-53.0-1.0","SS1613141601490","trial","","40","800","1499.0449999994598","images/stimuli/spore_stims/simple_16_A_c.gif","images/stimuli/spore_stims/simple_16_B_c.gif","","","","","15","simple_similar","images/stimuli/spore_stims/simple_16_B_c.gif","right","","","","",""
"","null","html-keyboard-response","280","543615","0.0-53.0-0.1","SS1613141601490","","","null","","","","","<p><img src= images/blank.png width =""200"" height = ""200"" style = ""float:right""></p><p><img src=images/blank.png width =""800"" height = ""200""></p>","","","","","","","","","","","",""
"","644.1199999998789","sequential-stimulus-presentation","281","545071","0.0-53.0-1.1","SS1613141601490","trial","","40","800","1444.119999999879","images/stimuli/spore_stims/simple_16_A_c.gif","images/stimuli/spore_stims/simple_16_B_c.gif","","","","","15","simple_similar","images/stimuli/spore_stims/simple_16_B_c.gif","right","","","","",""
"","null","html-keyboard-response","282","545952","0.0-53.0-0.2","SS1613141601490","","","null","","","","","<p><img src= images/blank.png width =""200"" height = ""200"" style = ""float:right""></p><p><img src=images/blank.png width =""800"" height = ""200""></p>","","","","","","","","","","","",""
"","763.9549999994924","sequential-stimulus-presentation","283","547523","0.0-53.0-1.2","SS1613141601490","trial","","40","800","1563.9549999994924","images/stimuli/spore_stims/simple_16_A_c.gif","images/stimuli/spore_stims/simple_16_B_c.gif","","","","","15","simple_similar","images/stimuli/spore_stims/simple_16_B_c.gif","right","","","","",""
"","null","html-keyboard-response","284","548670","0.0-53.0-0.3","SS1613141601490","","","null","","","","","<p><img src= images/blank.png width =""200"" height = ""200"" style = ""float:right""></p><p><img src=images/blank.png width =""800"" height = ""200""></p>","","","","","","","","","","","",""
"","631.4250000005122","sequential-stimulus-presentation","285","550112","0.0-53.0-1.3","SS1613141601490","trial","","40","800","1431.4250000005122","images/stimuli/spore_stims/simple_16_A_c.gif","images/stimuli/spore_stims/simple_16_B_c.gif","","","","","15","simple_similar","images/stimuli/spore_stims/simple_16_B_c.gif","right","","","","",""
"","null","html-keyboard-response","286","550996","0.0-53.0-0.4","SS1613141601490","","","null","","","","","<p><img src= images/blank.png width =""200"" height = ""200"" style = ""float:right""></p><p><img src=images/blank.png width =""800"" height = ""200""></p>","","","","","","","","","","","",""
"","1205.7899999999208","sequential-stimulus-presentation","287","553010","0.0-53.0-1.4","SS1613141601490","trial","","40","800","2005.7899999999208","images/stimuli/spore_stims/simple_16_A_c.gif","images/stimuli/spore_stims/simple_16_B_c.gif","","","","","15","simple_similar","images/stimuli/spore_stims/simple_16_A_c.gif","middle","","","","",""
"","null","html-keyboard-response","288","553856","0.0-53.0-0.5","SS1613141601490","","","null","","","","","<p><img src= images/blank.png width =""200"" height = ""200"" style = ""float:right""></p><p><img src=images/blank.png width =""800"" height = ""200""></p>","","","","","","","","","","","",""
"","400.50999999954365","sequential-stimulus-presentation","289","555069","0.0-53.0-1.5","SS1613141601490","trial","","40","800","1200.5099999995437","images/stimuli/spore_stims/simple_16_A_c.gif","images/stimuli/spore_stims/simple_16_B_c.gif","","","","","15","simple_similar","images/stimuli/spore_stims/simple_16_B_c.gif","right","","","","",""
"","null","html-keyboard-response","290","556131","0.0-53.0-0.6","SS1613141601490","","","null","","","","","<p><img src= images/blank.png width =""200"" height = ""200"" style = ""float:right""></p><p><img src=images/blank.png width =""800"" height = ""200""></p>","","","","","","","","","","","",""
"","404.12999999988824","sequential-stimulus-presentation","291","557346","0.0-53.0-1.6","SS1613141601490","trial","","40","800","1204.1299999998882","images/stimuli/spore_stims/simple_16_A_c.gif","images/stimuli/spore_stims/simple_16_B_c.gif","","","","","15","simple_similar","images/stimuli/spore_stims/simple_16_B_c.gif","right","","","","",""
"","null","html-keyboard-response","292","558353","0.0-53.0-0.7","SS1613141601490","","","null","","","","","<p><img src= images/blank.png width =""200"" height = ""200"" style = ""float:right""></p><p><img src=images/blank.png width =""800"" height = ""200""></p>","","","","","","","","","","","",""
"","443.5299999995623","sequential-stimulus-presentation","293","559602","0.0-53.0-1.7","SS1613141601490","trial","","40","800","1243.5299999995623","images/stimuli/spore_stims/simple_16_A_c.gif","images/stimuli/spore_stims/simple_16_B_c.gif","","","","","15","simple_similar","images/stimuli/spore_stims/simple_16_B_c.gif","right","","","","",""
"","1365.195000000298","html-keyboard-response","294","560971","0.0-54.0","SS1613141601490","pref_question","","97","","","","","<video width ='960' height = '540' style='padding-top:8%' autoplay muted><source src='images/stimuli/wall_pref.mp4' type='video/mp4'></video>","1","left","25%","15","","","","","","","",""
"","15004.270000000368","sequential-stimulus-presentation","295","576797","0.0-55.0","SS1613141601490","pref_reveal","","40","800","15804.270000000368","null","null","","","","","15","","","","novel","","","",""
"","null","html-keyboard-response","296","577623","0.0-56.0-0.0","SS1613141601490","","","null","","","","","<p><img src= images/blank.png width =""200"" height = ""200"" style = ""float:right""></p><p><img src=images/blank.png width =""800"" height = ""200""></p>","","","","","","","","","","","",""
"","7908.945000000065","sequential-stimulus-presentation","297","586341","0.0-56.0-1.0","SS1613141601490","trial","","40","800","8708.945000000065","images/stimuli/spore_stims/complex_02_A_d.gif","images/stimuli/spore_stims/complex_18_A_a.gif","","","","","16","complex_dissimilar","images/stimuli/spore_stims/complex_18_A_a.gif","left","","","","",""
"","null","html-keyboard-response","298","587572","0.0-56.0-0.1","SS1613141601490","","","null","","","","","<p><img src= images/blank.png width =""200"" height = ""200"" style = ""float:right""></p><p><img src=images/blank.png width =""800"" height = ""200""></p>","","","","","","","","","","","",""
"","2560.344999999972","sequential-stimulus-presentation","299","590955","0.0-56.0-1.1","SS1613141601490","trial","","40","800","3360.344999999972","images/stimuli/spore_stims/complex_02_A_d.gif","images/stimuli/spore_stims/complex_18_A_a.gif","","","","","16","complex_dissimilar","images/stimuli/spore_stims/complex_18_A_a.gif","left","","","","",""
"","null","html-keyboard-response","300","592154","0.0-56.0-0.2","SS1613141601490","","","null","","","","","<p><img src= images/blank.png width =""200"" height = ""200"" style = ""float:right""></p><p><img src=images/blank.png width =""800"" height = ""200""></p>","","","","","","","","","","","",""
"","662.0450000000419","sequential-stimulus-presentation","301","593629","0.0-56.0-1.2","SS1613141601490","trial","","40","800","1462.045000000042","images/stimuli/spore_stims/complex_02_A_d.gif","images/stimuli/spore_stims/complex_18_A_a.gif","","","","","16","complex_dissimilar","images/stimuli/spore_stims/complex_18_A_a.gif","left","","","","",""
"","null","html-keyboard-response","302","595498","0.0-56.0-0.3","SS1613141601490","","","null","","","","","<p><img src= images/blank.png width =""200"" height = ""200"" style = ""float:right""></p><p><img src=images/blank.png width =""800"" height = ""200""></p>","","","","","","","","","","","",""
"","2660.83499999973","sequential-stimulus-presentation","303","598967","0.0-56.0-1.3","SS1613141601490","trial","","40","800","3460.83499999973","images/stimuli/spore_stims/complex_02_A_d.gif","images/stimuli/spore_stims/complex_18_A_a.gif","","","","","16","complex_dissimilar","images/stimuli/spore_stims/complex_18_A_a.gif","left","","","","",""
"","null","html-keyboard-response","304","599859","0.0-56.0-0.4","SS1613141601490","","","null","","","","","<p><img src= images/blank.png width =""200"" height = ""200"" style = ""float:right""></p><p><img src=images/blank.png width =""800"" height = ""200""></p>","","","","","","","","","","","",""
"","3279.350000000675","sequential-stimulus-presentation","305","603947","0.0-56.0-1.4","SS1613141601490","trial","","40","800","4079.350000000675","images/stimuli/spore_stims/complex_02_A_d.gif","images/stimuli/spore_stims/complex_18_A_a.gif","","","","","16","complex_dissimilar","images/stimuli/spore_stims/complex_02_A_d.gif","right","","","","",""
"","null","html-keyboard-response","306","605129","0.0-56.0-0.5","SS1613141601490","","","null","","","","","<p><img src= images/blank.png width =""200"" height = ""200"" style = ""float:right""></p><p><img src=images/blank.png width =""800"" height = ""200""></p>","","","","","","","","","","","",""
"","2977.724999999744","sequential-stimulus-presentation","307","608915","0.0-56.0-1.5","SS1613141601490","trial","","40","800","3777.724999999744","images/stimuli/spore_stims/complex_02_A_d.gif","images/stimuli/spore_stims/complex_18_A_a.gif","","","","","16","complex_dissimilar","images/stimuli/spore_stims/complex_18_A_a.gif","left","","","","",""
"","null","html-keyboard-response","308","609786","0.0-56.0-0.6","SS1613141601490","","","null","","","","","<p><img src= images/blank.png width =""200"" height = ""200"" style = ""float:right""></p><p><img src=images/blank.png width =""800"" height = ""200""></p>","","","","","","","","","","","",""
"","921.0149999998976","sequential-stimulus-presentation","309","611515","0.0-56.0-1.6","SS1613141601490","trial","","40","800","1721.0149999998976","images/stimuli/spore_stims/complex_02_A_d.gif","images/stimuli/spore_stims/complex_18_A_a.gif","","","","","16","complex_dissimilar","images/stimuli/spore_stims/complex_18_A_a.gif","left","","","","",""
"","null","html-keyboard-response","310","612466","0.0-56.0-0.7","SS1613141601490","","","null","","","","","<p><img src= images/blank.png width =""200"" height = ""200"" style = ""float:right""></p><p><img src=images/blank.png width =""800"" height = ""200""></p>","","","","","","","","","","","",""
"","872.734999999986","sequential-stimulus-presentation","311","614148","0.0-56.0-1.7","SS1613141601490","trial","","40","800","1672.734999999986","images/stimuli/spore_stims/complex_02_A_d.gif","images/stimuli/spore_stims/complex_18_A_a.gif","","","","","16","complex_dissimilar","images/stimuli/spore_stims/complex_18_A_a.gif","left","","","","",""
"","2744.3499999999767","html-keyboard-response","312","616899","0.0-57.0","SS1613141601490","pref_question","","50","","","","","<video width ='960' height = '540' style='padding-top:8%' autoplay muted><source src='images/stimuli/wall_pref.mp4' type='video/mp4'></video>","2","middle","45%","16","","","","","","","",""
