"view_history","rt","trial_type","trial_index","time_elapsed","internal_node_id","subject","stimulus_type","trial_stimulus","key_press","minimum_viewing_duration","trial_looking_time","block_deviant","block_background","stimulus","wall_pref","location","location_percent","block_number","block_type","stimulus_displayed","position_displayed","stim_type_selected","responses","question_order","stimulus_left","stimulus_right"
"[{""page_index"":0,""viewing_time"":17650.630000000092}]","17651.269999998476","instructions","0","17653","0.0-0.0","SS1613102592702","","","","","","","","","","","","","","","","","","","",""
"[{""page_index"":0,""viewing_time"":7452.3950000002515},{""page_index"":1,""viewing_time"":4487.039999999979}]","11939.824999997654","instructions","1","31596","0.0-1.0","SS1613102592702","instructions","","","","","","","","","","","","","","","","","","",""
"","7765.37499999904","sequential-stimulus-presentation","2","40168","0.0-2.0","SS1613102592702","","","40","800","8565.37499999904","null","null","","","","","","","","","","","","",""
"","2387.930000000779","sequential-stimulus-presentation","3","43359","0.0-3.0","SS1613102592702","","","40","800","3187.930000000779","null","null","","","","","","","","","","","","",""
"[{""page_index"":0,""viewing_time"":4274.300000000949}]","4274.634999997943","instructions","4","47635","0.0-4.0","SS1613102592702","instructions","","","","","","","","","","","","","","","","","","",""
"","6215.104999999312","html-keyboard-response","5","53854","0.0-5.0","SS1613102592702","instructions","","97","","","","","<video width ='960' height = '540' autoplay muted><source src='images/stimuli/wall_pref.mp4' type='video/mp4'></video>","1","left","25%","","","","","","","","",""
"","3514.1100000000733","sequential-stimulus-presentation","6","58173","0.0-6.0","SS1613102592702","pref_reveal","","40","800","4314.110000000073","null","null","","","","","","","","","","","","",""
"[{""page_index"":0,""viewing_time"":6027.669999999489},{""page_index"":1,""viewing_time"":4417.760000000271},{""page_index"":2,""viewing_time"":1229.7450000005483},{""page_index"":3,""viewing_time"":872.3150000005262}]","12547.914999999193","instructions","7","70722","0.0-7.0","SS1613102592702","instructions","","","","","","","","","","","","","","","","","","",""
"","null","html-keyboard-response","8","71747","0.0-8.0-0.0","SS1613102592702","","","null","","","","","<p><img src= images/blank.png width =""200"" height = ""200"" style = ""float:right""></p><p><img src=images/blank.png width =""800"" height = ""200""></p>","","","","","","","","","","","",""
"","203.15000000118744","sequential-stimulus-presentation","9","72756","0.0-8.0-1.0","SS1613102592702","trial","","40","800","1003.1500000011874","images/stimuli/spore_stims/simple_05_B_d.gif","images/stimuli/spore_stims/simple_05_A_d.gif","","","","","0","simple_similar","images/stimuli/spore_stims/simple_05_A_d.gif","middle","","","","",""
"","null","html-keyboard-response","10","73828","0.0-8.0-0.1","SS1613102592702","","","null","","","","","<p><img src= images/blank.png width =""200"" height = ""200"" style = ""float:right""></p><p><img src=images/blank.png width =""800"" height = ""200""></p>","","","","","","","","","","","",""
"","1508.2350000011502","sequential-stimulus-presentation","11","76141","0.0-8.0-1.1","SS1613102592702","trial","","40","800","2308.23500000115","images/stimuli/spore_stims/simple_05_B_d.gif","images/stimuli/spore_stims/simple_05_A_d.gif","","","","","0","simple_similar","images/stimuli/spore_stims/simple_05_A_d.gif","middle","","","","",""
"","null","html-keyboard-response","12","77348","0.0-8.0-0.2","SS1613102592702","","","null","","","","","<p><img src= images/blank.png width =""200"" height = ""200"" style = ""float:right""></p><p><img src=images/blank.png width =""800"" height = ""200""></p>","","","","","","","","","","","",""
"","1416.2800000012794","sequential-stimulus-presentation","13","79572","0.0-8.0-1.2","SS1613102592702","trial","","40","800","2216.2800000012794","images/stimuli/spore_stims/simple_05_B_d.gif","images/stimuli/spore_stims/simple_05_A_d.gif","","","","","0","simple_similar","images/stimuli/spore_stims/simple_05_A_d.gif","middle","","","","",""
"","null","html-keyboard-response","14","80732","0.0-8.0-0.3","SS1613102592702","","","null","","","","","<p><img src= images/blank.png width =""200"" height = ""200"" style = ""float:right""></p><p><img src=images/blank.png width =""800"" height = ""200""></p>","","","","","","","","","","","",""
"","3098.164999999426","sequential-stimulus-presentation","15","84636","0.0-8.0-1.3","SS1613102592702","trial","","40","800","3898.164999999426","images/stimuli/spore_stims/simple_05_B_d.gif","images/stimuli/spore_stims/simple_05_A_d.gif","","","","","0","simple_similar","images/stimuli/spore_stims/simple_05_A_d.gif","middle","","","","",""
"","null","html-keyboard-response","16","85508","0.0-8.0-0.4","SS1613102592702","","","null","","","","","<p><img src= images/blank.png width =""200"" height = ""200"" style = ""float:right""></p><p><img src=images/blank.png width =""800"" height = ""200""></p>","","","","","","","","","","","",""
"","3371.1249999978463","sequential-stimulus-presentation","17","89685","0.0-8.0-1.4","SS1613102592702","trial","","40","800","4171.124999997846","images/stimuli/spore_stims/simple_05_B_d.gif","images/stimuli/spore_stims/simple_05_A_d.gif","","","","","0","simple_similar","images/stimuli/spore_stims/simple_05_A_d.gif","middle","","","","",""
"","null","html-keyboard-response","18","90988","0.0-8.0-0.5","SS1613102592702","","","null","","","","","<p><img src= images/blank.png width =""200"" height = ""200"" style = ""float:right""></p><p><img src=images/blank.png width =""800"" height = ""200""></p>","","","","","","","","","","","",""
"","2850.174999999581","sequential-stimulus-presentation","19","94644","0.0-8.0-1.5","SS1613102592702","trial","","40","800","3650.174999999581","images/stimuli/spore_stims/simple_05_B_d.gif","images/stimuli/spore_stims/simple_05_A_d.gif","","","","","0","simple_similar","images/stimuli/spore_stims/simple_05_A_d.gif","middle","","","","",""
"","null","html-keyboard-response","20","95529","0.0-8.0-0.6","SS1613102592702","","","null","","","","","<p><img src= images/blank.png width =""200"" height = ""200"" style = ""float:right""></p><p><img src=images/blank.png width =""800"" height = ""200""></p>","","","","","","","","","","","",""
"","2485.354999997071","sequential-stimulus-presentation","21","98819","0.0-8.0-1.6","SS1613102592702","trial","","40","800","3285.354999997071","images/stimuli/spore_stims/simple_05_B_d.gif","images/stimuli/spore_stims/simple_05_A_d.gif","","","","","0","simple_similar","images/stimuli/spore_stims/simple_05_A_d.gif","middle","","","","",""
"","null","html-keyboard-response","22","99983","0.0-8.0-0.7","SS1613102592702","","","null","","","","","<p><img src= images/blank.png width =""200"" height = ""200"" style = ""float:right""></p><p><img src=images/blank.png width =""800"" height = ""200""></p>","","","","","","","","","","","",""
"","2352.6200000014796","sequential-stimulus-presentation","23","103140","0.0-8.0-1.7","SS1613102592702","trial","","40","800","3152.6200000014796","images/stimuli/spore_stims/simple_05_B_d.gif","images/stimuli/spore_stims/simple_05_A_d.gif","","","","","0","simple_similar","images/stimuli/spore_stims/simple_05_B_d.gif","right","","","","",""
"","3107.8600000000733","html-keyboard-response","24","106251","0.0-9.0","SS1613102592702","pref_question","","97","","","","","<video width ='960' height = '540' style='padding-top:8%' autoplay muted><source src='images/stimuli/wall_pref.mp4' type='video/mp4'></video>","1","left","25%","0","","","","","","","",""
"","2755.249999998341","sequential-stimulus-presentation","25","109811","0.0-10.0","SS1613102592702","pref_reveal","","40","800","3555.249999998341","null","null","","","","","0","","","","novel","","","",""
"","null","html-keyboard-response","26","110745","0.0-11.0-0.0","SS1613102592702","","","null","","","","","<p><img src= images/blank.png width =""200"" height = ""200"" style = ""float:right""></p><p><img src=images/blank.png width =""800"" height = ""200""></p>","","","","","","","","","","","",""
"","2860.340000002907","sequential-stimulus-presentation","27","114413","0.0-11.0-1.0","SS1613102592702","trial","","40","800","3660.340000002907","images/stimuli/spore_stims/complex_05_B_b.gif","images/stimuli/spore_stims/complex_03_A_a.gif","","","","","1","complex_dissimilar","images/stimuli/spore_stims/complex_03_A_a.gif","right","","","","",""
"","null","html-keyboard-response","28","115665","0.0-11.0-0.1","SS1613102592702","","","null","","","","","<p><img src= images/blank.png width =""200"" height = ""200"" style = ""float:right""></p><p><img src=images/blank.png width =""800"" height = ""200""></p>","","","","","","","","","","","",""
"","2876.8749999981083","sequential-stimulus-presentation","29","119347","0.0-11.0-1.1","SS1613102592702","trial","","40","800","3676.8749999981083","images/stimuli/spore_stims/complex_05_B_b.gif","images/stimuli/spore_stims/complex_03_A_a.gif","","","","","1","complex_dissimilar","images/stimuli/spore_stims/complex_03_A_a.gif","right","","","","",""
"","null","html-keyboard-response","30","120372","0.0-11.0-0.2","SS1613102592702","","","null","","","","","<p><img src= images/blank.png width =""200"" height = ""200"" style = ""float:right""></p><p><img src=images/blank.png width =""800"" height = ""200""></p>","","","","","","","","","","","",""
"","2792.92500000156","sequential-stimulus-presentation","31","123971","0.0-11.0-1.2","SS1613102592702","trial","","40","800","3592.92500000156","images/stimuli/spore_stims/complex_05_B_b.gif","images/stimuli/spore_stims/complex_03_A_a.gif","","","","","1","complex_dissimilar","images/stimuli/spore_stims/complex_03_A_a.gif","right","","","","",""
"","null","html-keyboard-response","32","125160","0.0-11.0-0.3","SS1613102592702","","","null","","","","","<p><img src= images/blank.png width =""200"" height = ""200"" style = ""float:right""></p><p><img src=images/blank.png width =""800"" height = ""200""></p>","","","","","","","","","","","",""
"","2629.9399999988964","sequential-stimulus-presentation","33","128595","0.0-11.0-1.3","SS1613102592702","trial","","40","800","3429.9399999988964","images/stimuli/spore_stims/complex_05_B_b.gif","images/stimuli/spore_stims/complex_03_A_a.gif","","","","","1","complex_dissimilar","images/stimuli/spore_stims/complex_05_B_b.gif","left","","","","",""
"","null","html-keyboard-response","34","129522","0.0-11.0-0.4","SS1613102592702","","","null","","","","","<p><img src= images/blank.png width =""200"" height = ""200"" style = ""float:right""></p><p><img src=images/blank.png width =""800"" height = ""200""></p>","","","","","","","","","","","",""
"","2090.4850000006263","sequential-stimulus-presentation","35","132418","0.0-11.0-1.4","SS1613102592702","trial","","40","800","2890.4850000006263","images/stimuli/spore_stims/complex_05_B_b.gif","images/stimuli/spore_stims/complex_03_A_a.gif","","","","","1","complex_dissimilar","images/stimuli/spore_stims/complex_03_A_a.gif","right","","","","",""
"","null","html-keyboard-response","36","133289","0.0-11.0-0.5","SS1613102592702","","","null","","","","","<p><img src= images/blank.png width =""200"" height = ""200"" style = ""float:right""></p><p><img src=images/blank.png width =""800"" height = ""200""></p>","","","","","","","","","","","",""
"","2780.7250000005297","sequential-stimulus-presentation","37","136875","0.0-11.0-1.5","SS1613102592702","trial","","40","800","3580.7250000005297","images/stimuli/spore_stims/complex_05_B_b.gif","images/stimuli/spore_stims/complex_03_A_a.gif","","","","","1","complex_dissimilar","images/stimuli/spore_stims/complex_03_A_a.gif","right","","","","",""
"","null","html-keyboard-response","38","137947","0.0-11.0-0.6","SS1613102592702","","","null","","","","","<p><img src= images/blank.png width =""200"" height = ""200"" style = ""float:right""></p><p><img src=images/blank.png width =""800"" height = ""200""></p>","","","","","","","","","","","",""
"","1994.2149999988033","sequential-stimulus-presentation","39","140747","0.0-11.0-1.6","SS1613102592702","trial","","40","800","2794.2149999988033","images/stimuli/spore_stims/complex_05_B_b.gif","images/stimuli/spore_stims/complex_03_A_a.gif","","","","","1","complex_dissimilar","images/stimuli/spore_stims/complex_03_A_a.gif","right","","","","",""
"","null","html-keyboard-response","40","141646","0.0-11.0-0.7","SS1613102592702","","","null","","","","","<p><img src= images/blank.png width =""200"" height = ""200"" style = ""float:right""></p><p><img src=images/blank.png width =""800"" height = ""200""></p>","","","","","","","","","","","",""
"","2135.4750000027707","sequential-stimulus-presentation","41","144586","0.0-11.0-1.7","SS1613102592702","trial","","40","800","2935.4750000027707","images/stimuli/spore_stims/complex_05_B_b.gif","images/stimuli/spore_stims/complex_03_A_a.gif","","","","","1","complex_dissimilar","images/stimuli/spore_stims/complex_03_A_a.gif","right","","","","",""
"","2562.7650000024005","html-keyboard-response","42","147154","0.0-12.0","SS1613102592702","pref_question","","98","","","","","<video width ='960' height = '540' style='padding-top:8%' autoplay muted><source src='images/stimuli/wall_pref.mp4' type='video/mp4'></video>","2","middle","45%","1","","","","","","","",""
"","3576.7549999982293","sequential-stimulus-presentation","43","151539","0.0-13.0","SS1613102592702","pref_reveal","","40","800","4376.754999998229","null","null","","","","","1","","","","novel","","","",""
"","null","html-keyboard-response","44","152768","0.0-14.0-0.0","SS1613102592702","","","null","","","","","<p><img src= images/blank.png width =""200"" height = ""200"" style = ""float:right""></p><p><img src=images/blank.png width =""800"" height = ""200""></p>","","","","","","","","","","","",""
"","1411.244999999326","sequential-stimulus-presentation","45","154986","0.0-14.0-1.0","SS1613102592702","trial","","40","800","2211.244999999326","images/stimuli/spore_stims/simple_01_A_d.gif","images/stimuli/spore_stims/simple_08_A_d.gif","","","","","2","simple_dissimilar","images/stimuli/spore_stims/simple_08_A_d.gif","middle","","","","",""
"","null","html-keyboard-response","46","155911","0.0-14.0-0.1","SS1613102592702","","","null","","","","","<p><img src= images/blank.png width =""200"" height = ""200"" style = ""float:right""></p><p><img src=images/blank.png width =""800"" height = ""200""></p>","","","","","","","","","","","",""
"","2061.6399999998976","sequential-stimulus-presentation","47","158778","0.0-14.0-1.1","SS1613102592702","trial","","40","800","2861.6399999998976","images/stimuli/spore_stims/simple_01_A_d.gif","images/stimuli/spore_stims/simple_08_A_d.gif","","","","","2","simple_dissimilar","images/stimuli/spore_stims/simple_08_A_d.gif","middle","","","","",""
"","null","html-keyboard-response","48","160024","0.0-14.0-0.2","SS1613102592702","","","null","","","","","<p><img src= images/blank.png width =""200"" height = ""200"" style = ""float:right""></p><p><img src=images/blank.png width =""800"" height = ""200""></p>","","","","","","","","","","","",""
"","2068.1450000010955","sequential-stimulus-presentation","49","162898","0.0-14.0-1.2","SS1613102592702","trial","","40","800","2868.1450000010955","images/stimuli/spore_stims/simple_01_A_d.gif","images/stimuli/spore_stims/simple_08_A_d.gif","","","","","2","simple_dissimilar","images/stimuli/spore_stims/simple_01_A_d.gif","left","","","","",""
"","null","html-keyboard-response","50","163839","0.0-14.0-0.3","SS1613102592702","","","null","","","","","<p><img src= images/blank.png width =""200"" height = ""200"" style = ""float:right""></p><p><img src=images/blank.png width =""800"" height = ""200""></p>","","","","","","","","","","","",""
"","3557.66500000027","sequential-stimulus-presentation","51","168201","0.0-14.0-1.3","SS1613102592702","trial","","40","800","4357.66500000027","images/stimuli/spore_stims/simple_01_A_d.gif","images/stimuli/spore_stims/simple_08_A_d.gif","","","","","2","simple_dissimilar","images/stimuli/spore_stims/simple_08_A_d.gif","middle","","","","",""
"","null","html-keyboard-response","52","169384","0.0-14.0-0.4","SS1613102592702","","","null","","","","","<p><img src= images/blank.png width =""200"" height = ""200"" style = ""float:right""></p><p><img src=images/blank.png width =""800"" height = ""200""></p>","","","","","","","","","","","",""
"","3907.774999999674","sequential-stimulus-presentation","53","174098","0.0-14.0-1.4","SS1613102592702","trial","","40","800","4707.774999999674","images/stimuli/spore_stims/simple_01_A_d.gif","images/stimuli/spore_stims/simple_08_A_d.gif","","","","","2","simple_dissimilar","images/stimuli/spore_stims/simple_08_A_d.gif","middle","","","","",""
"","null","html-keyboard-response","54","175242","0.0-14.0-0.5","SS1613102592702","","","null","","","","","<p><img src= images/blank.png width =""200"" height = ""200"" style = ""float:right""></p><p><img src=images/blank.png width =""800"" height = ""200""></p>","","","","","","","","","","","",""
"","2520.8550000024843","sequential-stimulus-presentation","55","178569","0.0-14.0-1.5","SS1613102592702","trial","","40","800","3320.8550000024843","images/stimuli/spore_stims/simple_01_A_d.gif","images/stimuli/spore_stims/simple_08_A_d.gif","","","","","2","simple_dissimilar","images/stimuli/spore_stims/simple_08_A_d.gif","middle","","","","",""
"","null","html-keyboard-response","56","179651","0.0-14.0-0.6","SS1613102592702","","","null","","","","","<p><img src= images/blank.png width =""200"" height = ""200"" style = ""float:right""></p><p><img src=images/blank.png width =""800"" height = ""200""></p>","","","","","","","","","","","",""
"","1328.9199999999255","sequential-stimulus-presentation","57","181785","0.0-14.0-1.6","SS1613102592702","trial","","40","800","2128.9199999999255","images/stimuli/spore_stims/simple_01_A_d.gif","images/stimuli/spore_stims/simple_08_A_d.gif","","","","","2","simple_dissimilar","images/stimuli/spore_stims/simple_08_A_d.gif","middle","","","","",""
"","null","html-keyboard-response","58","182720","0.0-14.0-0.7","SS1613102592702","","","null","","","","","<p><img src= images/blank.png width =""200"" height = ""200"" style = ""float:right""></p><p><img src=images/blank.png width =""800"" height = ""200""></p>","","","","","","","","","","","",""
"","1243.865000000369","sequential-stimulus-presentation","59","184770","0.0-14.0-1.7","SS1613102592702","trial","","40","800","2043.865000000369","images/stimuli/spore_stims/simple_01_A_d.gif","images/stimuli/spore_stims/simple_08_A_d.gif","","","","","2","simple_dissimilar","images/stimuli/spore_stims/simple_08_A_d.gif","middle","","","","",""
"","2857.2800000001735","html-keyboard-response","60","187633","0.0-15.0","SS1613102592702","pref_question","","99","","","","","<video width ='960' height = '540' style='padding-top:8%' autoplay muted><source src='images/stimuli/wall_pref.mp4' type='video/mp4'></video>","3","right","66%","2","","","","","","","",""
"","2795.7399999977497","sequential-stimulus-presentation","61","191234","0.0-16.0","SS1613102592702","pref_reveal","","40","800","3595.7399999977497","null","null","","","","","2","","","","novel","","","",""
"","null","html-keyboard-response","62","192188","0.0-17.0-0.0","SS1613102592702","","","null","","","","","<p><img src= images/blank.png width =""200"" height = ""200"" style = ""float:right""></p><p><img src=images/blank.png width =""800"" height = ""200""></p>","","","","","","","","","","","",""
"","1455.3850000011153","sequential-stimulus-presentation","63","194449","0.0-17.0-1.0","SS1613102592702","trial","","40","800","2255.3850000011153","images/stimuli/spore_stims/simple_06_A_c.gif","images/stimuli/spore_stims/simple_14_B_c.gif","","","","","3","simple_dissimilar","images/stimuli/spore_stims/simple_14_B_c.gif","middle","","","","",""
"","null","html-keyboard-response","64","195613","0.0-17.0-0.1","SS1613102592702","","","null","","","","","<p><img src= images/blank.png width =""200"" height = ""200"" style = ""float:right""></p><p><img src=images/blank.png width =""800"" height = ""200""></p>","","","","","","","","","","","",""
"","1006.3200000004144","sequential-stimulus-presentation","65","197425","0.0-17.0-1.1","SS1613102592702","trial","","40","800","1806.3200000004144","images/stimuli/spore_stims/simple_06_A_c.gif","images/stimuli/spore_stims/simple_14_B_c.gif","","","","","3","simple_dissimilar","images/stimuli/spore_stims/simple_14_B_c.gif","middle","","","","",""
"","null","html-keyboard-response","66","198656","0.0-17.0-0.2","SS1613102592702","","","null","","","","","<p><img src= images/blank.png width =""200"" height = ""200"" style = ""float:right""></p><p><img src=images/blank.png width =""800"" height = ""200""></p>","","","","","","","","","","","",""
"","1346.109999998589","sequential-stimulus-presentation","67","200809","0.0-17.0-1.2","SS1613102592702","trial","","40","800","2146.109999998589","images/stimuli/spore_stims/simple_06_A_c.gif","images/stimuli/spore_stims/simple_14_B_c.gif","","","","","3","simple_dissimilar","images/stimuli/spore_stims/simple_06_A_c.gif","right","","","","",""
"","null","html-keyboard-response","68","201615","0.0-17.0-0.3","SS1613102592702","","","null","","","","","<p><img src= images/blank.png width =""200"" height = ""200"" style = ""float:right""></p><p><img src=images/blank.png width =""800"" height = ""200""></p>","","","","","","","","","","","",""
"","1036.2500000010186","sequential-stimulus-presentation","69","203457","0.0-17.0-1.3","SS1613102592702","trial","","40","800","1836.2500000010186","images/stimuli/spore_stims/simple_06_A_c.gif","images/stimuli/spore_stims/simple_14_B_c.gif","","","","","3","simple_dissimilar","images/stimuli/spore_stims/simple_14_B_c.gif","middle","","","","",""
"","null","html-keyboard-response","70","204697","0.0-17.0-0.4","SS1613102592702","","","null","","","","","<p><img src= images/blank.png width =""200"" height = ""200"" style = ""float:right""></p><p><img src=images/blank.png width =""800"" height = ""200""></p>","","","","","","","","","","","",""
"","873.3200000024226","sequential-stimulus-presentation","71","206376","0.0-17.0-1.4","SS1613102592702","trial","","40","800","1673.3200000024226","images/stimuli/spore_stims/simple_06_A_c.gif","images/stimuli/spore_stims/simple_14_B_c.gif","","","","","3","simple_dissimilar","images/stimuli/spore_stims/simple_14_B_c.gif","middle","","","","",""
"","null","html-keyboard-response","72","207593","0.0-17.0-0.5","SS1613102592702","","","null","","","","","<p><img src= images/blank.png width =""200"" height = ""200"" style = ""float:right""></p><p><img src=images/blank.png width =""800"" height = ""200""></p>","","","","","","","","","","","",""
"","784.5799999995506","sequential-stimulus-presentation","73","209185","0.0-17.0-1.5","SS1613102592702","trial","","40","800","1584.5799999995506","images/stimuli/spore_stims/simple_06_A_c.gif","images/stimuli/spore_stims/simple_14_B_c.gif","","","","","3","simple_dissimilar","images/stimuli/spore_stims/simple_14_B_c.gif","middle","","","","",""
"","null","html-keyboard-response","74","210282","0.0-17.0-0.6","SS1613102592702","","","null","","","","","<p><img src= images/blank.png width =""200"" height = ""200"" style = ""float:right""></p><p><img src=images/blank.png width =""800"" height = ""200""></p>","","","","","","","","","","","",""
"","501.87000000005355","sequential-stimulus-presentation","75","211608","0.0-17.0-1.6","SS1613102592702","trial","","40","800","1301.8700000000536","images/stimuli/spore_stims/simple_06_A_c.gif","images/stimuli/spore_stims/simple_14_B_c.gif","","","","","3","simple_dissimilar","images/stimuli/spore_stims/simple_14_B_c.gif","middle","","","","",""
"","null","html-keyboard-response","76","212497","0.0-17.0-0.7","SS1613102592702","","","null","","","","","<p><img src= images/blank.png width =""200"" height = ""200"" style = ""float:right""></p><p><img src=images/blank.png width =""800"" height = ""200""></p>","","","","","","","","","","","",""
"","1123.0050000012852","sequential-stimulus-presentation","77","214425","0.0-17.0-1.7","SS1613102592702","trial","","40","800","1923.0050000012852","images/stimuli/spore_stims/simple_06_A_c.gif","images/stimuli/spore_stims/simple_14_B_c.gif","","","","","3","simple_dissimilar","images/stimuli/spore_stims/simple_14_B_c.gif","middle","","","","",""
"","2025.6499999995867","html-keyboard-response","78","216457","0.0-18.0","SS1613102592702","pref_question","","97","","","","","<video width ='960' height = '540' style='padding-top:8%' autoplay muted><source src='images/stimuli/wall_pref.mp4' type='video/mp4'></video>","1","left","25%","3","","","","","","","",""
"","2178.2399999974587","sequential-stimulus-presentation","79","219441","0.0-19.0","SS1613102592702","pref_reveal","","40","800","2978.2399999974587","null","null","","","","","3","","","","novel","","","",""
"","null","html-keyboard-response","80","220318","0.0-20.0-0.0","SS1613102592702","","","null","","","","","<p><img src= images/blank.png width =""200"" height = ""200"" style = ""float:right""></p><p><img src=images/blank.png width =""800"" height = ""200""></p>","","","","","","","","","","","",""
"","1691.2549999979092","sequential-stimulus-presentation","81","222816","0.0-20.0-1.0","SS1613102592702","trial","","40","800","2491.254999997909","images/stimuli/spore_stims/simple_05_B_a.gif","images/stimuli/spore_stims/simple_04_A_b.gif","","","","","4","simple_dissimilar","images/stimuli/spore_stims/simple_04_A_b.gif","left","","","","",""
"","null","html-keyboard-response","82","223963","0.0-20.0-0.1","SS1613102592702","","","null","","","","","<p><img src= images/blank.png width =""200"" height = ""200"" style = ""float:right""></p><p><img src=images/blank.png width =""800"" height = ""200""></p>","","","","","","","","","","","",""
"","2518.705000002228","sequential-stimulus-presentation","83","227288","0.0-20.0-1.1","SS1613102592702","trial","","40","800","3318.705000002228","images/stimuli/spore_stims/simple_05_B_a.gif","images/stimuli/spore_stims/simple_04_A_b.gif","","","","","4","simple_dissimilar","images/stimuli/spore_stims/simple_04_A_b.gif","left","","","","",""
"","null","html-keyboard-response","84","228253","0.0-20.0-0.2","SS1613102592702","","","null","","","","","<p><img src= images/blank.png width =""200"" height = ""200"" style = ""float:right""></p><p><img src=images/blank.png width =""800"" height = ""200""></p>","","","","","","","","","","","",""
"","2033.2950000010896","sequential-stimulus-presentation","85","231097","0.0-20.0-1.2","SS1613102592702","trial","","40","800","2833.2950000010896","images/stimuli/spore_stims/simple_05_B_a.gif","images/stimuli/spore_stims/simple_04_A_b.gif","","","","","4","simple_dissimilar","images/stimuli/spore_stims/simple_04_A_b.gif","left","","","","",""
"","null","html-keyboard-response","86","232348","0.0-20.0-0.3","SS1613102592702","","","null","","","","","<p><img src= images/blank.png width =""200"" height = ""200"" style = ""float:right""></p><p><img src=images/blank.png width =""800"" height = ""200""></p>","","","","","","","","","","","",""
"","1963.9850000021397","sequential-stimulus-presentation","87","235119","0.0-20.0-1.3","SS1613102592702","trial","","40","800","2763.9850000021397","images/stimuli/spore_stims/simple_05_B_a.gif","images/stimuli/spore_stims/simple_04_A_b.gif","","","","","4","simple_dissimilar","images/stimuli/spore_stims/simple_05_B_a.gif","middle","","","","",""
"","null","html-keyboard-response","88","236256","0.0-20.0-0.4","SS1613102592702","","","null","","","","","<p><img src= images/blank.png width =""200"" height = ""200"" style = ""float:right""></p><p><img src=images/blank.png width =""800"" height = ""200""></p>","","","","","","","","","","","",""
"","1246.9999999993888","sequential-stimulus-presentation","89","238312","0.0-20.0-1.4","SS1613102592702","trial","","40","800","2046.9999999993888","images/stimuli/spore_stims/simple_05_B_a.gif","images/stimuli/spore_stims/simple_04_A_b.gif","","","","","4","simple_dissimilar","images/stimuli/spore_stims/simple_04_A_b.gif","left","","","","",""
"","null","html-keyboard-response","90","239310","0.0-20.0-0.5","SS1613102592702","","","null","","","","","<p><img src= images/blank.png width =""200"" height = ""200"" style = ""float:right""></p><p><img src=images/blank.png width =""800"" height = ""200""></p>","","","","","","","","","","","",""
"","1138.2999999987078","sequential-stimulus-presentation","91","241256","0.0-20.0-1.5","SS1613102592702","trial","","40","800","1938.2999999987078","images/stimuli/spore_stims/simple_05_B_a.gif","images/stimuli/spore_stims/simple_04_A_b.gif","","","","","4","simple_dissimilar","images/stimuli/spore_stims/simple_04_A_b.gif","left","","","","",""
"","null","html-keyboard-response","92","242376","0.0-20.0-0.6","SS1613102592702","","","null","","","","","<p><img src= images/blank.png width =""200"" height = ""200"" style = ""float:right""></p><p><img src=images/blank.png width =""800"" height = ""200""></p>","","","","","","","","","","","",""
"","944.9449999992794","sequential-stimulus-presentation","93","244128","0.0-20.0-1.6","SS1613102592702","trial","","40","800","1744.9449999992794","images/stimuli/spore_stims/simple_05_B_a.gif","images/stimuli/spore_stims/simple_04_A_b.gif","","","","","4","simple_dissimilar","images/stimuli/spore_stims/simple_04_A_b.gif","left","","","","",""
"","null","html-keyboard-response","94","245245","0.0-20.0-0.7","SS1613102592702","","","null","","","","","<p><img src= images/blank.png width =""200"" height = ""200"" style = ""float:right""></p><p><img src=images/blank.png width =""800"" height = ""200""></p>","","","","","","","","","","","",""
"","474.4299999983923","sequential-stimulus-presentation","95","246528","0.0-20.0-1.7","SS1613102592702","trial","","40","800","1274.4299999983923","images/stimuli/spore_stims/simple_05_B_a.gif","images/stimuli/spore_stims/simple_04_A_b.gif","","","","","4","simple_dissimilar","images/stimuli/spore_stims/simple_04_A_b.gif","left","","","","",""
"","1786.404999998922","html-keyboard-response","96","248320","0.0-21.0","SS1613102592702","pref_question","","98","","","","","<video width ='960' height = '540' style='padding-top:8%' autoplay muted><source src='images/stimuli/wall_pref.mp4' type='video/mp4'></video>","2","middle","45%","4","","","","","","","",""
"","1271.404999999504","sequential-stimulus-presentation","97","250399","0.0-22.0","SS1613102592702","pref_reveal","","40","800","2071.404999999504","null","null","","","","","4","","","","deviant","","","",""
"","null","html-keyboard-response","98","251239","0.0-23.0-0.0","SS1613102592702","","","null","","","","","<p><img src= images/blank.png width =""200"" height = ""200"" style = ""float:right""></p><p><img src=images/blank.png width =""800"" height = ""200""></p>","","","","","","","","","","","",""
"","2308.3999999981024","sequential-stimulus-presentation","99","254353","0.0-23.0-1.0","SS1613102592702","trial","","40","800","3108.3999999981024","images/stimuli/spore_stims/complex_02_B_b.gif","images/stimuli/spore_stims/complex_05_A_b.gif","","","","","5","complex_dissimilar","images/stimuli/spore_stims/complex_05_A_b.gif","left","","","","",""
"","null","html-keyboard-response","100","255433","0.0-23.0-0.1","SS1613102592702","","","null","","","","","<p><img src= images/blank.png width =""200"" height = ""200"" style = ""float:right""></p><p><img src=images/blank.png width =""800"" height = ""200""></p>","","","","","","","","","","","",""
"","2054.420000000391","sequential-stimulus-presentation","101","258295","0.0-23.0-1.1","SS1613102592702","trial","","40","800","2854.420000000391","images/stimuli/spore_stims/complex_02_B_b.gif","images/stimuli/spore_stims/complex_05_A_b.gif","","","","","5","complex_dissimilar","images/stimuli/spore_stims/complex_05_A_b.gif","left","","","","",""
"","null","html-keyboard-response","102","259268","0.0-23.0-0.2","SS1613102592702","","","null","","","","","<p><img src= images/blank.png width =""200"" height = ""200"" style = ""float:right""></p><p><img src=images/blank.png width =""800"" height = ""200""></p>","","","","","","","","","","","",""
"","1212.5750000014086","sequential-stimulus-presentation","103","261287","0.0-23.0-1.2","SS1613102592702","trial","","40","800","2012.5750000014086","images/stimuli/spore_stims/complex_02_B_b.gif","images/stimuli/spore_stims/complex_05_A_b.gif","","","","","5","complex_dissimilar","images/stimuli/spore_stims/complex_05_A_b.gif","left","","","","",""
"","null","html-keyboard-response","104","262297","0.0-23.0-0.3","SS1613102592702","","","null","","","","","<p><img src= images/blank.png width =""200"" height = ""200"" style = ""float:right""></p><p><img src=images/blank.png width =""800"" height = ""200""></p>","","","","","","","","","","","",""
"","1110.8249999997788","sequential-stimulus-presentation","105","264215","0.0-23.0-1.3","SS1613102592702","trial","","40","800","1910.8249999997788","images/stimuli/spore_stims/complex_02_B_b.gif","images/stimuli/spore_stims/complex_05_A_b.gif","","","","","5","complex_dissimilar","images/stimuli/spore_stims/complex_05_A_b.gif","left","","","","",""
"","null","html-keyboard-response","106","265020","0.0-23.0-0.4","SS1613102592702","","","null","","","","","<p><img src= images/blank.png width =""200"" height = ""200"" style = ""float:right""></p><p><img src=images/blank.png width =""800"" height = ""200""></p>","","","","","","","","","","","",""
"","1282.5200000007171","sequential-stimulus-presentation","107","267111","0.0-23.0-1.4","SS1613102592702","trial","","40","800","2082.520000000717","images/stimuli/spore_stims/complex_02_B_b.gif","images/stimuli/spore_stims/complex_05_A_b.gif","","","","","5","complex_dissimilar","images/stimuli/spore_stims/complex_02_B_b.gif","middle","","","","",""
"","null","html-keyboard-response","108","268413","0.0-23.0-0.5","SS1613102592702","","","null","","","","","<p><img src= images/blank.png width =""200"" height = ""200"" style = ""float:right""></p><p><img src=images/blank.png width =""800"" height = ""200""></p>","","","","","","","","","","","",""
"","1162.9350000002887","sequential-stimulus-presentation","109","270382","0.0-23.0-1.5","SS1613102592702","trial","","40","800","1962.9350000002887","images/stimuli/spore_stims/complex_02_B_b.gif","images/stimuli/spore_stims/complex_05_A_b.gif","","","","","5","complex_dissimilar","images/stimuli/spore_stims/complex_05_A_b.gif","left","","","","",""
"","null","html-keyboard-response","110","271301","0.0-23.0-0.6","SS1613102592702","","","null","","","","","<p><img src= images/blank.png width =""200"" height = ""200"" style = ""float:right""></p><p><img src=images/blank.png width =""800"" height = ""200""></p>","","","","","","","","","","","",""
"","834.9500000004191","sequential-stimulus-presentation","111","272943","0.0-23.0-1.6","SS1613102592702","trial","","40","800","1634.950000000419","images/stimuli/spore_stims/complex_02_B_b.gif","images/stimuli/spore_stims/complex_05_A_b.gif","","","","","5","complex_dissimilar","images/stimuli/spore_stims/complex_05_A_b.gif","left","","","","",""
"","null","html-keyboard-response","112","274102","0.0-23.0-0.7","SS1613102592702","","","null","","","","","<p><img src= images/blank.png width =""200"" height = ""200"" style = ""float:right""></p><p><img src=images/blank.png width =""800"" height = ""200""></p>","","","","","","","","","","","",""
"","689.5349999977043","sequential-stimulus-presentation","113","275599","0.0-23.0-1.7","SS1613102592702","trial","","40","800","1489.5349999977043","images/stimuli/spore_stims/complex_02_B_b.gif","images/stimuli/spore_stims/complex_05_A_b.gif","","","","","5","complex_dissimilar","images/stimuli/spore_stims/complex_05_A_b.gif","left","","","","",""
"","1697.9800000007963","html-keyboard-response","114","277303","0.0-24.0","SS1613102592702","pref_question","","99","","","","","<video width ='960' height = '540' style='padding-top:8%' autoplay muted><source src='images/stimuli/wall_pref.mp4' type='video/mp4'></video>","3","right","66%","5","","","","","","","",""
"","1806.7000000010012","sequential-stimulus-presentation","115","279919","0.0-25.0","SS1613102592702","pref_reveal","","40","800","2606.700000001001","null","null","","","","","5","","","","novel","","","",""
"","null","html-keyboard-response","116","281140","0.0-26.0-0.0","SS1613102592702","","","null","","","","","<p><img src= images/blank.png width =""200"" height = ""200"" style = ""float:right""></p><p><img src=images/blank.png width =""800"" height = ""200""></p>","","","","","","","","","","","",""
"","2196.444999997737","sequential-stimulus-presentation","117","284142","0.0-26.0-1.0","SS1613102592702","trial","","40","800","2996.444999997737","images/stimuli/spore_stims/complex_12_B_c.gif","images/stimuli/spore_stims/complex_12_A_c.gif","","","","","6","complex_similar","images/stimuli/spore_stims/complex_12_A_c.gif","right","","","","",""
"","null","html-keyboard-response","118","285261","0.0-26.0-0.1","SS1613102592702","","","null","","","","","<p><img src= images/blank.png width =""200"" height = ""200"" style = ""float:right""></p><p><img src=images/blank.png width =""800"" height = ""200""></p>","","","","","","","","","","","",""
"","2074.0700000023935","sequential-stimulus-presentation","119","288143","0.0-26.0-1.1","SS1613102592702","trial","","40","800","2874.0700000023935","images/stimuli/spore_stims/complex_12_B_c.gif","images/stimuli/spore_stims/complex_12_A_c.gif","","","","","6","complex_similar","images/stimuli/spore_stims/complex_12_A_c.gif","right","","","","",""
"","null","html-keyboard-response","120","289117","0.0-26.0-0.2","SS1613102592702","","","null","","","","","<p><img src= images/blank.png width =""200"" height = ""200"" style = ""float:right""></p><p><img src=images/blank.png width =""800"" height = ""200""></p>","","","","","","","","","","","",""
"","1896.8249999997788","sequential-stimulus-presentation","121","291822","0.0-26.0-1.2","SS1613102592702","trial","","40","800","2696.824999999779","images/stimuli/spore_stims/complex_12_B_c.gif","images/stimuli/spore_stims/complex_12_A_c.gif","","","","","6","complex_similar","images/stimuli/spore_stims/complex_12_A_c.gif","right","","","","",""
"","null","html-keyboard-response","122","293010","0.0-26.0-0.3","SS1613102592702","","","null","","","","","<p><img src= images/blank.png width =""200"" height = ""200"" style = ""float:right""></p><p><img src=images/blank.png width =""800"" height = ""200""></p>","","","","","","","","","","","",""
"","2316.095000001951","sequential-stimulus-presentation","123","296134","0.0-26.0-1.3","SS1613102592702","trial","","40","800","3116.095000001951","images/stimuli/spore_stims/complex_12_B_c.gif","images/stimuli/spore_stims/complex_12_A_c.gif","","","","","6","complex_similar","images/stimuli/spore_stims/complex_12_A_c.gif","right","","","","",""
"","null","html-keyboard-response","124","296957","0.0-26.0-0.4","SS1613102592702","","","null","","","","","<p><img src= images/blank.png width =""200"" height = ""200"" style = ""float:right""></p><p><img src=images/blank.png width =""800"" height = ""200""></p>","","","","","","","","","","","",""
"","1058.8299999980954","sequential-stimulus-presentation","125","298822","0.0-26.0-1.4","SS1613102592702","trial","","40","800","1858.8299999980954","images/stimuli/spore_stims/complex_12_B_c.gif","images/stimuli/spore_stims/complex_12_A_c.gif","","","","","6","complex_similar","images/stimuli/spore_stims/complex_12_A_c.gif","right","","","","",""
"","null","html-keyboard-response","126","300119","0.0-26.0-0.5","SS1613102592702","","","null","","","","","<p><img src= images/blank.png width =""200"" height = ""200"" style = ""float:right""></p><p><img src=images/blank.png width =""800"" height = ""200""></p>","","","","","","","","","","","",""
"","2067.8850000003586","sequential-stimulus-presentation","127","303022","0.0-26.0-1.5","SS1613102592702","trial","","40","800","2867.8850000003586","images/stimuli/spore_stims/complex_12_B_c.gif","images/stimuli/spore_stims/complex_12_A_c.gif","","","","","6","complex_similar","images/stimuli/spore_stims/complex_12_B_c.gif","left","","","","",""
"","null","html-keyboard-response","128","303946","0.0-26.0-0.6","SS1613102592702","","","null","","","","","<p><img src= images/blank.png width =""200"" height = ""200"" style = ""float:right""></p><p><img src=images/blank.png width =""800"" height = ""200""></p>","","","","","","","","","","","",""
"","1077.8199999986682","sequential-stimulus-presentation","129","305830","0.0-26.0-1.6","SS1613102592702","trial","","40","800","1877.8199999986682","images/stimuli/spore_stims/complex_12_B_c.gif","images/stimuli/spore_stims/complex_12_A_c.gif","","","","","6","complex_similar","images/stimuli/spore_stims/complex_12_A_c.gif","right","","","","",""
"","null","html-keyboard-response","130","306887","0.0-26.0-0.7","SS1613102592702","","","null","","","","","<p><img src= images/blank.png width =""200"" height = ""200"" style = ""float:right""></p><p><img src=images/blank.png width =""800"" height = ""200""></p>","","","","","","","","","","","",""
"","822.3050000014482","sequential-stimulus-presentation","131","308518","0.0-26.0-1.7","SS1613102592702","trial","","40","800","1622.3050000014482","images/stimuli/spore_stims/complex_12_B_c.gif","images/stimuli/spore_stims/complex_12_A_c.gif","","","","","6","complex_similar","images/stimuli/spore_stims/complex_12_A_c.gif","right","","","","",""
"","1778.3500000005006","html-keyboard-response","132","310302","0.0-27.0","SS1613102592702","pref_question","","98","","","","","<video width ='960' height = '540' style='padding-top:8%' autoplay muted><source src='images/stimuli/wall_pref.mp4' type='video/mp4'></video>","2","middle","45%","6","","","","","","","",""
"","2168.065000001632","sequential-stimulus-presentation","133","313277","0.0-28.0","SS1613102592702","pref_reveal","","40","800","2968.065000001632","null","null","","","","","6","","","","novel","","","",""
"","null","html-keyboard-response","134","314537","0.0-29.0-0.0","SS1613102592702","","","null","","","","","<p><img src= images/blank.png width =""200"" height = ""200"" style = ""float:right""></p><p><img src=images/blank.png width =""800"" height = ""200""></p>","","","","","","","","","","","",""
"","2225.8499999988708","sequential-stimulus-presentation","135","317573","0.0-29.0-1.0","SS1613102592702","trial","","40","800","3025.8499999988708","images/stimuli/spore_stims/complex_16_B_a.gif","images/stimuli/spore_stims/complex_16_A_a.gif","","","","","7","complex_similar","images/stimuli/spore_stims/complex_16_A_a.gif","left","","","","",""
"","null","html-keyboard-response","136","318505","0.0-29.0-0.1","SS1613102592702","","","null","","","","","<p><img src= images/blank.png width =""200"" height = ""200"" style = ""float:right""></p><p><img src=images/blank.png width =""800"" height = ""200""></p>","","","","","","","","","","","",""
"","2108.260000000824","sequential-stimulus-presentation","137","321422","0.0-29.0-1.1","SS1613102592702","trial","","40","800","2908.260000000824","images/stimuli/spore_stims/complex_16_B_a.gif","images/stimuli/spore_stims/complex_16_A_a.gif","","","","","7","complex_similar","images/stimuli/spore_stims/complex_16_A_a.gif","left","","","","",""
"","null","html-keyboard-response","138","322661","0.0-29.0-0.2","SS1613102592702","","","null","","","","","<p><img src= images/blank.png width =""200"" height = ""200"" style = ""float:right""></p><p><img src=images/blank.png width =""800"" height = ""200""></p>","","","","","","","","","","","",""
"","1288.045000001206","sequential-stimulus-presentation","139","324757","0.0-29.0-1.2","SS1613102592702","trial","","40","800","2088.045000001206","images/stimuli/spore_stims/complex_16_B_a.gif","images/stimuli/spore_stims/complex_16_A_a.gif","","","","","7","complex_similar","images/stimuli/spore_stims/complex_16_A_a.gif","left","","","","",""
"","null","html-keyboard-response","140","325770","0.0-29.0-0.3","SS1613102592702","","","null","","","","","<p><img src= images/blank.png width =""200"" height = ""200"" style = ""float:right""></p><p><img src=images/blank.png width =""800"" height = ""200""></p>","","","","","","","","","","","",""
"","1065.9950000008103","sequential-stimulus-presentation","141","327645","0.0-29.0-1.3","SS1613102592702","trial","","40","800","1865.9950000008103","images/stimuli/spore_stims/complex_16_B_a.gif","images/stimuli/spore_stims/complex_16_A_a.gif","","","","","7","complex_similar","images/stimuli/spore_stims/complex_16_A_a.gif","left","","","","",""
"","null","html-keyboard-response","142","328726","0.0-29.0-0.4","SS1613102592702","","","null","","","","","<p><img src= images/blank.png width =""200"" height = ""200"" style = ""float:right""></p><p><img src=images/blank.png width =""800"" height = ""200""></p>","","","","","","","","","","","",""
"","1126.6199999991222","sequential-stimulus-presentation","143","330661","0.0-29.0-1.4","SS1613102592702","trial","","40","800","1926.6199999991222","images/stimuli/spore_stims/complex_16_B_a.gif","images/stimuli/spore_stims/complex_16_A_a.gif","","","","","7","complex_similar","images/stimuli/spore_stims/complex_16_A_a.gif","left","","","","",""
"","null","html-keyboard-response","144","331883","0.0-29.0-0.5","SS1613102592702","","","null","","","","","<p><img src= images/blank.png width =""200"" height = ""200"" style = ""float:right""></p><p><img src=images/blank.png width =""800"" height = ""200""></p>","","","","","","","","","","","",""
"","1388.264999997802","sequential-stimulus-presentation","145","334077","0.0-29.0-1.5","SS1613102592702","trial","","40","800","2188.264999997802","images/stimuli/spore_stims/complex_16_B_a.gif","images/stimuli/spore_stims/complex_16_A_a.gif","","","","","7","complex_similar","images/stimuli/spore_stims/complex_16_A_a.gif","left","","","","",""
"","null","html-keyboard-response","146","334936","0.0-29.0-0.6","SS1613102592702","","","null","","","","","<p><img src= images/blank.png width =""200"" height = ""200"" style = ""float:right""></p><p><img src=images/blank.png width =""800"" height = ""200""></p>","","","","","","","","","","","",""
"","1878.694999999425","sequential-stimulus-presentation","147","337621","0.0-29.0-1.6","SS1613102592702","trial","","40","800","2678.694999999425","images/stimuli/spore_stims/complex_16_B_a.gif","images/stimuli/spore_stims/complex_16_A_a.gif","","","","","7","complex_similar","images/stimuli/spore_stims/complex_16_B_a.gif","right","","","","",""
"","null","html-keyboard-response","148","338594","0.0-29.0-0.7","SS1613102592702","","","null","","","","","<p><img src= images/blank.png width =""200"" height = ""200"" style = ""float:right""></p><p><img src=images/blank.png width =""800"" height = ""200""></p>","","","","","","","","","","","",""
"","1794.944999997795","sequential-stimulus-presentation","149","341197","0.0-29.0-1.7","SS1613102592702","trial","","40","800","2594.944999997795","images/stimuli/spore_stims/complex_16_B_a.gif","images/stimuli/spore_stims/complex_16_A_a.gif","","","","","7","complex_similar","images/stimuli/spore_stims/complex_16_A_a.gif","left","","","","",""
"","2319.005000001227","html-keyboard-response","150","343525","0.0-30.0","SS1613102592702","pref_question","","98","","","","","<video width ='960' height = '540' style='padding-top:8%' autoplay muted><source src='images/stimuli/wall_pref.mp4' type='video/mp4'></video>","2","middle","45%","7","","","","","","","",""
"","2337.344999999914","sequential-stimulus-presentation","151","346669","0.0-31.0","SS1613102592702","pref_reveal","","40","800","3137.344999999914","null","null","","","","","7","","","","novel","","","",""
"","null","html-keyboard-response","152","347628","0.0-32.0-0.0","SS1613102592702","","","null","","","","","<p><img src= images/blank.png width =""200"" height = ""200"" style = ""float:right""></p><p><img src=images/blank.png width =""800"" height = ""200""></p>","","","","","","","","","","","",""
"","2040.7799999993877","sequential-stimulus-presentation","153","350477","0.0-32.0-1.0","SS1613102592702","trial","","40","800","2840.7799999993877","images/stimuli/spore_stims/complex_17_B_d.gif","images/stimuli/spore_stims/complex_17_A_d.gif","","","","","8","complex_similar","images/stimuli/spore_stims/complex_17_A_d.gif","middle","","","","",""
"","null","html-keyboard-response","154","351710","0.0-32.0-0.1","SS1613102592702","","","null","","","","","<p><img src= images/blank.png width =""200"" height = ""200"" style = ""float:right""></p><p><img src=images/blank.png width =""800"" height = ""200""></p>","","","","","","","","","","","",""
"","2410.615000000689","sequential-stimulus-presentation","155","354956","0.0-32.0-1.1","SS1613102592702","trial","","40","800","3210.615000000689","images/stimuli/spore_stims/complex_17_B_d.gif","images/stimuli/spore_stims/complex_17_A_d.gif","","","","","8","complex_similar","images/stimuli/spore_stims/complex_17_A_d.gif","middle","","","","",""
"","null","html-keyboard-response","156","356085","0.0-32.0-0.2","SS1613102592702","","","null","","","","","<p><img src= images/blank.png width =""200"" height = ""200"" style = ""float:right""></p><p><img src=images/blank.png width =""800"" height = ""200""></p>","","","","","","","","","","","",""
"","1662.059999998717","sequential-stimulus-presentation","157","358556","0.0-32.0-1.2","SS1613102592702","trial","","40","800","2462.059999998717","images/stimuli/spore_stims/complex_17_B_d.gif","images/stimuli/spore_stims/complex_17_A_d.gif","","","","","8","complex_similar","images/stimuli/spore_stims/complex_17_A_d.gif","middle","","","","",""
"","null","html-keyboard-response","158","359592","0.0-32.0-0.3","SS1613102592702","","","null","","","","","<p><img src= images/blank.png width =""200"" height = ""200"" style = ""float:right""></p><p><img src=images/blank.png width =""800"" height = ""200""></p>","","","","","","","","","","","",""
"","1406.2349999985308","sequential-stimulus-presentation","159","361820","0.0-32.0-1.3","SS1613102592702","trial","","40","800","2206.234999998531","images/stimuli/spore_stims/complex_17_B_d.gif","images/stimuli/spore_stims/complex_17_A_d.gif","","","","","8","complex_similar","images/stimuli/spore_stims/complex_17_B_d.gif","right","","","","",""
"","null","html-keyboard-response","160","363071","0.0-32.0-0.4","SS1613102592702","","","null","","","","","<p><img src= images/blank.png width =""200"" height = ""200"" style = ""float:right""></p><p><img src=images/blank.png width =""800"" height = ""200""></p>","","","","","","","","","","","",""
"","950.4500000002445","sequential-stimulus-presentation","161","364828","0.0-32.0-1.4","SS1613102592702","trial","","40","800","1750.4500000002445","images/stimuli/spore_stims/complex_17_B_d.gif","images/stimuli/spore_stims/complex_17_A_d.gif","","","","","8","complex_similar","images/stimuli/spore_stims/complex_17_A_d.gif","middle","","","","",""
"","null","html-keyboard-response","162","366005","0.0-32.0-0.5","SS1613102592702","","","null","","","","","<p><img src= images/blank.png width =""200"" height = ""200"" style = ""float:right""></p><p><img src=images/blank.png width =""800"" height = ""200""></p>","","","","","","","","","","","",""
"","1194.1950000000652","sequential-stimulus-presentation","163","368028","0.0-32.0-1.5","SS1613102592702","trial","","40","800","1994.1950000000652","images/stimuli/spore_stims/complex_17_B_d.gif","images/stimuli/spore_stims/complex_17_A_d.gif","","","","","8","complex_similar","images/stimuli/spore_stims/complex_17_A_d.gif","middle","","","","",""
"","null","html-keyboard-response","164","369016","0.0-32.0-0.6","SS1613102592702","","","null","","","","","<p><img src= images/blank.png width =""200"" height = ""200"" style = ""float:right""></p><p><img src=images/blank.png width =""800"" height = ""200""></p>","","","","","","","","","","","",""
"","940.2049999989686","sequential-stimulus-presentation","165","370764","0.0-32.0-1.6","SS1613102592702","trial","","40","800","1740.2049999989686","images/stimuli/spore_stims/complex_17_B_d.gif","images/stimuli/spore_stims/complex_17_A_d.gif","","","","","8","complex_similar","images/stimuli/spore_stims/complex_17_A_d.gif","middle","","","","",""
"","null","html-keyboard-response","166","371575","0.0-32.0-0.7","SS1613102592702","","","null","","","","","<p><img src= images/blank.png width =""200"" height = ""200"" style = ""float:right""></p><p><img src=images/blank.png width =""800"" height = ""200""></p>","","","","","","","","","","","",""
"","916.3599999992875","sequential-stimulus-presentation","167","373300","0.0-32.0-1.7","SS1613102592702","trial","","40","800","1716.3599999992875","images/stimuli/spore_stims/complex_17_B_d.gif","images/stimuli/spore_stims/complex_17_A_d.gif","","","","","8","complex_similar","images/stimuli/spore_stims/complex_17_A_d.gif","middle","","","","",""
"","1753.9850000030128","html-keyboard-response","168","375060","0.0-33.0","SS1613102592702","pref_question","","97","","","","","<video width ='960' height = '540' style='padding-top:8%' autoplay muted><source src='images/stimuli/wall_pref.mp4' type='video/mp4'></video>","1","left","25%","8","","","","","","","",""
"","3160.5749999980326","sequential-stimulus-presentation","169","379028","0.0-34.0","SS1613102592702","pref_reveal","","40","800","3960.5749999980326","null","null","","","","","8","","","","novel","","","",""
"","null","html-keyboard-response","170","380238","0.0-35.0-0.0","SS1613102592702","","","null","","","","","<p><img src= images/blank.png width =""200"" height = ""200"" style = ""float:right""></p><p><img src=images/blank.png width =""800"" height = ""200""></p>","","","","","","","","","","","",""
"","899.8449999998556","sequential-stimulus-presentation","171","381948","0.0-35.0-1.0","SS1613102592702","trial","","40","800","1699.8449999998556","images/stimuli/spore_stims/simple_11_A_b.gif","images/stimuli/spore_stims/simple_12_A_b.gif","","","","","9","simple_dissimilar","images/stimuli/spore_stims/simple_12_A_b.gif","right","","","","",""
"","null","html-keyboard-response","172","382786","0.0-35.0-0.1","SS1613102592702","","","null","","","","","<p><img src= images/blank.png width =""200"" height = ""200"" style = ""float:right""></p><p><img src=images/blank.png width =""800"" height = ""200""></p>","","","","","","","","","","","",""
"","1191.6600000003818","sequential-stimulus-presentation","173","384788","0.0-35.0-1.1","SS1613102592702","trial","","40","800","1991.6600000003818","images/stimuli/spore_stims/simple_11_A_b.gif","images/stimuli/spore_stims/simple_12_A_b.gif","","","","","9","simple_dissimilar","images/stimuli/spore_stims/simple_12_A_b.gif","right","","","","",""
"","null","html-keyboard-response","174","386058","0.0-35.0-0.2","SS1613102592702","","","null","","","","","<p><img src= images/blank.png width =""200"" height = ""200"" style = ""float:right""></p><p><img src=images/blank.png width =""800"" height = ""200""></p>","","","","","","","","","","","",""
"","1401.3099999974947","sequential-stimulus-presentation","175","388268","0.0-35.0-1.2","SS1613102592702","trial","","40","800","2201.3099999974947","images/stimuli/spore_stims/simple_11_A_b.gif","images/stimuli/spore_stims/simple_12_A_b.gif","","","","","9","simple_dissimilar","images/stimuli/spore_stims/simple_12_A_b.gif","right","","","","",""
"","null","html-keyboard-response","176","389382","0.0-35.0-0.3","SS1613102592702","","","null","","","","","<p><img src= images/blank.png width =""200"" height = ""200"" style = ""float:right""></p><p><img src=images/blank.png width =""800"" height = ""200""></p>","","","","","","","","","","","",""
"","764.2500000001746","sequential-stimulus-presentation","177","390956","0.0-35.0-1.3","SS1613102592702","trial","","40","800","1564.2500000001746","images/stimuli/spore_stims/simple_11_A_b.gif","images/stimuli/spore_stims/simple_12_A_b.gif","","","","","9","simple_dissimilar","images/stimuli/spore_stims/simple_12_A_b.gif","right","","","","",""
"","null","html-keyboard-response","178","392012","0.0-35.0-0.4","SS1613102592702","","","null","","","","","<p><img src= images/blank.png width =""200"" height = ""200"" style = ""float:right""></p><p><img src=images/blank.png width =""800"" height = ""200""></p>","","","","","","","","","","","",""
"","766.3400000019465","sequential-stimulus-presentation","179","393595","0.0-35.0-1.4","SS1613102592702","trial","","40","800","1566.3400000019465","images/stimuli/spore_stims/simple_11_A_b.gif","images/stimuli/spore_stims/simple_12_A_b.gif","","","","","9","simple_dissimilar","images/stimuli/spore_stims/simple_12_A_b.gif","right","","","","",""
"","null","html-keyboard-response","180","394544","0.0-35.0-0.5","SS1613102592702","","","null","","","","","<p><img src= images/blank.png width =""200"" height = ""200"" style = ""float:right""></p><p><img src=images/blank.png width =""800"" height = ""200""></p>","","","","","","","","","","","",""
"","1993.819999999716","sequential-stimulus-presentation","181","397363","0.0-35.0-1.5","SS1613102592702","trial","","40","800","2793.819999999716","images/stimuli/spore_stims/simple_11_A_b.gif","images/stimuli/spore_stims/simple_12_A_b.gif","","","","","9","simple_dissimilar","images/stimuli/spore_stims/simple_11_A_b.gif","middle","","","","",""
"","null","html-keyboard-response","182","398623","0.0-35.0-0.6","SS1613102592702","","","null","","","","","<p><img src= images/blank.png width =""200"" height = ""200"" style = ""float:right""></p><p><img src=images/blank.png width =""800"" height = ""200""></p>","","","","","","","","","","","",""
"","1166.1949999979697","sequential-stimulus-presentation","183","400627","0.0-35.0-1.6","SS1613102592702","trial","","40","800","1966.1949999979697","images/stimuli/spore_stims/simple_11_A_b.gif","images/stimuli/spore_stims/simple_12_A_b.gif","","","","","9","simple_dissimilar","images/stimuli/spore_stims/simple_12_A_b.gif","right","","","","",""
"","null","html-keyboard-response","184","401672","0.0-35.0-0.7","SS1613102592702","","","null","","","","","<p><img src= images/blank.png width =""200"" height = ""200"" style = ""float:right""></p><p><img src=images/blank.png width =""800"" height = ""200""></p>","","","","","","","","","","","",""
"","1047.0000000023283","sequential-stimulus-presentation","185","403531","0.0-35.0-1.7","SS1613102592702","trial","","40","800","1847.0000000023283","images/stimuli/spore_stims/simple_11_A_b.gif","images/stimuli/spore_stims/simple_12_A_b.gif","","","","","9","simple_dissimilar","images/stimuli/spore_stims/simple_12_A_b.gif","right","","","","",""
"","2920.6799999992945","html-keyboard-response","186","406460","0.0-36.0","SS1613102592702","pref_question","","97","","","","","<video width ='960' height = '540' style='padding-top:8%' autoplay muted><source src='images/stimuli/wall_pref.mp4' type='video/mp4'></video>","1","left","25%","9","","","","","","","",""
"","2014.0649999994203","sequential-stimulus-presentation","187","409283","0.0-37.0","SS1613102592702","pref_reveal","","40","800","2814.0649999994203","null","null","","","","","9","","","","novel","","","",""
"","null","html-keyboard-response","188","410481","0.0-38.0-0.0","SS1613102592702","","","null","","","","","<p><img src= images/blank.png width =""200"" height = ""200"" style = ""float:right""></p><p><img src=images/blank.png width =""800"" height = ""200""></p>","","","","","","","","","","","",""
"","927.7950000033015","sequential-stimulus-presentation","189","412219","0.0-38.0-1.0","SS1613102592702","trial","","40","800","1727.7950000033015","images/stimuli/spore_stims/simple_20_B_a.gif","images/stimuli/spore_stims/simple_20_A_a.gif","","","","","10","simple_similar","images/stimuli/spore_stims/simple_20_A_a.gif","middle","","","","",""
"","null","html-keyboard-response","190","413512","0.0-38.0-0.1","SS1613102592702","","","null","","","","","<p><img src= images/blank.png width =""200"" height = ""200"" style = ""float:right""></p><p><img src=images/blank.png width =""800"" height = ""200""></p>","","","","","","","","","","","",""
"","2103.4249999974854","sequential-stimulus-presentation","191","416427","0.0-38.0-1.1","SS1613102592702","trial","","40","800","2903.4249999974854","images/stimuli/spore_stims/simple_20_B_a.gif","images/stimuli/spore_stims/simple_20_A_a.gif","","","","","10","simple_similar","images/stimuli/spore_stims/simple_20_A_a.gif","middle","","","","",""
"","null","html-keyboard-response","192","417496","0.0-38.0-0.2","SS1613102592702","","","null","","","","","<p><img src= images/blank.png width =""200"" height = ""200"" style = ""float:right""></p><p><img src=images/blank.png width =""800"" height = ""200""></p>","","","","","","","","","","","",""
"","1458.5650000008754","sequential-stimulus-presentation","193","419764","0.0-38.0-1.2","SS1613102592702","trial","","40","800","2258.5650000008754","images/stimuli/spore_stims/simple_20_B_a.gif","images/stimuli/spore_stims/simple_20_A_a.gif","","","","","10","simple_similar","images/stimuli/spore_stims/simple_20_A_a.gif","middle","","","","",""
"","null","html-keyboard-response","194","420786","0.0-38.0-0.3","SS1613102592702","","","null","","","","","<p><img src= images/blank.png width =""200"" height = ""200"" style = ""float:right""></p><p><img src=images/blank.png width =""800"" height = ""200""></p>","","","","","","","","","","","",""
"","770.1300000007614","sequential-stimulus-presentation","195","422426","0.0-38.0-1.3","SS1613102592702","trial","","40","800","1570.1300000007614","images/stimuli/spore_stims/simple_20_B_a.gif","images/stimuli/spore_stims/simple_20_A_a.gif","","","","","10","simple_similar","images/stimuli/spore_stims/simple_20_A_a.gif","middle","","","","",""
"","null","html-keyboard-response","196","423338","0.0-38.0-0.4","SS1613102592702","","","null","","","","","<p><img src= images/blank.png width =""200"" height = ""200"" style = ""float:right""></p><p><img src=images/blank.png width =""800"" height = ""200""></p>","","","","","","","","","","","",""
"","627.8300000012969","sequential-stimulus-presentation","197","424778","0.0-38.0-1.4","SS1613102592702","trial","","40","800","1427.8300000012969","images/stimuli/spore_stims/simple_20_B_a.gif","images/stimuli/spore_stims/simple_20_A_a.gif","","","","","10","simple_similar","images/stimuli/spore_stims/simple_20_A_a.gif","middle","","","","",""
"","null","html-keyboard-response","198","425638","0.0-38.0-0.5","SS1613102592702","","","null","","","","","<p><img src= images/blank.png width =""200"" height = ""200"" style = ""float:right""></p><p><img src=images/blank.png width =""800"" height = ""200""></p>","","","","","","","","","","","",""
"","1018.6250000005821","sequential-stimulus-presentation","199","427467","0.0-38.0-1.5","SS1613102592702","trial","","40","800","1818.625000000582","images/stimuli/spore_stims/simple_20_B_a.gif","images/stimuli/spore_stims/simple_20_A_a.gif","","","","","10","simple_similar","images/stimuli/spore_stims/simple_20_B_a.gif","right","","","","",""
"","null","html-keyboard-response","200","428423","0.0-38.0-0.6","SS1613102592702","","","null","","","","","<p><img src= images/blank.png width =""200"" height = ""200"" style = ""float:right""></p><p><img src=images/blank.png width =""800"" height = ""200""></p>","","","","","","","","","","","",""
"","683.1349999993108","sequential-stimulus-presentation","201","429915","0.0-38.0-1.6","SS1613102592702","trial","","40","800","1483.1349999993108","images/stimuli/spore_stims/simple_20_B_a.gif","images/stimuli/spore_stims/simple_20_A_a.gif","","","","","10","simple_similar","images/stimuli/spore_stims/simple_20_A_a.gif","middle","","","","",""
"","null","html-keyboard-response","202","430988","0.0-38.0-0.7","SS1613102592702","","","null","","","","","<p><img src= images/blank.png width =""200"" height = ""200"" style = ""float:right""></p><p><img src=images/blank.png width =""800"" height = ""200""></p>","","","","","","","","","","","",""
"","356.61999999859836","sequential-stimulus-presentation","203","432172","0.0-38.0-1.7","SS1613102592702","trial","","40","800","1156.6199999985984","images/stimuli/spore_stims/simple_20_B_a.gif","images/stimuli/spore_stims/simple_20_A_a.gif","","","","","10","simple_similar","images/stimuli/spore_stims/simple_20_A_a.gif","middle","","","","",""
"","1668.5299999989802","html-keyboard-response","204","433850","0.0-39.0","SS1613102592702","pref_question","","97","","","","","<video width ='960' height = '540' style='padding-top:8%' autoplay muted><source src='images/stimuli/wall_pref.mp4' type='video/mp4'></video>","1","left","25%","10","","","","","","","",""
"","2071.2099999982747","sequential-stimulus-presentation","205","436730","0.0-40.0","SS1613102592702","pref_reveal","","40","800","2871.2099999982747","null","null","","","","","10","","","","novel","","","",""
"","null","html-keyboard-response","206","437914","0.0-41.0-0.0","SS1613102592702","","","null","","","","","<p><img src= images/blank.png width =""200"" height = ""200"" style = ""float:right""></p><p><img src=images/blank.png width =""800"" height = ""200""></p>","","","","","","","","","","","",""
"","1548.8149999983143","sequential-stimulus-presentation","207","440273","0.0-41.0-1.0","SS1613102592702","trial","","40","800","2348.8149999983143","images/stimuli/spore_stims/simple_09_A_c.gif","images/stimuli/spore_stims/simple_09_B_c.gif","","","","","11","simple_similar","images/stimuli/spore_stims/simple_09_B_c.gif","middle","","","","",""
"","null","html-keyboard-response","208","441131","0.0-41.0-0.1","SS1613102592702","","","null","","","","","<p><img src= images/blank.png width =""200"" height = ""200"" style = ""float:right""></p><p><img src=images/blank.png width =""800"" height = ""200""></p>","","","","","","","","","","","",""
"","660.214999999851","sequential-stimulus-presentation","209","442602","0.0-41.0-1.1","SS1613102592702","trial","","40","800","1460.214999999851","images/stimuli/spore_stims/simple_09_A_c.gif","images/stimuli/spore_stims/simple_09_B_c.gif","","","","","11","simple_similar","images/stimuli/spore_stims/simple_09_B_c.gif","middle","","","","",""
"","null","html-keyboard-response","210","443710","0.0-41.0-0.2","SS1613102592702","","","null","","","","","<p><img src= images/blank.png width =""200"" height = ""200"" style = ""float:right""></p><p><img src=images/blank.png width =""800"" height = ""200""></p>","","","","","","","","","","","",""
"","342.79500000050757","sequential-stimulus-presentation","211","444882","0.0-41.0-1.2","SS1613102592702","trial","","40","800","1142.7950000005076","images/stimuli/spore_stims/simple_09_A_c.gif","images/stimuli/spore_stims/simple_09_B_c.gif","","","","","11","simple_similar","images/stimuli/spore_stims/simple_09_B_c.gif","middle","","","","",""
"","null","html-keyboard-response","212","445758","0.0-41.0-0.3","SS1613102592702","","","null","","","","","<p><img src= images/blank.png width =""200"" height = ""200"" style = ""float:right""></p><p><img src=images/blank.png width =""800"" height = ""200""></p>","","","","","","","","","","","",""
"","448.79999999830034","sequential-stimulus-presentation","213","447018","0.0-41.0-1.3","SS1613102592702","trial","","40","800","1248.7999999983003","images/stimuli/spore_stims/simple_09_A_c.gif","images/stimuli/spore_stims/simple_09_B_c.gif","","","","","11","simple_similar","images/stimuli/spore_stims/simple_09_B_c.gif","middle","","","","",""
"","null","html-keyboard-response","214","448100","0.0-41.0-0.4","SS1613102592702","","","null","","","","","<p><img src= images/blank.png width =""200"" height = ""200"" style = ""float:right""></p><p><img src=images/blank.png width =""800"" height = ""200""></p>","","","","","","","","","","","",""
"","595.2800000013667","sequential-stimulus-presentation","215","449506","0.0-41.0-1.4","SS1613102592702","trial","","40","800","1395.2800000013667","images/stimuli/spore_stims/simple_09_A_c.gif","images/stimuli/spore_stims/simple_09_B_c.gif","","","","","11","simple_similar","images/stimuli/spore_stims/simple_09_A_c.gif","left","","","","",""
"","null","html-keyboard-response","216","450347","0.0-41.0-0.5","SS1613102592702","","","null","","","","","<p><img src= images/blank.png width =""200"" height = ""200"" style = ""float:right""></p><p><img src=images/blank.png width =""800"" height = ""200""></p>","","","","","","","","","","","",""
"","469.8000000026077","sequential-stimulus-presentation","217","451627","0.0-41.0-1.5","SS1613102592702","trial","","40","800","1269.8000000026077","images/stimuli/spore_stims/simple_09_A_c.gif","images/stimuli/spore_stims/simple_09_B_c.gif","","","","","11","simple_similar","images/stimuli/spore_stims/simple_09_B_c.gif","middle","","","","",""
"","null","html-keyboard-response","218","452831","0.0-41.0-0.6","SS1613102592702","","","null","","","","","<p><img src= images/blank.png width =""200"" height = ""200"" style = ""float:right""></p><p><img src=images/blank.png width =""800"" height = ""200""></p>","","","","","","","","","","","",""
"","287.73999999975786","sequential-stimulus-presentation","219","453930","0.0-41.0-1.6","SS1613102592702","trial","","40","800","1087.7399999997579","images/stimuli/spore_stims/simple_09_A_c.gif","images/stimuli/spore_stims/simple_09_B_c.gif","","","","","11","simple_similar","images/stimuli/spore_stims/simple_09_B_c.gif","middle","","","","",""
"","null","html-keyboard-response","220","455234","0.0-41.0-0.7","SS1613102592702","","","null","","","","","<p><img src= images/blank.png width =""200"" height = ""200"" style = ""float:right""></p><p><img src=images/blank.png width =""800"" height = ""200""></p>","","","","","","","","","","","",""
"","710.0050000008196","sequential-stimulus-presentation","221","456753","0.0-41.0-1.7","SS1613102592702","trial","","40","800","1510.0050000008196","images/stimuli/spore_stims/simple_09_A_c.gif","images/stimuli/spore_stims/simple_09_B_c.gif","","","","","11","simple_similar","images/stimuli/spore_stims/simple_09_B_c.gif","middle","","","","",""
"","1768.9049999971176","html-keyboard-response","222","458529","0.0-42.0","SS1613102592702","pref_question","","99","","","","","<video width ='960' height = '540' style='padding-top:8%' autoplay muted><source src='images/stimuli/wall_pref.mp4' type='video/mp4'></video>","3","right","66%","11","","","","","","","",""
"","952.5500000017928","sequential-stimulus-presentation","223","460289","0.0-43.0","SS1613102592702","pref_reveal","","40","800","1752.5500000017928","null","null","","","","","11","","","","novel","","","",""
"","null","html-keyboard-response","224","461475","0.0-44.0-0.0","SS1613102592702","","","null","","","","","<p><img src= images/blank.png width =""200"" height = ""200"" style = ""float:right""></p><p><img src=images/blank.png width =""800"" height = ""200""></p>","","","","","","","","","","","",""
"","637.4349999969127","sequential-stimulus-presentation","225","462922","0.0-44.0-1.0","SS1613102592702","trial","","40","800","1437.4349999969127","images/stimuli/spore_stims/simple_13_B_c.gif","images/stimuli/spore_stims/simple_13_A_c.gif","","","","","12","simple_similar","images/stimuli/spore_stims/simple_13_A_c.gif","left","","","","",""
"","null","html-keyboard-response","226","464184","0.0-44.0-0.1","SS1613102592702","","","null","","","","","<p><img src= images/blank.png width =""200"" height = ""200"" style = ""float:right""></p><p><img src=images/blank.png width =""800"" height = ""200""></p>","","","","","","","","","","","",""
"","320.0799999976298","sequential-stimulus-presentation","227","465313","0.0-44.0-1.1","SS1613102592702","trial","","40","800","1120.0799999976298","images/stimuli/spore_stims/simple_13_B_c.gif","images/stimuli/spore_stims/simple_13_A_c.gif","","","","","12","simple_similar","images/stimuli/spore_stims/simple_13_A_c.gif","left","","","","",""
"","null","html-keyboard-response","228","466249","0.0-44.0-0.2","SS1613102592702","","","null","","","","","<p><img src= images/blank.png width =""200"" height = ""200"" style = ""float:right""></p><p><img src=images/blank.png width =""800"" height = ""200""></p>","","","","","","","","","","","",""
"","347.5350000007893","sequential-stimulus-presentation","229","467409","0.0-44.0-1.2","SS1613102592702","trial","","40","800","1147.5350000007893","images/stimuli/spore_stims/simple_13_B_c.gif","images/stimuli/spore_stims/simple_13_A_c.gif","","","","","12","simple_similar","images/stimuli/spore_stims/simple_13_A_c.gif","left","","","","",""
"","null","html-keyboard-response","230","468607","0.0-44.0-0.3","SS1613102592702","","","null","","","","","<p><img src= images/blank.png width =""200"" height = ""200"" style = ""float:right""></p><p><img src=images/blank.png width =""800"" height = ""200""></p>","","","","","","","","","","","",""
"","313.22000000003027","sequential-stimulus-presentation","231","469729","0.0-44.0-1.3","SS1613102592702","trial","","40","800","1113.2200000000303","images/stimuli/spore_stims/simple_13_B_c.gif","images/stimuli/spore_stims/simple_13_A_c.gif","","","","","12","simple_similar","images/stimuli/spore_stims/simple_13_A_c.gif","left","","","","",""
"","null","html-keyboard-response","232","470573","0.0-44.0-0.4","SS1613102592702","","","null","","","","","<p><img src= images/blank.png width =""200"" height = ""200"" style = ""float:right""></p><p><img src=images/blank.png width =""800"" height = ""200""></p>","","","","","","","","","","","",""
"","393.0450000007404","sequential-stimulus-presentation","233","471777","0.0-44.0-1.4","SS1613102592702","trial","","40","800","1193.0450000007404","images/stimuli/spore_stims/simple_13_B_c.gif","images/stimuli/spore_stims/simple_13_A_c.gif","","","","","12","simple_similar","images/stimuli/spore_stims/simple_13_A_c.gif","left","","","","",""
"","null","html-keyboard-response","234","472961","0.0-44.0-0.5","SS1613102592702","","","null","","","","","<p><img src= images/blank.png width =""200"" height = ""200"" style = ""float:right""></p><p><img src=images/blank.png width =""800"" height = ""200""></p>","","","","","","","","","","","",""
"","437.47000000078697","sequential-stimulus-presentation","235","474210","0.0-44.0-1.5","SS1613102592702","trial","","40","800","1237.470000000787","images/stimuli/spore_stims/simple_13_B_c.gif","images/stimuli/spore_stims/simple_13_A_c.gif","","","","","12","simple_similar","images/stimuli/spore_stims/simple_13_A_c.gif","left","","","","",""
"","null","html-keyboard-response","236","475374","0.0-44.0-0.6","SS1613102592702","","","null","","","","","<p><img src= images/blank.png width =""200"" height = ""200"" style = ""float:right""></p><p><img src=images/blank.png width =""800"" height = ""200""></p>","","","","","","","","","","","",""
"","304.06500000023516","sequential-stimulus-presentation","237","476489","0.0-44.0-1.6","SS1613102592702","trial","","40","800","1104.0650000002352","images/stimuli/spore_stims/simple_13_B_c.gif","images/stimuli/spore_stims/simple_13_A_c.gif","","","","","12","simple_similar","images/stimuli/spore_stims/simple_13_A_c.gif","left","","","","",""
"","null","html-keyboard-response","238","477468","0.0-44.0-0.7","SS1613102592702","","","null","","","","","<p><img src= images/blank.png width =""200"" height = ""200"" style = ""float:right""></p><p><img src=images/blank.png width =""800"" height = ""200""></p>","","","","","","","","","","","",""
"","681.8400000011316","sequential-stimulus-presentation","239","478961","0.0-44.0-1.7","SS1613102592702","trial","","40","800","1481.8400000011316","images/stimuli/spore_stims/simple_13_B_c.gif","images/stimuli/spore_stims/simple_13_A_c.gif","","","","","12","simple_similar","images/stimuli/spore_stims/simple_13_B_c.gif","right","","","","",""
"","1742.6699999996345","html-keyboard-response","240","480713","0.0-45.0","SS1613102592702","pref_question","","98","","","","","<video width ='960' height = '540' style='padding-top:8%' autoplay muted><source src='images/stimuli/wall_pref.mp4' type='video/mp4'></video>","2","middle","45%","12","","","","","","","",""
"","1665.0449999978882","sequential-stimulus-presentation","241","483233","0.0-46.0","SS1613102592702","pref_reveal","","40","800","2465.044999997888","null","null","","","","","12","","","","novel","","","",""
"","null","html-keyboard-response","242","484067","0.0-47.0-0.0","SS1613102592702","","","null","","","","","<p><img src= images/blank.png width =""200"" height = ""200"" style = ""float:right""></p><p><img src=images/blank.png width =""800"" height = ""200""></p>","","","","","","","","","","","",""
"","882.8499999981723","sequential-stimulus-presentation","243","485762","0.0-47.0-1.0","SS1613102592702","trial","","40","800","1682.8499999981723","images/stimuli/spore_stims/simple_18_A_a.gif","images/stimuli/spore_stims/simple_18_B_a.gif","","","","","13","simple_similar","images/stimuli/spore_stims/simple_18_B_a.gif","right","","","","",""
"","null","html-keyboard-response","244","487065","0.0-47.0-0.1","SS1613102592702","","","null","","","","","<p><img src= images/blank.png width =""200"" height = ""200"" style = ""float:right""></p><p><img src=images/blank.png width =""800"" height = ""200""></p>","","","","","","","","","","","",""
"","340.01500000152737","sequential-stimulus-presentation","245","488217","0.0-47.0-1.1","SS1613102592702","trial","","40","800","1140.0150000015274","images/stimuli/spore_stims/simple_18_A_a.gif","images/stimuli/spore_stims/simple_18_B_a.gif","","","","","13","simple_similar","images/stimuli/spore_stims/simple_18_B_a.gif","right","","","","",""
"","null","html-keyboard-response","246","489340","0.0-47.0-0.2","SS1613102592702","","","null","","","","","<p><img src= images/blank.png width =""200"" height = ""200"" style = ""float:right""></p><p><img src=images/blank.png width =""800"" height = ""200""></p>","","","","","","","","","","","",""
"","274.7499999968568","sequential-stimulus-presentation","247","490426","0.0-47.0-1.2","SS1613102592702","trial","","40","800","1074.7499999968568","images/stimuli/spore_stims/simple_18_A_a.gif","images/stimuli/spore_stims/simple_18_B_a.gif","","","","","13","simple_similar","images/stimuli/spore_stims/simple_18_B_a.gif","right","","","","",""
"","null","html-keyboard-response","248","491573","0.0-47.0-0.3","SS1613102592702","","","null","","","","","<p><img src= images/blank.png width =""200"" height = ""200"" style = ""float:right""></p><p><img src=images/blank.png width =""800"" height = ""200""></p>","","","","","","","","","","","",""
"","1003.4149999992223","sequential-stimulus-presentation","249","493385","0.0-47.0-1.3","SS1613102592702","trial","","40","800","1803.4149999992223","images/stimuli/spore_stims/simple_18_A_a.gif","images/stimuli/spore_stims/simple_18_B_a.gif","","","","","13","simple_similar","images/stimuli/spore_stims/simple_18_B_a.gif","right","","","","",""
"","null","html-keyboard-response","250","494604","0.0-47.0-0.4","SS1613102592702","","","null","","","","","<p><img src= images/blank.png width =""200"" height = ""200"" style = ""float:right""></p><p><img src=images/blank.png width =""800"" height = ""200""></p>","","","","","","","","","","","",""
"","428.2549999988987","sequential-stimulus-presentation","251","495841","0.0-47.0-1.4","SS1613102592702","trial","","40","800","1228.2549999988987","images/stimuli/spore_stims/simple_18_A_a.gif","images/stimuli/spore_stims/simple_18_B_a.gif","","","","","13","simple_similar","images/stimuli/spore_stims/simple_18_A_a.gif","left","","","","",""
"","null","html-keyboard-response","252","496926","0.0-47.0-0.5","SS1613102592702","","","null","","","","","<p><img src= images/blank.png width =""200"" height = ""200"" style = ""float:right""></p><p><img src=images/blank.png width =""800"" height = ""200""></p>","","","","","","","","","","","",""
"","368.89500000327826","sequential-stimulus-presentation","253","498104","0.0-47.0-1.5","SS1613102592702","trial","","40","800","1168.8950000032783","images/stimuli/spore_stims/simple_18_A_a.gif","images/stimuli/spore_stims/simple_18_B_a.gif","","","","","13","simple_similar","images/stimuli/spore_stims/simple_18_B_a.gif","right","","","","",""
"","null","html-keyboard-response","254","499218","0.0-47.0-0.6","SS1613102592702","","","null","","","","","<p><img src= images/blank.png width =""200"" height = ""200"" style = ""float:right""></p><p><img src=images/blank.png width =""800"" height = ""200""></p>","","","","","","","","","","","",""
"","267.3400000021211","sequential-stimulus-presentation","255","500297","0.0-47.0-1.6","SS1613102592702","trial","","40","800","1067.340000002121","images/stimuli/spore_stims/simple_18_A_a.gif","images/stimuli/spore_stims/simple_18_B_a.gif","","","","","13","simple_similar","images/stimuli/spore_stims/simple_18_B_a.gif","right","","","","",""
"","null","html-keyboard-response","256","501151","0.0-47.0-0.7","SS1613102592702","","","null","","","","","<p><img src= images/blank.png width =""200"" height = ""200"" style = ""float:right""></p><p><img src=images/blank.png width =""800"" height = ""200""></p>","","","","","","","","","","","",""
"","321.7000000004191","sequential-stimulus-presentation","257","502280","0.0-47.0-1.7","SS1613102592702","trial","","40","800","1121.700000000419","images/stimuli/spore_stims/simple_18_A_a.gif","images/stimuli/spore_stims/simple_18_B_a.gif","","","","","13","simple_similar","images/stimuli/spore_stims/simple_18_B_a.gif","right","","","","",""
"","1907.214999999269","html-keyboard-response","258","504201","0.0-48.0","SS1613102592702","pref_question","","98","","","","","<video width ='960' height = '540' style='padding-top:8%' autoplay muted><source src='images/stimuli/wall_pref.mp4' type='video/mp4'></video>","2","middle","45%","13","","","","","","","",""
"","1110.4750000013737","sequential-stimulus-presentation","259","506121","0.0-49.0","SS1613102592702","pref_reveal","","40","800","1910.4750000013737","null","null","","","","","13","","","","novel","","","",""
"","null","html-keyboard-response","260","507287","0.0-50.0-0.0","SS1613102592702","","","null","","","","","<p><img src= images/blank.png width =""200"" height = ""200"" style = ""float:right""></p><p><img src=images/blank.png width =""800"" height = ""200""></p>","","","","","","","","","","","",""
"","806.0900000018883","sequential-stimulus-presentation","261","508920","0.0-50.0-1.0","SS1613102592702","trial","","40","800","1606.0900000018883","images/stimuli/spore_stims/complex_01_A_d.gif","images/stimuli/spore_stims/complex_19_B_a.gif","","","","","14","complex_dissimilar","images/stimuli/spore_stims/complex_19_B_a.gif","right","","","","",""
"","null","html-keyboard-response","262","510108","0.0-50.0-0.1","SS1613102592702","","","null","","","","","<p><img src= images/blank.png width =""200"" height = ""200"" style = ""float:right""></p><p><img src=images/blank.png width =""800"" height = ""200""></p>","","","","","","","","","","","",""
"","393.99000000045635","sequential-stimulus-presentation","263","511312","0.0-50.0-1.1","SS1613102592702","trial","","40","800","1193.9900000004563","images/stimuli/spore_stims/complex_01_A_d.gif","images/stimuli/spore_stims/complex_19_B_a.gif","","","","","14","complex_dissimilar","images/stimuli/spore_stims/complex_19_B_a.gif","right","","","","",""
"","null","html-keyboard-response","264","512147","0.0-50.0-0.2","SS1613102592702","","","null","","","","","<p><img src= images/blank.png width =""200"" height = ""200"" style = ""float:right""></p><p><img src=images/blank.png width =""800"" height = ""200""></p>","","","","","","","","","","","",""
"","401.43000000168104","sequential-stimulus-presentation","265","513360","0.0-50.0-1.2","SS1613102592702","trial","","40","800","1201.430000001681","images/stimuli/spore_stims/complex_01_A_d.gif","images/stimuli/spore_stims/complex_19_B_a.gif","","","","","14","complex_dissimilar","images/stimuli/spore_stims/complex_19_B_a.gif","right","","","","",""
"","null","html-keyboard-response","266","514668","0.0-50.0-0.3","SS1613102592702","","","null","","","","","<p><img src= images/blank.png width =""200"" height = ""200"" style = ""float:right""></p><p><img src=images/blank.png width =""800"" height = ""200""></p>","","","","","","","","","","","",""
"","377.9050000011921","sequential-stimulus-presentation","267","515856","0.0-50.0-1.3","SS1613102592702","trial","","40","800","1177.905000001192","images/stimuli/spore_stims/complex_01_A_d.gif","images/stimuli/spore_stims/complex_19_B_a.gif","","","","","14","complex_dissimilar","images/stimuli/spore_stims/complex_01_A_d.gif","left","","","","",""
"","null","html-keyboard-response","268","516945","0.0-50.0-0.4","SS1613102592702","","","null","","","","","<p><img src= images/blank.png width =""200"" height = ""200"" style = ""float:right""></p><p><img src=images/blank.png width =""800"" height = ""200""></p>","","","","","","","","","","","",""
"","385.53500000131316","sequential-stimulus-presentation","269","518144","0.0-50.0-1.4","SS1613102592702","trial","","40","800","1185.5350000013132","images/stimuli/spore_stims/complex_01_A_d.gif","images/stimuli/spore_stims/complex_19_B_a.gif","","","","","14","complex_dissimilar","images/stimuli/spore_stims/complex_19_B_a.gif","right","","","","",""
"","null","html-keyboard-response","270","519164","0.0-50.0-0.5","SS1613102592702","","","null","","","","","<p><img src= images/blank.png width =""200"" height = ""200"" style = ""float:right""></p><p><img src=images/blank.png width =""800"" height = ""200""></p>","","","","","","","","","","","",""
"","378.8399999976391","sequential-stimulus-presentation","271","520353","0.0-50.0-1.5","SS1613102592702","trial","","40","800","1178.839999997639","images/stimuli/spore_stims/complex_01_A_d.gif","images/stimuli/spore_stims/complex_19_B_a.gif","","","","","14","complex_dissimilar","images/stimuli/spore_stims/complex_19_B_a.gif","right","","","","",""
"","null","html-keyboard-response","272","521271","0.0-50.0-0.6","SS1613102592702","","","null","","","","","<p><img src= images/blank.png width =""200"" height = ""200"" style = ""float:right""></p><p><img src=images/blank.png width =""800"" height = ""200""></p>","","","","","","","","","","","",""
"","1238.1149999999907","sequential-stimulus-presentation","273","523320","0.0-50.0-1.6","SS1613102592702","trial","","40","800","2038.1149999999907","images/stimuli/spore_stims/complex_01_A_d.gif","images/stimuli/spore_stims/complex_19_B_a.gif","","","","","14","complex_dissimilar","images/stimuli/spore_stims/complex_19_B_a.gif","right","","","","",""
"","null","html-keyboard-response","274","524607","0.0-50.0-0.7","SS1613102592702","","","null","","","","","<p><img src= images/blank.png width =""200"" height = ""200"" style = ""float:right""></p><p><img src=images/blank.png width =""800"" height = ""200""></p>","","","","","","","","","","","",""
"","389.4800000016112","sequential-stimulus-presentation","275","525808","0.0-50.0-1.7","SS1613102592702","trial","","40","800","1189.4800000016112","images/stimuli/spore_stims/complex_01_A_d.gif","images/stimuli/spore_stims/complex_19_B_a.gif","","","","","14","complex_dissimilar","images/stimuli/spore_stims/complex_19_B_a.gif","right","","","","",""
"","1428.7249999979977","html-keyboard-response","276","527248","0.0-51.0","SS1613102592702","pref_question","","98","","","","","<video width ='960' height = '540' style='padding-top:8%' autoplay muted><source src='images/stimuli/wall_pref.mp4' type='video/mp4'></video>","2","middle","45%","14","","","","","","","",""
"","924.7150000010151","sequential-stimulus-presentation","277","528984","0.0-52.0","SS1613102592702","pref_reveal","","40","800","1724.7150000010151","null","null","","","","","14","","","","novel","","","",""
"","null","html-keyboard-response","278","530179","0.0-53.0-0.0","SS1613102592702","","","null","","","","","<p><img src= images/blank.png width =""200"" height = ""200"" style = ""float:right""></p><p><img src=images/blank.png width =""800"" height = ""200""></p>","","","","","","","","","","","",""
"","395.31499999796506","sequential-stimulus-presentation","279","531391","0.0-53.0-1.0","SS1613102592702","trial","","40","800","1195.314999997965","images/stimuli/spore_stims/complex_20_A_c.gif","images/stimuli/spore_stims/complex_19_A_c.gif","","","","","15","complex_dissimilar","images/stimuli/spore_stims/complex_19_A_c.gif","right","","","","",""
"","null","html-keyboard-response","280","532248","0.0-53.0-0.1","SS1613102592702","","","null","","","","","<p><img src= images/blank.png width =""200"" height = ""200"" style = ""float:right""></p><p><img src=images/blank.png width =""800"" height = ""200""></p>","","","","","","","","","","","",""
"","1313.2599999989616","sequential-stimulus-presentation","281","534375","0.0-53.0-1.1","SS1613102592702","trial","","40","800","2113.2599999989616","images/stimuli/spore_stims/complex_20_A_c.gif","images/stimuli/spore_stims/complex_19_A_c.gif","","","","","15","complex_dissimilar","images/stimuli/spore_stims/complex_19_A_c.gif","right","","","","",""
"","null","html-keyboard-response","282","535666","0.0-53.0-0.2","SS1613102592702","","","null","","","","","<p><img src= images/blank.png width =""200"" height = ""200"" style = ""float:right""></p><p><img src=images/blank.png width =""800"" height = ""200""></p>","","","","","","","","","","","",""
"","470.31499999866355","sequential-stimulus-presentation","283","536952","0.0-53.0-1.2","SS1613102592702","trial","","40","800","1270.3149999986636","images/stimuli/spore_stims/complex_20_A_c.gif","images/stimuli/spore_stims/complex_19_A_c.gif","","","","","15","complex_dissimilar","images/stimuli/spore_stims/complex_19_A_c.gif","right","","","","",""
"","null","html-keyboard-response","284","537760","0.0-53.0-0.3","SS1613102592702","","","null","","","","","<p><img src= images/blank.png width =""200"" height = ""200"" style = ""float:right""></p><p><img src=images/blank.png width =""800"" height = ""200""></p>","","","","","","","","","","","",""
"","908.1249999981374","sequential-stimulus-presentation","285","539480","0.0-53.0-1.3","SS1613102592702","trial","","40","800","1708.1249999981374","images/stimuli/spore_stims/complex_20_A_c.gif","images/stimuli/spore_stims/complex_19_A_c.gif","","","","","15","complex_dissimilar","images/stimuli/spore_stims/complex_19_A_c.gif","right","","","","",""
"","null","html-keyboard-response","286","540488","0.0-53.0-0.4","SS1613102592702","","","null","","","","","<p><img src= images/blank.png width =""200"" height = ""200"" style = ""float:right""></p><p><img src=images/blank.png width =""800"" height = ""200""></p>","","","","","","","","","","","",""
"","84.46499999985099","sequential-stimulus-presentation","287","541383","0.0-53.0-1.4","SS1613102592702","trial","","40","800","884.464999999851","images/stimuli/spore_stims/complex_20_A_c.gif","images/stimuli/spore_stims/complex_19_A_c.gif","","","","","15","complex_dissimilar","images/stimuli/spore_stims/complex_19_A_c.gif","right","","","","",""
"","null","html-keyboard-response","288","542201","0.0-53.0-0.5","SS1613102592702","","","null","","","","","<p><img src= images/blank.png width =""200"" height = ""200"" style = ""float:right""></p><p><img src=images/blank.png width =""800"" height = ""200""></p>","","","","","","","","","","","",""
"","1237.460000000312","sequential-stimulus-presentation","289","544247","0.0-53.0-1.5","SS1613102592702","trial","","40","800","2037.460000000312","images/stimuli/spore_stims/complex_20_A_c.gif","images/stimuli/spore_stims/complex_19_A_c.gif","","","","","15","complex_dissimilar","images/stimuli/spore_stims/complex_20_A_c.gif","left","","","","",""
"","null","html-keyboard-response","290","545078","0.0-53.0-0.6","SS1613102592702","","","null","","","","","<p><img src= images/blank.png width =""200"" height = ""200"" style = ""float:right""></p><p><img src=images/blank.png width =""800"" height = ""200""></p>","","","","","","","","","","","",""
"","556.2550000031479","sequential-stimulus-presentation","291","546447","0.0-53.0-1.6","SS1613102592702","trial","","40","800","1356.2550000031479","images/stimuli/spore_stims/complex_20_A_c.gif","images/stimuli/spore_stims/complex_19_A_c.gif","","","","","15","complex_dissimilar","images/stimuli/spore_stims/complex_19_A_c.gif","right","","","","",""
"","null","html-keyboard-response","292","547651","0.0-53.0-0.7","SS1613102592702","","","null","","","","","<p><img src= images/blank.png width =""200"" height = ""200"" style = ""float:right""></p><p><img src=images/blank.png width =""800"" height = ""200""></p>","","","","","","","","","","","",""
"","384.8150000012247","sequential-stimulus-presentation","293","548847","0.0-53.0-1.7","SS1613102592702","trial","","40","800","1184.8150000012247","images/stimuli/spore_stims/complex_20_A_c.gif","images/stimuli/spore_stims/complex_19_A_c.gif","","","","","15","complex_dissimilar","images/stimuli/spore_stims/complex_19_A_c.gif","right","","","","",""
"","1976.5700000026263","html-keyboard-response","294","550832","0.0-54.0","SS1613102592702","pref_question","","98","","","","","<video width ='960' height = '540' style='padding-top:8%' autoplay muted><source src='images/stimuli/wall_pref.mp4' type='video/mp4'></video>","2","middle","45%","15","","","","","","","",""
"","740.1400000017602","sequential-stimulus-presentation","295","552383","0.0-55.0","SS1613102592702","pref_reveal","","40","800","1540.1400000017602","null","null","","","","","15","","","","novel","","","",""
"","null","html-keyboard-response","296","553673","0.0-56.0-0.0","SS1613102592702","","","null","","","","","<p><img src= images/blank.png width =""200"" height = ""200"" style = ""float:right""></p><p><img src=images/blank.png width =""800"" height = ""200""></p>","","","","","","","","","","","",""
"","391.74999999883585","sequential-stimulus-presentation","297","554879","0.0-56.0-1.0","SS1613102592702","trial","","40","800","1191.7499999988358","images/stimuli/spore_stims/complex_13_B_d.gif","images/stimuli/spore_stims/complex_13_A_d.gif","","","","","16","complex_similar","images/stimuli/spore_stims/complex_13_A_d.gif","left","","","","",""
"","null","html-keyboard-response","298","556046","0.0-56.0-0.1","SS1613102592702","","","null","","","","","<p><img src= images/blank.png width =""200"" height = ""200"" style = ""float:right""></p><p><img src=images/blank.png width =""800"" height = ""200""></p>","","","","","","","","","","","",""
"","6.60500000230968","sequential-stimulus-presentation","299","556863","0.0-56.0-1.1","SS1613102592702","trial","","40","800","806.6050000023097","images/stimuli/spore_stims/complex_13_B_d.gif","images/stimuli/spore_stims/complex_13_A_d.gif","","","","","16","complex_similar","images/stimuli/spore_stims/complex_13_A_d.gif","left","","","","",""
"","null","html-keyboard-response","300","558026","0.0-56.0-0.2","SS1613102592702","","","null","","","","","<p><img src= images/blank.png width =""200"" height = ""200"" style = ""float:right""></p><p><img src=images/blank.png width =""800"" height = ""200""></p>","","","","","","","","","","","",""
"","1439.1950000026263","sequential-stimulus-presentation","301","560278","0.0-56.0-1.2","SS1613102592702","trial","","40","800","2239.1950000026263","images/stimuli/spore_stims/complex_13_B_d.gif","images/stimuli/spore_stims/complex_13_A_d.gif","","","","","16","complex_similar","images/stimuli/spore_stims/complex_13_A_d.gif","left","","","","",""
"","null","html-keyboard-response","302","561178","0.0-56.0-0.3","SS1613102592702","","","null","","","","","<p><img src= images/blank.png width =""200"" height = ""200"" style = ""float:right""></p><p><img src=images/blank.png width =""800"" height = ""200""></p>","","","","","","","","","","","",""
"","1514.82499999844","sequential-stimulus-presentation","303","563503","0.0-56.0-1.3","SS1613102592702","trial","","40","800","2314.82499999844","images/stimuli/spore_stims/complex_13_B_d.gif","images/stimuli/spore_stims/complex_13_A_d.gif","","","","","16","complex_similar","images/stimuli/spore_stims/complex_13_A_d.gif","left","","","","",""
"","null","html-keyboard-response","304","564601","0.0-56.0-0.4","SS1613102592702","","","null","","","","","<p><img src= images/blank.png width =""200"" height = ""200"" style = ""float:right""></p><p><img src=images/blank.png width =""800"" height = ""200""></p>","","","","","","","","","","","",""
"","391.1950000001816","sequential-stimulus-presentation","305","565807","0.0-56.0-1.4","SS1613102592702","trial","","40","800","1191.1950000001816","images/stimuli/spore_stims/complex_13_B_d.gif","images/stimuli/spore_stims/complex_13_A_d.gif","","","","","16","complex_similar","images/stimuli/spore_stims/complex_13_A_d.gif","left","","","","",""
"","null","html-keyboard-response","306","567065","0.0-56.0-0.5","SS1613102592702","","","null","","","","","<p><img src= images/blank.png width =""200"" height = ""200"" style = ""float:right""></p><p><img src=images/blank.png width =""800"" height = ""200""></p>","","","","","","","","","","","",""
"","1033.465000000433","sequential-stimulus-presentation","307","568910","0.0-56.0-1.5","SS1613102592702","trial","","40","800","1833.465000000433","images/stimuli/spore_stims/complex_13_B_d.gif","images/stimuli/spore_stims/complex_13_A_d.gif","","","","","16","complex_similar","images/stimuli/spore_stims/complex_13_B_d.gif","middle","","","","",""
"","null","html-keyboard-response","308","570184","0.0-56.0-0.6","SS1613102592702","","","null","","","","","<p><img src= images/blank.png width =""200"" height = ""200"" style = ""float:right""></p><p><img src=images/blank.png width =""800"" height = ""200""></p>","","","","","","","","","","","",""
"","378.8849999983795","sequential-stimulus-presentation","309","571374","0.0-56.0-1.6","SS1613102592702","trial","","40","800","1178.8849999983795","images/stimuli/spore_stims/complex_13_B_d.gif","images/stimuli/spore_stims/complex_13_A_d.gif","","","","","16","complex_similar","images/stimuli/spore_stims/complex_13_A_d.gif","left","","","","",""
"","null","html-keyboard-response","310","572370","0.0-56.0-0.7","SS1613102592702","","","null","","","","","<p><img src= images/blank.png width =""200"" height = ""200"" style = ""float:right""></p><p><img src=images/blank.png width =""800"" height = ""200""></p>","","","","","","","","","","","",""
"","378.179999999702","sequential-stimulus-presentation","311","573559","0.0-56.0-1.7","SS1613102592702","trial","","40","800","1178.179999999702","images/stimuli/spore_stims/complex_13_B_d.gif","images/stimuli/spore_stims/complex_13_A_d.gif","","","","","16","complex_similar","images/stimuli/spore_stims/complex_13_A_d.gif","left","","","","",""
"","1050.9949999977835","html-keyboard-response","312","574622","0.0-57.0","SS1613102592702","pref_question","","98","","","","","<video width ='960' height = '540' style='padding-top:8%' autoplay muted><source src='images/stimuli/wall_pref.mp4' type='video/mp4'></video>","2","middle","45%","16","","","","","","","",""
