"view_history","rt","trial_type","trial_index","time_elapsed","internal_node_id","subject","stimulus_type","trial_stimulus","key_press","minimum_viewing_duration","trial_looking_time","block_deviant","block_background","stimulus","wall_pref","location","location_percent","block_number","block_type","stimulus_displayed","position_displayed","stim_type_selected","responses","question_order","stimulus_left","stimulus_right"
"[{""page_index"":0,""viewing_time"":2525.999999998021}]","2527.0000000018626","instructions","0","2532","0.0-0.0","SS1613103914050","","","","","","","","","","","","","","","","","","","",""
"[{""page_index"":0,""viewing_time"":1167.0000000012806},{""page_index"":1,""viewing_time"":2744.0000000060536}]","3912.000000011176","instructions","1","8451","0.0-1.0","SS1613103914050","instructions","","","","","","","","","","","","","","","","","","",""
"","1349.000000001979","sequential-stimulus-presentation","2","10658","0.0-2.0","SS1613103914050","","","40","800","2149.000000001979","null","null","","","","","","","","","","","","",""
"","2998.9999999961583","sequential-stimulus-presentation","3","14467","0.0-3.0","SS1613103914050","","","40","800","3798.9999999961583","null","null","","","","","","","","","","","","",""
"[{""page_index"":0,""viewing_time"":1744.9999999953434}]","1745.999999999185","instructions","4","16219","0.0-4.0","SS1613103914050","instructions","","","","","","","","","","","","","","","","","","",""
"","6926.999999996042","html-keyboard-response","5","23154","0.0-5.0","SS1613103914050","instructions","","98","","","","","<video width ='960' height = '540' autoplay muted><source src='images/stimuli/wall_pref.mp4' type='video/mp4'></video>","2","middle","45%","","","","","","","","",""
"","1369.9999999953434","sequential-stimulus-presentation","6","25334","0.0-6.0","SS1613103914050","pref_reveal","","40","800","2169.9999999953434","null","null","","","","","","","","","","","","",""
"[{""page_index"":0,""viewing_time"":941.9999999954598},{""page_index"":1,""viewing_time"":1193.0000000138534},{""page_index"":2,""viewing_time"":895.9999999933643},{""page_index"":3,""viewing_time"":711.9999999995343}]","3744.0000000060536","instructions","7","29082","0.0-7.0","SS1613103914050","instructions","","","","","","","","","","","","","","","","","","",""
"","null","html-keyboard-response","8","30284","0.0-8.0-0.0","SS1613103914050","","","null","","","","","<p><img src= images/blank.png width =""200"" height = ""200"" style = ""float:right""></p><p><img src=images/blank.png width =""800"" height = ""200""></p>","","","","","","","","","","","",""
"","205.00000000174623","sequential-stimulus-presentation","9","31307","0.0-8.0-1.0","SS1613103914050","trial","","40","800","1005.0000000017462","images/stimuli/spore_stims/simple_20_B_b.gif","images/stimuli/spore_stims/simple_20_A_b.gif","","","","","0","simple_similar","images/stimuli/spore_stims/simple_20_A_b.gif","middle","","","","",""
"","null","html-keyboard-response","10","32393","0.0-8.0-0.1","SS1613103914050","","","null","","","","","<p><img src= images/blank.png width =""200"" height = ""200"" style = ""float:right""></p><p><img src=images/blank.png width =""800"" height = ""200""></p>","","","","","","","","","","","",""
"","319.999999992433","sequential-stimulus-presentation","11","33525","0.0-8.0-1.1","SS1613103914050","trial","","40","800","1119.999999992433","images/stimuli/spore_stims/simple_20_B_b.gif","images/stimuli/spore_stims/simple_20_A_b.gif","","","","","0","simple_similar","images/stimuli/spore_stims/simple_20_A_b.gif","middle","","","","",""
"","null","html-keyboard-response","12","34646","0.0-8.0-0.2","SS1613103914050","","","null","","","","","<p><img src= images/blank.png width =""200"" height = ""200"" style = ""float:right""></p><p><img src=images/blank.png width =""800"" height = ""200""></p>","","","","","","","","","","","",""
"","97.99999999813735","sequential-stimulus-presentation","13","35590","0.0-8.0-1.2","SS1613103914050","trial","","40","800","897.9999999981374","images/stimuli/spore_stims/simple_20_B_b.gif","images/stimuli/spore_stims/simple_20_A_b.gif","","","","","0","simple_similar","images/stimuli/spore_stims/simple_20_A_b.gif","middle","","","","",""
"","null","html-keyboard-response","14","36830","0.0-8.0-0.3","SS1613103914050","","","null","","","","","<p><img src= images/blank.png width =""200"" height = ""200"" style = ""float:right""></p><p><img src=images/blank.png width =""800"" height = ""200""></p>","","","","","","","","","","","",""
"","2080.0000000017462","sequential-stimulus-presentation","15","39721","0.0-8.0-1.3","SS1613103914050","trial","","40","800","2880.0000000017462","images/stimuli/spore_stims/simple_20_B_b.gif","images/stimuli/spore_stims/simple_20_A_b.gif","","","","","0","simple_similar","images/stimuli/spore_stims/simple_20_A_b.gif","middle","","","","",""
"","null","html-keyboard-response","16","40935","0.0-8.0-0.4","SS1613103914050","","","null","","","","","<p><img src= images/blank.png width =""200"" height = ""200"" style = ""float:right""></p><p><img src=images/blank.png width =""800"" height = ""200""></p>","","","","","","","","","","","",""
"","168.00000000512227","sequential-stimulus-presentation","17","41916","0.0-8.0-1.4","SS1613103914050","trial","","40","800","968.0000000051223","images/stimuli/spore_stims/simple_20_B_b.gif","images/stimuli/spore_stims/simple_20_A_b.gif","","","","","0","simple_similar","images/stimuli/spore_stims/simple_20_A_b.gif","middle","","","","",""
"","null","html-keyboard-response","18","43054","0.0-8.0-0.5","SS1613103914050","","","null","","","","","<p><img src= images/blank.png width =""200"" height = ""200"" style = ""float:right""></p><p><img src=images/blank.png width =""800"" height = ""200""></p>","","","","","","","","","","","",""
"","57.00000000069849","sequential-stimulus-presentation","19","43920","0.0-8.0-1.5","SS1613103914050","trial","","40","800","857.0000000006985","images/stimuli/spore_stims/simple_20_B_b.gif","images/stimuli/spore_stims/simple_20_A_b.gif","","","","","0","simple_similar","images/stimuli/spore_stims/simple_20_B_b.gif","right","","","","",""
"","null","html-keyboard-response","20","45022","0.0-8.0-0.6","SS1613103914050","","","null","","","","","<p><img src= images/blank.png width =""200"" height = ""200"" style = ""float:right""></p><p><img src=images/blank.png width =""800"" height = ""200""></p>","","","","","","","","","","","",""
"","1924.9999999883585","sequential-stimulus-presentation","21","47819","0.0-8.0-1.6","SS1613103914050","trial","","40","800","2724.9999999883585","images/stimuli/spore_stims/simple_20_B_b.gif","images/stimuli/spore_stims/simple_20_A_b.gif","","","","","0","simple_similar","images/stimuli/spore_stims/simple_20_A_b.gif","middle","","","","",""
"","null","html-keyboard-response","22","48876","0.0-8.0-0.7","SS1613103914050","","","null","","","","","<p><img src= images/blank.png width =""200"" height = ""200"" style = ""float:right""></p><p><img src=images/blank.png width =""800"" height = ""200""></p>","","","","","","","","","","","",""
"","88.00000000337604","sequential-stimulus-presentation","23","49813","0.0-8.0-1.7","SS1613103914050","trial","","40","800","888.000000003376","images/stimuli/spore_stims/simple_20_B_b.gif","images/stimuli/spore_stims/simple_20_A_b.gif","","","","","0","simple_similar","images/stimuli/spore_stims/simple_20_A_b.gif","middle","","","","",""
"","1792.0000000012806","html-keyboard-response","24","51632","0.0-9.0","SS1613103914050","pref_question","","98","","","","","<video width ='960' height = '540' style='padding-top:8%' autoplay muted><source src='images/stimuli/wall_pref.mp4' type='video/mp4'></video>","2","middle","45%","0","","","","","","","",""
"","615.9999999945285","sequential-stimulus-presentation","25","53074","0.0-10.0","SS1613103914050","pref_reveal","","40","800","1415.9999999945285","null","null","","","","","0","","","","background","","","",""
"","null","html-keyboard-response","26","54250","0.0-11.0-0.0","SS1613103914050","","","null","","","","","<p><img src= images/blank.png width =""200"" height = ""200"" style = ""float:right""></p><p><img src=images/blank.png width =""800"" height = ""200""></p>","","","","","","","","","","","",""
"","1552.9999999998836","sequential-stimulus-presentation","27","56616","0.0-11.0-1.0","SS1613103914050","trial","","40","800","2352.9999999998836","images/stimuli/spore_stims/complex_10_A_b.gif","images/stimuli/spore_stims/complex_08_A_b.gif","","","","","1","complex_dissimilar","images/stimuli/spore_stims/complex_08_A_b.gif","right","","","","",""
"","null","html-keyboard-response","28","57442","0.0-11.0-0.1","SS1613103914050","","","null","","","","","<p><img src= images/blank.png width =""200"" height = ""200"" style = ""float:right""></p><p><img src=images/blank.png width =""800"" height = ""200""></p>","","","","","","","","","","","",""
"","1135.999999998603","sequential-stimulus-presentation","29","59392","0.0-11.0-1.1","SS1613103914050","trial","","40","800","1935.999999998603","images/stimuli/spore_stims/complex_10_A_b.gif","images/stimuli/spore_stims/complex_08_A_b.gif","","","","","1","complex_dissimilar","images/stimuli/spore_stims/complex_08_A_b.gif","right","","","","",""
"","null","html-keyboard-response","30","60581","0.0-11.0-0.2","SS1613103914050","","","null","","","","","<p><img src= images/blank.png width =""200"" height = ""200"" style = ""float:right""></p><p><img src=images/blank.png width =""800"" height = ""200""></p>","","","","","","","","","","","",""
"","797.0000000059372","sequential-stimulus-presentation","31","62200","0.0-11.0-1.2","SS1613103914050","trial","","40","800","1597.0000000059372","images/stimuli/spore_stims/complex_10_A_b.gif","images/stimuli/spore_stims/complex_08_A_b.gif","","","","","1","complex_dissimilar","images/stimuli/spore_stims/complex_08_A_b.gif","right","","","","",""
"","null","html-keyboard-response","32","63393","0.0-11.0-0.3","SS1613103914050","","","null","","","","","<p><img src= images/blank.png width =""200"" height = ""200"" style = ""float:right""></p><p><img src=images/blank.png width =""800"" height = ""200""></p>","","","","","","","","","","","",""
"","318.0000000138534","sequential-stimulus-presentation","33","64527","0.0-11.0-1.3","SS1613103914050","trial","","40","800","1118.0000000138534","images/stimuli/spore_stims/complex_10_A_b.gif","images/stimuli/spore_stims/complex_08_A_b.gif","","","","","1","complex_dissimilar","images/stimuli/spore_stims/complex_08_A_b.gif","right","","","","",""
"","null","html-keyboard-response","34","65830","0.0-11.0-0.4","SS1613103914050","","","null","","","","","<p><img src= images/blank.png width =""200"" height = ""200"" style = ""float:right""></p><p><img src=images/blank.png width =""800"" height = ""200""></p>","","","","","","","","","","","",""
"","597.9999999981374","sequential-stimulus-presentation","35","67249","0.0-11.0-1.4","SS1613103914050","trial","","40","800","1397.9999999981374","images/stimuli/spore_stims/complex_10_A_b.gif","images/stimuli/spore_stims/complex_08_A_b.gif","","","","","1","complex_dissimilar","images/stimuli/spore_stims/complex_08_A_b.gif","right","","","","",""
"","null","html-keyboard-response","36","68166","0.0-11.0-0.5","SS1613103914050","","","null","","","","","<p><img src= images/blank.png width =""200"" height = ""200"" style = ""float:right""></p><p><img src=images/blank.png width =""800"" height = ""200""></p>","","","","","","","","","","","",""
"","134.00000000547152","sequential-stimulus-presentation","37","69120","0.0-11.0-1.5","SS1613103914050","trial","","40","800","934.0000000054715","images/stimuli/spore_stims/complex_10_A_b.gif","images/stimuli/spore_stims/complex_08_A_b.gif","","","","","1","complex_dissimilar","images/stimuli/spore_stims/complex_08_A_b.gif","right","","","","",""
"","null","html-keyboard-response","38","70307","0.0-11.0-0.6","SS1613103914050","","","null","","","","","<p><img src= images/blank.png width =""200"" height = ""200"" style = ""float:right""></p><p><img src=images/blank.png width =""800"" height = ""200""></p>","","","","","","","","","","","",""
"","527.9999999911524","sequential-stimulus-presentation","39","71660","0.0-11.0-1.6","SS1613103914050","trial","","40","800","1327.9999999911524","images/stimuli/spore_stims/complex_10_A_b.gif","images/stimuli/spore_stims/complex_08_A_b.gif","","","","","1","complex_dissimilar","images/stimuli/spore_stims/complex_10_A_b.gif","middle","","","","",""
"","null","html-keyboard-response","40","72977","0.0-11.0-0.7","SS1613103914050","","","null","","","","","<p><img src= images/blank.png width =""200"" height = ""200"" style = ""float:right""></p><p><img src=images/blank.png width =""800"" height = ""200""></p>","","","","","","","","","","","",""
"","861.0000000044238","sequential-stimulus-presentation","41","74648","0.0-11.0-1.7","SS1613103914050","trial","","40","800","1661.0000000044238","images/stimuli/spore_stims/complex_10_A_b.gif","images/stimuli/spore_stims/complex_08_A_b.gif","","","","","1","complex_dissimilar","images/stimuli/spore_stims/complex_08_A_b.gif","right","","","","",""
"","3415.999999997439","html-keyboard-response","42","78074","0.0-12.0","SS1613103914050","pref_question","","99","","","","","<video width ='960' height = '540' style='padding-top:8%' autoplay muted><source src='images/stimuli/wall_pref.mp4' type='video/mp4'></video>","3","right","66%","1","","","","","","","",""
"","1081.000000005588","sequential-stimulus-presentation","43","79969","0.0-13.0","SS1613103914050","pref_reveal","","40","800","1881.000000005588","null","null","","","","","1","","","","background","","","",""
"","null","html-keyboard-response","44","80976","0.0-14.0-0.0","SS1613103914050","","","null","","","","","<p><img src= images/blank.png width =""200"" height = ""200"" style = ""float:right""></p><p><img src=images/blank.png width =""800"" height = ""200""></p>","","","","","","","","","","","",""
"","99.00000000197906","sequential-stimulus-presentation","45","81912","0.0-14.0-1.0","SS1613103914050","trial","","40","800","899.0000000019791","images/stimuli/spore_stims/complex_07_B_c.gif","images/stimuli/spore_stims/complex_18_B_c.gif","","","","","2","complex_dissimilar","images/stimuli/spore_stims/complex_18_B_c.gif","left","","","","",""
"","null","html-keyboard-response","46","82743","0.0-14.0-0.1","SS1613103914050","","","null","","","","","<p><img src= images/blank.png width =""200"" height = ""200"" style = ""float:right""></p><p><img src=images/blank.png width =""800"" height = ""200""></p>","","","","","","","","","","","",""
"","384.0000000054715","sequential-stimulus-presentation","47","83986","0.0-14.0-1.1","SS1613103914050","trial","","40","800","1184.0000000054715","images/stimuli/spore_stims/complex_07_B_c.gif","images/stimuli/spore_stims/complex_18_B_c.gif","","","","","2","complex_dissimilar","images/stimuli/spore_stims/complex_18_B_c.gif","left","","","","",""
"","null","html-keyboard-response","48","85128","0.0-14.0-0.2","SS1613103914050","","","null","","","","","<p><img src= images/blank.png width =""200"" height = ""200"" style = ""float:right""></p><p><img src=images/blank.png width =""800"" height = ""200""></p>","","","","","","","","","","","",""
"","135.00000000931323","sequential-stimulus-presentation","49","86099","0.0-14.0-1.2","SS1613103914050","trial","","40","800","935.0000000093132","images/stimuli/spore_stims/complex_07_B_c.gif","images/stimuli/spore_stims/complex_18_B_c.gif","","","","","2","complex_dissimilar","images/stimuli/spore_stims/complex_18_B_c.gif","left","","","","",""
"","null","html-keyboard-response","50","87365","0.0-14.0-0.3","SS1613103914050","","","null","","","","","<p><img src= images/blank.png width =""200"" height = ""200"" style = ""float:right""></p><p><img src=images/blank.png width =""800"" height = ""200""></p>","","","","","","","","","","","",""
"","849.0000000019791","sequential-stimulus-presentation","51","89065","0.0-14.0-1.3","SS1613103914050","trial","","40","800","1649.000000001979","images/stimuli/spore_stims/complex_07_B_c.gif","images/stimuli/spore_stims/complex_18_B_c.gif","","","","","2","complex_dissimilar","images/stimuli/spore_stims/complex_18_B_c.gif","left","","","","",""
"","null","html-keyboard-response","52","90371","0.0-14.0-0.4","SS1613103914050","","","null","","","","","<p><img src= images/blank.png width =""200"" height = ""200"" style = ""float:right""></p><p><img src=images/blank.png width =""800"" height = ""200""></p>","","","","","","","","","","","",""
"","860.0000000005821","sequential-stimulus-presentation","53","92073","0.0-14.0-1.4","SS1613103914050","trial","","40","800","1660.000000000582","images/stimuli/spore_stims/complex_07_B_c.gif","images/stimuli/spore_stims/complex_18_B_c.gif","","","","","2","complex_dissimilar","images/stimuli/spore_stims/complex_18_B_c.gif","left","","","","",""
"","null","html-keyboard-response","54","93036","0.0-14.0-0.5","SS1613103914050","","","null","","","","","<p><img src= images/blank.png width =""200"" height = ""200"" style = ""float:right""></p><p><img src=images/blank.png width =""800"" height = ""200""></p>","","","","","","","","","","","",""
"","414.00000000430737","sequential-stimulus-presentation","55","94266","0.0-14.0-1.5","SS1613103914050","trial","","40","800","1214.0000000043074","images/stimuli/spore_stims/complex_07_B_c.gif","images/stimuli/spore_stims/complex_18_B_c.gif","","","","","2","complex_dissimilar","images/stimuli/spore_stims/complex_07_B_c.gif","right","","","","",""
"","null","html-keyboard-response","56","95089","0.0-14.0-0.6","SS1613103914050","","","null","","","","","<p><img src= images/blank.png width =""200"" height = ""200"" style = ""float:right""></p><p><img src=images/blank.png width =""800"" height = ""200""></p>","","","","","","","","","","","",""
"","430.000000007567","sequential-stimulus-presentation","57","96331","0.0-14.0-1.6","SS1613103914050","trial","","40","800","1230.000000007567","images/stimuli/spore_stims/complex_07_B_c.gif","images/stimuli/spore_stims/complex_18_B_c.gif","","","","","2","complex_dissimilar","images/stimuli/spore_stims/complex_18_B_c.gif","left","","","","",""
"","null","html-keyboard-response","58","97428","0.0-14.0-0.7","SS1613103914050","","","null","","","","","<p><img src= images/blank.png width =""200"" height = ""200"" style = ""float:right""></p><p><img src=images/blank.png width =""800"" height = ""200""></p>","","","","","","","","","","","",""
"","497.0000000030268","sequential-stimulus-presentation","59","98740","0.0-14.0-1.7","SS1613103914050","trial","","40","800","1297.0000000030268","images/stimuli/spore_stims/complex_07_B_c.gif","images/stimuli/spore_stims/complex_18_B_c.gif","","","","","2","complex_dissimilar","images/stimuli/spore_stims/complex_18_B_c.gif","left","","","","",""
"","1379.000000000815","html-keyboard-response","60","100130","0.0-15.0","SS1613103914050","pref_question","","97","","","","","<video width ='960' height = '540' style='padding-top:8%' autoplay muted><source src='images/stimuli/wall_pref.mp4' type='video/mp4'></video>","1","left","25%","2","","","","","","","",""
"","225.99999999511056","sequential-stimulus-presentation","61","101207","0.0-16.0","SS1613103914050","pref_reveal","","40","800","1025.9999999951106","null","null","","","","","2","","","","background","","","",""
"","null","html-keyboard-response","62","102240","0.0-17.0-0.0","SS1613103914050","","","null","","","","","<p><img src= images/blank.png width =""200"" height = ""200"" style = ""float:right""></p><p><img src=images/blank.png width =""800"" height = ""200""></p>","","","","","","","","","","","",""
"","27.000000001862645","sequential-stimulus-presentation","63","103083","0.0-17.0-1.0","SS1613103914050","trial","","40","800","827.0000000018626","images/stimuli/spore_stims/simple_10_A_b.gif","images/stimuli/spore_stims/simple_04_A_b.gif","","","","","3","simple_dissimilar","images/stimuli/spore_stims/simple_04_A_b.gif","middle","","","","",""
"","null","html-keyboard-response","64","103909","0.0-17.0-0.1","SS1613103914050","","","null","","","","","<p><img src= images/blank.png width =""200"" height = ""200"" style = ""float:right""></p><p><img src=images/blank.png width =""800"" height = ""200""></p>","","","","","","","","","","","",""
"","1113.999999986845","sequential-stimulus-presentation","65","105835","0.0-17.0-1.1","SS1613103914050","trial","","40","800","1913.999999986845","images/stimuli/spore_stims/simple_10_A_b.gif","images/stimuli/spore_stims/simple_04_A_b.gif","","","","","3","simple_dissimilar","images/stimuli/spore_stims/simple_04_A_b.gif","middle","","","","",""
"","null","html-keyboard-response","66","106677","0.0-17.0-0.2","SS1613103914050","","","null","","","","","<p><img src= images/blank.png width =""200"" height = ""200"" style = ""float:right""></p><p><img src=images/blank.png width =""800"" height = ""200""></p>","","","","","","","","","","","",""
"","266.9999999925494","sequential-stimulus-presentation","67","107763","0.0-17.0-1.2","SS1613103914050","trial","","40","800","1066.9999999925494","images/stimuli/spore_stims/simple_10_A_b.gif","images/stimuli/spore_stims/simple_04_A_b.gif","","","","","3","simple_dissimilar","images/stimuli/spore_stims/simple_04_A_b.gif","middle","","","","",""
"","null","html-keyboard-response","68","108982","0.0-17.0-0.3","SS1613103914050","","","null","","","","","<p><img src= images/blank.png width =""200"" height = ""200"" style = ""float:right""></p><p><img src=images/blank.png width =""800"" height = ""200""></p>","","","","","","","","","","","",""
"","52.999999999883585","sequential-stimulus-presentation","69","109898","0.0-17.0-1.3","SS1613103914050","trial","","40","800","852.9999999998836","images/stimuli/spore_stims/simple_10_A_b.gif","images/stimuli/spore_stims/simple_04_A_b.gif","","","","","3","simple_dissimilar","images/stimuli/spore_stims/simple_04_A_b.gif","middle","","","","",""
"","null","html-keyboard-response","70","110900","0.0-17.0-0.4","SS1613103914050","","","null","","","","","<p><img src= images/blank.png width =""200"" height = ""200"" style = ""float:right""></p><p><img src=images/blank.png width =""800"" height = ""200""></p>","","","","","","","","","","","",""
"","127.9999999969732","sequential-stimulus-presentation","71","111841","0.0-17.0-1.4","SS1613103914050","trial","","40","800","927.9999999969732","images/stimuli/spore_stims/simple_10_A_b.gif","images/stimuli/spore_stims/simple_04_A_b.gif","","","","","3","simple_dissimilar","images/stimuli/spore_stims/simple_04_A_b.gif","middle","","","","",""
"","null","html-keyboard-response","72","113027","0.0-17.0-0.5","SS1613103914050","","","null","","","","","<p><img src= images/blank.png width =""200"" height = ""200"" style = ""float:right""></p><p><img src=images/blank.png width =""800"" height = ""200""></p>","","","","","","","","","","","",""
"","900.9999999980209","sequential-stimulus-presentation","73","114753","0.0-17.0-1.5","SS1613103914050","trial","","40","800","1700.999999998021","images/stimuli/spore_stims/simple_10_A_b.gif","images/stimuli/spore_stims/simple_04_A_b.gif","","","","","3","simple_dissimilar","images/stimuli/spore_stims/simple_10_A_b.gif","right","","","","",""
"","null","html-keyboard-response","74","115942","0.0-17.0-0.6","SS1613103914050","","","null","","","","","<p><img src= images/blank.png width =""200"" height = ""200"" style = ""float:right""></p><p><img src=images/blank.png width =""800"" height = ""200""></p>","","","","","","","","","","","",""
"","33.000000010360964","sequential-stimulus-presentation","75","116796","0.0-17.0-1.6","SS1613103914050","trial","","40","800","833.000000010361","images/stimuli/spore_stims/simple_10_A_b.gif","images/stimuli/spore_stims/simple_04_A_b.gif","","","","","3","simple_dissimilar","images/stimuli/spore_stims/simple_04_A_b.gif","middle","","","","",""
"","null","html-keyboard-response","76","117834","0.0-17.0-0.7","SS1613103914050","","","null","","","","","<p><img src= images/blank.png width =""200"" height = ""200"" style = ""float:right""></p><p><img src=images/blank.png width =""800"" height = ""200""></p>","","","","","","","","","","","",""
"","21.999999997206032","sequential-stimulus-presentation","77","118683","0.0-17.0-1.7","SS1613103914050","trial","","40","800","821.999999997206","images/stimuli/spore_stims/simple_10_A_b.gif","images/stimuli/spore_stims/simple_04_A_b.gif","","","","","3","simple_dissimilar","images/stimuli/spore_stims/simple_04_A_b.gif","middle","","","","",""
"","1785.0000000034925","html-keyboard-response","78","120595","0.0-18.0","SS1613103914050","pref_question","","98","","","","","<video width ='960' height = '540' style='padding-top:8%' autoplay muted><source src='images/stimuli/wall_pref.mp4' type='video/mp4'></video>","2","middle","45%","3","","","","","","","",""
"","210.99999999569263","sequential-stimulus-presentation","79","121638","0.0-19.0","SS1613103914050","pref_reveal","","40","800","1010.9999999956926","null","null","","","","","3","","","","background","","","",""
"","null","html-keyboard-response","80","122686","0.0-20.0-0.0","SS1613103914050","","","null","","","","","<p><img src= images/blank.png width =""200"" height = ""200"" style = ""float:right""></p><p><img src=images/blank.png width =""800"" height = ""200""></p>","","","","","","","","","","","",""
"","1421.0000000020955","sequential-stimulus-presentation","81","124929","0.0-20.0-1.0","SS1613103914050","trial","","40","800","2221.0000000020955","images/stimuli/spore_stims/complex_11_B_d.gif","images/stimuli/spore_stims/complex_18_A_c.gif","","","","","4","complex_dissimilar","images/stimuli/spore_stims/complex_18_A_c.gif","right","","","","",""
"","null","html-keyboard-response","82","125786","0.0-20.0-0.1","SS1613103914050","","","null","","","","","<p><img src= images/blank.png width =""200"" height = ""200"" style = ""float:right""></p><p><img src=images/blank.png width =""800"" height = ""200""></p>","","","","","","","","","","","",""
"","1001.0000000038417","sequential-stimulus-presentation","83","127609","0.0-20.0-1.1","SS1613103914050","trial","","40","800","1801.0000000038417","images/stimuli/spore_stims/complex_11_B_d.gif","images/stimuli/spore_stims/complex_18_A_c.gif","","","","","4","complex_dissimilar","images/stimuli/spore_stims/complex_18_A_c.gif","right","","","","",""
"","null","html-keyboard-response","84","128601","0.0-20.0-0.2","SS1613103914050","","","null","","","","","<p><img src= images/blank.png width =""200"" height = ""200"" style = ""float:right""></p><p><img src=images/blank.png width =""800"" height = ""200""></p>","","","","","","","","","","","",""
"","1535.0000000034925","sequential-stimulus-presentation","85","130956","0.0-20.0-1.2","SS1613103914050","trial","","40","800","2335.0000000034925","images/stimuli/spore_stims/complex_11_B_d.gif","images/stimuli/spore_stims/complex_18_A_c.gif","","","","","4","complex_dissimilar","images/stimuli/spore_stims/complex_18_A_c.gif","right","","","","",""
"","null","html-keyboard-response","86","132177","0.0-20.0-0.3","SS1613103914050","","","null","","","","","<p><img src= images/blank.png width =""200"" height = ""200"" style = ""float:right""></p><p><img src=images/blank.png width =""800"" height = ""200""></p>","","","","","","","","","","","",""
"","1069.0000000031432","sequential-stimulus-presentation","87","134065","0.0-20.0-1.3","SS1613103914050","trial","","40","800","1869.0000000031432","images/stimuli/spore_stims/complex_11_B_d.gif","images/stimuli/spore_stims/complex_18_A_c.gif","","","","","4","complex_dissimilar","images/stimuli/spore_stims/complex_18_A_c.gif","right","","","","",""
"","null","html-keyboard-response","88","135276","0.0-20.0-0.4","SS1613103914050","","","null","","","","","<p><img src= images/blank.png width =""200"" height = ""200"" style = ""float:right""></p><p><img src=images/blank.png width =""800"" height = ""200""></p>","","","","","","","","","","","",""
"","175.00000000291038","sequential-stimulus-presentation","89","136268","0.0-20.0-1.4","SS1613103914050","trial","","40","800","975.0000000029104","images/stimuli/spore_stims/complex_11_B_d.gif","images/stimuli/spore_stims/complex_18_A_c.gif","","","","","4","complex_dissimilar","images/stimuli/spore_stims/complex_18_A_c.gif","right","","","","",""
"","null","html-keyboard-response","90","137363","0.0-20.0-0.5","SS1613103914050","","","null","","","","","<p><img src= images/blank.png width =""200"" height = ""200"" style = ""float:right""></p><p><img src=images/blank.png width =""800"" height = ""200""></p>","","","","","","","","","","","",""
"","1442.9999999993015","sequential-stimulus-presentation","91","139641","0.0-20.0-1.5","SS1613103914050","trial","","40","800","2242.9999999993015","images/stimuli/spore_stims/complex_11_B_d.gif","images/stimuli/spore_stims/complex_18_A_c.gif","","","","","4","complex_dissimilar","images/stimuli/spore_stims/complex_11_B_d.gif","left","","","","",""
"","null","html-keyboard-response","92","140590","0.0-20.0-0.6","SS1613103914050","","","null","","","","","<p><img src= images/blank.png width =""200"" height = ""200"" style = ""float:right""></p><p><img src=images/blank.png width =""800"" height = ""200""></p>","","","","","","","","","","","",""
"","1191.9999999954598","sequential-stimulus-presentation","93","142600","0.0-20.0-1.6","SS1613103914050","trial","","40","800","1991.9999999954598","images/stimuli/spore_stims/complex_11_B_d.gif","images/stimuli/spore_stims/complex_18_A_c.gif","","","","","4","complex_dissimilar","images/stimuli/spore_stims/complex_18_A_c.gif","right","","","","",""
"","null","html-keyboard-response","94","143501","0.0-20.0-0.7","SS1613103914050","","","null","","","","","<p><img src= images/blank.png width =""200"" height = ""200"" style = ""float:right""></p><p><img src=images/blank.png width =""800"" height = ""200""></p>","","","","","","","","","","","",""
"","936.0000000015134","sequential-stimulus-presentation","95","145273","0.0-20.0-1.7","SS1613103914050","trial","","40","800","1736.0000000015134","images/stimuli/spore_stims/complex_11_B_d.gif","images/stimuli/spore_stims/complex_18_A_c.gif","","","","","4","complex_dissimilar","images/stimuli/spore_stims/complex_18_A_c.gif","right","","","","",""
"","1875","html-keyboard-response","96","147160","0.0-21.0","SS1613103914050","pref_question","","99","","","","","<video width ='960' height = '540' style='padding-top:8%' autoplay muted><source src='images/stimuli/wall_pref.mp4' type='video/mp4'></video>","3","right","66%","4","","","","","","","",""
"","707.9999999987194","sequential-stimulus-presentation","97","148693","0.0-22.0","SS1613103914050","pref_reveal","","40","800","1507.9999999987194","null","null","","","","","4","","","","background","","","",""
"","null","html-keyboard-response","98","149805","0.0-23.0-0.0","SS1613103914050","","","null","","","","","<p><img src= images/blank.png width =""200"" height = ""200"" style = ""float:right""></p><p><img src=images/blank.png width =""800"" height = ""200""></p>","","","","","","","","","","","",""
"","1708.0000000132713","sequential-stimulus-presentation","99","152331","0.0-23.0-1.0","SS1613103914050","trial","","40","800","2508.0000000132713","images/stimuli/spore_stims/simple_16_A_b.gif","images/stimuli/spore_stims/simple_02_A_a.gif","","","","","5","simple_dissimilar","images/stimuli/spore_stims/simple_02_A_a.gif","right","","","","",""
"","null","html-keyboard-response","100","153209","0.0-23.0-0.1","SS1613103914050","","","null","","","","","<p><img src= images/blank.png width =""200"" height = ""200"" style = ""float:right""></p><p><img src=images/blank.png width =""800"" height = ""200""></p>","","","","","","","","","","","",""
"","1233.9999999967404","sequential-stimulus-presentation","101","155257","0.0-23.0-1.1","SS1613103914050","trial","","40","800","2033.9999999967404","images/stimuli/spore_stims/simple_16_A_b.gif","images/stimuli/spore_stims/simple_02_A_a.gif","","","","","5","simple_dissimilar","images/stimuli/spore_stims/simple_02_A_a.gif","right","","","","",""
"","null","html-keyboard-response","102","156355","0.0-23.0-0.2","SS1613103914050","","","null","","","","","<p><img src= images/blank.png width =""200"" height = ""200"" style = ""float:right""></p><p><img src=images/blank.png width =""800"" height = ""200""></p>","","","","","","","","","","","",""
"","585.0000000064028","sequential-stimulus-presentation","103","157761","0.0-23.0-1.2","SS1613103914050","trial","","40","800","1385.0000000064028","images/stimuli/spore_stims/simple_16_A_b.gif","images/stimuli/spore_stims/simple_02_A_a.gif","","","","","5","simple_dissimilar","images/stimuli/spore_stims/simple_16_A_b.gif","middle","","","","",""
"","null","html-keyboard-response","104","158647","0.0-23.0-0.3","SS1613103914050","","","null","","","","","<p><img src= images/blank.png width =""200"" height = ""200"" style = ""float:right""></p><p><img src=images/blank.png width =""800"" height = ""200""></p>","","","","","","","","","","","",""
"","115.99999999452848","sequential-stimulus-presentation","105","159578","0.0-23.0-1.3","SS1613103914050","trial","","40","800","915.9999999945285","images/stimuli/spore_stims/simple_16_A_b.gif","images/stimuli/spore_stims/simple_02_A_a.gif","","","","","5","simple_dissimilar","images/stimuli/spore_stims/simple_02_A_a.gif","right","","","","",""
"","null","html-keyboard-response","106","160621","0.0-23.0-0.4","SS1613103914050","","","null","","","","","<p><img src= images/blank.png width =""200"" height = ""200"" style = ""float:right""></p><p><img src=images/blank.png width =""800"" height = ""200""></p>","","","","","","","","","","","",""
"","442.9999999993015","sequential-stimulus-presentation","107","161888","0.0-23.0-1.4","SS1613103914050","trial","","40","800","1242.9999999993015","images/stimuli/spore_stims/simple_16_A_b.gif","images/stimuli/spore_stims/simple_02_A_a.gif","","","","","5","simple_dissimilar","images/stimuli/spore_stims/simple_02_A_a.gif","right","","","","",""
"","null","html-keyboard-response","108","163098","0.0-23.0-0.5","SS1613103914050","","","null","","","","","<p><img src= images/blank.png width =""200"" height = ""200"" style = ""float:right""></p><p><img src=images/blank.png width =""800"" height = ""200""></p>","","","","","","","","","","","",""
"","3.000000011525117","sequential-stimulus-presentation","109","163933","0.0-23.0-1.5","SS1613103914050","trial","","40","800","803.0000000115251","images/stimuli/spore_stims/simple_16_A_b.gif","images/stimuli/spore_stims/simple_02_A_a.gif","","","","","5","simple_dissimilar","images/stimuli/spore_stims/simple_02_A_a.gif","right","","","","",""
"","null","html-keyboard-response","110","164808","0.0-23.0-0.6","SS1613103914050","","","null","","","","","<p><img src= images/blank.png width =""200"" height = ""200"" style = ""float:right""></p><p><img src=images/blank.png width =""800"" height = ""200""></p>","","","","","","","","","","","",""
"","550.9999999922002","sequential-stimulus-presentation","111","166258","0.0-23.0-1.6","SS1613103914050","trial","","40","800","1350.9999999922002","images/stimuli/spore_stims/simple_16_A_b.gif","images/stimuli/spore_stims/simple_02_A_a.gif","","","","","5","simple_dissimilar","images/stimuli/spore_stims/simple_02_A_a.gif","right","","","","",""
"","null","html-keyboard-response","112","167301","0.0-23.0-0.7","SS1613103914050","","","null","","","","","<p><img src= images/blank.png width =""200"" height = ""200"" style = ""float:right""></p><p><img src=images/blank.png width =""800"" height = ""200""></p>","","","","","","","","","","","",""
"","1897.9999999864958","sequential-stimulus-presentation","113","170017","0.0-23.0-1.7","SS1613103914050","trial","","40","800","2697.999999986496","images/stimuli/spore_stims/simple_16_A_b.gif","images/stimuli/spore_stims/simple_02_A_a.gif","","","","","5","simple_dissimilar","images/stimuli/spore_stims/simple_02_A_a.gif","right","","","","",""
"","1479.9999999959255","html-keyboard-response","114","171511","0.0-24.0","SS1613103914050","pref_question","","99","","","","","<video width ='960' height = '540' style='padding-top:8%' autoplay muted><source src='images/stimuli/wall_pref.mp4' type='video/mp4'></video>","3","right","66%","5","","","","","","","",""
"","221.99999999429565","sequential-stimulus-presentation","115","172572","0.0-25.0","SS1613103914050","pref_reveal","","40","800","1021.9999999942956","null","null","","","","","5","","","","background","","","",""
"","null","html-keyboard-response","116","173749","0.0-26.0-0.0","SS1613103914050","","","null","","","","","<p><img src= images/blank.png width =""200"" height = ""200"" style = ""float:right""></p><p><img src=images/blank.png width =""800"" height = ""200""></p>","","","","","","","","","","","",""
"","28.00000000570435","sequential-stimulus-presentation","117","174595","0.0-26.0-1.0","SS1613103914050","trial","","40","800","828.0000000057044","images/stimuli/spore_stims/simple_14_A_b.gif","images/stimuli/spore_stims/simple_14_B_b.gif","","","","","6","simple_similar","images/stimuli/spore_stims/simple_14_B_b.gif","right","","","","",""
"","null","html-keyboard-response","118","175784","0.0-26.0-0.1","SS1613103914050","","","null","","","","","<p><img src= images/blank.png width =""200"" height = ""200"" style = ""float:right""></p><p><img src=images/blank.png width =""800"" height = ""200""></p>","","","","","","","","","","","",""
"","520.0000000040745","sequential-stimulus-presentation","119","177120","0.0-26.0-1.1","SS1613103914050","trial","","40","800","1320.0000000040745","images/stimuli/spore_stims/simple_14_A_b.gif","images/stimuli/spore_stims/simple_14_B_b.gif","","","","","6","simple_similar","images/stimuli/spore_stims/simple_14_B_b.gif","right","","","","",""
"","null","html-keyboard-response","120","178087","0.0-26.0-0.2","SS1613103914050","","","null","","","","","<p><img src= images/blank.png width =""200"" height = ""200"" style = ""float:right""></p><p><img src=images/blank.png width =""800"" height = ""200""></p>","","","","","","","","","","","",""
"","385.0000000093132","sequential-stimulus-presentation","121","179367","0.0-26.0-1.2","SS1613103914050","trial","","40","800","1185.0000000093132","images/stimuli/spore_stims/simple_14_A_b.gif","images/stimuli/spore_stims/simple_14_B_b.gif","","","","","6","simple_similar","images/stimuli/spore_stims/simple_14_B_b.gif","right","","","","",""
"","null","html-keyboard-response","122","180415","0.0-26.0-0.3","SS1613103914050","","","null","","","","","<p><img src= images/blank.png width =""200"" height = ""200"" style = ""float:right""></p><p><img src=images/blank.png width =""800"" height = ""200""></p>","","","","","","","","","","","",""
"","483.99999999674037","sequential-stimulus-presentation","123","181736","0.0-26.0-1.3","SS1613103914050","trial","","40","800","1283.9999999967404","images/stimuli/spore_stims/simple_14_A_b.gif","images/stimuli/spore_stims/simple_14_B_b.gif","","","","","6","simple_similar","images/stimuli/spore_stims/simple_14_B_b.gif","right","","","","",""
"","null","html-keyboard-response","124","182916","0.0-26.0-0.4","SS1613103914050","","","null","","","","","<p><img src= images/blank.png width =""200"" height = ""200"" style = ""float:right""></p><p><img src=images/blank.png width =""800"" height = ""200""></p>","","","","","","","","","","","",""
"","377.9999999969732","sequential-stimulus-presentation","125","184117","0.0-26.0-1.4","SS1613103914050","trial","","40","800","1177.9999999969732","images/stimuli/spore_stims/simple_14_A_b.gif","images/stimuli/spore_stims/simple_14_B_b.gif","","","","","6","simple_similar","images/stimuli/spore_stims/simple_14_B_b.gif","right","","","","",""
"","null","html-keyboard-response","126","184949","0.0-26.0-0.5","SS1613103914050","","","null","","","","","<p><img src= images/blank.png width =""200"" height = ""200"" style = ""float:right""></p><p><img src=images/blank.png width =""800"" height = ""200""></p>","","","","","","","","","","","",""
"","310.0000000122236","sequential-stimulus-presentation","127","186081","0.0-26.0-1.5","SS1613103914050","trial","","40","800","1110.0000000122236","images/stimuli/spore_stims/simple_14_A_b.gif","images/stimuli/spore_stims/simple_14_B_b.gif","","","","","6","simple_similar","images/stimuli/spore_stims/simple_14_B_b.gif","right","","","","",""
"","null","html-keyboard-response","128","186892","0.0-26.0-0.6","SS1613103914050","","","null","","","","","<p><img src= images/blank.png width =""200"" height = ""200"" style = ""float:right""></p><p><img src=images/blank.png width =""800"" height = ""200""></p>","","","","","","","","","","","",""
"","313.9999999984866","sequential-stimulus-presentation","129","188069","0.0-26.0-1.6","SS1613103914050","trial","","40","800","1113.9999999984866","images/stimuli/spore_stims/simple_14_A_b.gif","images/stimuli/spore_stims/simple_14_B_b.gif","","","","","6","simple_similar","images/stimuli/spore_stims/simple_14_B_b.gif","right","","","","",""
"","null","html-keyboard-response","130","188894","0.0-26.0-0.7","SS1613103914050","","","null","","","","","<p><img src= images/blank.png width =""200"" height = ""200"" style = ""float:right""></p><p><img src=images/blank.png width =""800"" height = ""200""></p>","","","","","","","","","","","",""
"","307.0000000006985","sequential-stimulus-presentation","131","190023","0.0-26.0-1.7","SS1613103914050","trial","","40","800","1107.0000000006985","images/stimuli/spore_stims/simple_14_A_b.gif","images/stimuli/spore_stims/simple_14_B_b.gif","","","","","6","simple_similar","images/stimuli/spore_stims/simple_14_A_b.gif","middle","","","","",""
"","1593.9999999973224","html-keyboard-response","132","191633","0.0-27.0","SS1613103914050","pref_question","","99","","","","","<video width ='960' height = '540' style='padding-top:8%' autoplay muted><source src='images/stimuli/wall_pref.mp4' type='video/mp4'></video>","3","right","66%","6","","","","","","","",""
"","747.0000000030268","sequential-stimulus-presentation","133","193216","0.0-28.0","SS1613103914050","pref_reveal","","40","800","1547.0000000030268","null","null","","","","","6","","","","background","","","",""
"","null","html-keyboard-response","134","194080","0.0-29.0-0.0","SS1613103914050","","","null","","","","","<p><img src= images/blank.png width =""200"" height = ""200"" style = ""float:right""></p><p><img src=images/blank.png width =""800"" height = ""200""></p>","","","","","","","","","","","",""
"","422.0000000059372","sequential-stimulus-presentation","135","195331","0.0-29.0-1.0","SS1613103914050","trial","","40","800","1222.0000000059372","images/stimuli/spore_stims/complex_10_A_b.gif","images/stimuli/spore_stims/complex_10_B_b.gif","","","","","7","complex_similar","images/stimuli/spore_stims/complex_10_B_b.gif","middle","","","","",""
"","null","html-keyboard-response","136","196346","0.0-29.0-0.1","SS1613103914050","","","null","","","","","<p><img src= images/blank.png width =""200"" height = ""200"" style = ""float:right""></p><p><img src=images/blank.png width =""800"" height = ""200""></p>","","","","","","","","","","","",""
"","539.9999999935972","sequential-stimulus-presentation","137","197755","0.0-29.0-1.1","SS1613103914050","trial","","40","800","1339.9999999935972","images/stimuli/spore_stims/complex_10_A_b.gif","images/stimuli/spore_stims/complex_10_B_b.gif","","","","","7","complex_similar","images/stimuli/spore_stims/complex_10_B_b.gif","middle","","","","",""
"","null","html-keyboard-response","138","198691","0.0-29.0-0.2","SS1613103914050","","","null","","","","","<p><img src= images/blank.png width =""200"" height = ""200"" style = ""float:right""></p><p><img src=images/blank.png width =""800"" height = ""200""></p>","","","","","","","","","","","",""
"","57.00000000069849","sequential-stimulus-presentation","139","199567","0.0-29.0-1.2","SS1613103914050","trial","","40","800","857.0000000006985","images/stimuli/spore_stims/complex_10_A_b.gif","images/stimuli/spore_stims/complex_10_B_b.gif","","","","","7","complex_similar","images/stimuli/spore_stims/complex_10_B_b.gif","middle","","","","",""
"","null","html-keyboard-response","140","200645","0.0-29.0-0.3","SS1613103914050","","","null","","","","","<p><img src= images/blank.png width =""200"" height = ""200"" style = ""float:right""></p><p><img src=images/blank.png width =""800"" height = ""200""></p>","","","","","","","","","","","",""
"","114.99999999068677","sequential-stimulus-presentation","141","201585","0.0-29.0-1.3","SS1613103914050","trial","","40","800","914.9999999906868","images/stimuli/spore_stims/complex_10_A_b.gif","images/stimuli/spore_stims/complex_10_B_b.gif","","","","","7","complex_similar","images/stimuli/spore_stims/complex_10_B_b.gif","middle","","","","",""
"","null","html-keyboard-response","142","202702","0.0-29.0-0.4","SS1613103914050","","","null","","","","","<p><img src= images/blank.png width =""200"" height = ""200"" style = ""float:right""></p><p><img src=images/blank.png width =""800"" height = ""200""></p>","","","","","","","","","","","",""
"","120.0000000098953","sequential-stimulus-presentation","143","203645","0.0-29.0-1.4","SS1613103914050","trial","","40","800","920.0000000098953","images/stimuli/spore_stims/complex_10_A_b.gif","images/stimuli/spore_stims/complex_10_B_b.gif","","","","","7","complex_similar","images/stimuli/spore_stims/complex_10_B_b.gif","middle","","","","",""
"","null","html-keyboard-response","144","204874","0.0-29.0-0.5","SS1613103914050","","","null","","","","","<p><img src= images/blank.png width =""200"" height = ""200"" style = ""float:right""></p><p><img src=images/blank.png width =""800"" height = ""200""></p>","","","","","","","","","","","",""
"","918.0000000051223","sequential-stimulus-presentation","145","206617","0.0-29.0-1.5","SS1613103914050","trial","","40","800","1718.0000000051223","images/stimuli/spore_stims/complex_10_A_b.gif","images/stimuli/spore_stims/complex_10_B_b.gif","","","","","7","complex_similar","images/stimuli/spore_stims/complex_10_A_b.gif","right","","","","",""
"","null","html-keyboard-response","146","207884","0.0-29.0-0.6","SS1613103914050","","","null","","","","","<p><img src= images/blank.png width =""200"" height = ""200"" style = ""float:right""></p><p><img src=images/blank.png width =""800"" height = ""200""></p>","","","","","","","","","","","",""
"","50.99999999220017","sequential-stimulus-presentation","147","208795","0.0-29.0-1.6","SS1613103914050","trial","","40","800","850.9999999922002","images/stimuli/spore_stims/complex_10_A_b.gif","images/stimuli/spore_stims/complex_10_B_b.gif","","","","","7","complex_similar","images/stimuli/spore_stims/complex_10_B_b.gif","middle","","","","",""
"","null","html-keyboard-response","148","210036","0.0-29.0-0.7","SS1613103914050","","","null","","","","","<p><img src= images/blank.png width =""200"" height = ""200"" style = ""float:right""></p><p><img src=images/blank.png width =""800"" height = ""200""></p>","","","","","","","","","","","",""
"","307.0000000006985","sequential-stimulus-presentation","149","211178","0.0-29.0-1.7","SS1613103914050","trial","","40","800","1107.0000000006985","images/stimuli/spore_stims/complex_10_A_b.gif","images/stimuli/spore_stims/complex_10_B_b.gif","","","","","7","complex_similar","images/stimuli/spore_stims/complex_10_B_b.gif","middle","","","","",""
"","4028.999999994994","html-keyboard-response","150","215233","0.0-30.0","SS1613103914050","pref_question","","98","","","","","<video width ='960' height = '540' style='padding-top:8%' autoplay muted><source src='images/stimuli/wall_pref.mp4' type='video/mp4'></video>","2","middle","45%","7","","","","","","","",""
"","2330.999999991036","sequential-stimulus-presentation","151","218417","0.0-31.0","SS1613103914050","pref_reveal","","40","800","3130.999999991036","null","null","","","","","7","","","","background","","","",""
"","null","html-keyboard-response","152","219603","0.0-32.0-0.0","SS1613103914050","","","null","","","","","<p><img src= images/blank.png width =""200"" height = ""200"" style = ""float:right""></p><p><img src=images/blank.png width =""800"" height = ""200""></p>","","","","","","","","","","","",""
"","1241.9999999983702","sequential-stimulus-presentation","153","221697","0.0-32.0-1.0","SS1613103914050","trial","","40","800","2041.9999999983702","images/stimuli/spore_stims/complex_15_B_b.gif","images/stimuli/spore_stims/complex_15_A_b.gif","","","","","8","complex_similar","images/stimuli/spore_stims/complex_15_A_b.gif","right","","","","",""
"","null","html-keyboard-response","154","222862","0.0-32.0-0.1","SS1613103914050","","","null","","","","","<p><img src= images/blank.png width =""200"" height = ""200"" style = ""float:right""></p><p><img src=images/blank.png width =""800"" height = ""200""></p>","","","","","","","","","","","",""
"","827.9999999940628","sequential-stimulus-presentation","155","224529","0.0-32.0-1.1","SS1613103914050","trial","","40","800","1627.9999999940628","images/stimuli/spore_stims/complex_15_B_b.gif","images/stimuli/spore_stims/complex_15_A_b.gif","","","","","8","complex_similar","images/stimuli/spore_stims/complex_15_A_b.gif","right","","","","",""
"","null","html-keyboard-response","156","225632","0.0-32.0-0.2","SS1613103914050","","","null","","","","","<p><img src= images/blank.png width =""200"" height = ""200"" style = ""float:right""></p><p><img src=images/blank.png width =""800"" height = ""200""></p>","","","","","","","","","","","",""
"","357.0000000036089","sequential-stimulus-presentation","157","226807","0.0-32.0-1.2","SS1613103914050","trial","","40","800","1157.0000000036089","images/stimuli/spore_stims/complex_15_B_b.gif","images/stimuli/spore_stims/complex_15_A_b.gif","","","","","8","complex_similar","images/stimuli/spore_stims/complex_15_B_b.gif","middle","","","","",""
"","null","html-keyboard-response","158","228077","0.0-32.0-0.3","SS1613103914050","","","null","","","","","<p><img src= images/blank.png width =""200"" height = ""200"" style = ""float:right""></p><p><img src=images/blank.png width =""800"" height = ""200""></p>","","","","","","","","","","","",""
"","1539.9999999935972","sequential-stimulus-presentation","159","230450","0.0-32.0-1.3","SS1613103914050","trial","","40","800","2339.999999993597","images/stimuli/spore_stims/complex_15_B_b.gif","images/stimuli/spore_stims/complex_15_A_b.gif","","","","","8","complex_similar","images/stimuli/spore_stims/complex_15_A_b.gif","right","","","","",""
"","null","html-keyboard-response","160","231627","0.0-32.0-0.4","SS1613103914050","","","null","","","","","<p><img src= images/blank.png width =""200"" height = ""200"" style = ""float:right""></p><p><img src=images/blank.png width =""800"" height = ""200""></p>","","","","","","","","","","","",""
"","210.00000000640284","sequential-stimulus-presentation","161","232656","0.0-32.0-1.4","SS1613103914050","trial","","40","800","1010.0000000064028","images/stimuli/spore_stims/complex_15_B_b.gif","images/stimuli/spore_stims/complex_15_A_b.gif","","","","","8","complex_similar","images/stimuli/spore_stims/complex_15_A_b.gif","right","","","","",""
"","null","html-keyboard-response","162","233893","0.0-32.0-0.5","SS1613103914050","","","null","","","","","<p><img src= images/blank.png width =""200"" height = ""200"" style = ""float:right""></p><p><img src=images/blank.png width =""800"" height = ""200""></p>","","","","","","","","","","","",""
"","1558.0000000045402","sequential-stimulus-presentation","163","236321","0.0-32.0-1.5","SS1613103914050","trial","","40","800","2358.00000000454","images/stimuli/spore_stims/complex_15_B_b.gif","images/stimuli/spore_stims/complex_15_A_b.gif","","","","","8","complex_similar","images/stimuli/spore_stims/complex_15_A_b.gif","right","","","","",""
"","null","html-keyboard-response","164","237330","0.0-32.0-0.6","SS1613103914050","","","null","","","","","<p><img src= images/blank.png width =""200"" height = ""200"" style = ""float:right""></p><p><img src=images/blank.png width =""800"" height = ""200""></p>","","","","","","","","","","","",""
"","33.999999999650754","sequential-stimulus-presentation","165","238186","0.0-32.0-1.6","SS1613103914050","trial","","40","800","833.9999999996508","images/stimuli/spore_stims/complex_15_B_b.gif","images/stimuli/spore_stims/complex_15_A_b.gif","","","","","8","complex_similar","images/stimuli/spore_stims/complex_15_A_b.gif","right","","","","",""
"","null","html-keyboard-response","166","239245","0.0-32.0-0.7","SS1613103914050","","","null","","","","","<p><img src= images/blank.png width =""200"" height = ""200"" style = ""float:right""></p><p><img src=images/blank.png width =""800"" height = ""200""></p>","","","","","","","","","","","",""
"","4341.000000000349","sequential-stimulus-presentation","167","244418","0.0-32.0-1.7","SS1613103914050","trial","","40","800","5141.000000000349","images/stimuli/spore_stims/complex_15_B_b.gif","images/stimuli/spore_stims/complex_15_A_b.gif","","","","","8","complex_similar","images/stimuli/spore_stims/complex_15_A_b.gif","right","","","","",""
"","1654.9999999988358","html-keyboard-response","168","246097","0.0-33.0","SS1613103914050","pref_question","","99","","","","","<video width ='960' height = '540' style='padding-top:8%' autoplay muted><source src='images/stimuli/wall_pref.mp4' type='video/mp4'></video>","3","right","66%","8","","","","","","","",""
"","665.0000000081491","sequential-stimulus-presentation","169","247584","0.0-34.0","SS1613103914050","pref_reveal","","40","800","1465.000000008149","null","null","","","","","8","","","","background","","","",""
"","null","html-keyboard-response","170","248423","0.0-35.0-0.0","SS1613103914050","","","null","","","","","<p><img src= images/blank.png width =""200"" height = ""200"" style = ""float:right""></p><p><img src=images/blank.png width =""800"" height = ""200""></p>","","","","","","","","","","","",""
"","2282.0000000065193","sequential-stimulus-presentation","171","251532","0.0-35.0-1.0","SS1613103914050","trial","","40","800","3082.0000000065193","images/stimuli/spore_stims/complex_11_B_b.gif","images/stimuli/spore_stims/complex_11_A_b.gif","","","","","9","complex_similar","images/stimuli/spore_stims/complex_11_A_b.gif","right","","","","",""
"","null","html-keyboard-response","172","252634","0.0-35.0-0.1","SS1613103914050","","","null","","","","","<p><img src= images/blank.png width =""200"" height = ""200"" style = ""float:right""></p><p><img src=images/blank.png width =""800"" height = ""200""></p>","","","","","","","","","","","",""
"","521.0000000079162","sequential-stimulus-presentation","173","253993","0.0-35.0-1.1","SS1613103914050","trial","","40","800","1321.0000000079162","images/stimuli/spore_stims/complex_11_B_b.gif","images/stimuli/spore_stims/complex_11_A_b.gif","","","","","9","complex_similar","images/stimuli/spore_stims/complex_11_A_b.gif","right","","","","",""
"","null","html-keyboard-response","174","255287","0.0-35.0-0.2","SS1613103914050","","","null","","","","","<p><img src= images/blank.png width =""200"" height = ""200"" style = ""float:right""></p><p><img src=images/blank.png width =""800"" height = ""200""></p>","","","","","","","","","","","",""
"","943.9999999885913","sequential-stimulus-presentation","175","257089","0.0-35.0-1.2","SS1613103914050","trial","","40","800","1743.9999999885913","images/stimuli/spore_stims/complex_11_B_b.gif","images/stimuli/spore_stims/complex_11_A_b.gif","","","","","9","complex_similar","images/stimuli/spore_stims/complex_11_B_b.gif","left","","","","",""
"","null","html-keyboard-response","176","257975","0.0-35.0-0.3","SS1613103914050","","","null","","","","","<p><img src= images/blank.png width =""200"" height = ""200"" style = ""float:right""></p><p><img src=images/blank.png width =""800"" height = ""200""></p>","","","","","","","","","","","",""
"","51.00000000675209","sequential-stimulus-presentation","177","258857","0.0-35.0-1.3","SS1613103914050","trial","","40","800","851.0000000067521","images/stimuli/spore_stims/complex_11_B_b.gif","images/stimuli/spore_stims/complex_11_A_b.gif","","","","","9","complex_similar","images/stimuli/spore_stims/complex_11_A_b.gif","right","","","","",""
"","null","html-keyboard-response","178","259890","0.0-35.0-0.4","SS1613103914050","","","null","","","","","<p><img src= images/blank.png width =""200"" height = ""200"" style = ""float:right""></p><p><img src=images/blank.png width =""800"" height = ""200""></p>","","","","","","","","","","","",""
"","698.9999999932479","sequential-stimulus-presentation","179","261408","0.0-35.0-1.4","SS1613103914050","trial","","40","800","1498.999999993248","images/stimuli/spore_stims/complex_11_B_b.gif","images/stimuli/spore_stims/complex_11_A_b.gif","","","","","9","complex_similar","images/stimuli/spore_stims/complex_11_A_b.gif","right","","","","",""
"","null","html-keyboard-response","180","262573","0.0-35.0-0.5","SS1613103914050","","","null","","","","","<p><img src= images/blank.png width =""200"" height = ""200"" style = ""float:right""></p><p><img src=images/blank.png width =""800"" height = ""200""></p>","","","","","","","","","","","",""
"","601.9999999989523","sequential-stimulus-presentation","181","264000","0.0-35.0-1.5","SS1613103914050","trial","","40","800","1401.9999999989523","images/stimuli/spore_stims/complex_11_B_b.gif","images/stimuli/spore_stims/complex_11_A_b.gif","","","","","9","complex_similar","images/stimuli/spore_stims/complex_11_A_b.gif","right","","","","",""
"","null","html-keyboard-response","182","264951","0.0-35.0-0.6","SS1613103914050","","","null","","","","","<p><img src= images/blank.png width =""200"" height = ""200"" style = ""float:right""></p><p><img src=images/blank.png width =""800"" height = ""200""></p>","","","","","","","","","","","",""
"","229.00000000663567","sequential-stimulus-presentation","183","266004","0.0-35.0-1.6","SS1613103914050","trial","","40","800","1029.0000000066357","images/stimuli/spore_stims/complex_11_B_b.gif","images/stimuli/spore_stims/complex_11_A_b.gif","","","","","9","complex_similar","images/stimuli/spore_stims/complex_11_A_b.gif","right","","","","",""
"","null","html-keyboard-response","184","267014","0.0-35.0-0.7","SS1613103914050","","","null","","","","","<p><img src= images/blank.png width =""200"" height = ""200"" style = ""float:right""></p><p><img src=images/blank.png width =""800"" height = ""200""></p>","","","","","","","","","","","",""
"","2017.0000000071013","sequential-stimulus-presentation","185","269849","0.0-35.0-1.7","SS1613103914050","trial","","40","800","2817.0000000071013","images/stimuli/spore_stims/complex_11_B_b.gif","images/stimuli/spore_stims/complex_11_A_b.gif","","","","","9","complex_similar","images/stimuli/spore_stims/complex_11_A_b.gif","right","","","","",""
"","2611.000000004424","html-keyboard-response","186","272481","0.0-36.0","SS1613103914050","pref_question","","99","","","","","<video width ='960' height = '540' style='padding-top:8%' autoplay muted><source src='images/stimuli/wall_pref.mp4' type='video/mp4'></video>","3","right","66%","9","","","","","","","",""
"","82.99999999871943","sequential-stimulus-presentation","187","273394","0.0-37.0","SS1613103914050","pref_reveal","","40","800","882.9999999987194","null","null","","","","","9","","","","background","","","",""
"","null","html-keyboard-response","188","274509","0.0-38.0-0.0","SS1613103914050","","","null","","","","","<p><img src= images/blank.png width =""200"" height = ""200"" style = ""float:right""></p><p><img src=images/blank.png width =""800"" height = ""200""></p>","","","","","","","","","","","",""
"","428.9999999891734","sequential-stimulus-presentation","189","275760","0.0-38.0-1.0","SS1613103914050","trial","","40","800","1228.9999999891734","images/stimuli/spore_stims/complex_13_B_b.gif","images/stimuli/spore_stims/complex_02_B_d.gif","","","","","10","complex_dissimilar","images/stimuli/spore_stims/complex_02_B_d.gif","right","","","","",""
"","null","html-keyboard-response","190","276934","0.0-38.0-0.1","SS1613103914050","","","null","","","","","<p><img src= images/blank.png width =""200"" height = ""200"" style = ""float:right""></p><p><img src=images/blank.png width =""800"" height = ""200""></p>","","","","","","","","","","","",""
"","1054.999999993015","sequential-stimulus-presentation","191","278818","0.0-38.0-1.1","SS1613103914050","trial","","40","800","1854.999999993015","images/stimuli/spore_stims/complex_13_B_b.gif","images/stimuli/spore_stims/complex_02_B_d.gif","","","","","10","complex_dissimilar","images/stimuli/spore_stims/complex_02_B_d.gif","right","","","","",""
"","null","html-keyboard-response","192","280017","0.0-38.0-0.2","SS1613103914050","","","null","","","","","<p><img src= images/blank.png width =""200"" height = ""200"" style = ""float:right""></p><p><img src=images/blank.png width =""800"" height = ""200""></p>","","","","","","","","","","","",""
"","1514.999999999418","sequential-stimulus-presentation","193","282353","0.0-38.0-1.2","SS1613103914050","trial","","40","800","2314.999999999418","images/stimuli/spore_stims/complex_13_B_b.gif","images/stimuli/spore_stims/complex_02_B_d.gif","","","","","10","complex_dissimilar","images/stimuli/spore_stims/complex_02_B_d.gif","right","","","","",""
"","null","html-keyboard-response","194","283491","0.0-38.0-0.3","SS1613103914050","","","null","","","","","<p><img src= images/blank.png width =""200"" height = ""200"" style = ""float:right""></p><p><img src=images/blank.png width =""800"" height = ""200""></p>","","","","","","","","","","","",""
"","489.000000001397","sequential-stimulus-presentation","195","284817","0.0-38.0-1.3","SS1613103914050","trial","","40","800","1289.000000001397","images/stimuli/spore_stims/complex_13_B_b.gif","images/stimuli/spore_stims/complex_02_B_d.gif","","","","","10","complex_dissimilar","images/stimuli/spore_stims/complex_02_B_d.gif","right","","","","",""
"","null","html-keyboard-response","196","285778","0.0-38.0-0.4","SS1613103914050","","","null","","","","","<p><img src= images/blank.png width =""200"" height = ""200"" style = ""float:right""></p><p><img src=images/blank.png width =""800"" height = ""200""></p>","","","","","","","","","","","",""
"","1934.9999999976717","sequential-stimulus-presentation","197","288536","0.0-38.0-1.4","SS1613103914050","trial","","40","800","2734.9999999976717","images/stimuli/spore_stims/complex_13_B_b.gif","images/stimuli/spore_stims/complex_02_B_d.gif","","","","","10","complex_dissimilar","images/stimuli/spore_stims/complex_13_B_b.gif","middle","","","","",""
"","null","html-keyboard-response","198","289442","0.0-38.0-0.5","SS1613103914050","","","null","","","","","<p><img src= images/blank.png width =""200"" height = ""200"" style = ""float:right""></p><p><img src=images/blank.png width =""800"" height = ""200""></p>","","","","","","","","","","","",""
"","1334.999999991851","sequential-stimulus-presentation","199","291609","0.0-38.0-1.5","SS1613103914050","trial","","40","800","2134.999999991851","images/stimuli/spore_stims/complex_13_B_b.gif","images/stimuli/spore_stims/complex_02_B_d.gif","","","","","10","complex_dissimilar","images/stimuli/spore_stims/complex_02_B_d.gif","right","","","","",""
"","null","html-keyboard-response","200","292519","0.0-38.0-0.6","SS1613103914050","","","null","","","","","<p><img src= images/blank.png width =""200"" height = ""200"" style = ""float:right""></p><p><img src=images/blank.png width =""800"" height = ""200""></p>","","","","","","","","","","","",""
"","508.9999999909196","sequential-stimulus-presentation","201","293866","0.0-38.0-1.6","SS1613103914050","trial","","40","800","1308.9999999909196","images/stimuli/spore_stims/complex_13_B_b.gif","images/stimuli/spore_stims/complex_02_B_d.gif","","","","","10","complex_dissimilar","images/stimuli/spore_stims/complex_02_B_d.gif","right","","","","",""
"","null","html-keyboard-response","202","295010","0.0-38.0-0.7","SS1613103914050","","","null","","","","","<p><img src= images/blank.png width =""200"" height = ""200"" style = ""float:right""></p><p><img src=images/blank.png width =""800"" height = ""200""></p>","","","","","","","","","","","",""
"","8.999999990919605","sequential-stimulus-presentation","203","295859","0.0-38.0-1.7","SS1613103914050","trial","","40","800","808.9999999909196","images/stimuli/spore_stims/complex_13_B_b.gif","images/stimuli/spore_stims/complex_02_B_d.gif","","","","","10","complex_dissimilar","images/stimuli/spore_stims/complex_02_B_d.gif","right","","","","",""
"","3982.000000003609","html-keyboard-response","204","299865","0.0-39.0","SS1613103914050","pref_question","","99","","","","","<video width ='960' height = '540' style='padding-top:8%' autoplay muted><source src='images/stimuli/wall_pref.mp4' type='video/mp4'></video>","3","right","66%","10","","","","","","","",""
"","1082.9999999987194","sequential-stimulus-presentation","205","301778","0.0-40.0","SS1613103914050","pref_reveal","","40","800","1882.9999999987194","null","null","","","","","10","","","","background","","","",""
"","null","html-keyboard-response","206","302880","0.0-41.0-0.0","SS1613103914050","","","null","","","","","<p><img src= images/blank.png width =""200"" height = ""200"" style = ""float:right""></p><p><img src=images/blank.png width =""800"" height = ""200""></p>","","","","","","","","","","","",""
"","199.99999999708962","sequential-stimulus-presentation","207","303914","0.0-41.0-1.0","SS1613103914050","trial","","40","800","999.9999999970896","images/stimuli/spore_stims/simple_15_B_a.gif","images/stimuli/spore_stims/simple_15_A_a.gif","","","","","11","simple_similar","images/stimuli/spore_stims/simple_15_A_a.gif","left","","","","",""
"","null","html-keyboard-response","208","304809","0.0-41.0-0.1","SS1613103914050","","","null","","","","","<p><img src= images/blank.png width =""200"" height = ""200"" style = ""float:right""></p><p><img src=images/blank.png width =""800"" height = ""200""></p>","","","","","","","","","","","",""
"","11000","sequential-stimulus-presentation","209","316668","0.0-41.0-1.1","SS1613103914050","trial","","40","800","11800","images/stimuli/spore_stims/simple_15_B_a.gif","images/stimuli/spore_stims/simple_15_A_a.gif","","","","","11","simple_similar","images/stimuli/spore_stims/simple_15_A_a.gif","left","","","","",""
"","null","html-keyboard-response","210","317547","0.0-41.0-0.2","SS1613103914050","","","null","","","","","<p><img src= images/blank.png width =""200"" height = ""200"" style = ""float:right""></p><p><img src=images/blank.png width =""800"" height = ""200""></p>","","","","","","","","","","","",""
"","6111.000000004424","sequential-stimulus-presentation","211","324489","0.0-41.0-1.2","SS1613103914050","trial","","40","800","6911.000000004424","images/stimuli/spore_stims/simple_15_B_a.gif","images/stimuli/spore_stims/simple_15_A_a.gif","","","","","11","simple_similar","images/stimuli/spore_stims/simple_15_A_a.gif","left","","","","",""
"","null","html-keyboard-response","212","325473","0.0-41.0-0.3","SS1613103914050","","","null","","","","","<p><img src= images/blank.png width =""200"" height = ""200"" style = ""float:right""></p><p><img src=images/blank.png width =""800"" height = ""200""></p>","","","","","","","","","","","",""
"","514.0000000101281","sequential-stimulus-presentation","213","326826","0.0-41.0-1.3","SS1613103914050","trial","","40","800","1314.0000000101281","images/stimuli/spore_stims/simple_15_B_a.gif","images/stimuli/spore_stims/simple_15_A_a.gif","","","","","11","simple_similar","images/stimuli/spore_stims/simple_15_A_a.gif","left","","","","",""
"","null","html-keyboard-response","214","327835","0.0-41.0-0.4","SS1613103914050","","","null","","","","","<p><img src= images/blank.png width =""200"" height = ""200"" style = ""float:right""></p><p><img src=images/blank.png width =""800"" height = ""200""></p>","","","","","","","","","","","",""
"","425.0000000029104","sequential-stimulus-presentation","215","329087","0.0-41.0-1.4","SS1613103914050","trial","","40","800","1225.0000000029104","images/stimuli/spore_stims/simple_15_B_a.gif","images/stimuli/spore_stims/simple_15_A_a.gif","","","","","11","simple_similar","images/stimuli/spore_stims/simple_15_A_a.gif","left","","","","",""
"","null","html-keyboard-response","216","330188","0.0-41.0-0.5","SS1613103914050","","","null","","","","","<p><img src= images/blank.png width =""200"" height = ""200"" style = ""float:right""></p><p><img src=images/blank.png width =""800"" height = ""200""></p>","","","","","","","","","","","",""
"","2104.9999999959255","sequential-stimulus-presentation","217","333129","0.0-41.0-1.5","SS1613103914050","trial","","40","800","2904.9999999959255","images/stimuli/spore_stims/simple_15_B_a.gif","images/stimuli/spore_stims/simple_15_A_a.gif","","","","","11","simple_similar","images/stimuli/spore_stims/simple_15_B_a.gif","right","","","","",""
"","null","html-keyboard-response","218","334002","0.0-41.0-0.6","SS1613103914050","","","null","","","","","<p><img src= images/blank.png width =""200"" height = ""200"" style = ""float:right""></p><p><img src=images/blank.png width =""800"" height = ""200""></p>","","","","","","","","","","","",""
"","334.00000000256114","sequential-stimulus-presentation","219","335181","0.0-41.0-1.6","SS1613103914050","trial","","40","800","1134.0000000025611","images/stimuli/spore_stims/simple_15_B_a.gif","images/stimuli/spore_stims/simple_15_A_a.gif","","","","","11","simple_similar","images/stimuli/spore_stims/simple_15_A_a.gif","left","","","","",""
"","null","html-keyboard-response","220","336228","0.0-41.0-0.7","SS1613103914050","","","null","","","","","<p><img src= images/blank.png width =""200"" height = ""200"" style = ""float:right""></p><p><img src=images/blank.png width =""800"" height = ""200""></p>","","","","","","","","","","","",""
"","353.99999999208376","sequential-stimulus-presentation","221","337433","0.0-41.0-1.7","SS1613103914050","trial","","40","800","1153.9999999920838","images/stimuli/spore_stims/simple_15_B_a.gif","images/stimuli/spore_stims/simple_15_A_a.gif","","","","","11","simple_similar","images/stimuli/spore_stims/simple_15_A_a.gif","left","","","","",""
"","1611.0000000044238","html-keyboard-response","222","339073","0.0-42.0","SS1613103914050","pref_question","","97","","","","","<video width ='960' height = '540' style='padding-top:8%' autoplay muted><source src='images/stimuli/wall_pref.mp4' type='video/mp4'></video>","1","left","25%","11","","","","","","","",""
"","757.00000001234","sequential-stimulus-presentation","223","340649","0.0-43.0","SS1613103914050","pref_reveal","","40","800","1557.00000001234","null","null","","","","","11","","","","background","","","",""
"","null","html-keyboard-response","224","341629","0.0-44.0-0.0","SS1613103914050","","","null","","","","","<p><img src= images/blank.png width =""200"" height = ""200"" style = ""float:right""></p><p><img src=images/blank.png width =""800"" height = ""200""></p>","","","","","","","","","","","",""
"","1099.000000001979","sequential-stimulus-presentation","225","343561","0.0-44.0-1.0","SS1613103914050","trial","","40","800","1899.000000001979","images/stimuli/spore_stims/simple_03_B_d.gif","images/stimuli/spore_stims/simple_01_A_b.gif","","","","","12","simple_dissimilar","images/stimuli/spore_stims/simple_01_A_b.gif","left","","","","",""
"","null","html-keyboard-response","226","344454","0.0-44.0-0.1","SS1613103914050","","","null","","","","","<p><img src= images/blank.png width =""200"" height = ""200"" style = ""float:right""></p><p><img src=images/blank.png width =""800"" height = ""200""></p>","","","","","","","","","","","",""
"","143.00000001094304","sequential-stimulus-presentation","227","345462","0.0-44.0-1.1","SS1613103914050","trial","","40","800","943.000000010943","images/stimuli/spore_stims/simple_03_B_d.gif","images/stimuli/spore_stims/simple_01_A_b.gif","","","","","12","simple_dissimilar","images/stimuli/spore_stims/simple_01_A_b.gif","left","","","","",""
"","null","html-keyboard-response","228","346403","0.0-44.0-0.2","SS1613103914050","","","null","","","","","<p><img src= images/blank.png width =""200"" height = ""200"" style = ""float:right""></p><p><img src=images/blank.png width =""800"" height = ""200""></p>","","","","","","","","","","","",""
"","399.00000000488944","sequential-stimulus-presentation","229","347660","0.0-44.0-1.2","SS1613103914050","trial","","40","800","1199.0000000048894","images/stimuli/spore_stims/simple_03_B_d.gif","images/stimuli/spore_stims/simple_01_A_b.gif","","","","","12","simple_dissimilar","images/stimuli/spore_stims/simple_01_A_b.gif","left","","","","",""
"","null","html-keyboard-response","230","348682","0.0-44.0-0.3","SS1613103914050","","","null","","","","","<p><img src= images/blank.png width =""200"" height = ""200"" style = ""float:right""></p><p><img src=images/blank.png width =""800"" height = ""200""></p>","","","","","","","","","","","",""
"","793.9999999944121","sequential-stimulus-presentation","231","350305","0.0-44.0-1.3","SS1613103914050","trial","","40","800","1593.999999994412","images/stimuli/spore_stims/simple_03_B_d.gif","images/stimuli/spore_stims/simple_01_A_b.gif","","","","","12","simple_dissimilar","images/stimuli/spore_stims/simple_01_A_b.gif","left","","","","",""
"","null","html-keyboard-response","232","351375","0.0-44.0-0.4","SS1613103914050","","","null","","","","","<p><img src= images/blank.png width =""200"" height = ""200"" style = ""float:right""></p><p><img src=images/blank.png width =""800"" height = ""200""></p>","","","","","","","","","","","",""
"","353.00000000279397","sequential-stimulus-presentation","233","352558","0.0-44.0-1.4","SS1613103914050","trial","","40","800","1153.000000002794","images/stimuli/spore_stims/simple_03_B_d.gif","images/stimuli/spore_stims/simple_01_A_b.gif","","","","","12","simple_dissimilar","images/stimuli/spore_stims/simple_03_B_d.gif","right","","","","",""
"","null","html-keyboard-response","234","353388","0.0-44.0-0.5","SS1613103914050","","","null","","","","","<p><img src= images/blank.png width =""200"" height = ""200"" style = ""float:right""></p><p><img src=images/blank.png width =""800"" height = ""200""></p>","","","","","","","","","","","",""
"","158.99999999965075","sequential-stimulus-presentation","235","354373","0.0-44.0-1.5","SS1613103914050","trial","","40","800","958.9999999996508","images/stimuli/spore_stims/simple_03_B_d.gif","images/stimuli/spore_stims/simple_01_A_b.gif","","","","","12","simple_dissimilar","images/stimuli/spore_stims/simple_01_A_b.gif","left","","","","",""
"","null","html-keyboard-response","236","355225","0.0-44.0-0.6","SS1613103914050","","","null","","","","","<p><img src= images/blank.png width =""200"" height = ""200"" style = ""float:right""></p><p><img src=images/blank.png width =""800"" height = ""200""></p>","","","","","","","","","","","",""
"","6.0000000084983185","sequential-stimulus-presentation","237","356065","0.0-44.0-1.6","SS1613103914050","trial","","40","800","806.0000000084983","images/stimuli/spore_stims/simple_03_B_d.gif","images/stimuli/spore_stims/simple_01_A_b.gif","","","","","12","simple_dissimilar","images/stimuli/spore_stims/simple_01_A_b.gif","left","","","","",""
"","null","html-keyboard-response","238","357030","0.0-44.0-0.7","SS1613103914050","","","null","","","","","<p><img src= images/blank.png width =""200"" height = ""200"" style = ""float:right""></p><p><img src=images/blank.png width =""800"" height = ""200""></p>","","","","","","","","","","","",""
"","182.0000000006985","sequential-stimulus-presentation","239","358052","0.0-44.0-1.7","SS1613103914050","trial","","40","800","982.0000000006985","images/stimuli/spore_stims/simple_03_B_d.gif","images/stimuli/spore_stims/simple_01_A_b.gif","","","","","12","simple_dissimilar","images/stimuli/spore_stims/simple_01_A_b.gif","left","","","","",""
"","1987.0000000082655","html-keyboard-response","240","360073","0.0-45.0","SS1613103914050","pref_question","","99","","","","","<video width ='960' height = '540' style='padding-top:8%' autoplay muted><source src='images/stimuli/wall_pref.mp4' type='video/mp4'></video>","3","right","66%","12","","","","","","","",""
"","442.9999999993015","sequential-stimulus-presentation","241","361353","0.0-46.0","SS1613103914050","pref_reveal","","40","800","1242.9999999993015","null","null","","","","","12","","","","deviant","","","",""
"","null","html-keyboard-response","242","362664","0.0-47.0-0.0","SS1613103914050","","","null","","","","","<p><img src= images/blank.png width =""200"" height = ""200"" style = ""float:right""></p><p><img src=images/blank.png width =""800"" height = ""200""></p>","","","","","","","","","","","",""
"","959.9999999918509","sequential-stimulus-presentation","243","364466","0.0-47.0-1.0","SS1613103914050","trial","","40","800","1759.999999991851","images/stimuli/spore_stims/simple_11_A_d.gif","images/stimuli/spore_stims/simple_11_B_b.gif","","","","","13","simple_dissimilar","images/stimuli/spore_stims/simple_11_B_b.gif","right","","","","",""
"","null","html-keyboard-response","244","365702","0.0-47.0-0.1","SS1613103914050","","","null","","","","","<p><img src= images/blank.png width =""200"" height = ""200"" style = ""float:right""></p><p><img src=images/blank.png width =""800"" height = ""200""></p>","","","","","","","","","","","",""
"","224.00000000197906","sequential-stimulus-presentation","245","366769","0.0-47.0-1.1","SS1613103914050","trial","","40","800","1024.000000001979","images/stimuli/spore_stims/simple_11_A_d.gif","images/stimuli/spore_stims/simple_11_B_b.gif","","","","","13","simple_dissimilar","images/stimuli/spore_stims/simple_11_B_b.gif","right","","","","",""
"","null","html-keyboard-response","246","367963","0.0-47.0-0.2","SS1613103914050","","","null","","","","","<p><img src= images/blank.png width =""200"" height = ""200"" style = ""float:right""></p><p><img src=images/blank.png width =""800"" height = ""200""></p>","","","","","","","","","","","",""
"","293.0000000051223","sequential-stimulus-presentation","247","369083","0.0-47.0-1.2","SS1613103914050","trial","","40","800","1093.0000000051223","images/stimuli/spore_stims/simple_11_A_d.gif","images/stimuli/spore_stims/simple_11_B_b.gif","","","","","13","simple_dissimilar","images/stimuli/spore_stims/simple_11_A_d.gif","middle","","","","",""
"","null","html-keyboard-response","248","370053","0.0-47.0-0.3","SS1613103914050","","","null","","","","","<p><img src= images/blank.png width =""200"" height = ""200"" style = ""float:right""></p><p><img src=images/blank.png width =""800"" height = ""200""></p>","","","","","","","","","","","",""
"","95.99999999045394","sequential-stimulus-presentation","249","370983","0.0-47.0-1.3","SS1613103914050","trial","","40","800","895.999999990454","images/stimuli/spore_stims/simple_11_A_d.gif","images/stimuli/spore_stims/simple_11_B_b.gif","","","","","13","simple_dissimilar","images/stimuli/spore_stims/simple_11_B_b.gif","right","","","","",""
"","null","html-keyboard-response","250","371899","0.0-47.0-0.4","SS1613103914050","","","null","","","","","<p><img src= images/blank.png width =""200"" height = ""200"" style = ""float:right""></p><p><img src=images/blank.png width =""800"" height = ""200""></p>","","","","","","","","","","","",""
"","3369.9999999953434","sequential-stimulus-presentation","251","376097","0.0-47.0-1.4","SS1613103914050","trial","","40","800","4169.999999995343","images/stimuli/spore_stims/simple_11_A_d.gif","images/stimuli/spore_stims/simple_11_B_b.gif","","","","","13","simple_dissimilar","images/stimuli/spore_stims/simple_11_B_b.gif","right","","","","",""
"","null","html-keyboard-response","252","376930","0.0-47.0-0.5","SS1613103914050","","","null","","","","","<p><img src= images/blank.png width =""200"" height = ""200"" style = ""float:right""></p><p><img src=images/blank.png width =""800"" height = ""200""></p>","","","","","","","","","","","",""
"","1525.999999998021","sequential-stimulus-presentation","253","379323","0.0-47.0-1.5","SS1613103914050","trial","","40","800","2325.999999998021","images/stimuli/spore_stims/simple_11_A_d.gif","images/stimuli/spore_stims/simple_11_B_b.gif","","","","","13","simple_dissimilar","images/stimuli/spore_stims/simple_11_B_b.gif","right","","","","",""
"","null","html-keyboard-response","254","380238","0.0-47.0-0.6","SS1613103914050","","","null","","","","","<p><img src= images/blank.png width =""200"" height = ""200"" style = ""float:right""></p><p><img src=images/blank.png width =""800"" height = ""200""></p>","","","","","","","","","","","",""
"","1082.9999999987194","sequential-stimulus-presentation","255","382154","0.0-47.0-1.6","SS1613103914050","trial","","40","800","1882.9999999987194","images/stimuli/spore_stims/simple_11_A_d.gif","images/stimuli/spore_stims/simple_11_B_b.gif","","","","","13","simple_dissimilar","images/stimuli/spore_stims/simple_11_B_b.gif","right","","","","",""
"","null","html-keyboard-response","256","383248","0.0-47.0-0.7","SS1613103914050","","","null","","","","","<p><img src= images/blank.png width =""200"" height = ""200"" style = ""float:right""></p><p><img src=images/blank.png width =""800"" height = ""200""></p>","","","","","","","","","","","",""
"","3188.000000009197","sequential-stimulus-presentation","257","387273","0.0-47.0-1.7","SS1613103914050","trial","","40","800","3988.000000009197","images/stimuli/spore_stims/simple_11_A_d.gif","images/stimuli/spore_stims/simple_11_B_b.gif","","","","","13","simple_dissimilar","images/stimuli/spore_stims/simple_11_B_b.gif","right","","","","",""
"","1695.000000006985","html-keyboard-response","258","388993","0.0-48.0","SS1613103914050","pref_question","","99","","","","","<video width ='960' height = '540' style='padding-top:8%' autoplay muted><source src='images/stimuli/wall_pref.mp4' type='video/mp4'></video>","3","right","66%","13","","","","","","","",""
"","4713.000000003376","sequential-stimulus-presentation","259","394644","0.0-49.0","SS1613103914050","pref_reveal","","40","800","5513.000000003376","null","null","","","","","13","","","","background","","","",""
"","null","html-keyboard-response","260","395540","0.0-50.0-0.0","SS1613103914050","","","null","","","","","<p><img src= images/blank.png width =""200"" height = ""200"" style = ""float:right""></p><p><img src=images/blank.png width =""800"" height = ""200""></p>","","","","","","","","","","","",""
"","186.0000000015134","sequential-stimulus-presentation","261","396569","0.0-50.0-1.0","SS1613103914050","trial","","40","800","986.0000000015134","images/stimuli/spore_stims/simple_12_A_b.gif","images/stimuli/spore_stims/simple_12_B_b.gif","","","","","14","simple_similar","images/stimuli/spore_stims/simple_12_B_b.gif","middle","","","","",""
"","null","html-keyboard-response","262","397881","0.0-50.0-0.1","SS1613103914050","","","null","","","","","<p><img src= images/blank.png width =""200"" height = ""200"" style = ""float:right""></p><p><img src=images/blank.png width =""800"" height = ""200""></p>","","","","","","","","","","","",""
"","1644.0000000002328","sequential-stimulus-presentation","263","400363","0.0-50.0-1.1","SS1613103914050","trial","","40","800","2444.000000000233","images/stimuli/spore_stims/simple_12_A_b.gif","images/stimuli/spore_stims/simple_12_B_b.gif","","","","","14","simple_similar","images/stimuli/spore_stims/simple_12_B_b.gif","middle","","","","",""
"","null","html-keyboard-response","264","401389","0.0-50.0-0.2","SS1613103914050","","","null","","","","","<p><img src= images/blank.png width =""200"" height = ""200"" style = ""float:right""></p><p><img src=images/blank.png width =""800"" height = ""200""></p>","","","","","","","","","","","",""
"","89.99999999650754","sequential-stimulus-presentation","265","402307","0.0-50.0-1.2","SS1613103914050","trial","","40","800","889.9999999965075","images/stimuli/spore_stims/simple_12_A_b.gif","images/stimuli/spore_stims/simple_12_B_b.gif","","","","","14","simple_similar","images/stimuli/spore_stims/simple_12_B_b.gif","middle","","","","",""
"","null","html-keyboard-response","266","403543","0.0-50.0-0.3","SS1613103914050","","","null","","","","","<p><img src= images/blank.png width =""200"" height = ""200"" style = ""float:right""></p><p><img src=images/blank.png width =""800"" height = ""200""></p>","","","","","","","","","","","",""
"","118.99999999150168","sequential-stimulus-presentation","267","404525","0.0-50.0-1.3","SS1613103914050","trial","","40","800","918.9999999915017","images/stimuli/spore_stims/simple_12_A_b.gif","images/stimuli/spore_stims/simple_12_B_b.gif","","","","","14","simple_similar","images/stimuli/spore_stims/simple_12_B_b.gif","middle","","","","",""
"","null","html-keyboard-response","268","405716","0.0-50.0-0.4","SS1613103914050","","","null","","","","","<p><img src= images/blank.png width =""200"" height = ""200"" style = ""float:right""></p><p><img src=images/blank.png width =""800"" height = ""200""></p>","","","","","","","","","","","",""
"","385.999999998603","sequential-stimulus-presentation","269","406955","0.0-50.0-1.4","SS1613103914050","trial","","40","800","1185.999999998603","images/stimuli/spore_stims/simple_12_A_b.gif","images/stimuli/spore_stims/simple_12_B_b.gif","","","","","14","simple_similar","images/stimuli/spore_stims/simple_12_B_b.gif","middle","","","","",""
"","null","html-keyboard-response","270","407864","0.0-50.0-0.5","SS1613103914050","","","null","","","","","<p><img src= images/blank.png width =""200"" height = ""200"" style = ""float:right""></p><p><img src=images/blank.png width =""800"" height = ""200""></p>","","","","","","","","","","","",""
"","256.9999999977881","sequential-stimulus-presentation","271","409019","0.0-50.0-1.5","SS1613103914050","trial","","40","800","1056.999999997788","images/stimuli/spore_stims/simple_12_A_b.gif","images/stimuli/spore_stims/simple_12_B_b.gif","","","","","14","simple_similar","images/stimuli/spore_stims/simple_12_B_b.gif","middle","","","","",""
"","null","html-keyboard-response","272","410191","0.0-50.0-0.6","SS1613103914050","","","null","","","","","<p><img src= images/blank.png width =""200"" height = ""200"" style = ""float:right""></p><p><img src=images/blank.png width =""800"" height = ""200""></p>","","","","","","","","","","","",""
"","120.99999999918509","sequential-stimulus-presentation","273","411137","0.0-50.0-1.6","SS1613103914050","trial","","40","800","920.9999999991851","images/stimuli/spore_stims/simple_12_A_b.gif","images/stimuli/spore_stims/simple_12_B_b.gif","","","","","14","simple_similar","images/stimuli/spore_stims/simple_12_B_b.gif","middle","","","","",""
"","null","html-keyboard-response","274","412238","0.0-50.0-0.7","SS1613103914050","","","null","","","","","<p><img src= images/blank.png width =""200"" height = ""200"" style = ""float:right""></p><p><img src=images/blank.png width =""800"" height = ""200""></p>","","","","","","","","","","","",""
"","149.99999999417923","sequential-stimulus-presentation","275","413226","0.0-50.0-1.7","SS1613103914050","trial","","40","800","949.9999999941792","images/stimuli/spore_stims/simple_12_A_b.gif","images/stimuli/spore_stims/simple_12_B_b.gif","","","","","14","simple_similar","images/stimuli/spore_stims/simple_12_A_b.gif","left","","","","",""
"","1508.0000000016298","html-keyboard-response","276","414762","0.0-51.0","SS1613103914050","pref_question","","98","","","","","<video width ='960' height = '540' style='padding-top:8%' autoplay muted><source src='images/stimuli/wall_pref.mp4' type='video/mp4'></video>","2","middle","45%","14","","","","","","","",""
"","158.99999999965075","sequential-stimulus-presentation","277","415746","0.0-52.0","SS1613103914050","pref_reveal","","40","800","958.9999999996508","null","null","","","","","14","","","","background","","","",""
"","null","html-keyboard-response","278","416638","0.0-53.0-0.0","SS1613103914050","","","null","","","","","<p><img src= images/blank.png width =""200"" height = ""200"" style = ""float:right""></p><p><img src=images/blank.png width =""800"" height = ""200""></p>","","","","","","","","","","","",""
"","135.99999999860302","sequential-stimulus-presentation","279","417602","0.0-53.0-1.0","SS1613103914050","trial","","40","800","935.999999998603","images/stimuli/spore_stims/complex_17_B_a.gif","images/stimuli/spore_stims/complex_17_A_a.gif","","","","","15","complex_similar","images/stimuli/spore_stims/complex_17_A_a.gif","middle","","","","",""
"","null","html-keyboard-response","280","418877","0.0-53.0-0.1","SS1613103914050","","","null","","","","","<p><img src= images/blank.png width =""200"" height = ""200"" style = ""float:right""></p><p><img src=images/blank.png width =""800"" height = ""200""></p>","","","","","","","","","","","",""
"","130.0000000046566","sequential-stimulus-presentation","281","419844","0.0-53.0-1.1","SS1613103914050","trial","","40","800","930.0000000046566","images/stimuli/spore_stims/complex_17_B_a.gif","images/stimuli/spore_stims/complex_17_A_a.gif","","","","","15","complex_similar","images/stimuli/spore_stims/complex_17_A_a.gif","middle","","","","",""
"","null","html-keyboard-response","282","420822","0.0-53.0-0.2","SS1613103914050","","","null","","","","","<p><img src= images/blank.png width =""200"" height = ""200"" style = ""float:right""></p><p><img src=images/blank.png width =""800"" height = ""200""></p>","","","","","","","","","","","",""
"","27.999999991152436","sequential-stimulus-presentation","283","421684","0.0-53.0-1.2","SS1613103914050","trial","","40","800","827.9999999911524","images/stimuli/spore_stims/complex_17_B_a.gif","images/stimuli/spore_stims/complex_17_A_a.gif","","","","","15","complex_similar","images/stimuli/spore_stims/complex_17_B_a.gif","left","","","","",""
"","null","html-keyboard-response","284","422617","0.0-53.0-0.3","SS1613103914050","","","null","","","","","<p><img src= images/blank.png width =""200"" height = ""200"" style = ""float:right""></p><p><img src=images/blank.png width =""800"" height = ""200""></p>","","","","","","","","","","","",""
"","134.9999999947613","sequential-stimulus-presentation","285","423593","0.0-53.0-1.3","SS1613103914050","trial","","40","800","934.9999999947613","images/stimuli/spore_stims/complex_17_B_a.gif","images/stimuli/spore_stims/complex_17_A_a.gif","","","","","15","complex_similar","images/stimuli/spore_stims/complex_17_A_a.gif","middle","","","","",""
"","null","html-keyboard-response","286","424504","0.0-53.0-0.4","SS1613103914050","","","null","","","","","<p><img src= images/blank.png width =""200"" height = ""200"" style = ""float:right""></p><p><img src=images/blank.png width =""800"" height = ""200""></p>","","","","","","","","","","","",""
"","495.9999999991851","sequential-stimulus-presentation","287","425849","0.0-53.0-1.4","SS1613103914050","trial","","40","800","1295.999999999185","images/stimuli/spore_stims/complex_17_B_a.gif","images/stimuli/spore_stims/complex_17_A_a.gif","","","","","15","complex_similar","images/stimuli/spore_stims/complex_17_A_a.gif","middle","","","","",""
"","null","html-keyboard-response","288","427158","0.0-53.0-0.5","SS1613103914050","","","null","","","","","<p><img src= images/blank.png width =""200"" height = ""200"" style = ""float:right""></p><p><img src=images/blank.png width =""800"" height = ""200""></p>","","","","","","","","","","","",""
"","404.99999999883585","sequential-stimulus-presentation","289","428437","0.0-53.0-1.5","SS1613103914050","trial","","40","800","1204.9999999988358","images/stimuli/spore_stims/complex_17_B_a.gif","images/stimuli/spore_stims/complex_17_A_a.gif","","","","","15","complex_similar","images/stimuli/spore_stims/complex_17_A_a.gif","middle","","","","",""
"","null","html-keyboard-response","290","429321","0.0-53.0-0.6","SS1613103914050","","","null","","","","","<p><img src= images/blank.png width =""200"" height = ""200"" style = ""float:right""></p><p><img src=images/blank.png width =""800"" height = ""200""></p>","","","","","","","","","","","",""
"","1061.0000000015134","sequential-stimulus-presentation","291","431213","0.0-53.0-1.6","SS1613103914050","trial","","40","800","1861.0000000015134","images/stimuli/spore_stims/complex_17_B_a.gif","images/stimuli/spore_stims/complex_17_A_a.gif","","","","","15","complex_similar","images/stimuli/spore_stims/complex_17_A_a.gif","middle","","","","",""
"","null","html-keyboard-response","292","432402","0.0-53.0-0.7","SS1613103914050","","","null","","","","","<p><img src= images/blank.png width =""200"" height = ""200"" style = ""float:right""></p><p><img src=images/blank.png width =""800"" height = ""200""></p>","","","","","","","","","","","",""
"","3455.0000000017462","sequential-stimulus-presentation","293","436705","0.0-53.0-1.7","SS1613103914050","trial","","40","800","4255.000000001746","images/stimuli/spore_stims/complex_17_B_a.gif","images/stimuli/spore_stims/complex_17_A_a.gif","","","","","15","complex_similar","images/stimuli/spore_stims/complex_17_A_a.gif","middle","","","","",""
"","2423.9999999990687","html-keyboard-response","294","439155","0.0-54.0","SS1613103914050","pref_question","","98","","","","","<video width ='960' height = '540' style='padding-top:8%' autoplay muted><source src='images/stimuli/wall_pref.mp4' type='video/mp4'></video>","2","middle","45%","15","","","","","","","",""
"","3593.0000000080327","sequential-stimulus-presentation","295","443618","0.0-55.0","SS1613103914050","pref_reveal","","40","800","4393.000000008033","null","null","","","","","15","","","","background","","","",""
"","null","html-keyboard-response","296","444706","0.0-56.0-0.0","SS1613103914050","","","null","","","","","<p><img src= images/blank.png width =""200"" height = ""200"" style = ""float:right""></p><p><img src=images/blank.png width =""800"" height = ""200""></p>","","","","","","","","","","","",""
"","250","sequential-stimulus-presentation","297","445857","0.0-56.0-1.0","SS1613103914050","trial","","40","800","1050","images/stimuli/spore_stims/simple_19_A_c.gif","images/stimuli/spore_stims/simple_19_B_c.gif","","","","","16","simple_similar","images/stimuli/spore_stims/simple_19_B_c.gif","middle","","","","",""
"","null","html-keyboard-response","298","446784","0.0-56.0-0.1","SS1613103914050","","","null","","","","","<p><img src= images/blank.png width =""200"" height = ""200"" style = ""float:right""></p><p><img src=images/blank.png width =""800"" height = ""200""></p>","","","","","","","","","","","",""
"","226.99999999895226","sequential-stimulus-presentation","299","447875","0.0-56.0-1.1","SS1613103914050","trial","","40","800","1026.9999999989523","images/stimuli/spore_stims/simple_19_A_c.gif","images/stimuli/spore_stims/simple_19_B_c.gif","","","","","16","simple_similar","images/stimuli/spore_stims/simple_19_B_c.gif","middle","","","","",""
"","null","html-keyboard-response","300","448915","0.0-56.0-0.2","SS1613103914050","","","null","","","","","<p><img src= images/blank.png width =""200"" height = ""200"" style = ""float:right""></p><p><img src=images/blank.png width =""800"" height = ""200""></p>","","","","","","","","","","","",""
"","81.00000000558794","sequential-stimulus-presentation","301","449830","0.0-56.0-1.2","SS1613103914050","trial","","40","800","881.0000000055879","images/stimuli/spore_stims/simple_19_A_c.gif","images/stimuli/spore_stims/simple_19_B_c.gif","","","","","16","simple_similar","images/stimuli/spore_stims/simple_19_B_c.gif","middle","","","","",""
"","null","html-keyboard-response","302","451021","0.0-56.0-0.3","SS1613103914050","","","null","","","","","<p><img src= images/blank.png width =""200"" height = ""200"" style = ""float:right""></p><p><img src=images/blank.png width =""800"" height = ""200""></p>","","","","","","","","","","","",""
"","1765.9999999887077","sequential-stimulus-presentation","303","453627","0.0-56.0-1.3","SS1613103914050","trial","","40","800","2565.9999999887077","images/stimuli/spore_stims/simple_19_A_c.gif","images/stimuli/spore_stims/simple_19_B_c.gif","","","","","16","simple_similar","images/stimuli/spore_stims/simple_19_B_c.gif","middle","","","","",""
"","null","html-keyboard-response","304","454460","0.0-56.0-0.4","SS1613103914050","","","null","","","","","<p><img src= images/blank.png width =""200"" height = ""200"" style = ""float:right""></p><p><img src=images/blank.png width =""800"" height = ""200""></p>","","","","","","","","","","","",""
"","415.0000000081491","sequential-stimulus-presentation","305","455778","0.0-56.0-1.4","SS1613103914050","trial","","40","800","1215.000000008149","images/stimuli/spore_stims/simple_19_A_c.gif","images/stimuli/spore_stims/simple_19_B_c.gif","","","","","16","simple_similar","images/stimuli/spore_stims/simple_19_A_c.gif","left","","","","",""
"","null","html-keyboard-response","306","457038","0.0-56.0-0.5","SS1613103914050","","","null","","","","","<p><img src= images/blank.png width =""200"" height = ""200"" style = ""float:right""></p><p><img src=images/blank.png width =""800"" height = ""200""></p>","","","","","","","","","","","",""
"","559.9999999976717","sequential-stimulus-presentation","307","458435","0.0-56.0-1.5","SS1613103914050","trial","","40","800","1359.9999999976717","images/stimuli/spore_stims/simple_19_A_c.gif","images/stimuli/spore_stims/simple_19_B_c.gif","","","","","16","simple_similar","images/stimuli/spore_stims/simple_19_B_c.gif","middle","","","","",""
"","null","html-keyboard-response","308","459516","0.0-56.0-0.6","SS1613103914050","","","null","","","","","<p><img src= images/blank.png width =""200"" height = ""200"" style = ""float:right""></p><p><img src=images/blank.png width =""800"" height = ""200""></p>","","","","","","","","","","","",""
"","118.99999999150168","sequential-stimulus-presentation","309","460466","0.0-56.0-1.6","SS1613103914050","trial","","40","800","918.9999999915017","images/stimuli/spore_stims/simple_19_A_c.gif","images/stimuli/spore_stims/simple_19_B_c.gif","","","","","16","simple_similar","images/stimuli/spore_stims/simple_19_B_c.gif","middle","","","","",""
"","null","html-keyboard-response","310","461543","0.0-56.0-0.7","SS1613103914050","","","null","","","","","<p><img src= images/blank.png width =""200"" height = ""200"" style = ""float:right""></p><p><img src=images/blank.png width =""800"" height = ""200""></p>","","","","","","","","","","","",""
"","245.9999999991851","sequential-stimulus-presentation","311","462638","0.0-56.0-1.7","SS1613103914050","trial","","40","800","1045.999999999185","images/stimuli/spore_stims/simple_19_A_c.gif","images/stimuli/spore_stims/simple_19_B_c.gif","","","","","16","simple_similar","images/stimuli/spore_stims/simple_19_B_c.gif","middle","","","","",""
"","2683.00000000454","html-keyboard-response","312","465506","0.0-57.0","SS1613103914050","pref_question","","98","","","","","<video width ='960' height = '540' style='padding-top:8%' autoplay muted><source src='images/stimuli/wall_pref.mp4' type='video/mp4'></video>","2","middle","45%","16","","","","","","","",""
