"view_history","rt","trial_type","trial_index","time_elapsed","internal_node_id","subject","stimulus_type","trial_stimulus","key_press","minimum_viewing_duration","trial_looking_time","block_deviant","block_background","stimulus","wall_pref","location","location_percent","block_number","block_type","stimulus_displayed","position_displayed","stim_type_selected","responses","question_order","stimulus_left","stimulus_right"
"[{""page_index"":0,""viewing_time"":3151.8099999957485}]","3152.169999986654","instructions","0","3153","0.0-0.0","SS1613098940988","","","","","","","","","","","","","","","","","","","",""
"[{""page_index"":0,""viewing_time"":17770.77499999723},{""page_index"":1,""viewing_time"":7353.094999998575}]","25124.219999997877","instructions","1","30280","0.0-1.0","SS1613098940988","instructions","","","","","","","","","","","","","","","","","","",""
"","8549.815000005765","sequential-stimulus-presentation","2","39635","0.0-2.0","SS1613098940988","","","40","800","9349.815000005765","null","null","","","","","","","","","","","","",""
"","4990.539999998873","sequential-stimulus-presentation","3","45431","0.0-3.0","SS1613098940988","","","40","800","5790.539999998873","null","null","","","","","","","","","","","","",""
"[{""page_index"":0,""viewing_time"":4641.424999994342}]","4641.795000003185","instructions","4","50073","0.0-4.0","SS1613098940988","instructions","","","","","","","","","","","","","","","","","","",""
"","13755.040000003646","html-keyboard-response","5","63832","0.0-5.0","SS1613098940988","instructions","","98","","","","","<video width ='960' height = '540' autoplay muted><source src='images/stimuli/wall_pref.mp4' type='video/mp4'></video>","2","middle","45%","","","","","","","","",""
"","1910.6599999940954","sequential-stimulus-presentation","6","66549","0.0-6.0","SS1613098940988","pref_reveal","","40","800","2710.6599999940954","null","null","","","","","","","","","","","","",""
"[{""page_index"":0,""viewing_time"":13053.71500000183},{""page_index"":1,""viewing_time"":9006.629999988945},{""page_index"":2,""viewing_time"":1114.09500001173},{""page_index"":3,""viewing_time"":1180.5049999966286}]","24355.259999996633","instructions","7","90905","0.0-7.0","SS1613098940988","instructions","","","","","","","","","","","","","","","","","","",""
"","null","html-keyboard-response","8","91832","0.0-8.0-0.0","SS1613098940988","","","null","","","","","<p><img src= images/blank.png width =""200"" height = ""200"" style = ""float:right""></p><p><img src=images/blank.png width =""800"" height = ""200""></p>","","","","","","","","","","","",""
"","7655.524999994668","sequential-stimulus-presentation","9","100292","0.0-8.0-1.0","SS1613098940988","trial","","40","800","8455.524999994668","images/stimuli/spore_stims/complex_01_A_a.gif","images/stimuli/spore_stims/complex_01_B_a.gif","","","","","0","complex_similar","images/stimuli/spore_stims/complex_01_B_a.gif","middle","","","","",""
"","null","html-keyboard-response","10","101395","0.0-8.0-0.1","SS1613098940988","","","null","","","","","<p><img src= images/blank.png width =""200"" height = ""200"" style = ""float:right""></p><p><img src=images/blank.png width =""800"" height = ""200""></p>","","","","","","","","","","","",""
"","9771.884999994654","sequential-stimulus-presentation","11","111971","0.0-8.0-1.1","SS1613098940988","trial","","40","800","10571.884999994654","images/stimuli/spore_stims/complex_01_A_a.gif","images/stimuli/spore_stims/complex_01_B_a.gif","","","","","0","complex_similar","images/stimuli/spore_stims/complex_01_B_a.gif","middle","","","","",""
"","null","html-keyboard-response","12","113048","0.0-8.0-0.2","SS1613098940988","","","null","","","","","<p><img src= images/blank.png width =""200"" height = ""200"" style = ""float:right""></p><p><img src=images/blank.png width =""800"" height = ""200""></p>","","","","","","","","","","","",""
"","4618.040000001201","sequential-stimulus-presentation","13","118470","0.0-8.0-1.2","SS1613098940988","trial","","40","800","5418.040000001201","images/stimuli/spore_stims/complex_01_A_a.gif","images/stimuli/spore_stims/complex_01_B_a.gif","","","","","0","complex_similar","images/stimuli/spore_stims/complex_01_B_a.gif","middle","","","","",""
"","null","html-keyboard-response","14","119500","0.0-8.0-0.3","SS1613098940988","","","null","","","","","<p><img src= images/blank.png width =""200"" height = ""200"" style = ""float:right""></p><p><img src=images/blank.png width =""800"" height = ""200""></p>","","","","","","","","","","","",""
"","4538.079999998445","sequential-stimulus-presentation","15","124843","0.0-8.0-1.3","SS1613098940988","trial","","40","800","5338.079999998445","images/stimuli/spore_stims/complex_01_A_a.gif","images/stimuli/spore_stims/complex_01_B_a.gif","","","","","0","complex_similar","images/stimuli/spore_stims/complex_01_A_a.gif","right","","","","",""
"","null","html-keyboard-response","16","126062","0.0-8.0-0.4","SS1613098940988","","","null","","","","","<p><img src= images/blank.png width =""200"" height = ""200"" style = ""float:right""></p><p><img src=images/blank.png width =""800"" height = ""200""></p>","","","","","","","","","","","",""
"","3058.065000004717","sequential-stimulus-presentation","17","129925","0.0-8.0-1.4","SS1613098940988","trial","","40","800","3858.065000004717","images/stimuli/spore_stims/complex_01_A_a.gif","images/stimuli/spore_stims/complex_01_B_a.gif","","","","","0","complex_similar","images/stimuli/spore_stims/complex_01_B_a.gif","middle","","","","",""
"","null","html-keyboard-response","18","130738","0.0-8.0-0.5","SS1613098940988","","","null","","","","","<p><img src= images/blank.png width =""200"" height = ""200"" style = ""float:right""></p><p><img src=images/blank.png width =""800"" height = ""200""></p>","","","","","","","","","","","",""
"","3129.0049999952316","sequential-stimulus-presentation","19","134670","0.0-8.0-1.5","SS1613098940988","trial","","40","800","3929.0049999952316","images/stimuli/spore_stims/complex_01_A_a.gif","images/stimuli/spore_stims/complex_01_B_a.gif","","","","","0","complex_similar","images/stimuli/spore_stims/complex_01_B_a.gif","middle","","","","",""
"","null","html-keyboard-response","20","135840","0.0-8.0-0.6","SS1613098940988","","","null","","","","","<p><img src= images/blank.png width =""200"" height = ""200"" style = ""float:right""></p><p><img src=images/blank.png width =""800"" height = ""200""></p>","","","","","","","","","","","",""
"","2600.5500000028405","sequential-stimulus-presentation","21","139245","0.0-8.0-1.6","SS1613098940988","trial","","40","800","3400.5500000028405","images/stimuli/spore_stims/complex_01_A_a.gif","images/stimuli/spore_stims/complex_01_B_a.gif","","","","","0","complex_similar","images/stimuli/spore_stims/complex_01_B_a.gif","middle","","","","",""
"","null","html-keyboard-response","22","140182","0.0-8.0-0.7","SS1613098940988","","","null","","","","","<p><img src= images/blank.png width =""200"" height = ""200"" style = ""float:right""></p><p><img src=images/blank.png width =""800"" height = ""200""></p>","","","","","","","","","","","",""
"","1510.8649999892805","sequential-stimulus-presentation","23","142518","0.0-8.0-1.7","SS1613098940988","trial","","40","800","2310.8649999892805","images/stimuli/spore_stims/complex_01_A_a.gif","images/stimuli/spore_stims/complex_01_B_a.gif","","","","","0","complex_similar","images/stimuli/spore_stims/complex_01_B_a.gif","middle","","","","",""
"","4505.920000010519","html-keyboard-response","24","147026","0.0-9.0","SS1613098940988","pref_question","","97","","","","","<video width ='960' height = '540' style='padding-top:8%' autoplay muted><source src='images/stimuli/wall_pref.mp4' type='video/mp4'></video>","1","left","25%","0","","","","","","","",""
"","3390.0699999940116","sequential-stimulus-presentation","25","151220","0.0-10.0","SS1613098940988","pref_reveal","","40","800","4190.069999994012","null","null","","","","","0","","","","novel","","","",""
"","null","html-keyboard-response","26","152253","0.0-11.0-0.0","SS1613098940988","","","null","","","","","<p><img src= images/blank.png width =""200"" height = ""200"" style = ""float:right""></p><p><img src=images/blank.png width =""800"" height = ""200""></p>","","","","","","","","","","","",""
"","1010.3950000047917","sequential-stimulus-presentation","27","154069","0.0-11.0-1.0","SS1613098940988","trial","","40","800","1810.3950000047917","images/stimuli/spore_stims/complex_12_B_c.gif","images/stimuli/spore_stims/complex_05_A_c.gif","","","","","1","complex_dissimilar","images/stimuli/spore_stims/complex_05_A_c.gif","right","","","","",""
"","null","html-keyboard-response","28","155353","0.0-11.0-0.1","SS1613098940988","","","null","","","","","<p><img src= images/blank.png width =""200"" height = ""200"" style = ""float:right""></p><p><img src=images/blank.png width =""800"" height = ""200""></p>","","","","","","","","","","","",""
"","903.4299999912037","sequential-stimulus-presentation","29","157060","0.0-11.0-1.1","SS1613098940988","trial","","40","800","1703.4299999912037","images/stimuli/spore_stims/complex_12_B_c.gif","images/stimuli/spore_stims/complex_05_A_c.gif","","","","","1","complex_dissimilar","images/stimuli/spore_stims/complex_05_A_c.gif","right","","","","",""
"","null","html-keyboard-response","30","157963","0.0-11.0-0.2","SS1613098940988","","","null","","","","","<p><img src= images/blank.png width =""200"" height = ""200"" style = ""float:right""></p><p><img src=images/blank.png width =""800"" height = ""200""></p>","","","","","","","","","","","",""
"","1323.3349999936763","sequential-stimulus-presentation","31","160090","0.0-11.0-1.2","SS1613098940988","trial","","40","800","2123.3349999936763","images/stimuli/spore_stims/complex_12_B_c.gif","images/stimuli/spore_stims/complex_05_A_c.gif","","","","","1","complex_dissimilar","images/stimuli/spore_stims/complex_05_A_c.gif","right","","","","",""
"","null","html-keyboard-response","32","160976","0.0-11.0-0.3","SS1613098940988","","","null","","","","","<p><img src= images/blank.png width =""200"" height = ""200"" style = ""float:right""></p><p><img src=images/blank.png width =""800"" height = ""200""></p>","","","","","","","","","","","",""
"","3316.854999997304","sequential-stimulus-presentation","33","165098","0.0-11.0-1.3","SS1613098940988","trial","","40","800","4116.854999997304","images/stimuli/spore_stims/complex_12_B_c.gif","images/stimuli/spore_stims/complex_05_A_c.gif","","","","","1","complex_dissimilar","images/stimuli/spore_stims/complex_12_B_c.gif","left","","","","",""
"","null","html-keyboard-response","34","166075","0.0-11.0-0.4","SS1613098940988","","","null","","","","","<p><img src= images/blank.png width =""200"" height = ""200"" style = ""float:right""></p><p><img src=images/blank.png width =""800"" height = ""200""></p>","","","","","","","","","","","",""
"","817.269999999553","sequential-stimulus-presentation","35","167698","0.0-11.0-1.4","SS1613098940988","trial","","40","800","1617.269999999553","images/stimuli/spore_stims/complex_12_B_c.gif","images/stimuli/spore_stims/complex_05_A_c.gif","","","","","1","complex_dissimilar","images/stimuli/spore_stims/complex_05_A_c.gif","right","","","","",""
"","null","html-keyboard-response","36","168514","0.0-11.0-0.5","SS1613098940988","","","null","","","","","<p><img src= images/blank.png width =""200"" height = ""200"" style = ""float:right""></p><p><img src=images/blank.png width =""800"" height = ""200""></p>","","","","","","","","","","","",""
"","1167.48999999254","sequential-stimulus-presentation","37","170486","0.0-11.0-1.5","SS1613098940988","trial","","40","800","1967.48999999254","images/stimuli/spore_stims/complex_12_B_c.gif","images/stimuli/spore_stims/complex_05_A_c.gif","","","","","1","complex_dissimilar","images/stimuli/spore_stims/complex_05_A_c.gif","right","","","","",""
"","null","html-keyboard-response","38","171302","0.0-11.0-0.6","SS1613098940988","","","null","","","","","<p><img src= images/blank.png width =""200"" height = ""200"" style = ""float:right""></p><p><img src=images/blank.png width =""800"" height = ""200""></p>","","","","","","","","","","","",""
"","1949.3550000042887","sequential-stimulus-presentation","39","174056","0.0-11.0-1.6","SS1613098940988","trial","","40","800","2749.3550000042887","images/stimuli/spore_stims/complex_12_B_c.gif","images/stimuli/spore_stims/complex_05_A_c.gif","","","","","1","complex_dissimilar","images/stimuli/spore_stims/complex_05_A_c.gif","right","","","","",""
"","null","html-keyboard-response","40","175100","0.0-11.0-0.7","SS1613098940988","","","null","","","","","<p><img src= images/blank.png width =""200"" height = ""200"" style = ""float:right""></p><p><img src=images/blank.png width =""800"" height = ""200""></p>","","","","","","","","","","","",""
"","1875.0250000011874","sequential-stimulus-presentation","41","177781","0.0-11.0-1.7","SS1613098940988","trial","","40","800","2675.0250000011874","images/stimuli/spore_stims/complex_12_B_c.gif","images/stimuli/spore_stims/complex_05_A_c.gif","","","","","1","complex_dissimilar","images/stimuli/spore_stims/complex_05_A_c.gif","right","","","","",""
"","1940.3000000020256","html-keyboard-response","42","179724","0.0-12.0","SS1613098940988","pref_question","","98","","","","","<video width ='960' height = '540' style='padding-top:8%' autoplay muted><source src='images/stimuli/wall_pref.mp4' type='video/mp4'></video>","2","middle","45%","1","","","","","","","",""
"","2220.914999998058","sequential-stimulus-presentation","43","182751","0.0-13.0","SS1613098940988","pref_reveal","","40","800","3020.914999998058","null","null","","","","","1","","","","novel","","","",""
"","null","html-keyboard-response","44","183964","0.0-14.0-0.0","SS1613098940988","","","null","","","","","<p><img src= images/blank.png width =""200"" height = ""200"" style = ""float:right""></p><p><img src=images/blank.png width =""800"" height = ""200""></p>","","","","","","","","","","","",""
"","434.88499999511987","sequential-stimulus-presentation","45","185228","0.0-14.0-1.0","SS1613098940988","trial","","40","800","1234.8849999951199","images/stimuli/spore_stims/simple_03_A_c.gif","images/stimuli/spore_stims/simple_03_B_c.gif","","","","","2","simple_similar","images/stimuli/spore_stims/simple_03_B_c.gif","middle","","","","",""
"","null","html-keyboard-response","46","186370","0.0-14.0-0.1","SS1613098940988","","","null","","","","","<p><img src= images/blank.png width =""200"" height = ""200"" style = ""float:right""></p><p><img src=images/blank.png width =""800"" height = ""200""></p>","","","","","","","","","","","",""
"","2861.1150000069756","sequential-stimulus-presentation","47","190036","0.0-14.0-1.1","SS1613098940988","trial","","40","800","3661.1150000069756","images/stimuli/spore_stims/simple_03_A_c.gif","images/stimuli/spore_stims/simple_03_B_c.gif","","","","","2","simple_similar","images/stimuli/spore_stims/simple_03_B_c.gif","middle","","","","",""
"","null","html-keyboard-response","48","191167","0.0-14.0-0.2","SS1613098940988","","","null","","","","","<p><img src= images/blank.png width =""200"" height = ""200"" style = ""float:right""></p><p><img src=images/blank.png width =""800"" height = ""200""></p>","","","","","","","","","","","",""
"","1341.0449999937555","sequential-stimulus-presentation","49","193313","0.0-14.0-1.2","SS1613098940988","trial","","40","800","2141.0449999937555","images/stimuli/spore_stims/simple_03_A_c.gif","images/stimuli/spore_stims/simple_03_B_c.gif","","","","","2","simple_similar","images/stimuli/spore_stims/simple_03_B_c.gif","middle","","","","",""
"","null","html-keyboard-response","50","194224","0.0-14.0-0.3","SS1613098940988","","","null","","","","","<p><img src= images/blank.png width =""200"" height = ""200"" style = ""float:right""></p><p><img src=images/blank.png width =""800"" height = ""200""></p>","","","","","","","","","","","",""
"","1215.9499999979744","sequential-stimulus-presentation","51","196245","0.0-14.0-1.3","SS1613098940988","trial","","40","800","2015.9499999979744","images/stimuli/spore_stims/simple_03_A_c.gif","images/stimuli/spore_stims/simple_03_B_c.gif","","","","","2","simple_similar","images/stimuli/spore_stims/simple_03_B_c.gif","middle","","","","",""
"","null","html-keyboard-response","52","197497","0.0-14.0-0.4","SS1613098940988","","","null","","","","","<p><img src= images/blank.png width =""200"" height = ""200"" style = ""float:right""></p><p><img src=images/blank.png width =""800"" height = ""200""></p>","","","","","","","","","","","",""
"","772.3250000126427","sequential-stimulus-presentation","53","199074","0.0-14.0-1.4","SS1613098940988","trial","","40","800","1572.3250000126427","images/stimuli/spore_stims/simple_03_A_c.gif","images/stimuli/spore_stims/simple_03_B_c.gif","","","","","2","simple_similar","images/stimuli/spore_stims/simple_03_B_c.gif","middle","","","","",""
"","null","html-keyboard-response","54","200246","0.0-14.0-0.5","SS1613098940988","","","null","","","","","<p><img src= images/blank.png width =""200"" height = ""200"" style = ""float:right""></p><p><img src=images/blank.png width =""800"" height = ""200""></p>","","","","","","","","","","","",""
"","3461.584999997285","sequential-stimulus-presentation","55","204513","0.0-14.0-1.5","SS1613098940988","trial","","40","800","4261.584999997285","images/stimuli/spore_stims/simple_03_A_c.gif","images/stimuli/spore_stims/simple_03_B_c.gif","","","","","2","simple_similar","images/stimuli/spore_stims/simple_03_A_c.gif","right","","","","",""
"","null","html-keyboard-response","56","205800","0.0-14.0-0.6","SS1613098940988","","","null","","","","","<p><img src= images/blank.png width =""200"" height = ""200"" style = ""float:right""></p><p><img src=images/blank.png width =""800"" height = ""200""></p>","","","","","","","","","","","",""
"","1036.8999999918742","sequential-stimulus-presentation","57","207644","0.0-14.0-1.6","SS1613098940988","trial","","40","800","1836.8999999918742","images/stimuli/spore_stims/simple_03_A_c.gif","images/stimuli/spore_stims/simple_03_B_c.gif","","","","","2","simple_similar","images/stimuli/spore_stims/simple_03_B_c.gif","middle","","","","",""
"","null","html-keyboard-response","58","208936","0.0-14.0-0.7","SS1613098940988","","","null","","","","","<p><img src= images/blank.png width =""200"" height = ""200"" style = ""float:right""></p><p><img src=images/blank.png width =""800"" height = ""200""></p>","","","","","","","","","","","",""
"","988.0249999987427","sequential-stimulus-presentation","59","210731","0.0-14.0-1.7","SS1613098940988","trial","","40","800","1788.0249999987427","images/stimuli/spore_stims/simple_03_A_c.gif","images/stimuli/spore_stims/simple_03_B_c.gif","","","","","2","simple_similar","images/stimuli/spore_stims/simple_03_B_c.gif","middle","","","","",""
"","1599.289999998291","html-keyboard-response","60","212334","0.0-15.0","SS1613098940988","pref_question","","97","","","","","<video width ='960' height = '540' style='padding-top:8%' autoplay muted><source src='images/stimuli/wall_pref.mp4' type='video/mp4'></video>","1","left","25%","2","","","","","","","",""
"","2039.1400000080466","sequential-stimulus-presentation","61","215177","0.0-16.0","SS1613098940988","pref_reveal","","40","800","2839.1400000080466","null","null","","","","","2","","","","novel","","","",""
"","null","html-keyboard-response","62","216019","0.0-17.0-0.0","SS1613098940988","","","null","","","","","<p><img src= images/blank.png width =""200"" height = ""200"" style = ""float:right""></p><p><img src=images/blank.png width =""800"" height = ""200""></p>","","","","","","","","","","","",""
"","2302.349999998114","sequential-stimulus-presentation","63","219127","0.0-17.0-1.0","SS1613098940988","trial","","40","800","3102.349999998114","images/stimuli/spore_stims/simple_20_A_c.gif","images/stimuli/spore_stims/simple_20_B_c.gif","","","","","3","simple_similar","images/stimuli/spore_stims/simple_20_B_c.gif","right","","","","",""
"","null","html-keyboard-response","64","220249","0.0-17.0-0.1","SS1613098940988","","","null","","","","","<p><img src= images/blank.png width =""200"" height = ""200"" style = ""float:right""></p><p><img src=images/blank.png width =""800"" height = ""200""></p>","","","","","","","","","","","",""
"","926.6199999983655","sequential-stimulus-presentation","65","221984","0.0-17.0-1.1","SS1613098940988","trial","","40","800","1726.6199999983655","images/stimuli/spore_stims/simple_20_A_c.gif","images/stimuli/spore_stims/simple_20_B_c.gif","","","","","3","simple_similar","images/stimuli/spore_stims/simple_20_B_c.gif","right","","","","",""
"","null","html-keyboard-response","66","222867","0.0-17.0-0.2","SS1613098940988","","","null","","","","","<p><img src= images/blank.png width =""200"" height = ""200"" style = ""float:right""></p><p><img src=images/blank.png width =""800"" height = ""200""></p>","","","","","","","","","","","",""
"","1534.4749999931082","sequential-stimulus-presentation","67","225207","0.0-17.0-1.2","SS1613098940988","trial","","40","800","2334.474999993108","images/stimuli/spore_stims/simple_20_A_c.gif","images/stimuli/spore_stims/simple_20_B_c.gif","","","","","3","simple_similar","images/stimuli/spore_stims/simple_20_A_c.gif","left","","","","",""
"","null","html-keyboard-response","68","226379","0.0-17.0-0.3","SS1613098940988","","","null","","","","","<p><img src= images/blank.png width =""200"" height = ""200"" style = ""float:right""></p><p><img src=images/blank.png width =""800"" height = ""200""></p>","","","","","","","","","","","",""
"","1061.0299999971176","sequential-stimulus-presentation","69","228244","0.0-17.0-1.3","SS1613098940988","trial","","40","800","1861.0299999971176","images/stimuli/spore_stims/simple_20_A_c.gif","images/stimuli/spore_stims/simple_20_B_c.gif","","","","","3","simple_similar","images/stimuli/spore_stims/simple_20_B_c.gif","right","","","","",""
"","null","html-keyboard-response","70","229216","0.0-17.0-0.4","SS1613098940988","","","null","","","","","<p><img src= images/blank.png width =""200"" height = ""200"" style = ""float:right""></p><p><img src=images/blank.png width =""800"" height = ""200""></p>","","","","","","","","","","","",""
"","1112.6899999944726","sequential-stimulus-presentation","71","231134","0.0-17.0-1.4","SS1613098940988","trial","","40","800","1912.6899999944726","images/stimuli/spore_stims/simple_20_A_c.gif","images/stimuli/spore_stims/simple_20_B_c.gif","","","","","3","simple_similar","images/stimuli/spore_stims/simple_20_B_c.gif","right","","","","",""
"","null","html-keyboard-response","72","232300","0.0-17.0-0.5","SS1613098940988","","","null","","","","","<p><img src= images/blank.png width =""200"" height = ""200"" style = ""float:right""></p><p><img src=images/blank.png width =""800"" height = ""200""></p>","","","","","","","","","","","",""
"","675.6749999913154","sequential-stimulus-presentation","73","233780","0.0-17.0-1.5","SS1613098940988","trial","","40","800","1475.6749999913154","images/stimuli/spore_stims/simple_20_A_c.gif","images/stimuli/spore_stims/simple_20_B_c.gif","","","","","3","simple_similar","images/stimuli/spore_stims/simple_20_B_c.gif","right","","","","",""
"","null","html-keyboard-response","74","234926","0.0-17.0-0.6","SS1613098940988","","","null","","","","","<p><img src= images/blank.png width =""200"" height = ""200"" style = ""float:right""></p><p><img src=images/blank.png width =""800"" height = ""200""></p>","","","","","","","","","","","",""
"","717.9000000032829","sequential-stimulus-presentation","75","236448","0.0-17.0-1.6","SS1613098940988","trial","","40","800","1517.900000003283","images/stimuli/spore_stims/simple_20_A_c.gif","images/stimuli/spore_stims/simple_20_B_c.gif","","","","","3","simple_similar","images/stimuli/spore_stims/simple_20_B_c.gif","right","","","","",""
"","null","html-keyboard-response","76","237458","0.0-17.0-0.7","SS1613098940988","","","null","","","","","<p><img src= images/blank.png width =""200"" height = ""200"" style = ""float:right""></p><p><img src=images/blank.png width =""800"" height = ""200""></p>","","","","","","","","","","","",""
"","734.2599999974482","sequential-stimulus-presentation","77","238998","0.0-17.0-1.7","SS1613098940988","trial","","40","800","1534.2599999974482","images/stimuli/spore_stims/simple_20_A_c.gif","images/stimuli/spore_stims/simple_20_B_c.gif","","","","","3","simple_similar","images/stimuli/spore_stims/simple_20_B_c.gif","right","","","","",""
"","1709.4700000016019","html-keyboard-response","78","240711","0.0-18.0","SS1613098940988","pref_question","","98","","","","","<video width ='960' height = '540' style='padding-top:8%' autoplay muted><source src='images/stimuli/wall_pref.mp4' type='video/mp4'></video>","2","middle","45%","3","","","","","","","",""
"","3682.4800000031246","sequential-stimulus-presentation","79","245198","0.0-19.0","SS1613098940988","pref_reveal","","40","800","4482.480000003125","null","null","","","","","3","","","","novel","","","",""
"","null","html-keyboard-response","80","246031","0.0-20.0-0.0","SS1613098940988","","","null","","","","","<p><img src= images/blank.png width =""200"" height = ""200"" style = ""float:right""></p><p><img src=images/blank.png width =""800"" height = ""200""></p>","","","","","","","","","","","",""
"","2186.455000002752","sequential-stimulus-presentation","81","249024","0.0-20.0-1.0","SS1613098940988","trial","","40","800","2986.455000002752","images/stimuli/spore_stims/complex_20_A_a.gif","images/stimuli/spore_stims/complex_20_B_a.gif","","","","","4","complex_similar","images/stimuli/spore_stims/complex_20_B_a.gif","left","","","","",""
"","null","html-keyboard-response","82","250313","0.0-20.0-0.1","SS1613098940988","","","null","","","","","<p><img src= images/blank.png width =""200"" height = ""200"" style = ""float:right""></p><p><img src=images/blank.png width =""800"" height = ""200""></p>","","","","","","","","","","","",""
"","1021.0149999911664","sequential-stimulus-presentation","83","252139","0.0-20.0-1.1","SS1613098940988","trial","","40","800","1821.0149999911664","images/stimuli/spore_stims/complex_20_A_a.gif","images/stimuli/spore_stims/complex_20_B_a.gif","","","","","4","complex_similar","images/stimuli/spore_stims/complex_20_B_a.gif","left","","","","",""
"","null","html-keyboard-response","84","253062","0.0-20.0-0.2","SS1613098940988","","","null","","","","","<p><img src= images/blank.png width =""200"" height = ""200"" style = ""float:right""></p><p><img src=images/blank.png width =""800"" height = ""200""></p>","","","","","","","","","","","",""
"","900.9650000080001","sequential-stimulus-presentation","85","254767","0.0-20.0-1.2","SS1613098940988","trial","","40","800","1700.965000008","images/stimuli/spore_stims/complex_20_A_a.gif","images/stimuli/spore_stims/complex_20_B_a.gif","","","","","4","complex_similar","images/stimuli/spore_stims/complex_20_B_a.gif","left","","","","",""
"","null","html-keyboard-response","86","255800","0.0-20.0-0.3","SS1613098940988","","","null","","","","","<p><img src= images/blank.png width =""200"" height = ""200"" style = ""float:right""></p><p><img src=images/blank.png width =""800"" height = ""200""></p>","","","","","","","","","","","",""
"","886.0050000075717","sequential-stimulus-presentation","87","257490","0.0-20.0-1.3","SS1613098940988","trial","","40","800","1686.0050000075717","images/stimuli/spore_stims/complex_20_A_a.gif","images/stimuli/spore_stims/complex_20_B_a.gif","","","","","4","complex_similar","images/stimuli/spore_stims/complex_20_B_a.gif","left","","","","",""
"","null","html-keyboard-response","88","258787","0.0-20.0-0.4","SS1613098940988","","","null","","","","","<p><img src= images/blank.png width =""200"" height = ""200"" style = ""float:right""></p><p><img src=images/blank.png width =""800"" height = ""200""></p>","","","","","","","","","","","",""
"","937.5","sequential-stimulus-presentation","89","260530","0.0-20.0-1.4","SS1613098940988","trial","","40","800","1737.5","images/stimuli/spore_stims/complex_20_A_a.gif","images/stimuli/spore_stims/complex_20_B_a.gif","","","","","4","complex_similar","images/stimuli/spore_stims/complex_20_B_a.gif","left","","","","",""
"","null","html-keyboard-response","90","261551","0.0-20.0-0.5","SS1613098940988","","","null","","","","","<p><img src= images/blank.png width =""200"" height = ""200"" style = ""float:right""></p><p><img src=images/blank.png width =""800"" height = ""200""></p>","","","","","","","","","","","",""
"","709.2200000042794","sequential-stimulus-presentation","91","263066","0.0-20.0-1.5","SS1613098940988","trial","","40","800","1509.2200000042794","images/stimuli/spore_stims/complex_20_A_a.gif","images/stimuli/spore_stims/complex_20_B_a.gif","","","","","4","complex_similar","images/stimuli/spore_stims/complex_20_B_a.gif","left","","","","",""
"","null","html-keyboard-response","92","263905","0.0-20.0-0.6","SS1613098940988","","","null","","","","","<p><img src= images/blank.png width =""200"" height = ""200"" style = ""float:right""></p><p><img src=images/blank.png width =""800"" height = ""200""></p>","","","","","","","","","","","",""
"","934.0800000063609","sequential-stimulus-presentation","93","265645","0.0-20.0-1.6","SS1613098940988","trial","","40","800","1734.080000006361","images/stimuli/spore_stims/complex_20_A_a.gif","images/stimuli/spore_stims/complex_20_B_a.gif","","","","","4","complex_similar","images/stimuli/spore_stims/complex_20_B_a.gif","left","","","","",""
"","null","html-keyboard-response","94","266815","0.0-20.0-0.7","SS1613098940988","","","null","","","","","<p><img src= images/blank.png width =""200"" height = ""200"" style = ""float:right""></p><p><img src=images/blank.png width =""800"" height = ""200""></p>","","","","","","","","","","","",""
"","1232.415000005858","sequential-stimulus-presentation","95","268852","0.0-20.0-1.7","SS1613098940988","trial","","40","800","2032.415000005858","images/stimuli/spore_stims/complex_20_A_a.gif","images/stimuli/spore_stims/complex_20_B_a.gif","","","","","4","complex_similar","images/stimuli/spore_stims/complex_20_A_a.gif","right","","","","",""
"","1856.855000005453","html-keyboard-response","96","270714","0.0-21.0","SS1613098940988","pref_question","","98","","","","","<video width ='960' height = '540' style='padding-top:8%' autoplay muted><source src='images/stimuli/wall_pref.mp4' type='video/mp4'></video>","2","middle","45%","4","","","","","","","",""
"","1838.320000009844","sequential-stimulus-presentation","97","273357","0.0-22.0","SS1613098940988","pref_reveal","","40","800","2638.320000009844","null","null","","","","","4","","","","novel","","","",""
"","null","html-keyboard-response","98","274405","0.0-23.0-0.0","SS1613098940988","","","null","","","","","<p><img src= images/blank.png width =""200"" height = ""200"" style = ""float:right""></p><p><img src=images/blank.png width =""800"" height = ""200""></p>","","","","","","","","","","","",""
"","1929.8350000026403","sequential-stimulus-presentation","99","277140","0.0-23.0-1.0","SS1613098940988","trial","","40","800","2729.8350000026403","images/stimuli/spore_stims/simple_17_B_c.gif","images/stimuli/spore_stims/simple_09_A_d.gif","","","","","5","simple_dissimilar","images/stimuli/spore_stims/simple_09_A_d.gif","middle","","","","",""
"","null","html-keyboard-response","100","278108","0.0-23.0-0.1","SS1613098940988","","","null","","","","","<p><img src= images/blank.png width =""200"" height = ""200"" style = ""float:right""></p><p><img src=images/blank.png width =""800"" height = ""200""></p>","","","","","","","","","","","",""
"","1067.7450000075623","sequential-stimulus-presentation","101","279994","0.0-23.0-1.1","SS1613098940988","trial","","40","800","1867.7450000075623","images/stimuli/spore_stims/simple_17_B_c.gif","images/stimuli/spore_stims/simple_09_A_d.gif","","","","","5","simple_dissimilar","images/stimuli/spore_stims/simple_09_A_d.gif","middle","","","","",""
"","null","html-keyboard-response","102","280810","0.0-23.0-0.2","SS1613098940988","","","null","","","","","<p><img src= images/blank.png width =""200"" height = ""200"" style = ""float:right""></p><p><img src=images/blank.png width =""800"" height = ""200""></p>","","","","","","","","","","","",""
"","860.899999999674","sequential-stimulus-presentation","103","282476","0.0-23.0-1.2","SS1613098940988","trial","","40","800","1660.899999999674","images/stimuli/spore_stims/simple_17_B_c.gif","images/stimuli/spore_stims/simple_09_A_d.gif","","","","","5","simple_dissimilar","images/stimuli/spore_stims/simple_17_B_c.gif","right","","","","",""
"","null","html-keyboard-response","104","283303","0.0-23.0-0.3","SS1613098940988","","","null","","","","","<p><img src= images/blank.png width =""200"" height = ""200"" style = ""float:right""></p><p><img src=images/blank.png width =""800"" height = ""200""></p>","","","","","","","","","","","",""
"","973.2800000056159","sequential-stimulus-presentation","105","285081","0.0-23.0-1.3","SS1613098940988","trial","","40","800","1773.2800000056159","images/stimuli/spore_stims/simple_17_B_c.gif","images/stimuli/spore_stims/simple_09_A_d.gif","","","","","5","simple_dissimilar","images/stimuli/spore_stims/simple_09_A_d.gif","middle","","","","",""
"","null","html-keyboard-response","106","286177","0.0-23.0-0.4","SS1613098940988","","","null","","","","","<p><img src= images/blank.png width =""200"" height = ""200"" style = ""float:right""></p><p><img src=images/blank.png width =""800"" height = ""200""></p>","","","","","","","","","","","",""
"","707.2900000057416","sequential-stimulus-presentation","107","287689","0.0-23.0-1.4","SS1613098940988","trial","","40","800","1507.2900000057416","images/stimuli/spore_stims/simple_17_B_c.gif","images/stimuli/spore_stims/simple_09_A_d.gif","","","","","5","simple_dissimilar","images/stimuli/spore_stims/simple_09_A_d.gif","middle","","","","",""
"","null","html-keyboard-response","108","288804","0.0-23.0-0.5","SS1613098940988","","","null","","","","","<p><img src= images/blank.png width =""200"" height = ""200"" style = ""float:right""></p><p><img src=images/blank.png width =""800"" height = ""200""></p>","","","","","","","","","","","",""
"","1039.5900000003166","sequential-stimulus-presentation","109","290661","0.0-23.0-1.5","SS1613098940988","trial","","40","800","1839.5900000003166","images/stimuli/spore_stims/simple_17_B_c.gif","images/stimuli/spore_stims/simple_09_A_d.gif","","","","","5","simple_dissimilar","images/stimuli/spore_stims/simple_09_A_d.gif","middle","","","","",""
"","null","html-keyboard-response","110","291908","0.0-23.0-0.6","SS1613098940988","","","null","","","","","<p><img src= images/blank.png width =""200"" height = ""200"" style = ""float:right""></p><p><img src=images/blank.png width =""800"" height = ""200""></p>","","","","","","","","","","","",""
"","1843.9849999995204","sequential-stimulus-presentation","111","294558","0.0-23.0-1.6","SS1613098940988","trial","","40","800","2643.9849999995204","images/stimuli/spore_stims/simple_17_B_c.gif","images/stimuli/spore_stims/simple_09_A_d.gif","","","","","5","simple_dissimilar","images/stimuli/spore_stims/simple_09_A_d.gif","middle","","","","",""
"","null","html-keyboard-response","112","295761","0.0-23.0-0.7","SS1613098940988","","","null","","","","","<p><img src= images/blank.png width =""200"" height = ""200"" style = ""float:right""></p><p><img src=images/blank.png width =""800"" height = ""200""></p>","","","","","","","","","","","",""
"","998.5850000084611","sequential-stimulus-presentation","113","297565","0.0-23.0-1.7","SS1613098940988","trial","","40","800","1798.585000008461","images/stimuli/spore_stims/simple_17_B_c.gif","images/stimuli/spore_stims/simple_09_A_d.gif","","","","","5","simple_dissimilar","images/stimuli/spore_stims/simple_09_A_d.gif","middle","","","","",""
"","1551.6950000019278","html-keyboard-response","114","299122","0.0-24.0","SS1613098940988","pref_question","","97","","","","","<video width ='960' height = '540' style='padding-top:8%' autoplay muted><source src='images/stimuli/wall_pref.mp4' type='video/mp4'></video>","1","left","25%","5","","","","","","","",""
"","1051.6399999905843","sequential-stimulus-presentation","115","300980","0.0-25.0","SS1613098940988","pref_reveal","","40","800","1851.6399999905843","null","null","","","","","5","","","","novel","","","",""
"","null","html-keyboard-response","116","302097","0.0-26.0-0.0","SS1613098940988","","","null","","","","","<p><img src= images/blank.png width =""200"" height = ""200"" style = ""float:right""></p><p><img src=images/blank.png width =""800"" height = ""200""></p>","","","","","","","","","","","",""
"","2089.9550000031013","sequential-stimulus-presentation","117","304993","0.0-26.0-1.0","SS1613098940988","trial","","40","800","2889.9550000031013","images/stimuli/spore_stims/simple_16_A_c.gif","images/stimuli/spore_stims/simple_16_B_c.gif","","","","","6","simple_similar","images/stimuli/spore_stims/simple_16_B_c.gif","right","","","","",""
"","null","html-keyboard-response","118","306196","0.0-26.0-0.1","SS1613098940988","","","null","","","","","<p><img src= images/blank.png width =""200"" height = ""200"" style = ""float:right""></p><p><img src=images/blank.png width =""800"" height = ""200""></p>","","","","","","","","","","","",""
"","1382.7050000109011","sequential-stimulus-presentation","119","308385","0.0-26.0-1.1","SS1613098940988","trial","","40","800","2182.705000010901","images/stimuli/spore_stims/simple_16_A_c.gif","images/stimuli/spore_stims/simple_16_B_c.gif","","","","","6","simple_similar","images/stimuli/spore_stims/simple_16_B_c.gif","right","","","","",""
"","null","html-keyboard-response","120","309371","0.0-26.0-0.2","SS1613098940988","","","null","","","","","<p><img src= images/blank.png width =""200"" height = ""200"" style = ""float:right""></p><p><img src=images/blank.png width =""800"" height = ""200""></p>","","","","","","","","","","","",""
"","1691.7950000060955","sequential-stimulus-presentation","121","311867","0.0-26.0-1.2","SS1613098940988","trial","","40","800","2491.7950000060955","images/stimuli/spore_stims/simple_16_A_c.gif","images/stimuli/spore_stims/simple_16_B_c.gif","","","","","6","simple_similar","images/stimuli/spore_stims/simple_16_B_c.gif","right","","","","",""
"","null","html-keyboard-response","122","312923","0.0-26.0-0.3","SS1613098940988","","","null","","","","","<p><img src= images/blank.png width =""200"" height = ""200"" style = ""float:right""></p><p><img src=images/blank.png width =""800"" height = ""200""></p>","","","","","","","","","","","",""
"","1730.295000001206","sequential-stimulus-presentation","123","315459","0.0-26.0-1.3","SS1613098940988","trial","","40","800","2530.295000001206","images/stimuli/spore_stims/simple_16_A_c.gif","images/stimuli/spore_stims/simple_16_B_c.gif","","","","","6","simple_similar","images/stimuli/spore_stims/simple_16_B_c.gif","right","","","","",""
"","null","html-keyboard-response","124","316579","0.0-26.0-0.4","SS1613098940988","","","null","","","","","<p><img src= images/blank.png width =""200"" height = ""200"" style = ""float:right""></p><p><img src=images/blank.png width =""800"" height = ""200""></p>","","","","","","","","","","","",""
"","2011.2700000026962","sequential-stimulus-presentation","125","319396","0.0-26.0-1.4","SS1613098940988","trial","","40","800","2811.270000002696","images/stimuli/spore_stims/simple_16_A_c.gif","images/stimuli/spore_stims/simple_16_B_c.gif","","","","","6","simple_similar","images/stimuli/spore_stims/simple_16_A_c.gif","left","","","","",""
"","null","html-keyboard-response","126","320602","0.0-26.0-0.5","SS1613098940988","","","null","","","","","<p><img src= images/blank.png width =""200"" height = ""200"" style = ""float:right""></p><p><img src=images/blank.png width =""800"" height = ""200""></p>","","","","","","","","","","","",""
"","381.91499999084044","sequential-stimulus-presentation","127","321789","0.0-26.0-1.5","SS1613098940988","trial","","40","800","1181.9149999908404","images/stimuli/spore_stims/simple_16_A_c.gif","images/stimuli/spore_stims/simple_16_B_c.gif","","","","","6","simple_similar","images/stimuli/spore_stims/simple_16_B_c.gif","right","","","","",""
"","null","html-keyboard-response","128","322730","0.0-26.0-0.6","SS1613098940988","","","null","","","","","<p><img src= images/blank.png width =""200"" height = ""200"" style = ""float:right""></p><p><img src=images/blank.png width =""800"" height = ""200""></p>","","","","","","","","","","","",""
"","402.9949999967357","sequential-stimulus-presentation","129","323939","0.0-26.0-1.6","SS1613098940988","trial","","40","800","1202.9949999967357","images/stimuli/spore_stims/simple_16_A_c.gif","images/stimuli/spore_stims/simple_16_B_c.gif","","","","","6","simple_similar","images/stimuli/spore_stims/simple_16_B_c.gif","right","","","","",""
"","null","html-keyboard-response","130","324879","0.0-26.0-0.7","SS1613098940988","","","null","","","","","<p><img src= images/blank.png width =""200"" height = ""200"" style = ""float:right""></p><p><img src=images/blank.png width =""800"" height = ""200""></p>","","","","","","","","","","","",""
"","268.33500000066124","sequential-stimulus-presentation","131","325954","0.0-26.0-1.7","SS1613098940988","trial","","40","800","1068.3350000006612","images/stimuli/spore_stims/simple_16_A_c.gif","images/stimuli/spore_stims/simple_16_B_c.gif","","","","","6","simple_similar","images/stimuli/spore_stims/simple_16_B_c.gif","right","","","","",""
"","1359.0350000013132","html-keyboard-response","132","327318","0.0-27.0","SS1613098940988","pref_question","","98","","","","","<video width ='960' height = '540' style='padding-top:8%' autoplay muted><source src='images/stimuli/wall_pref.mp4' type='video/mp4'></video>","2","middle","45%","6","","","","","","","",""
"","3555.0450000009732","sequential-stimulus-presentation","133","331678","0.0-28.0","SS1613098940988","pref_reveal","","40","800","4355.045000000973","null","null","","","","","6","","","","novel","","","",""
"","null","html-keyboard-response","134","332820","0.0-29.0-0.0","SS1613098940988","","","null","","","","","<p><img src= images/blank.png width =""200"" height = ""200"" style = ""float:right""></p><p><img src=images/blank.png width =""800"" height = ""200""></p>","","","","","","","","","","","",""
"","4845.390000002226","sequential-stimulus-presentation","135","338472","0.0-29.0-1.0","SS1613098940988","trial","","40","800","5645.390000002226","images/stimuli/spore_stims/simple_11_B_c.gif","images/stimuli/spore_stims/simple_18_B_a.gif","","","","","7","simple_dissimilar","images/stimuli/spore_stims/simple_18_B_a.gif","middle","","","","",""
"","null","html-keyboard-response","136","339318","0.0-29.0-0.1","SS1613098940988","","","null","","","","","<p><img src= images/blank.png width =""200"" height = ""200"" style = ""float:right""></p><p><img src=images/blank.png width =""800"" height = ""200""></p>","","","","","","","","","","","",""
"","542.4899999925401","sequential-stimulus-presentation","137","340666","0.0-29.0-1.1","SS1613098940988","trial","","40","800","1342.48999999254","images/stimuli/spore_stims/simple_11_B_c.gif","images/stimuli/spore_stims/simple_18_B_a.gif","","","","","7","simple_dissimilar","images/stimuli/spore_stims/simple_18_B_a.gif","middle","","","","",""
"","null","html-keyboard-response","138","341784","0.0-29.0-0.2","SS1613098940988","","","null","","","","","<p><img src= images/blank.png width =""200"" height = ""200"" style = ""float:right""></p><p><img src=images/blank.png width =""800"" height = ""200""></p>","","","","","","","","","","","",""
"","918.6849999969127","sequential-stimulus-presentation","139","343508","0.0-29.0-1.2","SS1613098940988","trial","","40","800","1718.6849999969127","images/stimuli/spore_stims/simple_11_B_c.gif","images/stimuli/spore_stims/simple_18_B_a.gif","","","","","7","simple_dissimilar","images/stimuli/spore_stims/simple_18_B_a.gif","middle","","","","",""
"","null","html-keyboard-response","140","344805","0.0-29.0-0.3","SS1613098940988","","","null","","","","","<p><img src= images/blank.png width =""200"" height = ""200"" style = ""float:right""></p><p><img src=images/blank.png width =""800"" height = ""200""></p>","","","","","","","","","","","",""
"","752.2849999950267","sequential-stimulus-presentation","141","346364","0.0-29.0-1.3","SS1613098940988","trial","","40","800","1552.2849999950267","images/stimuli/spore_stims/simple_11_B_c.gif","images/stimuli/spore_stims/simple_18_B_a.gif","","","","","7","simple_dissimilar","images/stimuli/spore_stims/simple_18_B_a.gif","middle","","","","",""
"","null","html-keyboard-response","142","347170","0.0-29.0-0.4","SS1613098940988","","","null","","","","","<p><img src= images/blank.png width =""200"" height = ""200"" style = ""float:right""></p><p><img src=images/blank.png width =""800"" height = ""200""></p>","","","","","","","","","","","",""
"","1229.174999985844","sequential-stimulus-presentation","143","349204","0.0-29.0-1.4","SS1613098940988","trial","","40","800","2029.174999985844","images/stimuli/spore_stims/simple_11_B_c.gif","images/stimuli/spore_stims/simple_18_B_a.gif","","","","","7","simple_dissimilar","images/stimuli/spore_stims/simple_11_B_c.gif","left","","","","",""
"","null","html-keyboard-response","144","350188","0.0-29.0-0.5","SS1613098940988","","","null","","","","","<p><img src= images/blank.png width =""200"" height = ""200"" style = ""float:right""></p><p><img src=images/blank.png width =""800"" height = ""200""></p>","","","","","","","","","","","",""
"","1189.2249999946216","sequential-stimulus-presentation","145","352185","0.0-29.0-1.5","SS1613098940988","trial","","40","800","1989.2249999946216","images/stimuli/spore_stims/simple_11_B_c.gif","images/stimuli/spore_stims/simple_18_B_a.gif","","","","","7","simple_dissimilar","images/stimuli/spore_stims/simple_18_B_a.gif","middle","","","","",""
"","null","html-keyboard-response","146","353304","0.0-29.0-0.6","SS1613098940988","","","null","","","","","<p><img src= images/blank.png width =""200"" height = ""200"" style = ""float:right""></p><p><img src=images/blank.png width =""800"" height = ""200""></p>","","","","","","","","","","","",""
"","825.524999992922","sequential-stimulus-presentation","147","354936","0.0-29.0-1.6","SS1613098940988","trial","","40","800","1625.524999992922","images/stimuli/spore_stims/simple_11_B_c.gif","images/stimuli/spore_stims/simple_18_B_a.gif","","","","","7","simple_dissimilar","images/stimuli/spore_stims/simple_18_B_a.gif","middle","","","","",""
"","null","html-keyboard-response","148","355917","0.0-29.0-0.7","SS1613098940988","","","null","","","","","<p><img src= images/blank.png width =""200"" height = ""200"" style = ""float:right""></p><p><img src=images/blank.png width =""800"" height = ""200""></p>","","","","","","","","","","","",""
"","621.274999997695","sequential-stimulus-presentation","149","357343","0.0-29.0-1.7","SS1613098940988","trial","","40","800","1421.274999997695","images/stimuli/spore_stims/simple_11_B_c.gif","images/stimuli/spore_stims/simple_18_B_a.gif","","","","","7","simple_dissimilar","images/stimuli/spore_stims/simple_18_B_a.gif","middle","","","","",""
"","1956.8250000011176","html-keyboard-response","150","359305","0.0-30.0","SS1613098940988","pref_question","","99","","","","","<video width ='960' height = '540' style='padding-top:8%' autoplay muted><source src='images/stimuli/wall_pref.mp4' type='video/mp4'></video>","3","right","66%","7","","","","","","","",""
"","1581.8799999979092","sequential-stimulus-presentation","151","361693","0.0-31.0","SS1613098940988","pref_reveal","","40","800","2381.879999997909","null","null","","","","","7","","","","novel","","","",""
"","null","html-keyboard-response","152","362782","0.0-32.0-0.0","SS1613098940988","","","null","","","","","<p><img src= images/blank.png width =""200"" height = ""200"" style = ""float:right""></p><p><img src=images/blank.png width =""800"" height = ""200""></p>","","","","","","","","","","","",""
"","719.2250000080094","sequential-stimulus-presentation","153","364308","0.0-32.0-1.0","SS1613098940988","trial","","40","800","1519.2250000080094","images/stimuli/spore_stims/simple_07_A_a.gif","images/stimuli/spore_stims/simple_14_B_c.gif","","","","","8","simple_dissimilar","images/stimuli/spore_stims/simple_14_B_c.gif","left","","","","",""
"","null","html-keyboard-response","154","365172","0.0-32.0-0.1","SS1613098940988","","","null","","","","","<p><img src= images/blank.png width =""200"" height = ""200"" style = ""float:right""></p><p><img src=images/blank.png width =""800"" height = ""200""></p>","","","","","","","","","","","",""
"","1004.7150000027614","sequential-stimulus-presentation","155","366983","0.0-32.0-1.1","SS1613098940988","trial","","40","800","1804.7150000027614","images/stimuli/spore_stims/simple_07_A_a.gif","images/stimuli/spore_stims/simple_14_B_c.gif","","","","","8","simple_dissimilar","images/stimuli/spore_stims/simple_14_B_c.gif","left","","","","",""
"","null","html-keyboard-response","156","368016","0.0-32.0-0.2","SS1613098940988","","","null","","","","","<p><img src= images/blank.png width =""200"" height = ""200"" style = ""float:right""></p><p><img src=images/blank.png width =""800"" height = ""200""></p>","","","","","","","","","","","",""
"","651.9350000016857","sequential-stimulus-presentation","157","369474","0.0-32.0-1.2","SS1613098940988","trial","","40","800","1451.9350000016857","images/stimuli/spore_stims/simple_07_A_a.gif","images/stimuli/spore_stims/simple_14_B_c.gif","","","","","8","simple_dissimilar","images/stimuli/spore_stims/simple_14_B_c.gif","left","","","","",""
"","null","html-keyboard-response","158","370765","0.0-32.0-0.3","SS1613098940988","","","null","","","","","<p><img src= images/blank.png width =""200"" height = ""200"" style = ""float:right""></p><p><img src=images/blank.png width =""800"" height = ""200""></p>","","","","","","","","","","","",""
"","709.3150000000605","sequential-stimulus-presentation","159","372280","0.0-32.0-1.3","SS1613098940988","trial","","40","800","1509.3150000000605","images/stimuli/spore_stims/simple_07_A_a.gif","images/stimuli/spore_stims/simple_14_B_c.gif","","","","","8","simple_dissimilar","images/stimuli/spore_stims/simple_14_B_c.gif","left","","","","",""
"","null","html-keyboard-response","160","373146","0.0-32.0-0.4","SS1613098940988","","","null","","","","","<p><img src= images/blank.png width =""200"" height = ""200"" style = ""float:right""></p><p><img src=images/blank.png width =""800"" height = ""200""></p>","","","","","","","","","","","",""
"","1321.0550000076182","sequential-stimulus-presentation","161","375275","0.0-32.0-1.4","SS1613098940988","trial","","40","800","2121.055000007618","images/stimuli/spore_stims/simple_07_A_a.gif","images/stimuli/spore_stims/simple_14_B_c.gif","","","","","8","simple_dissimilar","images/stimuli/spore_stims/simple_07_A_a.gif","middle","","","","",""
"","null","html-keyboard-response","162","376571","0.0-32.0-0.5","SS1613098940988","","","null","","","","","<p><img src= images/blank.png width =""200"" height = ""200"" style = ""float:right""></p><p><img src=images/blank.png width =""800"" height = ""200""></p>","","","","","","","","","","","",""
"","497.9100000055041","sequential-stimulus-presentation","163","377892","0.0-32.0-1.5","SS1613098940988","trial","","40","800","1297.9100000055041","images/stimuli/spore_stims/simple_07_A_a.gif","images/stimuli/spore_stims/simple_14_B_c.gif","","","","","8","simple_dissimilar","images/stimuli/spore_stims/simple_14_B_c.gif","left","","","","",""
"","null","html-keyboard-response","164","379181","0.0-32.0-0.6","SS1613098940988","","","null","","","","","<p><img src= images/blank.png width =""200"" height = ""200"" style = ""float:right""></p><p><img src=images/blank.png width =""800"" height = ""200""></p>","","","","","","","","","","","",""
"","494.5900000020629","sequential-stimulus-presentation","165","380481","0.0-32.0-1.6","SS1613098940988","trial","","40","800","1294.5900000020629","images/stimuli/spore_stims/simple_07_A_a.gif","images/stimuli/spore_stims/simple_14_B_c.gif","","","","","8","simple_dissimilar","images/stimuli/spore_stims/simple_14_B_c.gif","left","","","","",""
"","null","html-keyboard-response","166","381778","0.0-32.0-0.7","SS1613098940988","","","null","","","","","<p><img src= images/blank.png width =""200"" height = ""200"" style = ""float:right""></p><p><img src=images/blank.png width =""800"" height = ""200""></p>","","","","","","","","","","","",""
"","442.30500000412576","sequential-stimulus-presentation","167","383026","0.0-32.0-1.7","SS1613098940988","trial","","40","800","1242.3050000041258","images/stimuli/spore_stims/simple_07_A_a.gif","images/stimuli/spore_stims/simple_14_B_c.gif","","","","","8","simple_dissimilar","images/stimuli/spore_stims/simple_14_B_c.gif","left","","","","",""
"","1483.7200000038138","html-keyboard-response","168","384515","0.0-33.0","SS1613098940988","pref_question","","99","","","","","<video width ='960' height = '540' style='padding-top:8%' autoplay muted><source src='images/stimuli/wall_pref.mp4' type='video/mp4'></video>","3","right","66%","8","","","","","","","",""
"","3370.630000004894","sequential-stimulus-presentation","169","388692","0.0-34.0","SS1613098940988","pref_reveal","","40","800","4170.630000004894","null","null","","","","","8","","","","novel","","","",""
"","null","html-keyboard-response","170","389729","0.0-35.0-0.0","SS1613098940988","","","null","","","","","<p><img src= images/blank.png width =""200"" height = ""200"" style = ""float:right""></p><p><img src=images/blank.png width =""800"" height = ""200""></p>","","","","","","","","","","","",""
"","972.6400000072317","sequential-stimulus-presentation","171","391510","0.0-35.0-1.0","SS1613098940988","trial","","40","800","1772.6400000072317","images/stimuli/spore_stims/simple_14_A_d.gif","images/stimuli/spore_stims/simple_06_B_c.gif","","","","","9","simple_dissimilar","images/stimuli/spore_stims/simple_06_B_c.gif","middle","","","","",""
"","null","html-keyboard-response","172","392339","0.0-35.0-0.1","SS1613098940988","","","null","","","","","<p><img src= images/blank.png width =""200"" height = ""200"" style = ""float:right""></p><p><img src=images/blank.png width =""800"" height = ""200""></p>","","","","","","","","","","","",""
"","889.2799999885028","sequential-stimulus-presentation","173","394036","0.0-35.0-1.1","SS1613098940988","trial","","40","800","1689.2799999885028","images/stimuli/spore_stims/simple_14_A_d.gif","images/stimuli/spore_stims/simple_06_B_c.gif","","","","","9","simple_dissimilar","images/stimuli/spore_stims/simple_06_B_c.gif","middle","","","","",""
"","null","html-keyboard-response","174","394944","0.0-35.0-0.2","SS1613098940988","","","null","","","","","<p><img src= images/blank.png width =""200"" height = ""200"" style = ""float:right""></p><p><img src=images/blank.png width =""800"" height = ""200""></p>","","","","","","","","","","","",""
"","960.4699999908917","sequential-stimulus-presentation","175","396719","0.0-35.0-1.2","SS1613098940988","trial","","40","800","1760.4699999908917","images/stimuli/spore_stims/simple_14_A_d.gif","images/stimuli/spore_stims/simple_06_B_c.gif","","","","","9","simple_dissimilar","images/stimuli/spore_stims/simple_06_B_c.gif","middle","","","","",""
"","null","html-keyboard-response","176","397925","0.0-35.0-0.3","SS1613098940988","","","null","","","","","<p><img src= images/blank.png width =""200"" height = ""200"" style = ""float:right""></p><p><img src=images/blank.png width =""800"" height = ""200""></p>","","","","","","","","","","","",""
"","1082.3850000015227","sequential-stimulus-presentation","177","399815","0.0-35.0-1.3","SS1613098940988","trial","","40","800","1882.3850000015227","images/stimuli/spore_stims/simple_14_A_d.gif","images/stimuli/spore_stims/simple_06_B_c.gif","","","","","9","simple_dissimilar","images/stimuli/spore_stims/simple_06_B_c.gif","middle","","","","",""
"","null","html-keyboard-response","178","400965","0.0-35.0-0.4","SS1613098940988","","","null","","","","","<p><img src= images/blank.png width =""200"" height = ""200"" style = ""float:right""></p><p><img src=images/blank.png width =""800"" height = ""200""></p>","","","","","","","","","","","",""
"","942.1399999991991","sequential-stimulus-presentation","179","402713","0.0-35.0-1.4","SS1613098940988","trial","","40","800","1742.139999999199","images/stimuli/spore_stims/simple_14_A_d.gif","images/stimuli/spore_stims/simple_06_B_c.gif","","","","","9","simple_dissimilar","images/stimuli/spore_stims/simple_06_B_c.gif","middle","","","","",""
"","null","html-keyboard-response","180","403872","0.0-35.0-0.5","SS1613098940988","","","null","","","","","<p><img src= images/blank.png width =""200"" height = ""200"" style = ""float:right""></p><p><img src=images/blank.png width =""800"" height = ""200""></p>","","","","","","","","","","","",""
"","1158.6850000021514","sequential-stimulus-presentation","181","405839","0.0-35.0-1.5","SS1613098940988","trial","","40","800","1958.6850000021514","images/stimuli/spore_stims/simple_14_A_d.gif","images/stimuli/spore_stims/simple_06_B_c.gif","","","","","9","simple_dissimilar","images/stimuli/spore_stims/simple_14_A_d.gif","right","","","","",""
"","null","html-keyboard-response","182","407134","0.0-35.0-0.6","SS1613098940988","","","null","","","","","<p><img src= images/blank.png width =""200"" height = ""200"" style = ""float:right""></p><p><img src=images/blank.png width =""800"" height = ""200""></p>","","","","","","","","","","","",""
"","473.25999999884516","sequential-stimulus-presentation","183","408413","0.0-35.0-1.6","SS1613098940988","trial","","40","800","1273.2599999988452","images/stimuli/spore_stims/simple_14_A_d.gif","images/stimuli/spore_stims/simple_06_B_c.gif","","","","","9","simple_dissimilar","images/stimuli/spore_stims/simple_06_B_c.gif","middle","","","","",""
"","null","html-keyboard-response","184","409227","0.0-35.0-0.7","SS1613098940988","","","null","","","","","<p><img src= images/blank.png width =""200"" height = ""200"" style = ""float:right""></p><p><img src=images/blank.png width =""800"" height = ""200""></p>","","","","","","","","","","","",""
"","6324.1149999958","sequential-stimulus-presentation","185","416357","0.0-35.0-1.7","SS1613098940988","trial","","40","800","7124.1149999958","images/stimuli/spore_stims/simple_14_A_d.gif","images/stimuli/spore_stims/simple_06_B_c.gif","","","","","9","simple_dissimilar","images/stimuli/spore_stims/simple_06_B_c.gif","middle","","","","",""
"","2049.8700000025565","html-keyboard-response","186","418413","0.0-36.0","SS1613098940988","pref_question","","97","","","","","<video width ='960' height = '540' style='padding-top:8%' autoplay muted><source src='images/stimuli/wall_pref.mp4' type='video/mp4'></video>","1","left","25%","9","","","","","","","",""
"","2349.5050000055926","sequential-stimulus-presentation","187","421569","0.0-37.0","SS1613098940988","pref_reveal","","40","800","3149.5050000055926","null","null","","","","","9","","","","novel","","","",""
"","null","html-keyboard-response","188","422531","0.0-38.0-0.0","SS1613098940988","","","null","","","","","<p><img src= images/blank.png width =""200"" height = ""200"" style = ""float:right""></p><p><img src=images/blank.png width =""800"" height = ""200""></p>","","","","","","","","","","","",""
"","984.8550000024261","sequential-stimulus-presentation","189","424323","0.0-38.0-1.0","SS1613098940988","trial","","40","800","1784.855000002426","images/stimuli/spore_stims/complex_13_A_d.gif","images/stimuli/spore_stims/complex_17_B_c.gif","","","","","10","complex_dissimilar","images/stimuli/spore_stims/complex_17_B_c.gif","right","","","","",""
"","null","html-keyboard-response","190","425253","0.0-38.0-0.1","SS1613098940988","","","null","","","","","<p><img src= images/blank.png width =""200"" height = ""200"" style = ""float:right""></p><p><img src=images/blank.png width =""800"" height = ""200""></p>","","","","","","","","","","","",""
"","662.9200000024866","sequential-stimulus-presentation","191","426722","0.0-38.0-1.1","SS1613098940988","trial","","40","800","1462.9200000024866","images/stimuli/spore_stims/complex_13_A_d.gif","images/stimuli/spore_stims/complex_17_B_c.gif","","","","","10","complex_dissimilar","images/stimuli/spore_stims/complex_17_B_c.gif","right","","","","",""
"","null","html-keyboard-response","192","427765","0.0-38.0-0.2","SS1613098940988","","","null","","","","","<p><img src= images/blank.png width =""200"" height = ""200"" style = ""float:right""></p><p><img src=images/blank.png width =""800"" height = ""200""></p>","","","","","","","","","","","",""
"","544.7750000021188","sequential-stimulus-presentation","193","429117","0.0-38.0-1.2","SS1613098940988","trial","","40","800","1344.7750000021188","images/stimuli/spore_stims/complex_13_A_d.gif","images/stimuli/spore_stims/complex_17_B_c.gif","","","","","10","complex_dissimilar","images/stimuli/spore_stims/complex_17_B_c.gif","right","","","","",""
"","null","html-keyboard-response","194","430022","0.0-38.0-0.3","SS1613098940988","","","null","","","","","<p><img src= images/blank.png width =""200"" height = ""200"" style = ""float:right""></p><p><img src=images/blank.png width =""800"" height = ""200""></p>","","","","","","","","","","","",""
"","540.820000009262","sequential-stimulus-presentation","195","431370","0.0-38.0-1.3","SS1613098940988","trial","","40","800","1340.820000009262","images/stimuli/spore_stims/complex_13_A_d.gif","images/stimuli/spore_stims/complex_17_B_c.gif","","","","","10","complex_dissimilar","images/stimuli/spore_stims/complex_17_B_c.gif","right","","","","",""
"","null","html-keyboard-response","196","432378","0.0-38.0-0.4","SS1613098940988","","","null","","","","","<p><img src= images/blank.png width =""200"" height = ""200"" style = ""float:right""></p><p><img src=images/blank.png width =""800"" height = ""200""></p>","","","","","","","","","","","",""
"","474.77499999513384","sequential-stimulus-presentation","197","433659","0.0-38.0-1.4","SS1613098940988","trial","","40","800","1274.7749999951338","images/stimuli/spore_stims/complex_13_A_d.gif","images/stimuli/spore_stims/complex_17_B_c.gif","","","","","10","complex_dissimilar","images/stimuli/spore_stims/complex_17_B_c.gif","right","","","","",""
"","null","html-keyboard-response","198","434931","0.0-38.0-0.5","SS1613098940988","","","null","","","","","<p><img src= images/blank.png width =""200"" height = ""200"" style = ""float:right""></p><p><img src=images/blank.png width =""800"" height = ""200""></p>","","","","","","","","","","","",""
"","1051.7300000065006","sequential-stimulus-presentation","199","436790","0.0-38.0-1.5","SS1613098940988","trial","","40","800","1851.7300000065006","images/stimuli/spore_stims/complex_13_A_d.gif","images/stimuli/spore_stims/complex_17_B_c.gif","","","","","10","complex_dissimilar","images/stimuli/spore_stims/complex_17_B_c.gif","right","","","","",""
"","null","html-keyboard-response","200","437643","0.0-38.0-0.6","SS1613098940988","","","null","","","","","<p><img src= images/blank.png width =""200"" height = ""200"" style = ""float:right""></p><p><img src=images/blank.png width =""800"" height = ""200""></p>","","","","","","","","","","","",""
"","431.6300000064075","sequential-stimulus-presentation","201","438881","0.0-38.0-1.6","SS1613098940988","trial","","40","800","1231.6300000064075","images/stimuli/spore_stims/complex_13_A_d.gif","images/stimuli/spore_stims/complex_17_B_c.gif","","","","","10","complex_dissimilar","images/stimuli/spore_stims/complex_17_B_c.gif","right","","","","",""
"","null","html-keyboard-response","202","439987","0.0-38.0-0.7","SS1613098940988","","","null","","","","","<p><img src= images/blank.png width =""200"" height = ""200"" style = ""float:right""></p><p><img src=images/blank.png width =""800"" height = ""200""></p>","","","","","","","","","","","",""
"","577.1649999951478","sequential-stimulus-presentation","203","441371","0.0-38.0-1.7","SS1613098940988","trial","","40","800","1377.1649999951478","images/stimuli/spore_stims/complex_13_A_d.gif","images/stimuli/spore_stims/complex_17_B_c.gif","","","","","10","complex_dissimilar","images/stimuli/spore_stims/complex_13_A_d.gif","middle","","","","",""
"","1438.0449999880511","html-keyboard-response","204","442815","0.0-39.0","SS1613098940988","pref_question","","97","","","","","<video width ='960' height = '540' style='padding-top:8%' autoplay muted><source src='images/stimuli/wall_pref.mp4' type='video/mp4'></video>","1","left","25%","10","","","","","","","",""
"","1337.0649999997113","sequential-stimulus-presentation","205","444960","0.0-40.0","SS1613098940988","pref_reveal","","40","800","2137.0649999997113","null","null","","","","","10","","","","novel","","","",""
"","null","html-keyboard-response","206","445820","0.0-41.0-0.0","SS1613098940988","","","null","","","","","<p><img src= images/blank.png width =""200"" height = ""200"" style = ""float:right""></p><p><img src=images/blank.png width =""800"" height = ""200""></p>","","","","","","","","","","","",""
"","819.4099999964237","sequential-stimulus-presentation","207","447455","0.0-41.0-1.0","SS1613098940988","trial","","40","800","1619.4099999964237","images/stimuli/spore_stims/complex_18_A_b.gif","images/stimuli/spore_stims/complex_18_B_b.gif","","","","","11","complex_similar","images/stimuli/spore_stims/complex_18_B_b.gif","middle","","","","",""
"","null","html-keyboard-response","208","448566","0.0-41.0-0.1","SS1613098940988","","","null","","","","","<p><img src= images/blank.png width =""200"" height = ""200"" style = ""float:right""></p><p><img src=images/blank.png width =""800"" height = ""200""></p>","","","","","","","","","","","",""
"","830.8450000040466","sequential-stimulus-presentation","209","450205","0.0-41.0-1.1","SS1613098940988","trial","","40","800","1630.8450000040466","images/stimuli/spore_stims/complex_18_A_b.gif","images/stimuli/spore_stims/complex_18_B_b.gif","","","","","11","complex_similar","images/stimuli/spore_stims/complex_18_B_b.gif","middle","","","","",""
"","null","html-keyboard-response","210","451384","0.0-41.0-0.2","SS1613098940988","","","null","","","","","<p><img src= images/blank.png width =""200"" height = ""200"" style = ""float:right""></p><p><img src=images/blank.png width =""800"" height = ""200""></p>","","","","","","","","","","","",""
"","921.5600000025006","sequential-stimulus-presentation","211","453112","0.0-41.0-1.2","SS1613098940988","trial","","40","800","1721.5600000025006","images/stimuli/spore_stims/complex_18_A_b.gif","images/stimuli/spore_stims/complex_18_B_b.gif","","","","","11","complex_similar","images/stimuli/spore_stims/complex_18_A_b.gif","left","","","","",""
"","null","html-keyboard-response","212","454356","0.0-41.0-0.3","SS1613098940988","","","null","","","","","<p><img src= images/blank.png width =""200"" height = ""200"" style = ""float:right""></p><p><img src=images/blank.png width =""800"" height = ""200""></p>","","","","","","","","","","","",""
"","899.6000000042841","sequential-stimulus-presentation","213","456063","0.0-41.0-1.3","SS1613098940988","trial","","40","800","1699.600000004284","images/stimuli/spore_stims/complex_18_A_b.gif","images/stimuli/spore_stims/complex_18_B_b.gif","","","","","11","complex_similar","images/stimuli/spore_stims/complex_18_B_b.gif","middle","","","","",""
"","null","html-keyboard-response","214","457227","0.0-41.0-0.4","SS1613098940988","","","null","","","","","<p><img src= images/blank.png width =""200"" height = ""200"" style = ""float:right""></p><p><img src=images/blank.png width =""800"" height = ""200""></p>","","","","","","","","","","","",""
"","471.27500000351574","sequential-stimulus-presentation","215","458505","0.0-41.0-1.4","SS1613098940988","trial","","40","800","1271.2750000035157","images/stimuli/spore_stims/complex_18_A_b.gif","images/stimuli/spore_stims/complex_18_B_b.gif","","","","","11","complex_similar","images/stimuli/spore_stims/complex_18_B_b.gif","middle","","","","",""
"","null","html-keyboard-response","216","459568","0.0-41.0-0.5","SS1613098940988","","","null","","","","","<p><img src= images/blank.png width =""200"" height = ""200"" style = ""float:right""></p><p><img src=images/blank.png width =""800"" height = ""200""></p>","","","","","","","","","","","",""
"","750.4550000012387","sequential-stimulus-presentation","217","461149","0.0-41.0-1.5","SS1613098940988","trial","","40","800","1550.4550000012387","images/stimuli/spore_stims/complex_18_A_b.gif","images/stimuli/spore_stims/complex_18_B_b.gif","","","","","11","complex_similar","images/stimuli/spore_stims/complex_18_B_b.gif","middle","","","","",""
"","null","html-keyboard-response","218","462250","0.0-41.0-0.6","SS1613098940988","","","null","","","","","<p><img src= images/blank.png width =""200"" height = ""200"" style = ""float:right""></p><p><img src=images/blank.png width =""800"" height = ""200""></p>","","","","","","","","","","","",""
"","1273.0500000034226","sequential-stimulus-presentation","219","464329","0.0-41.0-1.6","SS1613098940988","trial","","40","800","2073.0500000034226","images/stimuli/spore_stims/complex_18_A_b.gif","images/stimuli/spore_stims/complex_18_B_b.gif","","","","","11","complex_similar","images/stimuli/spore_stims/complex_18_B_b.gif","middle","","","","",""
"","null","html-keyboard-response","220","465315","0.0-41.0-0.7","SS1613098940988","","","null","","","","","<p><img src= images/blank.png width =""200"" height = ""200"" style = ""float:right""></p><p><img src=images/blank.png width =""800"" height = ""200""></p>","","","","","","","","","","","",""
"","562.7749999985099","sequential-stimulus-presentation","221","466684","0.0-41.0-1.7","SS1613098940988","trial","","40","800","1362.7749999985099","images/stimuli/spore_stims/complex_18_A_b.gif","images/stimuli/spore_stims/complex_18_B_b.gif","","","","","11","complex_similar","images/stimuli/spore_stims/complex_18_B_b.gif","middle","","","","",""
"","2458.0750000022817","html-keyboard-response","222","469149","0.0-42.0","SS1613098940988","pref_question","","99","","","","","<video width ='960' height = '540' style='padding-top:8%' autoplay muted><source src='images/stimuli/wall_pref.mp4' type='video/mp4'></video>","3","right","66%","11","","","","","","","",""
"","3808.6550000007264","sequential-stimulus-presentation","223","473775","0.0-43.0","SS1613098940988","pref_reveal","","40","800","4608.655000000726","null","null","","","","","11","","","","novel","","","",""
"","null","html-keyboard-response","224","474588","0.0-44.0-0.0","SS1613098940988","","","null","","","","","<p><img src= images/blank.png width =""200"" height = ""200"" style = ""float:right""></p><p><img src=images/blank.png width =""800"" height = ""200""></p>","","","","","","","","","","","",""
"","435.7049999962328","sequential-stimulus-presentation","225","475831","0.0-44.0-1.0","SS1613098940988","trial","","40","800","1235.7049999962328","images/stimuli/spore_stims/simple_12_A_b.gif","images/stimuli/spore_stims/simple_12_B_b.gif","","","","","12","simple_similar","images/stimuli/spore_stims/simple_12_B_b.gif","middle","","","","",""
"","null","html-keyboard-response","226","476650","0.0-44.0-0.1","SS1613098940988","","","null","","","","","<p><img src= images/blank.png width =""200"" height = ""200"" style = ""float:right""></p><p><img src=images/blank.png width =""800"" height = ""200""></p>","","","","","","","","","","","",""
"","1190.535000001546","sequential-stimulus-presentation","227","478647","0.0-44.0-1.1","SS1613098940988","trial","","40","800","1990.535000001546","images/stimuli/spore_stims/simple_12_A_b.gif","images/stimuli/spore_stims/simple_12_B_b.gif","","","","","12","simple_similar","images/stimuli/spore_stims/simple_12_B_b.gif","middle","","","","",""
"","null","html-keyboard-response","228","479564","0.0-44.0-0.2","SS1613098940988","","","null","","","","","<p><img src= images/blank.png width =""200"" height = ""200"" style = ""float:right""></p><p><img src=images/blank.png width =""800"" height = ""200""></p>","","","","","","","","","","","",""
"","766.2549999949988","sequential-stimulus-presentation","229","481136","0.0-44.0-1.2","SS1613098940988","trial","","40","800","1566.2549999949988","images/stimuli/spore_stims/simple_12_A_b.gif","images/stimuli/spore_stims/simple_12_B_b.gif","","","","","12","simple_similar","images/stimuli/spore_stims/simple_12_A_b.gif","right","","","","",""
"","null","html-keyboard-response","230","482341","0.0-44.0-0.3","SS1613098940988","","","null","","","","","<p><img src= images/blank.png width =""200"" height = ""200"" style = ""float:right""></p><p><img src=images/blank.png width =""800"" height = ""200""></p>","","","","","","","","","","","",""
"","787.3250000120606","sequential-stimulus-presentation","231","483935","0.0-44.0-1.3","SS1613098940988","trial","","40","800","1587.3250000120606","images/stimuli/spore_stims/simple_12_A_b.gif","images/stimuli/spore_stims/simple_12_B_b.gif","","","","","12","simple_similar","images/stimuli/spore_stims/simple_12_B_b.gif","middle","","","","",""
"","null","html-keyboard-response","232","484803","0.0-44.0-0.4","SS1613098940988","","","null","","","","","<p><img src= images/blank.png width =""200"" height = ""200"" style = ""float:right""></p><p><img src=images/blank.png width =""800"" height = ""200""></p>","","","","","","","","","","","",""
"","658.8600000104634","sequential-stimulus-presentation","233","486268","0.0-44.0-1.4","SS1613098940988","trial","","40","800","1458.8600000104634","images/stimuli/spore_stims/simple_12_A_b.gif","images/stimuli/spore_stims/simple_12_B_b.gif","","","","","12","simple_similar","images/stimuli/spore_stims/simple_12_B_b.gif","middle","","","","",""
"","null","html-keyboard-response","234","487177","0.0-44.0-0.5","SS1613098940988","","","null","","","","","<p><img src= images/blank.png width =""200"" height = ""200"" style = ""float:right""></p><p><img src=images/blank.png width =""800"" height = ""200""></p>","","","","","","","","","","","",""
"","559.9549999897135","sequential-stimulus-presentation","235","488545","0.0-44.0-1.5","SS1613098940988","trial","","40","800","1359.9549999897135","images/stimuli/spore_stims/simple_12_A_b.gif","images/stimuli/spore_stims/simple_12_B_b.gif","","","","","12","simple_similar","images/stimuli/spore_stims/simple_12_B_b.gif","middle","","","","",""
"","null","html-keyboard-response","236","489391","0.0-44.0-0.6","SS1613098940988","","","null","","","","","<p><img src= images/blank.png width =""200"" height = ""200"" style = ""float:right""></p><p><img src=images/blank.png width =""800"" height = ""200""></p>","","","","","","","","","","","",""
"","440.28500000422355","sequential-stimulus-presentation","237","490638","0.0-44.0-1.6","SS1613098940988","trial","","40","800","1240.2850000042235","images/stimuli/spore_stims/simple_12_A_b.gif","images/stimuli/spore_stims/simple_12_B_b.gif","","","","","12","simple_similar","images/stimuli/spore_stims/simple_12_B_b.gif","middle","","","","",""
"","null","html-keyboard-response","238","491638","0.0-44.0-0.7","SS1613098940988","","","null","","","","","<p><img src= images/blank.png width =""200"" height = ""200"" style = ""float:right""></p><p><img src=images/blank.png width =""800"" height = ""200""></p>","","","","","","","","","","","",""
"","446.0550000076182","sequential-stimulus-presentation","239","492891","0.0-44.0-1.7","SS1613098940988","trial","","40","800","1246.0550000076182","images/stimuli/spore_stims/simple_12_A_b.gif","images/stimuli/spore_stims/simple_12_B_b.gif","","","","","12","simple_similar","images/stimuli/spore_stims/simple_12_B_b.gif","middle","","","","",""
"","1779.225000005681","html-keyboard-response","240","494689","0.0-45.0","SS1613098940988","pref_question","","97","","","","","<video width ='960' height = '540' style='padding-top:8%' autoplay muted><source src='images/stimuli/wall_pref.mp4' type='video/mp4'></video>","1","left","25%","12","","","","","","","",""
"","2234.9950000061654","sequential-stimulus-presentation","241","497731","0.0-46.0","SS1613098940988","pref_reveal","","40","800","3034.9950000061654","null","null","","","","","12","","","","novel","","","",""
"","null","html-keyboard-response","242","498923","0.0-47.0-0.0","SS1613098940988","","","null","","","","","<p><img src= images/blank.png width =""200"" height = ""200"" style = ""float:right""></p><p><img src=images/blank.png width =""800"" height = ""200""></p>","","","","","","","","","","","",""
"","1179.0500000061002","sequential-stimulus-presentation","243","500911","0.0-47.0-1.0","SS1613098940988","trial","","40","800","1979.0500000061002","images/stimuli/spore_stims/simple_04_B_c.gif","images/stimuli/spore_stims/simple_04_A_c.gif","","","","","13","simple_similar","images/stimuli/spore_stims/simple_04_A_c.gif","right","","","","",""
"","null","html-keyboard-response","244","501924","0.0-47.0-0.1","SS1613098940988","","","null","","","","","<p><img src= images/blank.png width =""200"" height = ""200"" style = ""float:right""></p><p><img src=images/blank.png width =""800"" height = ""200""></p>","","","","","","","","","","","",""
"","412.4699999956647","sequential-stimulus-presentation","245","503143","0.0-47.0-1.1","SS1613098940988","trial","","40","800","1212.4699999956647","images/stimuli/spore_stims/simple_04_B_c.gif","images/stimuli/spore_stims/simple_04_A_c.gif","","","","","13","simple_similar","images/stimuli/spore_stims/simple_04_A_c.gif","right","","","","",""
"","null","html-keyboard-response","246","504097","0.0-47.0-0.2","SS1613098940988","","","null","","","","","<p><img src= images/blank.png width =""200"" height = ""200"" style = ""float:right""></p><p><img src=images/blank.png width =""800"" height = ""200""></p>","","","","","","","","","","","",""
"","762.5649999972666","sequential-stimulus-presentation","247","505668","0.0-47.0-1.2","SS1613098940988","trial","","40","800","1562.5649999972666","images/stimuli/spore_stims/simple_04_B_c.gif","images/stimuli/spore_stims/simple_04_A_c.gif","","","","","13","simple_similar","images/stimuli/spore_stims/simple_04_B_c.gif","middle","","","","",""
"","null","html-keyboard-response","248","506956","0.0-47.0-0.3","SS1613098940988","","","null","","","","","<p><img src= images/blank.png width =""200"" height = ""200"" style = ""float:right""></p><p><img src=images/blank.png width =""800"" height = ""200""></p>","","","","","","","","","","","",""
"","502.9199999989942","sequential-stimulus-presentation","249","508266","0.0-47.0-1.3","SS1613098940988","trial","","40","800","1302.9199999989942","images/stimuli/spore_stims/simple_04_B_c.gif","images/stimuli/spore_stims/simple_04_A_c.gif","","","","","13","simple_similar","images/stimuli/spore_stims/simple_04_A_c.gif","right","","","","",""
"","null","html-keyboard-response","250","509213","0.0-47.0-0.4","SS1613098940988","","","null","","","","","<p><img src= images/blank.png width =""200"" height = ""200"" style = ""float:right""></p><p><img src=images/blank.png width =""800"" height = ""200""></p>","","","","","","","","","","","",""
"","424.8599999991711","sequential-stimulus-presentation","251","510448","0.0-47.0-1.4","SS1613098940988","trial","","40","800","1224.8599999991711","images/stimuli/spore_stims/simple_04_B_c.gif","images/stimuli/spore_stims/simple_04_A_c.gif","","","","","13","simple_similar","images/stimuli/spore_stims/simple_04_A_c.gif","right","","","","",""
"","null","html-keyboard-response","252","511275","0.0-47.0-0.5","SS1613098940988","","","null","","","","","<p><img src= images/blank.png width =""200"" height = ""200"" style = ""float:right""></p><p><img src=images/blank.png width =""800"" height = ""200""></p>","","","","","","","","","","","",""
"","394.2499999975553","sequential-stimulus-presentation","253","512476","0.0-47.0-1.5","SS1613098940988","trial","","40","800","1194.2499999975553","images/stimuli/spore_stims/simple_04_B_c.gif","images/stimuli/spore_stims/simple_04_A_c.gif","","","","","13","simple_similar","images/stimuli/spore_stims/simple_04_A_c.gif","right","","","","",""
"","null","html-keyboard-response","254","513435","0.0-47.0-0.6","SS1613098940988","","","null","","","","","<p><img src= images/blank.png width =""200"" height = ""200"" style = ""float:right""></p><p><img src=images/blank.png width =""800"" height = ""200""></p>","","","","","","","","","","","",""
"","464.60999999544583","sequential-stimulus-presentation","255","514707","0.0-47.0-1.6","SS1613098940988","trial","","40","800","1264.6099999954458","images/stimuli/spore_stims/simple_04_B_c.gif","images/stimuli/spore_stims/simple_04_A_c.gif","","","","","13","simple_similar","images/stimuli/spore_stims/simple_04_A_c.gif","right","","","","",""
"","null","html-keyboard-response","256","515960","0.0-47.0-0.7","SS1613098940988","","","null","","","","","<p><img src= images/blank.png width =""200"" height = ""200"" style = ""float:right""></p><p><img src=images/blank.png width =""800"" height = ""200""></p>","","","","","","","","","","","",""
"","443.5949999897275","sequential-stimulus-presentation","257","517211","0.0-47.0-1.7","SS1613098940988","trial","","40","800","1243.5949999897275","images/stimuli/spore_stims/simple_04_B_c.gif","images/stimuli/spore_stims/simple_04_A_c.gif","","","","","13","simple_similar","images/stimuli/spore_stims/simple_04_A_c.gif","right","","","","",""
"","1405.4600000090431","html-keyboard-response","258","518622","0.0-48.0","SS1613098940988","pref_question","","97","","","","","<video width ='960' height = '540' style='padding-top:8%' autoplay muted><source src='images/stimuli/wall_pref.mp4' type='video/mp4'></video>","1","left","25%","13","","","","","","","",""
"","1455.9399999998277","sequential-stimulus-presentation","259","520885","0.0-49.0","SS1613098940988","pref_reveal","","40","800","2255.9399999998277","null","null","","","","","13","","","","novel","","","",""
"","null","html-keyboard-response","260","521734","0.0-50.0-0.0","SS1613098940988","","","null","","","","","<p><img src= images/blank.png width =""200"" height = ""200"" style = ""float:right""></p><p><img src=images/blank.png width =""800"" height = ""200""></p>","","","","","","","","","","","",""
"","1897.2599999979138","sequential-stimulus-presentation","261","524451","0.0-50.0-1.0","SS1613098940988","trial","","40","800","2697.259999997914","images/stimuli/spore_stims/complex_17_B_a.gif","images/stimuli/spore_stims/complex_17_A_a.gif","","","","","14","complex_similar","images/stimuli/spore_stims/complex_17_A_a.gif","right","","","","",""
"","null","html-keyboard-response","262","525284","0.0-50.0-0.1","SS1613098940988","","","null","","","","","<p><img src= images/blank.png width =""200"" height = ""200"" style = ""float:right""></p><p><img src=images/blank.png width =""800"" height = ""200""></p>","","","","","","","","","","","",""
"","405.1949999993667","sequential-stimulus-presentation","263","526497","0.0-50.0-1.1","SS1613098940988","trial","","40","800","1205.1949999993667","images/stimuli/spore_stims/complex_17_B_a.gif","images/stimuli/spore_stims/complex_17_A_a.gif","","","","","14","complex_similar","images/stimuli/spore_stims/complex_17_A_a.gif","right","","","","",""
"","null","html-keyboard-response","264","527740","0.0-50.0-0.2","SS1613098940988","","","null","","","","","<p><img src= images/blank.png width =""200"" height = ""200"" style = ""float:right""></p><p><img src=images/blank.png width =""800"" height = ""200""></p>","","","","","","","","","","","",""
"","1093.059999999241","sequential-stimulus-presentation","265","529640","0.0-50.0-1.2","SS1613098940988","trial","","40","800","1893.059999999241","images/stimuli/spore_stims/complex_17_B_a.gif","images/stimuli/spore_stims/complex_17_A_a.gif","","","","","14","complex_similar","images/stimuli/spore_stims/complex_17_A_a.gif","right","","","","",""
"","null","html-keyboard-response","266","530603","0.0-50.0-0.3","SS1613098940988","","","null","","","","","<p><img src= images/blank.png width =""200"" height = ""200"" style = ""float:right""></p><p><img src=images/blank.png width =""800"" height = ""200""></p>","","","","","","","","","","","",""
"","789.9500000057742","sequential-stimulus-presentation","267","532201","0.0-50.0-1.3","SS1613098940988","trial","","40","800","1589.9500000057742","images/stimuli/spore_stims/complex_17_B_a.gif","images/stimuli/spore_stims/complex_17_A_a.gif","","","","","14","complex_similar","images/stimuli/spore_stims/complex_17_A_a.gif","right","","","","",""
"","null","html-keyboard-response","268","533121","0.0-50.0-0.4","SS1613098940988","","","null","","","","","<p><img src= images/blank.png width =""200"" height = ""200"" style = ""float:right""></p><p><img src=images/blank.png width =""800"" height = ""200""></p>","","","","","","","","","","","",""
"","462.7500000060536","sequential-stimulus-presentation","269","534392","0.0-50.0-1.4","SS1613098940988","trial","","40","800","1262.7500000060536","images/stimuli/spore_stims/complex_17_B_a.gif","images/stimuli/spore_stims/complex_17_A_a.gif","","","","","14","complex_similar","images/stimuli/spore_stims/complex_17_A_a.gif","right","","","","",""
"","null","html-keyboard-response","270","535623","0.0-50.0-0.5","SS1613098940988","","","null","","","","","<p><img src= images/blank.png width =""200"" height = ""200"" style = ""float:right""></p><p><img src=images/blank.png width =""800"" height = ""200""></p>","","","","","","","","","","","",""
"","580.229999992298","sequential-stimulus-presentation","271","537010","0.0-50.0-1.5","SS1613098940988","trial","","40","800","1380.229999992298","images/stimuli/spore_stims/complex_17_B_a.gif","images/stimuli/spore_stims/complex_17_A_a.gif","","","","","14","complex_similar","images/stimuli/spore_stims/complex_17_A_a.gif","right","","","","",""
"","null","html-keyboard-response","272","538063","0.0-50.0-0.6","SS1613098940988","","","null","","","","","<p><img src= images/blank.png width =""200"" height = ""200"" style = ""float:right""></p><p><img src=images/blank.png width =""800"" height = ""200""></p>","","","","","","","","","","","",""
"","536.6549999889685","sequential-stimulus-presentation","273","539409","0.0-50.0-1.6","SS1613098940988","trial","","40","800","1336.6549999889685","images/stimuli/spore_stims/complex_17_B_a.gif","images/stimuli/spore_stims/complex_17_A_a.gif","","","","","14","complex_similar","images/stimuli/spore_stims/complex_17_B_a.gif","left","","","","",""
"","null","html-keyboard-response","274","540390","0.0-50.0-0.7","SS1613098940988","","","null","","","","","<p><img src= images/blank.png width =""200"" height = ""200"" style = ""float:right""></p><p><img src=images/blank.png width =""800"" height = ""200""></p>","","","","","","","","","","","",""
"","456.2350000051083","sequential-stimulus-presentation","275","541654","0.0-50.0-1.7","SS1613098940988","trial","","40","800","1256.2350000051083","images/stimuli/spore_stims/complex_17_B_a.gif","images/stimuli/spore_stims/complex_17_A_a.gif","","","","","14","complex_similar","images/stimuli/spore_stims/complex_17_A_a.gif","right","","","","",""
"","1453.4399999974994","html-keyboard-response","276","543113","0.0-51.0","SS1613098940988","pref_question","","98","","","","","<video width ='960' height = '540' style='padding-top:8%' autoplay muted><source src='images/stimuli/wall_pref.mp4' type='video/mp4'></video>","2","middle","45%","14","","","","","","","",""
"","4547.804999994696","sequential-stimulus-presentation","277","548473","0.0-52.0","SS1613098940988","pref_reveal","","40","800","5347.804999994696","null","null","","","","","14","","","","novel","","","",""
"","null","html-keyboard-response","278","549520","0.0-53.0-0.0","SS1613098940988","","","null","","","","","<p><img src= images/blank.png width =""200"" height = ""200"" style = ""float:right""></p><p><img src=images/blank.png width =""800"" height = ""200""></p>","","","","","","","","","","","",""
"","839.045000000624","sequential-stimulus-presentation","279","551168","0.0-53.0-1.0","SS1613098940988","trial","","40","800","1639.045000000624","images/stimuli/spore_stims/simple_04_B_b.gif","images/stimuli/spore_stims/simple_02_A_c.gif","","","","","15","simple_dissimilar","images/stimuli/spore_stims/simple_02_A_c.gif","middle","","","","",""
"","null","html-keyboard-response","280","552345","0.0-53.0-0.1","SS1613098940988","","","null","","","","","<p><img src= images/blank.png width =""200"" height = ""200"" style = ""float:right""></p><p><img src=images/blank.png width =""800"" height = ""200""></p>","","","","","","","","","","","",""
"","1202.2200000064913","sequential-stimulus-presentation","281","554371","0.0-53.0-1.1","SS1613098940988","trial","","40","800","2002.2200000064913","images/stimuli/spore_stims/simple_04_B_b.gif","images/stimuli/spore_stims/simple_02_A_c.gif","","","","","15","simple_dissimilar","images/stimuli/spore_stims/simple_02_A_c.gif","middle","","","","",""
"","null","html-keyboard-response","282","555267","0.0-53.0-0.2","SS1613098940988","","","null","","","","","<p><img src= images/blank.png width =""200"" height = ""200"" style = ""float:right""></p><p><img src=images/blank.png width =""800"" height = ""200""></p>","","","","","","","","","","","",""
"","567.8550000011455","sequential-stimulus-presentation","283","556642","0.0-53.0-1.2","SS1613098940988","trial","","40","800","1367.8550000011455","images/stimuli/spore_stims/simple_04_B_b.gif","images/stimuli/spore_stims/simple_02_A_c.gif","","","","","15","simple_dissimilar","images/stimuli/spore_stims/simple_02_A_c.gif","middle","","","","",""
"","null","html-keyboard-response","284","557489","0.0-53.0-0.3","SS1613098940988","","","null","","","","","<p><img src= images/blank.png width =""200"" height = ""200"" style = ""float:right""></p><p><img src=images/blank.png width =""800"" height = ""200""></p>","","","","","","","","","","","",""
"","605.1750000042375","sequential-stimulus-presentation","285","558902","0.0-53.0-1.3","SS1613098940988","trial","","40","800","1405.1750000042375","images/stimuli/spore_stims/simple_04_B_b.gif","images/stimuli/spore_stims/simple_02_A_c.gif","","","","","15","simple_dissimilar","images/stimuli/spore_stims/simple_02_A_c.gif","middle","","","","",""
"","null","html-keyboard-response","286","560131","0.0-53.0-0.4","SS1613098940988","","","null","","","","","<p><img src= images/blank.png width =""200"" height = ""200"" style = ""float:right""></p><p><img src=images/blank.png width =""800"" height = ""200""></p>","","","","","","","","","","","",""
"","538.0399999994552","sequential-stimulus-presentation","287","561476","0.0-53.0-1.4","SS1613098940988","trial","","40","800","1338.0399999994552","images/stimuli/spore_stims/simple_04_B_b.gif","images/stimuli/spore_stims/simple_02_A_c.gif","","","","","15","simple_dissimilar","images/stimuli/spore_stims/simple_04_B_b.gif","right","","","","",""
"","null","html-keyboard-response","288","562468","0.0-53.0-0.5","SS1613098940988","","","null","","","","","<p><img src= images/blank.png width =""200"" height = ""200"" style = ""float:right""></p><p><img src=images/blank.png width =""800"" height = ""200""></p>","","","","","","","","","","","",""
"","540.2449999965029","sequential-stimulus-presentation","289","563828","0.0-53.0-1.5","SS1613098940988","trial","","40","800","1340.2449999965029","images/stimuli/spore_stims/simple_04_B_b.gif","images/stimuli/spore_stims/simple_02_A_c.gif","","","","","15","simple_dissimilar","images/stimuli/spore_stims/simple_02_A_c.gif","middle","","","","",""
"","null","html-keyboard-response","290","565035","0.0-53.0-0.6","SS1613098940988","","","null","","","","","<p><img src= images/blank.png width =""200"" height = ""200"" style = ""float:right""></p><p><img src=images/blank.png width =""800"" height = ""200""></p>","","","","","","","","","","","",""
"","1736.1550000059651","sequential-stimulus-presentation","291","567578","0.0-53.0-1.6","SS1613098940988","trial","","40","800","2536.155000005965","images/stimuli/spore_stims/simple_04_B_b.gif","images/stimuli/spore_stims/simple_02_A_c.gif","","","","","15","simple_dissimilar","images/stimuli/spore_stims/simple_02_A_c.gif","middle","","","","",""
"","null","html-keyboard-response","292","568693","0.0-53.0-0.7","SS1613098940988","","","null","","","","","<p><img src= images/blank.png width =""200"" height = ""200"" style = ""float:right""></p><p><img src=images/blank.png width =""800"" height = ""200""></p>","","","","","","","","","","","",""
"","518.8349999953061","sequential-stimulus-presentation","293","570019","0.0-53.0-1.7","SS1613098940988","trial","","40","800","1318.8349999953061","images/stimuli/spore_stims/simple_04_B_b.gif","images/stimuli/spore_stims/simple_02_A_c.gif","","","","","15","simple_dissimilar","images/stimuli/spore_stims/simple_02_A_c.gif","middle","","","","",""
"","1451.9250000012107","html-keyboard-response","294","571477","0.0-54.0","SS1613098940988","pref_question","","97","","","","","<video width ='960' height = '540' style='padding-top:8%' autoplay muted><source src='images/stimuli/wall_pref.mp4' type='video/mp4'></video>","1","left","25%","15","","","","","","","",""
"","2181.5300000016578","sequential-stimulus-presentation","295","574477","0.0-55.0","SS1613098940988","pref_reveal","","40","800","2981.5300000016578","null","null","","","","","15","","","","novel","","","",""
"","null","html-keyboard-response","296","575567","0.0-56.0-0.0","SS1613098940988","","","null","","","","","<p><img src= images/blank.png width =""200"" height = ""200"" style = ""float:right""></p><p><img src=images/blank.png width =""800"" height = ""200""></p>","","","","","","","","","","","",""
"","498.26500000199303","sequential-stimulus-presentation","297","576873","0.0-56.0-1.0","SS1613098940988","trial","","40","800","1298.265000001993","images/stimuli/spore_stims/complex_19_B_b.gif","images/stimuli/spore_stims/complex_19_A_b.gif","","","","","16","complex_similar","images/stimuli/spore_stims/complex_19_A_b.gif","right","","","","",""
"","null","html-keyboard-response","298","577878","0.0-56.0-0.1","SS1613098940988","","","null","","","","","<p><img src= images/blank.png width =""200"" height = ""200"" style = ""float:right""></p><p><img src=images/blank.png width =""800"" height = ""200""></p>","","","","","","","","","","","",""
"","386.6600000037579","sequential-stimulus-presentation","299","579073","0.0-56.0-1.1","SS1613098940988","trial","","40","800","1186.660000003758","images/stimuli/spore_stims/complex_19_B_b.gif","images/stimuli/spore_stims/complex_19_A_b.gif","","","","","16","complex_similar","images/stimuli/spore_stims/complex_19_A_b.gif","right","","","","",""
"","null","html-keyboard-response","300","580341","0.0-56.0-0.2","SS1613098940988","","","null","","","","","<p><img src= images/blank.png width =""200"" height = ""200"" style = ""float:right""></p><p><img src=images/blank.png width =""800"" height = ""200""></p>","","","","","","","","","","","",""
"","345.77499999431893","sequential-stimulus-presentation","301","581496","0.0-56.0-1.2","SS1613098940988","trial","","40","800","1145.774999994319","images/stimuli/spore_stims/complex_19_B_b.gif","images/stimuli/spore_stims/complex_19_A_b.gif","","","","","16","complex_similar","images/stimuli/spore_stims/complex_19_A_b.gif","right","","","","",""
"","null","html-keyboard-response","302","582459","0.0-56.0-0.3","SS1613098940988","","","null","","","","","<p><img src= images/blank.png width =""200"" height = ""200"" style = ""float:right""></p><p><img src=images/blank.png width =""800"" height = ""200""></p>","","","","","","","","","","","",""
"","295.8349999971688","sequential-stimulus-presentation","303","583566","0.0-56.0-1.3","SS1613098940988","trial","","40","800","1095.8349999971688","images/stimuli/spore_stims/complex_19_B_b.gif","images/stimuli/spore_stims/complex_19_A_b.gif","","","","","16","complex_similar","images/stimuli/spore_stims/complex_19_A_b.gif","right","","","","",""
"","null","html-keyboard-response","304","584612","0.0-56.0-0.4","SS1613098940988","","","null","","","","","<p><img src= images/blank.png width =""200"" height = ""200"" style = ""float:right""></p><p><img src=images/blank.png width =""800"" height = ""200""></p>","","","","","","","","","","","",""
"","221.05999999621417","sequential-stimulus-presentation","305","585641","0.0-56.0-1.4","SS1613098940988","trial","","40","800","1021.0599999962142","images/stimuli/spore_stims/complex_19_B_b.gif","images/stimuli/spore_stims/complex_19_A_b.gif","","","","","16","complex_similar","images/stimuli/spore_stims/complex_19_A_b.gif","right","","","","",""
"","null","html-keyboard-response","306","586446","0.0-56.0-0.5","SS1613098940988","","","null","","","","","<p><img src= images/blank.png width =""200"" height = ""200"" style = ""float:right""></p><p><img src=images/blank.png width =""800"" height = ""200""></p>","","","","","","","","","","","",""
"","451.5099999989616","sequential-stimulus-presentation","307","587704","0.0-56.0-1.5","SS1613098940988","trial","","40","800","1251.5099999989616","images/stimuli/spore_stims/complex_19_B_b.gif","images/stimuli/spore_stims/complex_19_A_b.gif","","","","","16","complex_similar","images/stimuli/spore_stims/complex_19_A_b.gif","right","","","","",""
"","null","html-keyboard-response","308","588582","0.0-56.0-0.6","SS1613098940988","","","null","","","","","<p><img src= images/blank.png width =""200"" height = ""200"" style = ""float:right""></p><p><img src=images/blank.png width =""800"" height = ""200""></p>","","","","","","","","","","","",""
"","266.315000000759","sequential-stimulus-presentation","309","589656","0.0-56.0-1.6","SS1613098940988","trial","","40","800","1066.315000000759","images/stimuli/spore_stims/complex_19_B_b.gif","images/stimuli/spore_stims/complex_19_A_b.gif","","","","","16","complex_similar","images/stimuli/spore_stims/complex_19_A_b.gif","right","","","","",""
"","null","html-keyboard-response","310","590800","0.0-56.0-0.7","SS1613098940988","","","null","","","","","<p><img src= images/blank.png width =""200"" height = ""200"" style = ""float:right""></p><p><img src=images/blank.png width =""800"" height = ""200""></p>","","","","","","","","","","","",""
"","493.52999999246094","sequential-stimulus-presentation","311","592101","0.0-56.0-1.7","SS1613098940988","trial","","40","800","1293.529999992461","images/stimuli/spore_stims/complex_19_B_b.gif","images/stimuli/spore_stims/complex_19_A_b.gif","","","","","16","complex_similar","images/stimuli/spore_stims/complex_19_B_b.gif","middle","","","","",""
"","1650.8350000076462","html-keyboard-response","312","593758","0.0-57.0","SS1613098940988","pref_question","","97","","","","","<video width ='960' height = '540' style='padding-top:8%' autoplay muted><source src='images/stimuli/wall_pref.mp4' type='video/mp4'></video>","1","left","25%","16","","","","","","","",""
