"view_history","rt","trial_type","trial_index","time_elapsed","internal_node_id","subject","stimulus_type","trial_stimulus","key_press","minimum_viewing_duration","trial_looking_time","block_deviant","block_background","stimulus","wall_pref","location","location_percent","block_number","block_type","stimulus_displayed","position_displayed","stim_type_selected","responses","question_order","stimulus_left","stimulus_right"
"[{""page_index"":0,""viewing_time"":8911.720000207424}]","8913.87000004761","instructions","0","8926","0.0-0.0","SS1613138570662","","","","","","","","","","","","","","","","","","","",""
"[{""page_index"":0,""viewing_time"":10146.514999913052},{""page_index"":1,""viewing_time"":20356.935000047088}]","30504.38499986194","instructions","1","41461","0.0-1.0","SS1613138570662","instructions","","","","","","","","","","","","","","","","","","",""
"","4109.644999960437","sequential-stimulus-presentation","2","46414","0.0-2.0","SS1613138570662","","","40","800","4909.644999960437","null","null","","","","","","","","","","","","",""
"","860.9900001902133","sequential-stimulus-presentation","3","48182","0.0-3.0","SS1613138570662","","","40","800","1660.9900001902133","null","null","","","","","","","","","","","","",""
"[{""page_index"":0,""viewing_time"":3724.849999882281}]","3726.0950000490993","instructions","4","51918","0.0-4.0","SS1613138570662","instructions","","","","","","","","","","","","","","","","","","",""
"","4552.954999962822","html-keyboard-response","5","56487","0.0-5.0","SS1613138570662","instructions","","49","","","","","<video width ='960' height = '540' autoplay muted><source src='images/stimuli/wall_pref.mp4' type='video/mp4'></video>","1","left","25%","","","","","","","","",""
"","867.0200000051409","sequential-stimulus-presentation","6","58202","0.0-6.0","SS1613138570662","pref_reveal","","40","800","1667.020000005141","null","null","","","","","","","","","","","","",""
"[{""page_index"":0,""viewing_time"":2494.7649999521673},{""page_index"":1,""viewing_time"":1279.975000070408},{""page_index"":2,""viewing_time"":1656.7049999721348},{""page_index"":3,""viewing_time"":34597.75499999523}]","40030.414999928325","instructions","7","98236","0.0-7.0","SS1613138570662","instructions","","","","","","","","","","","","","","","","","","",""
"","null","html-keyboard-response","8","99234","0.0-8.0-0.0","SS1613138570662","","","null","","","","","<p><img src= images/blank.png width =""200"" height = ""200"" style = ""float:right""></p><p><img src=images/blank.png width =""800"" height = ""200""></p>","","","","","","","","","","","",""
"","845.1849999837577","sequential-stimulus-presentation","9","100926","0.0-8.0-1.0","SS1613138570662","trial","","40","800","1645.1849999837577","images/stimuli/spore_stims/complex_15_B_d.gif","images/stimuli/spore_stims/complex_03_A_a.gif","","","","","0","complex_dissimilar","images/stimuli/spore_stims/complex_03_A_a.gif","left","","","","",""
"","null","html-keyboard-response","10","101940","0.0-8.0-0.1","SS1613138570662","","","null","","","","","<p><img src= images/blank.png width =""200"" height = ""200"" style = ""float:right""></p><p><img src=images/blank.png width =""800"" height = ""200""></p>","","","","","","","","","","","",""
"","368.57000016607344","sequential-stimulus-presentation","11","103142","0.0-8.0-1.1","SS1613138570662","trial","","40","800","1168.5700001660734","images/stimuli/spore_stims/complex_15_B_d.gif","images/stimuli/spore_stims/complex_03_A_a.gif","","","","","0","complex_dissimilar","images/stimuli/spore_stims/complex_03_A_a.gif","left","","","","",""
"","null","html-keyboard-response","12","104109","0.0-8.0-0.2","SS1613138570662","","","null","","","","","<p><img src= images/blank.png width =""200"" height = ""200"" style = ""float:right""></p><p><img src=images/blank.png width =""800"" height = ""200""></p>","","","","","","","","","","","",""
"","148.8700001500547","sequential-stimulus-presentation","13","105082","0.0-8.0-1.2","SS1613138570662","trial","","40","800","948.8700001500547","images/stimuli/spore_stims/complex_15_B_d.gif","images/stimuli/spore_stims/complex_03_A_a.gif","","","","","0","complex_dissimilar","images/stimuli/spore_stims/complex_03_A_a.gif","left","","","","",""
"","null","html-keyboard-response","14","105975","0.0-8.0-0.3","SS1613138570662","","","null","","","","","<p><img src= images/blank.png width =""200"" height = ""200"" style = ""float:right""></p><p><img src=images/blank.png width =""800"" height = ""200""></p>","","","","","","","","","","","",""
"","659.0599999763072","sequential-stimulus-presentation","15","107450","0.0-8.0-1.3","SS1613138570662","trial","","40","800","1459.0599999763072","images/stimuli/spore_stims/complex_15_B_d.gif","images/stimuli/spore_stims/complex_03_A_a.gif","","","","","0","complex_dissimilar","images/stimuli/spore_stims/complex_15_B_d.gif","middle","","","","",""
"","null","html-keyboard-response","16","108543","0.0-8.0-0.4","SS1613138570662","","","null","","","","","<p><img src= images/blank.png width =""200"" height = ""200"" style = ""float:right""></p><p><img src=images/blank.png width =""800"" height = ""200""></p>","","","","","","","","","","","",""
"","385.14499994926155","sequential-stimulus-presentation","17","109845","0.0-8.0-1.4","SS1613138570662","trial","","40","800","1185.1449999492615","images/stimuli/spore_stims/complex_15_B_d.gif","images/stimuli/spore_stims/complex_03_A_a.gif","","","","","0","complex_dissimilar","images/stimuli/spore_stims/complex_03_A_a.gif","left","","","","",""
"","null","html-keyboard-response","18","110863","0.0-8.0-0.5","SS1613138570662","","","null","","","","","<p><img src= images/blank.png width =""200"" height = ""200"" style = ""float:right""></p><p><img src=images/blank.png width =""800"" height = ""200""></p>","","","","","","","","","","","",""
"","125.96000009216368","sequential-stimulus-presentation","19","111807","0.0-8.0-1.5","SS1613138570662","trial","","40","800","925.9600000921637","images/stimuli/spore_stims/complex_15_B_d.gif","images/stimuli/spore_stims/complex_03_A_a.gif","","","","","0","complex_dissimilar","images/stimuli/spore_stims/complex_03_A_a.gif","left","","","","",""
"","null","html-keyboard-response","20","112661","0.0-8.0-0.6","SS1613138570662","","","null","","","","","<p><img src= images/blank.png width =""200"" height = ""200"" style = ""float:right""></p><p><img src=images/blank.png width =""800"" height = ""200""></p>","","","","","","","","","","","",""
"","559.0699999593198","sequential-stimulus-presentation","21","114038","0.0-8.0-1.6","SS1613138570662","trial","","40","800","1359.0699999593198","images/stimuli/spore_stims/complex_15_B_d.gif","images/stimuli/spore_stims/complex_03_A_a.gif","","","","","0","complex_dissimilar","images/stimuli/spore_stims/complex_03_A_a.gif","left","","","","",""
"","null","html-keyboard-response","22","115320","0.0-8.0-0.7","SS1613138570662","","","null","","","","","<p><img src= images/blank.png width =""200"" height = ""200"" style = ""float:right""></p><p><img src=images/blank.png width =""800"" height = ""200""></p>","","","","","","","","","","","",""
"","154.94500007480383","sequential-stimulus-presentation","23","116304","0.0-8.0-1.7","SS1613138570662","trial","","40","800","954.9450000748038","images/stimuli/spore_stims/complex_15_B_d.gif","images/stimuli/spore_stims/complex_03_A_a.gif","","","","","0","complex_dissimilar","images/stimuli/spore_stims/complex_03_A_a.gif","left","","","","",""
"","1966.4050000719726","html-keyboard-response","24","118395","0.0-9.0","SS1613138570662","pref_question","","49","","","","","<video width ='960' height = '540' style='padding-top:8%' autoplay muted><source src='images/stimuli/wall_pref.mp4' type='video/mp4'></video>","1","left","25%","0","","","","","","","",""
"","660.2950000669807","sequential-stimulus-presentation","25","119878","0.0-10.0","SS1613138570662","pref_reveal","","40","800","1460.2950000669807","null","null","","","","","0","","","","background","","","",""
"","null","html-keyboard-response","26","120848","0.0-11.0-0.0","SS1613138570662","","","null","","","","","<p><img src= images/blank.png width =""200"" height = ""200"" style = ""float:right""></p><p><img src=images/blank.png width =""800"" height = ""200""></p>","","","","","","","","","","","",""
"","477.74500004015863","sequential-stimulus-presentation","27","122210","0.0-11.0-1.0","SS1613138570662","trial","","40","800","1277.7450000401586","images/stimuli/spore_stims/complex_01_B_a.gif","images/stimuli/spore_stims/complex_03_B_a.gif","","","","","1","complex_dissimilar","images/stimuli/spore_stims/complex_03_B_a.gif","middle","","","","",""
"","null","html-keyboard-response","28","123451","0.0-11.0-0.1","SS1613138570662","","","null","","","","","<p><img src= images/blank.png width =""200"" height = ""200"" style = ""float:right""></p><p><img src=images/blank.png width =""800"" height = ""200""></p>","","","","","","","","","","","",""
"","305.1050000358373","sequential-stimulus-presentation","29","124597","0.0-11.0-1.1","SS1613138570662","trial","","40","800","1105.1050000358373","images/stimuli/spore_stims/complex_01_B_a.gif","images/stimuli/spore_stims/complex_03_B_a.gif","","","","","1","complex_dissimilar","images/stimuli/spore_stims/complex_03_B_a.gif","middle","","","","",""
"","null","html-keyboard-response","30","125616","0.0-11.0-0.2","SS1613138570662","","","null","","","","","<p><img src= images/blank.png width =""200"" height = ""200"" style = ""float:right""></p><p><img src=images/blank.png width =""800"" height = ""200""></p>","","","","","","","","","","","",""
"","718.8699999824166","sequential-stimulus-presentation","31","127213","0.0-11.0-1.2","SS1613138570662","trial","","40","800","1518.8699999824166","images/stimuli/spore_stims/complex_01_B_a.gif","images/stimuli/spore_stims/complex_03_B_a.gif","","","","","1","complex_dissimilar","images/stimuli/spore_stims/complex_03_B_a.gif","middle","","","","",""
"","null","html-keyboard-response","32","128046","0.0-11.0-0.3","SS1613138570662","","","null","","","","","<p><img src= images/blank.png width =""200"" height = ""200"" style = ""float:right""></p><p><img src=images/blank.png width =""800"" height = ""200""></p>","","","","","","","","","","","",""
"","1588.1699998863041","sequential-stimulus-presentation","33","130470","0.0-11.0-1.3","SS1613138570662","trial","","40","800","2388.169999886304","images/stimuli/spore_stims/complex_01_B_a.gif","images/stimuli/spore_stims/complex_03_B_a.gif","","","","","1","complex_dissimilar","images/stimuli/spore_stims/complex_01_B_a.gif","left","","","","",""
"","null","html-keyboard-response","34","131680","0.0-11.0-0.4","SS1613138570662","","","null","","","","","<p><img src= images/blank.png width =""200"" height = ""200"" style = ""float:right""></p><p><img src=images/blank.png width =""800"" height = ""200""></p>","","","","","","","","","","","",""
"","1740.5400001443923","sequential-stimulus-presentation","35","134529","0.0-11.0-1.4","SS1613138570662","trial","","40","800","2540.5400001443923","images/stimuli/spore_stims/complex_01_B_a.gif","images/stimuli/spore_stims/complex_03_B_a.gif","","","","","1","complex_dissimilar","images/stimuli/spore_stims/complex_03_B_a.gif","middle","","","","",""
"","null","html-keyboard-response","36","135803","0.0-11.0-0.5","SS1613138570662","","","null","","","","","<p><img src= images/blank.png width =""200"" height = ""200"" style = ""float:right""></p><p><img src=images/blank.png width =""800"" height = ""200""></p>","","","","","","","","","","","",""
"","705.3949998226017","sequential-stimulus-presentation","37","137335","0.0-11.0-1.5","SS1613138570662","trial","","40","800","1505.3949998226017","images/stimuli/spore_stims/complex_01_B_a.gif","images/stimuli/spore_stims/complex_03_B_a.gif","","","","","1","complex_dissimilar","images/stimuli/spore_stims/complex_03_B_a.gif","middle","","","","",""
"","null","html-keyboard-response","38","138346","0.0-11.0-0.6","SS1613138570662","","","null","","","","","<p><img src= images/blank.png width =""200"" height = ""200"" style = ""float:right""></p><p><img src=images/blank.png width =""800"" height = ""200""></p>","","","","","","","","","","","",""
"","731.290000025183","sequential-stimulus-presentation","39","139968","0.0-11.0-1.6","SS1613138570662","trial","","40","800","1531.290000025183","images/stimuli/spore_stims/complex_01_B_a.gif","images/stimuli/spore_stims/complex_03_B_a.gif","","","","","1","complex_dissimilar","images/stimuli/spore_stims/complex_03_B_a.gif","middle","","","","",""
"","null","html-keyboard-response","40","141228","0.0-11.0-0.7","SS1613138570662","","","null","","","","","<p><img src= images/blank.png width =""200"" height = ""200"" style = ""float:right""></p><p><img src=images/blank.png width =""800"" height = ""200""></p>","","","","","","","","","","","",""
"","396.6800000052899","sequential-stimulus-presentation","41","142607","0.0-11.0-1.7","SS1613138570662","trial","","40","800","1196.68000000529","images/stimuli/spore_stims/complex_01_B_a.gif","images/stimuli/spore_stims/complex_03_B_a.gif","","","","","1","complex_dissimilar","images/stimuli/spore_stims/complex_03_B_a.gif","middle","","","","",""
"","2940.140000078827","html-keyboard-response","42","145556","0.0-12.0","SS1613138570662","pref_question","","51","","","","","<video width ='960' height = '540' style='padding-top:8%' autoplay muted><source src='images/stimuli/wall_pref.mp4' type='video/mp4'></video>","3","right","66%","1","","","","","","","",""
"","258.6850000079721","sequential-stimulus-presentation","43","146632","0.0-13.0","SS1613138570662","pref_reveal","","40","800","1058.6850000079721","null","null","","","","","1","","","","novel","","","",""
"","null","html-keyboard-response","44","147656","0.0-14.0-0.0","SS1613138570662","","","null","","","","","<p><img src= images/blank.png width =""200"" height = ""200"" style = ""float:right""></p><p><img src=images/blank.png width =""800"" height = ""200""></p>","","","","","","","","","","","",""
"","169.7050000075251","sequential-stimulus-presentation","45","148697","0.0-14.0-1.0","SS1613138570662","trial","","40","800","969.7050000075251","images/stimuli/spore_stims/simple_16_B_b.gif","images/stimuli/spore_stims/simple_08_B_c.gif","","","","","2","simple_dissimilar","images/stimuli/spore_stims/simple_08_B_c.gif","middle","","","","",""
"","null","html-keyboard-response","46","149526","0.0-14.0-0.1","SS1613138570662","","","null","","","","","<p><img src= images/blank.png width =""200"" height = ""200"" style = ""float:right""></p><p><img src=images/blank.png width =""800"" height = ""200""></p>","","","","","","","","","","","",""
"","402.95500005595386","sequential-stimulus-presentation","47","150752","0.0-14.0-1.1","SS1613138570662","trial","","40","800","1202.9550000559539","images/stimuli/spore_stims/simple_16_B_b.gif","images/stimuli/spore_stims/simple_08_B_c.gif","","","","","2","simple_dissimilar","images/stimuli/spore_stims/simple_08_B_c.gif","middle","","","","",""
"","null","html-keyboard-response","48","151894","0.0-14.0-0.2","SS1613138570662","","","null","","","","","<p><img src= images/blank.png width =""200"" height = ""200"" style = ""float:right""></p><p><img src=images/blank.png width =""800"" height = ""200""></p>","","","","","","","","","","","",""
"","341.14999999292195","sequential-stimulus-presentation","49","153065","0.0-14.0-1.2","SS1613138570662","trial","","40","800","1141.149999992922","images/stimuli/spore_stims/simple_16_B_b.gif","images/stimuli/spore_stims/simple_08_B_c.gif","","","","","2","simple_dissimilar","images/stimuli/spore_stims/simple_08_B_c.gif","middle","","","","",""
"","null","html-keyboard-response","50","154186","0.0-14.0-0.3","SS1613138570662","","","null","","","","","<p><img src= images/blank.png width =""200"" height = ""200"" style = ""float:right""></p><p><img src=images/blank.png width =""800"" height = ""200""></p>","","","","","","","","","","","",""
"","290.82500003278255","sequential-stimulus-presentation","51","155337","0.0-14.0-1.3","SS1613138570662","trial","","40","800","1090.8250000327826","images/stimuli/spore_stims/simple_16_B_b.gif","images/stimuli/spore_stims/simple_08_B_c.gif","","","","","2","simple_dissimilar","images/stimuli/spore_stims/simple_08_B_c.gif","middle","","","","",""
"","null","html-keyboard-response","52","156436","0.0-14.0-0.4","SS1613138570662","","","null","","","","","<p><img src= images/blank.png width =""200"" height = ""200"" style = ""float:right""></p><p><img src=images/blank.png width =""800"" height = ""200""></p>","","","","","","","","","","","",""
"","525.4150000400841","sequential-stimulus-presentation","53","157876","0.0-14.0-1.4","SS1613138570662","trial","","40","800","1325.4150000400841","images/stimuli/spore_stims/simple_16_B_b.gif","images/stimuli/spore_stims/simple_08_B_c.gif","","","","","2","simple_dissimilar","images/stimuli/spore_stims/simple_08_B_c.gif","middle","","","","",""
"","null","html-keyboard-response","54","159059","0.0-14.0-0.5","SS1613138570662","","","null","","","","","<p><img src= images/blank.png width =""200"" height = ""200"" style = ""float:right""></p><p><img src=images/blank.png width =""800"" height = ""200""></p>","","","","","","","","","","","",""
"","791.1050000693649","sequential-stimulus-presentation","55","160726","0.0-14.0-1.5","SS1613138570662","trial","","40","800","1591.105000069365","images/stimuli/spore_stims/simple_16_B_b.gif","images/stimuli/spore_stims/simple_08_B_c.gif","","","","","2","simple_dissimilar","images/stimuli/spore_stims/simple_16_B_b.gif","right","","","","",""
"","null","html-keyboard-response","56","161715","0.0-14.0-0.6","SS1613138570662","","","null","","","","","<p><img src= images/blank.png width =""200"" height = ""200"" style = ""float:right""></p><p><img src=images/blank.png width =""800"" height = ""200""></p>","","","","","","","","","","","",""
"","346.3200000114739","sequential-stimulus-presentation","57","163011","0.0-14.0-1.6","SS1613138570662","trial","","40","800","1146.320000011474","images/stimuli/spore_stims/simple_16_B_b.gif","images/stimuli/spore_stims/simple_08_B_c.gif","","","","","2","simple_dissimilar","images/stimuli/spore_stims/simple_08_B_c.gif","middle","","","","",""
"","null","html-keyboard-response","58","163982","0.0-14.0-0.7","SS1613138570662","","","null","","","","","<p><img src= images/blank.png width =""200"" height = ""200"" style = ""float:right""></p><p><img src=images/blank.png width =""800"" height = ""200""></p>","","","","","","","","","","","",""
"","635.7500001322478","sequential-stimulus-presentation","59","165447","0.0-14.0-1.7","SS1613138570662","trial","","40","800","1435.7500001322478","images/stimuli/spore_stims/simple_16_B_b.gif","images/stimuli/spore_stims/simple_08_B_c.gif","","","","","2","simple_dissimilar","images/stimuli/spore_stims/simple_08_B_c.gif","middle","","","","",""
"","1969.9250000994653","html-keyboard-response","60","167431","0.0-15.0","SS1613138570662","pref_question","","51","","","","","<video width ='960' height = '540' style='padding-top:8%' autoplay muted><source src='images/stimuli/wall_pref.mp4' type='video/mp4'></video>","3","right","66%","2","","","","","","","",""
"","438.44000017270446","sequential-stimulus-presentation","61","168708","0.0-16.0","SS1613138570662","pref_reveal","","40","800","1238.4400001727045","null","null","","","","","2","","","","deviant","","","",""
"","null","html-keyboard-response","62","170007","0.0-17.0-0.0","SS1613138570662","","","null","","","","","<p><img src= images/blank.png width =""200"" height = ""200"" style = ""float:right""></p><p><img src=images/blank.png width =""800"" height = ""200""></p>","","","","","","","","","","","",""
"","291.90500010736287","sequential-stimulus-presentation","63","171150","0.0-17.0-1.0","SS1613138570662","trial","","40","800","1091.9050001073629","images/stimuli/spore_stims/complex_04_B_b.gif","images/stimuli/spore_stims/complex_18_A_c.gif","","","","","3","complex_dissimilar","images/stimuli/spore_stims/complex_18_A_c.gif","left","","","","",""
"","null","html-keyboard-response","64","172251","0.0-17.0-0.1","SS1613138570662","","","null","","","","","<p><img src= images/blank.png width =""200"" height = ""200"" style = ""float:right""></p><p><img src=images/blank.png width =""800"" height = ""200""></p>","","","","","","","","","","","",""
"","1090.1700002141297","sequential-stimulus-presentation","65","174159","0.0-17.0-1.1","SS1613138570662","trial","","40","800","1890.1700002141297","images/stimuli/spore_stims/complex_04_B_b.gif","images/stimuli/spore_stims/complex_18_A_c.gif","","","","","3","complex_dissimilar","images/stimuli/spore_stims/complex_18_A_c.gif","left","","","","",""
"","null","html-keyboard-response","66","175086","0.0-17.0-0.2","SS1613138570662","","","null","","","","","<p><img src= images/blank.png width =""200"" height = ""200"" style = ""float:right""></p><p><img src=images/blank.png width =""800"" height = ""200""></p>","","","","","","","","","","","",""
"","471.76500014029443","sequential-stimulus-presentation","67","176466","0.0-17.0-1.2","SS1613138570662","trial","","40","800","1271.7650001402944","images/stimuli/spore_stims/complex_04_B_b.gif","images/stimuli/spore_stims/complex_18_A_c.gif","","","","","3","complex_dissimilar","images/stimuli/spore_stims/complex_18_A_c.gif","left","","","","",""
"","null","html-keyboard-response","68","177450","0.0-17.0-0.3","SS1613138570662","","","null","","","","","<p><img src= images/blank.png width =""200"" height = ""200"" style = ""float:right""></p><p><img src=images/blank.png width =""800"" height = ""200""></p>","","","","","","","","","","","",""
"","201.280000153929","sequential-stimulus-presentation","69","178484","0.0-17.0-1.3","SS1613138570662","trial","","40","800","1001.280000153929","images/stimuli/spore_stims/complex_04_B_b.gif","images/stimuli/spore_stims/complex_18_A_c.gif","","","","","3","complex_dissimilar","images/stimuli/spore_stims/complex_18_A_c.gif","left","","","","",""
"","null","html-keyboard-response","70","179579","0.0-17.0-0.4","SS1613138570662","","","null","","","","","<p><img src= images/blank.png width =""200"" height = ""200"" style = ""float:right""></p><p><img src=images/blank.png width =""800"" height = ""200""></p>","","","","","","","","","","","",""
"","300.76500005088747","sequential-stimulus-presentation","71","180738","0.0-17.0-1.4","SS1613138570662","trial","","40","800","1100.7650000508875","images/stimuli/spore_stims/complex_04_B_b.gif","images/stimuli/spore_stims/complex_18_A_c.gif","","","","","3","complex_dissimilar","images/stimuli/spore_stims/complex_04_B_b.gif","middle","","","","",""
"","null","html-keyboard-response","72","181556","0.0-17.0-0.5","SS1613138570662","","","null","","","","","<p><img src= images/blank.png width =""200"" height = ""200"" style = ""float:right""></p><p><img src=images/blank.png width =""800"" height = ""200""></p>","","","","","","","","","","","",""
"","177.14000004343688","sequential-stimulus-presentation","73","182567","0.0-17.0-1.5","SS1613138570662","trial","","40","800","977.1400000434369","images/stimuli/spore_stims/complex_04_B_b.gif","images/stimuli/spore_stims/complex_18_A_c.gif","","","","","3","complex_dissimilar","images/stimuli/spore_stims/complex_18_A_c.gif","left","","","","",""
"","null","html-keyboard-response","74","183522","0.0-17.0-0.6","SS1613138570662","","","null","","","","","<p><img src= images/blank.png width =""200"" height = ""200"" style = ""float:right""></p><p><img src=images/blank.png width =""800"" height = ""200""></p>","","","","","","","","","","","",""
"","306.370000122115","sequential-stimulus-presentation","75","184699","0.0-17.0-1.6","SS1613138570662","trial","","40","800","1106.370000122115","images/stimuli/spore_stims/complex_04_B_b.gif","images/stimuli/spore_stims/complex_18_A_c.gif","","","","","3","complex_dissimilar","images/stimuli/spore_stims/complex_18_A_c.gif","left","","","","",""
"","null","html-keyboard-response","76","185549","0.0-17.0-0.7","SS1613138570662","","","null","","","","","<p><img src= images/blank.png width =""200"" height = ""200"" style = ""float:right""></p><p><img src=images/blank.png width =""800"" height = ""200""></p>","","","","","","","","","","","",""
"","231.45500011742115","sequential-stimulus-presentation","77","186675","0.0-17.0-1.7","SS1613138570662","trial","","40","800","1031.4550001174212","images/stimuli/spore_stims/complex_04_B_b.gif","images/stimuli/spore_stims/complex_18_A_c.gif","","","","","3","complex_dissimilar","images/stimuli/spore_stims/complex_18_A_c.gif","left","","","","",""
"","1505.475000012666","html-keyboard-response","78","188202","0.0-18.0","SS1613138570662","pref_question","","51","","","","","<video width ='960' height = '540' style='padding-top:8%' autoplay muted><source src='images/stimuli/wall_pref.mp4' type='video/mp4'></video>","3","right","66%","3","","","","","","","",""
"","1164.4950001500547","sequential-stimulus-presentation","79","190197","0.0-19.0","SS1613138570662","pref_reveal","","40","800","1964.4950001500547","null","null","","","","","3","","","","novel","","","",""
"","null","html-keyboard-response","80","191284","0.0-20.0-0.0","SS1613138570662","","","null","","","","","<p><img src= images/blank.png width =""200"" height = ""200"" style = ""float:right""></p><p><img src=images/blank.png width =""800"" height = ""200""></p>","","","","","","","","","","","",""
"","3685.120000038296","sequential-stimulus-presentation","81","195786","0.0-20.0-1.0","SS1613138570662","trial","","40","800","4485.120000038296","images/stimuli/spore_stims/complex_12_A_b.gif","images/stimuli/spore_stims/complex_12_B_b.gif","","","","","4","complex_similar","images/stimuli/spore_stims/complex_12_B_b.gif","left","","","","",""
"","null","html-keyboard-response","82","197065","0.0-20.0-0.1","SS1613138570662","","","null","","","","","<p><img src= images/blank.png width =""200"" height = ""200"" style = ""float:right""></p><p><img src=images/blank.png width =""800"" height = ""200""></p>","","","","","","","","","","","",""
"","1176.0449998546392","sequential-stimulus-presentation","83","199071","0.0-20.0-1.1","SS1613138570662","trial","","40","800","1976.0449998546392","images/stimuli/spore_stims/complex_12_A_b.gif","images/stimuli/spore_stims/complex_12_B_b.gif","","","","","4","complex_similar","images/stimuli/spore_stims/complex_12_B_b.gif","left","","","","",""
"","null","html-keyboard-response","84","200022","0.0-20.0-0.2","SS1613138570662","","","null","","","","","<p><img src= images/blank.png width =""200"" height = ""200"" style = ""float:right""></p><p><img src=images/blank.png width =""800"" height = ""200""></p>","","","","","","","","","","","",""
"","215.0450001936406","sequential-stimulus-presentation","85","201051","0.0-20.0-1.2","SS1613138570662","trial","","40","800","1015.0450001936406","images/stimuli/spore_stims/complex_12_A_b.gif","images/stimuli/spore_stims/complex_12_B_b.gif","","","","","4","complex_similar","images/stimuli/spore_stims/complex_12_B_b.gif","left","","","","",""
"","null","html-keyboard-response","86","202195","0.0-20.0-0.3","SS1613138570662","","","null","","","","","<p><img src= images/blank.png width =""200"" height = ""200"" style = ""float:right""></p><p><img src=images/blank.png width =""800"" height = ""200""></p>","","","","","","","","","","","",""
"","2112.3599999118596","sequential-stimulus-presentation","87","205126","0.0-20.0-1.3","SS1613138570662","trial","","40","800","2912.3599999118596","images/stimuli/spore_stims/complex_12_A_b.gif","images/stimuli/spore_stims/complex_12_B_b.gif","","","","","4","complex_similar","images/stimuli/spore_stims/complex_12_B_b.gif","left","","","","",""
"","null","html-keyboard-response","88","206235","0.0-20.0-0.4","SS1613138570662","","","null","","","","","<p><img src= images/blank.png width =""200"" height = ""200"" style = ""float:right""></p><p><img src=images/blank.png width =""800"" height = ""200""></p>","","","","","","","","","","","",""
"","223.5550000332296","sequential-stimulus-presentation","89","207291","0.0-20.0-1.4","SS1613138570662","trial","","40","800","1023.5550000332296","images/stimuli/spore_stims/complex_12_A_b.gif","images/stimuli/spore_stims/complex_12_B_b.gif","","","","","4","complex_similar","images/stimuli/spore_stims/complex_12_B_b.gif","left","","","","",""
"","null","html-keyboard-response","90","208502","0.0-20.0-0.5","SS1613138570662","","","null","","","","","<p><img src= images/blank.png width =""200"" height = ""200"" style = ""float:right""></p><p><img src=images/blank.png width =""800"" height = ""200""></p>","","","","","","","","","","","",""
"","354.2249999009073","sequential-stimulus-presentation","91","209669","0.0-20.0-1.5","SS1613138570662","trial","","40","800","1154.2249999009073","images/stimuli/spore_stims/complex_12_A_b.gif","images/stimuli/spore_stims/complex_12_B_b.gif","","","","","4","complex_similar","images/stimuli/spore_stims/complex_12_A_b.gif","middle","","","","",""
"","null","html-keyboard-response","92","210487","0.0-20.0-0.6","SS1613138570662","","","null","","","","","<p><img src= images/blank.png width =""200"" height = ""200"" style = ""float:right""></p><p><img src=images/blank.png width =""800"" height = ""200""></p>","","","","","","","","","","","",""
"","186.83500005863607","sequential-stimulus-presentation","93","211501","0.0-20.0-1.6","SS1613138570662","trial","","40","800","986.8350000586361","images/stimuli/spore_stims/complex_12_A_b.gif","images/stimuli/spore_stims/complex_12_B_b.gif","","","","","4","complex_similar","images/stimuli/spore_stims/complex_12_B_b.gif","left","","","","",""
"","null","html-keyboard-response","94","212815","0.0-20.0-0.7","SS1613138570662","","","null","","","","","<p><img src= images/blank.png width =""200"" height = ""200"" style = ""float:right""></p><p><img src=images/blank.png width =""800"" height = ""200""></p>","","","","","","","","","","","",""
"","146.57499990426004","sequential-stimulus-presentation","95","213785","0.0-20.0-1.7","SS1613138570662","trial","","40","800","946.57499990426","images/stimuli/spore_stims/complex_12_A_b.gif","images/stimuli/spore_stims/complex_12_B_b.gif","","","","","4","complex_similar","images/stimuli/spore_stims/complex_12_B_b.gif","left","","","","",""
"","1588.0599999800324","html-keyboard-response","96","215386","0.0-21.0","SS1613138570662","pref_question","","51","","","","","<video width ='960' height = '540' style='padding-top:8%' autoplay muted><source src='images/stimuli/wall_pref.mp4' type='video/mp4'></video>","3","right","66%","4","","","","","","","",""
"","605.0599999725819","sequential-stimulus-presentation","97","216950","0.0-22.0","SS1613138570662","pref_reveal","","40","800","1405.0599999725819","null","null","","","","","4","","","","novel","","","",""
"","null","html-keyboard-response","98","218141","0.0-23.0-0.0","SS1613138570662","","","null","","","","","<p><img src= images/blank.png width =""200"" height = ""200"" style = ""float:right""></p><p><img src=images/blank.png width =""800"" height = ""200""></p>","","","","","","","","","","","",""
"","280.32499994151294","sequential-stimulus-presentation","99","219296","0.0-23.0-1.0","SS1613138570662","trial","","40","800","1080.324999941513","images/stimuli/spore_stims/simple_14_B_d.gif","images/stimuli/spore_stims/simple_14_A_d.gif","","","","","5","simple_similar","images/stimuli/spore_stims/simple_14_A_d.gif","middle","","","","",""
"","null","html-keyboard-response","100","220156","0.0-23.0-0.1","SS1613138570662","","","null","","","","","<p><img src= images/blank.png width =""200"" height = ""200"" style = ""float:right""></p><p><img src=images/blank.png width =""800"" height = ""200""></p>","","","","","","","","","","","",""
"","614.8100001737475","sequential-stimulus-presentation","101","221590","0.0-23.0-1.1","SS1613138570662","trial","","40","800","1414.8100001737475","images/stimuli/spore_stims/simple_14_B_d.gif","images/stimuli/spore_stims/simple_14_A_d.gif","","","","","5","simple_similar","images/stimuli/spore_stims/simple_14_A_d.gif","middle","","","","",""
"","null","html-keyboard-response","102","222708","0.0-23.0-0.2","SS1613138570662","","","null","","","","","<p><img src= images/blank.png width =""200"" height = ""200"" style = ""float:right""></p><p><img src=images/blank.png width =""800"" height = ""200""></p>","","","","","","","","","","","",""
"","407.90500002913177","sequential-stimulus-presentation","103","224044","0.0-23.0-1.2","SS1613138570662","trial","","40","800","1207.9050000291318","images/stimuli/spore_stims/simple_14_B_d.gif","images/stimuli/spore_stims/simple_14_A_d.gif","","","","","5","simple_similar","images/stimuli/spore_stims/simple_14_A_d.gif","middle","","","","",""
"","null","html-keyboard-response","104","225035","0.0-23.0-0.3","SS1613138570662","","","null","","","","","<p><img src= images/blank.png width =""200"" height = ""200"" style = ""float:right""></p><p><img src=images/blank.png width =""800"" height = ""200""></p>","","","","","","","","","","","",""
"","328.5449999384582","sequential-stimulus-presentation","105","226178","0.0-23.0-1.3","SS1613138570662","trial","","40","800","1128.5449999384582","images/stimuli/spore_stims/simple_14_B_d.gif","images/stimuli/spore_stims/simple_14_A_d.gif","","","","","5","simple_similar","images/stimuli/spore_stims/simple_14_B_d.gif","right","","","","",""
"","null","html-keyboard-response","106","227470","0.0-23.0-0.4","SS1613138570662","","","null","","","","","<p><img src= images/blank.png width =""200"" height = ""200"" style = ""float:right""></p><p><img src=images/blank.png width =""800"" height = ""200""></p>","","","","","","","","","","","",""
"","253.46000003628433","sequential-stimulus-presentation","107","228543","0.0-23.0-1.4","SS1613138570662","trial","","40","800","1053.4600000362843","images/stimuli/spore_stims/simple_14_B_d.gif","images/stimuli/spore_stims/simple_14_A_d.gif","","","","","5","simple_similar","images/stimuli/spore_stims/simple_14_A_d.gif","middle","","","","",""
"","null","html-keyboard-response","108","229671","0.0-23.0-0.5","SS1613138570662","","","null","","","","","<p><img src= images/blank.png width =""200"" height = ""200"" style = ""float:right""></p><p><img src=images/blank.png width =""800"" height = ""200""></p>","","","","","","","","","","","",""
"","442.21999985165894","sequential-stimulus-presentation","109","230986","0.0-23.0-1.5","SS1613138570662","trial","","40","800","1242.219999851659","images/stimuli/spore_stims/simple_14_B_d.gif","images/stimuli/spore_stims/simple_14_A_d.gif","","","","","5","simple_similar","images/stimuli/spore_stims/simple_14_A_d.gif","middle","","","","",""
"","null","html-keyboard-response","110","232286","0.0-23.0-0.6","SS1613138570662","","","null","","","","","<p><img src= images/blank.png width =""200"" height = ""200"" style = ""float:right""></p><p><img src=images/blank.png width =""800"" height = ""200""></p>","","","","","","","","","","","",""
"","356.7249998450279","sequential-stimulus-presentation","111","233502","0.0-23.0-1.6","SS1613138570662","trial","","40","800","1156.724999845028","images/stimuli/spore_stims/simple_14_B_d.gif","images/stimuli/spore_stims/simple_14_A_d.gif","","","","","5","simple_similar","images/stimuli/spore_stims/simple_14_A_d.gif","middle","","","","",""
"","null","html-keyboard-response","112","234773","0.0-23.0-0.7","SS1613138570662","","","null","","","","","<p><img src= images/blank.png width =""200"" height = ""200"" style = ""float:right""></p><p><img src=images/blank.png width =""800"" height = ""200""></p>","","","","","","","","","","","",""
"","231.04500002227724","sequential-stimulus-presentation","113","235828","0.0-23.0-1.7","SS1613138570662","trial","","40","800","1031.0450000222772","images/stimuli/spore_stims/simple_14_B_d.gif","images/stimuli/spore_stims/simple_14_A_d.gif","","","","","5","simple_similar","images/stimuli/spore_stims/simple_14_A_d.gif","middle","","","","",""
"","1439.8849999997765","html-keyboard-response","114","237288","0.0-24.0","SS1613138570662","pref_question","","50","","","","","<video width ='960' height = '540' style='padding-top:8%' autoplay muted><source src='images/stimuli/wall_pref.mp4' type='video/mp4'></video>","2","middle","45%","5","","","","","","","",""
"","273.96999998018146","sequential-stimulus-presentation","115","238463","0.0-25.0","SS1613138570662","pref_reveal","","40","800","1073.9699999801815","null","null","","","","","5","","","","background","","","",""
"","null","html-keyboard-response","116","239329","0.0-26.0-0.0","SS1613138570662","","","null","","","","","<p><img src= images/blank.png width =""200"" height = ""200"" style = ""float:right""></p><p><img src=images/blank.png width =""800"" height = ""200""></p>","","","","","","","","","","","",""
"","843.0000001098961","sequential-stimulus-presentation","117","241017","0.0-26.0-1.0","SS1613138570662","trial","","40","800","1643.000000109896","images/stimuli/spore_stims/simple_12_A_d.gif","images/stimuli/spore_stims/simple_12_B_d.gif","","","","","6","simple_similar","images/stimuli/spore_stims/simple_12_B_d.gif","right","","","","",""
"","null","html-keyboard-response","118","242071","0.0-26.0-0.1","SS1613138570662","","","null","","","","","<p><img src= images/blank.png width =""200"" height = ""200"" style = ""float:right""></p><p><img src=images/blank.png width =""800"" height = ""200""></p>","","","","","","","","","","","",""
"","451.2349998112768","sequential-stimulus-presentation","119","243366","0.0-26.0-1.1","SS1613138570662","trial","","40","800","1251.2349998112768","images/stimuli/spore_stims/simple_12_A_d.gif","images/stimuli/spore_stims/simple_12_B_d.gif","","","","","6","simple_similar","images/stimuli/spore_stims/simple_12_B_d.gif","right","","","","",""
"","null","html-keyboard-response","120","244318","0.0-26.0-0.2","SS1613138570662","","","null","","","","","<p><img src= images/blank.png width =""200"" height = ""200"" style = ""float:right""></p><p><img src=images/blank.png width =""800"" height = ""200""></p>","","","","","","","","","","","",""
"","295.00499996356666","sequential-stimulus-presentation","121","245442","0.0-26.0-1.2","SS1613138570662","trial","","40","800","1095.0049999635667","images/stimuli/spore_stims/simple_12_A_d.gif","images/stimuli/spore_stims/simple_12_B_d.gif","","","","","6","simple_similar","images/stimuli/spore_stims/simple_12_A_d.gif","middle","","","","",""
"","null","html-keyboard-response","122","246685","0.0-26.0-0.3","SS1613138570662","","","null","","","","","<p><img src= images/blank.png width =""200"" height = ""200"" style = ""float:right""></p><p><img src=images/blank.png width =""800"" height = ""200""></p>","","","","","","","","","","","",""
"","132.5600000564009","sequential-stimulus-presentation","123","247644","0.0-26.0-1.3","SS1613138570662","trial","","40","800","932.5600000564009","images/stimuli/spore_stims/simple_12_A_d.gif","images/stimuli/spore_stims/simple_12_B_d.gif","","","","","6","simple_similar","images/stimuli/spore_stims/simple_12_B_d.gif","right","","","","",""
"","null","html-keyboard-response","124","248666","0.0-26.0-0.4","SS1613138570662","","","null","","","","","<p><img src= images/blank.png width =""200"" height = ""200"" style = ""float:right""></p><p><img src=images/blank.png width =""800"" height = ""200""></p>","","","","","","","","","","","",""
"","181.0000000987202","sequential-stimulus-presentation","125","249680","0.0-26.0-1.4","SS1613138570662","trial","","40","800","981.0000000987202","images/stimuli/spore_stims/simple_12_A_d.gif","images/stimuli/spore_stims/simple_12_B_d.gif","","","","","6","simple_similar","images/stimuli/spore_stims/simple_12_B_d.gif","right","","","","",""
"","null","html-keyboard-response","126","250559","0.0-26.0-0.5","SS1613138570662","","","null","","","","","<p><img src= images/blank.png width =""200"" height = ""200"" style = ""float:right""></p><p><img src=images/blank.png width =""800"" height = ""200""></p>","","","","","","","","","","","",""
"","208.6449998896569","sequential-stimulus-presentation","127","251639","0.0-26.0-1.5","SS1613138570662","trial","","40","800","1008.6449998896569","images/stimuli/spore_stims/simple_12_A_d.gif","images/stimuli/spore_stims/simple_12_B_d.gif","","","","","6","simple_similar","images/stimuli/spore_stims/simple_12_B_d.gif","right","","","","",""
"","null","html-keyboard-response","128","252770","0.0-26.0-0.6","SS1613138570662","","","null","","","","","<p><img src= images/blank.png width =""200"" height = ""200"" style = ""float:right""></p><p><img src=images/blank.png width =""800"" height = ""200""></p>","","","","","","","","","","","",""
"","196.8199999537319","sequential-stimulus-presentation","129","253883","0.0-26.0-1.6","SS1613138570662","trial","","40","800","996.8199999537319","images/stimuli/spore_stims/simple_12_A_d.gif","images/stimuli/spore_stims/simple_12_B_d.gif","","","","","6","simple_similar","images/stimuli/spore_stims/simple_12_B_d.gif","right","","","","",""
"","null","html-keyboard-response","130","254768","0.0-26.0-0.7","SS1613138570662","","","null","","","","","<p><img src= images/blank.png width =""200"" height = ""200"" style = ""float:right""></p><p><img src=images/blank.png width =""800"" height = ""200""></p>","","","","","","","","","","","",""
"","216.18000022135675","sequential-stimulus-presentation","131","255883","0.0-26.0-1.7","SS1613138570662","trial","","40","800","1016.1800002213567","images/stimuli/spore_stims/simple_12_A_d.gif","images/stimuli/spore_stims/simple_12_B_d.gif","","","","","6","simple_similar","images/stimuli/spore_stims/simple_12_B_d.gif","right","","","","",""
"","1679.4300000183284","html-keyboard-response","132","257756","0.0-27.0","SS1613138570662","pref_question","","50","","","","","<video width ='960' height = '540' style='padding-top:8%' autoplay muted><source src='images/stimuli/wall_pref.mp4' type='video/mp4'></video>","2","middle","45%","6","","","","","","","",""
"","1152.510000159964","sequential-stimulus-presentation","133","259786","0.0-28.0","SS1613138570662","pref_reveal","","40","800","1952.510000159964","null","null","","","","","6","","","","deviant","","","",""
"","null","html-keyboard-response","134","260923","0.0-29.0-0.0","SS1613138570662","","","null","","","","","<p><img src= images/blank.png width =""200"" height = ""200"" style = ""float:right""></p><p><img src=images/blank.png width =""800"" height = ""200""></p>","","","","","","","","","","","",""
"","280.1099999342114","sequential-stimulus-presentation","135","262018","0.0-29.0-1.0","SS1613138570662","trial","","40","800","1080.1099999342114","images/stimuli/spore_stims/simple_11_A_a.gif","images/stimuli/spore_stims/simple_11_B_a.gif","","","","","7","simple_similar","images/stimuli/spore_stims/simple_11_B_a.gif","right","","","","",""
"","null","html-keyboard-response","136","263060","0.0-29.0-0.1","SS1613138570662","","","null","","","","","<p><img src= images/blank.png width =""200"" height = ""200"" style = ""float:right""></p><p><img src=images/blank.png width =""800"" height = ""200""></p>","","","","","","","","","","","",""
"","48.81999990902841","sequential-stimulus-presentation","137","263954","0.0-29.0-1.1","SS1613138570662","trial","","40","800","848.8199999090284","images/stimuli/spore_stims/simple_11_A_a.gif","images/stimuli/spore_stims/simple_11_B_a.gif","","","","","7","simple_similar","images/stimuli/spore_stims/simple_11_B_a.gif","right","","","","",""
"","null","html-keyboard-response","138","264939","0.0-29.0-0.2","SS1613138570662","","","null","","","","","<p><img src= images/blank.png width =""200"" height = ""200"" style = ""float:right""></p><p><img src=images/blank.png width =""800"" height = ""200""></p>","","","","","","","","","","","",""
"","964.2699998803437","sequential-stimulus-presentation","139","266737","0.0-29.0-1.2","SS1613138570662","trial","","40","800","1764.2699998803437","images/stimuli/spore_stims/simple_11_A_a.gif","images/stimuli/spore_stims/simple_11_B_a.gif","","","","","7","simple_similar","images/stimuli/spore_stims/simple_11_B_a.gif","right","","","","",""
"","null","html-keyboard-response","140","267650","0.0-29.0-0.3","SS1613138570662","","","null","","","","","<p><img src= images/blank.png width =""200"" height = ""200"" style = ""float:right""></p><p><img src=images/blank.png width =""800"" height = ""200""></p>","","","","","","","","","","","",""
"","89.88500013947487","sequential-stimulus-presentation","141","268572","0.0-29.0-1.3","SS1613138570662","trial","","40","800","889.8850001394749","images/stimuli/spore_stims/simple_11_A_a.gif","images/stimuli/spore_stims/simple_11_B_a.gif","","","","","7","simple_similar","images/stimuli/spore_stims/simple_11_B_a.gif","right","","","","",""
"","null","html-keyboard-response","142","269398","0.0-29.0-0.4","SS1613138570662","","","null","","","","","<p><img src= images/blank.png width =""200"" height = ""200"" style = ""float:right""></p><p><img src=images/blank.png width =""800"" height = ""200""></p>","","","","","","","","","","","",""
"","244.50499983504415","sequential-stimulus-presentation","143","270490","0.0-29.0-1.4","SS1613138570662","trial","","40","800","1044.5049998350441","images/stimuli/spore_stims/simple_11_A_a.gif","images/stimuli/spore_stims/simple_11_B_a.gif","","","","","7","simple_similar","images/stimuli/spore_stims/simple_11_B_a.gif","right","","","","",""
"","null","html-keyboard-response","144","271645","0.0-29.0-0.5","SS1613138570662","","","null","","","","","<p><img src= images/blank.png width =""200"" height = ""200"" style = ""float:right""></p><p><img src=images/blank.png width =""800"" height = ""200""></p>","","","","","","","","","","","",""
"","230.2899998612702","sequential-stimulus-presentation","145","272741","0.0-29.0-1.5","SS1613138570662","trial","","40","800","1030.2899998612702","images/stimuli/spore_stims/simple_11_A_a.gif","images/stimuli/spore_stims/simple_11_B_a.gif","","","","","7","simple_similar","images/stimuli/spore_stims/simple_11_B_a.gif","right","","","","",""
"","null","html-keyboard-response","146","274020","0.0-29.0-0.6","SS1613138570662","","","null","","","","","<p><img src= images/blank.png width =""200"" height = ""200"" style = ""float:right""></p><p><img src=images/blank.png width =""800"" height = ""200""></p>","","","","","","","","","","","",""
"","509.46500012651086","sequential-stimulus-presentation","147","275369","0.0-29.0-1.6","SS1613138570662","trial","","40","800","1309.4650001265109","images/stimuli/spore_stims/simple_11_A_a.gif","images/stimuli/spore_stims/simple_11_B_a.gif","","","","","7","simple_similar","images/stimuli/spore_stims/simple_11_A_a.gif","middle","","","","",""
"","null","html-keyboard-response","148","276264","0.0-29.0-0.7","SS1613138570662","","","null","","","","","<p><img src= images/blank.png width =""200"" height = ""200"" style = ""float:right""></p><p><img src=images/blank.png width =""800"" height = ""200""></p>","","","","","","","","","","","",""
"","290.6899999361485","sequential-stimulus-presentation","149","277404","0.0-29.0-1.7","SS1613138570662","trial","","40","800","1090.6899999361485","images/stimuli/spore_stims/simple_11_A_a.gif","images/stimuli/spore_stims/simple_11_B_a.gif","","","","","7","simple_similar","images/stimuli/spore_stims/simple_11_B_a.gif","right","","","","",""
"","1615.7550001516938","html-keyboard-response","150","279029","0.0-30.0","SS1613138570662","pref_question","","50","","","","","<video width ='960' height = '540' style='padding-top:8%' autoplay muted><source src='images/stimuli/wall_pref.mp4' type='video/mp4'></video>","2","middle","45%","7","","","","","","","",""
"","929.950000019744","sequential-stimulus-presentation","151","280783","0.0-31.0","SS1613138570662","pref_reveal","","40","800","1729.950000019744","null","null","","","","","7","","","","deviant","","","",""
"","null","html-keyboard-response","152","282065","0.0-32.0-0.0","SS1613138570662","","","null","","","","","<p><img src= images/blank.png width =""200"" height = ""200"" style = ""float:right""></p><p><img src=images/blank.png width =""800"" height = ""200""></p>","","","","","","","","","","","",""
"","139.84000007621944","sequential-stimulus-presentation","153","283051","0.0-32.0-1.0","SS1613138570662","trial","","40","800","939.8400000762194","images/stimuli/spore_stims/simple_02_A_c.gif","images/stimuli/spore_stims/simple_03_B_a.gif","","","","","8","simple_dissimilar","images/stimuli/spore_stims/simple_03_B_a.gif","left","","","","",""
"","null","html-keyboard-response","154","283873","0.0-32.0-0.1","SS1613138570662","","","null","","","","","<p><img src= images/blank.png width =""200"" height = ""200"" style = ""float:right""></p><p><img src=images/blank.png width =""800"" height = ""200""></p>","","","","","","","","","","","",""
"","326.3349998742342","sequential-stimulus-presentation","155","285034","0.0-32.0-1.1","SS1613138570662","trial","","40","800","1126.3349998742342","images/stimuli/spore_stims/simple_02_A_c.gif","images/stimuli/spore_stims/simple_03_B_a.gif","","","","","8","simple_dissimilar","images/stimuli/spore_stims/simple_03_B_a.gif","left","","","","",""
"","null","html-keyboard-response","156","286244","0.0-32.0-0.2","SS1613138570662","","","null","","","","","<p><img src= images/blank.png width =""200"" height = ""200"" style = ""float:right""></p><p><img src=images/blank.png width =""800"" height = ""200""></p>","","","","","","","","","","","",""
"","21.235000109300017","sequential-stimulus-presentation","157","287155","0.0-32.0-1.2","SS1613138570662","trial","","40","800","821.2350001093","images/stimuli/spore_stims/simple_02_A_c.gif","images/stimuli/spore_stims/simple_03_B_a.gif","","","","","8","simple_dissimilar","images/stimuli/spore_stims/simple_03_B_a.gif","left","","","","",""
"","null","html-keyboard-response","158","288423","0.0-32.0-0.3","SS1613138570662","","","null","","","","","<p><img src= images/blank.png width =""200"" height = ""200"" style = ""float:right""></p><p><img src=images/blank.png width =""800"" height = ""200""></p>","","","","","","","","","","","",""
"","297.78499994426966","sequential-stimulus-presentation","159","289659","0.0-32.0-1.3","SS1613138570662","trial","","40","800","1097.7849999442697","images/stimuli/spore_stims/simple_02_A_c.gif","images/stimuli/spore_stims/simple_03_B_a.gif","","","","","8","simple_dissimilar","images/stimuli/spore_stims/simple_02_A_c.gif","right","","","","",""
"","null","html-keyboard-response","160","290689","0.0-32.0-0.4","SS1613138570662","","","null","","","","","<p><img src= images/blank.png width =""200"" height = ""200"" style = ""float:right""></p><p><img src=images/blank.png width =""800"" height = ""200""></p>","","","","","","","","","","","",""
"","998.4299999196082","sequential-stimulus-presentation","161","292524","0.0-32.0-1.4","SS1613138570662","trial","","40","800","1798.4299999196082","images/stimuli/spore_stims/simple_02_A_c.gif","images/stimuli/spore_stims/simple_03_B_a.gif","","","","","8","simple_dissimilar","images/stimuli/spore_stims/simple_03_B_a.gif","left","","","","",""
"","null","html-keyboard-response","162","293740","0.0-32.0-0.5","SS1613138570662","","","null","","","","","<p><img src= images/blank.png width =""200"" height = ""200"" style = ""float:right""></p><p><img src=images/blank.png width =""800"" height = ""200""></p>","","","","","","","","","","","",""
"","100.12500011362135","sequential-stimulus-presentation","163","294758","0.0-32.0-1.5","SS1613138570662","trial","","40","800","900.1250001136214","images/stimuli/spore_stims/simple_02_A_c.gif","images/stimuli/spore_stims/simple_03_B_a.gif","","","","","8","simple_dissimilar","images/stimuli/spore_stims/simple_03_B_a.gif","left","","","","",""
"","null","html-keyboard-response","164","295885","0.0-32.0-0.6","SS1613138570662","","","null","","","","","<p><img src= images/blank.png width =""200"" height = ""200"" style = ""float:right""></p><p><img src=images/blank.png width =""800"" height = ""200""></p>","","","","","","","","","","","",""
"","109.11499988287687","sequential-stimulus-presentation","165","296827","0.0-32.0-1.6","SS1613138570662","trial","","40","800","909.1149998828769","images/stimuli/spore_stims/simple_02_A_c.gif","images/stimuli/spore_stims/simple_03_B_a.gif","","","","","8","simple_dissimilar","images/stimuli/spore_stims/simple_03_B_a.gif","left","","","","",""
"","null","html-keyboard-response","166","297871","0.0-32.0-0.7","SS1613138570662","","","null","","","","","<p><img src= images/blank.png width =""200"" height = ""200"" style = ""float:right""></p><p><img src=images/blank.png width =""800"" height = ""200""></p>","","","","","","","","","","","",""
"","1116.524999961257","sequential-stimulus-presentation","167","300018","0.0-32.0-1.7","SS1613138570662","trial","","40","800","1916.524999961257","images/stimuli/spore_stims/simple_02_A_c.gif","images/stimuli/spore_stims/simple_03_B_a.gif","","","","","8","simple_dissimilar","images/stimuli/spore_stims/simple_03_B_a.gif","left","","","","",""
"","1634.48500004597","html-keyboard-response","168","301676","0.0-33.0","SS1613138570662","pref_question","","50","","","","","<video width ='960' height = '540' style='padding-top:8%' autoplay muted><source src='images/stimuli/wall_pref.mp4' type='video/mp4'></video>","2","middle","45%","8","","","","","","","",""
"","702.6349999941885","sequential-stimulus-presentation","169","303210","0.0-34.0","SS1613138570662","pref_reveal","","40","800","1502.6349999941885","null","null","","","","","8","","","","novel","","","",""
"","null","html-keyboard-response","170","304481","0.0-35.0-0.0","SS1613138570662","","","null","","","","","<p><img src= images/blank.png width =""200"" height = ""200"" style = ""float:right""></p><p><img src=images/blank.png width =""800"" height = ""200""></p>","","","","","","","","","","","",""
"","310.8900000806898","sequential-stimulus-presentation","171","305633","0.0-35.0-1.0","SS1613138570662","trial","","40","800","1110.8900000806898","images/stimuli/spore_stims/complex_09_B_a.gif","images/stimuli/spore_stims/complex_16_B_b.gif","","","","","9","complex_dissimilar","images/stimuli/spore_stims/complex_16_B_b.gif","right","","","","",""
"","null","html-keyboard-response","172","306816","0.0-35.0-0.1","SS1613138570662","","","null","","","","","<p><img src= images/blank.png width =""200"" height = ""200"" style = ""float:right""></p><p><img src=images/blank.png width =""800"" height = ""200""></p>","","","","","","","","","","","",""
"","133.26999987475574","sequential-stimulus-presentation","173","307779","0.0-35.0-1.1","SS1613138570662","trial","","40","800","933.2699998747557","images/stimuli/spore_stims/complex_09_B_a.gif","images/stimuli/spore_stims/complex_16_B_b.gif","","","","","9","complex_dissimilar","images/stimuli/spore_stims/complex_16_B_b.gif","right","","","","",""
"","null","html-keyboard-response","174","308606","0.0-35.0-0.2","SS1613138570662","","","null","","","","","<p><img src= images/blank.png width =""200"" height = ""200"" style = ""float:right""></p><p><img src=images/blank.png width =""800"" height = ""200""></p>","","","","","","","","","","","",""
"","129.48499992489815","sequential-stimulus-presentation","175","309573","0.0-35.0-1.2","SS1613138570662","trial","","40","800","929.4849999248981","images/stimuli/spore_stims/complex_09_B_a.gif","images/stimuli/spore_stims/complex_16_B_b.gif","","","","","9","complex_dissimilar","images/stimuli/spore_stims/complex_16_B_b.gif","right","","","","",""
"","null","html-keyboard-response","176","310848","0.0-35.0-0.3","SS1613138570662","","","null","","","","","<p><img src= images/blank.png width =""200"" height = ""200"" style = ""float:right""></p><p><img src=images/blank.png width =""800"" height = ""200""></p>","","","","","","","","","","","",""
"","357.2099998127669","sequential-stimulus-presentation","177","312058","0.0-35.0-1.3","SS1613138570662","trial","","40","800","1157.209999812767","images/stimuli/spore_stims/complex_09_B_a.gif","images/stimuli/spore_stims/complex_16_B_b.gif","","","","","9","complex_dissimilar","images/stimuli/spore_stims/complex_16_B_b.gif","right","","","","",""
"","null","html-keyboard-response","178","313322","0.0-35.0-0.4","SS1613138570662","","","null","","","","","<p><img src= images/blank.png width =""200"" height = ""200"" style = ""float:right""></p><p><img src=images/blank.png width =""800"" height = ""200""></p>","","","","","","","","","","","",""
"","116.8799998704344","sequential-stimulus-presentation","179","314273","0.0-35.0-1.4","SS1613138570662","trial","","40","800","916.8799998704344","images/stimuli/spore_stims/complex_09_B_a.gif","images/stimuli/spore_stims/complex_16_B_b.gif","","","","","9","complex_dissimilar","images/stimuli/spore_stims/complex_16_B_b.gif","right","","","","",""
"","null","html-keyboard-response","180","315288","0.0-35.0-0.5","SS1613138570662","","","null","","","","","<p><img src= images/blank.png width =""200"" height = ""200"" style = ""float:right""></p><p><img src=images/blank.png width =""800"" height = ""200""></p>","","","","","","","","","","","",""
"","268.7150000128895","sequential-stimulus-presentation","181","316385","0.0-35.0-1.5","SS1613138570662","trial","","40","800","1068.7150000128895","images/stimuli/spore_stims/complex_09_B_a.gif","images/stimuli/spore_stims/complex_16_B_b.gif","","","","","9","complex_dissimilar","images/stimuli/spore_stims/complex_16_B_b.gif","right","","","","",""
"","null","html-keyboard-response","182","317637","0.0-35.0-0.6","SS1613138570662","","","null","","","","","<p><img src= images/blank.png width =""200"" height = ""200"" style = ""float:right""></p><p><img src=images/blank.png width =""800"" height = ""200""></p>","","","","","","","","","","","",""
"","562.2999998740852","sequential-stimulus-presentation","183","319037","0.0-35.0-1.6","SS1613138570662","trial","","40","800","1362.2999998740852","images/stimuli/spore_stims/complex_09_B_a.gif","images/stimuli/spore_stims/complex_16_B_b.gif","","","","","9","complex_dissimilar","images/stimuli/spore_stims/complex_09_B_a.gif","middle","","","","",""
"","null","html-keyboard-response","184","320049","0.0-35.0-0.7","SS1613138570662","","","null","","","","","<p><img src= images/blank.png width =""200"" height = ""200"" style = ""float:right""></p><p><img src=images/blank.png width =""800"" height = ""200""></p>","","","","","","","","","","","",""
"","506.7849999759346","sequential-stimulus-presentation","185","321385","0.0-35.0-1.7","SS1613138570662","trial","","40","800","1306.7849999759346","images/stimuli/spore_stims/complex_09_B_a.gif","images/stimuli/spore_stims/complex_16_B_b.gif","","","","","9","complex_dissimilar","images/stimuli/spore_stims/complex_16_B_b.gif","right","","","","",""
"","1457.410000031814","html-keyboard-response","186","322873","0.0-36.0","SS1613138570662","pref_question","","50","","","","","<video width ='960' height = '540' style='padding-top:8%' autoplay muted><source src='images/stimuli/wall_pref.mp4' type='video/mp4'></video>","2","middle","45%","9","","","","","","","",""
"","332.02000008895993","sequential-stimulus-presentation","187","324042","0.0-37.0","SS1613138570662","pref_reveal","","40","800","1132.02000008896","null","null","","","","","9","","","","deviant","","","",""
"","null","html-keyboard-response","188","325275","0.0-38.0-0.0","SS1613138570662","","","null","","","","","<p><img src= images/blank.png width =""200"" height = ""200"" style = ""float:right""></p><p><img src=images/blank.png width =""800"" height = ""200""></p>","","","","","","","","","","","",""
"","68.83500004187226","sequential-stimulus-presentation","189","326179","0.0-38.0-1.0","SS1613138570662","trial","","40","800","868.8350000418723","images/stimuli/spore_stims/simple_19_A_b.gif","images/stimuli/spore_stims/simple_19_B_b.gif","","","","","10","simple_similar","images/stimuli/spore_stims/simple_19_B_b.gif","left","","","","",""
"","null","html-keyboard-response","190","327279","0.0-38.0-0.1","SS1613138570662","","","null","","","","","<p><img src= images/blank.png width =""200"" height = ""200"" style = ""float:right""></p><p><img src=images/blank.png width =""800"" height = ""200""></p>","","","","","","","","","","","",""
"","824.2349999491125","sequential-stimulus-presentation","191","328957","0.0-38.0-1.1","SS1613138570662","trial","","40","800","1624.2349999491125","images/stimuli/spore_stims/simple_19_A_b.gif","images/stimuli/spore_stims/simple_19_B_b.gif","","","","","10","simple_similar","images/stimuli/spore_stims/simple_19_B_b.gif","left","","","","",""
"","null","html-keyboard-response","192","329859","0.0-38.0-0.2","SS1613138570662","","","null","","","","","<p><img src= images/blank.png width =""200"" height = ""200"" style = ""float:right""></p><p><img src=images/blank.png width =""800"" height = ""200""></p>","","","","","","","","","","","",""
"","770.0900000054389","sequential-stimulus-presentation","193","331482","0.0-38.0-1.2","SS1613138570662","trial","","40","800","1570.090000005439","images/stimuli/spore_stims/simple_19_A_b.gif","images/stimuli/spore_stims/simple_19_B_b.gif","","","","","10","simple_similar","images/stimuli/spore_stims/simple_19_B_b.gif","left","","","","",""
"","null","html-keyboard-response","194","332552","0.0-38.0-0.3","SS1613138570662","","","null","","","","","<p><img src= images/blank.png width =""200"" height = ""200"" style = ""float:right""></p><p><img src=images/blank.png width =""800"" height = ""200""></p>","","","","","","","","","","","",""
"","149.11999995820224","sequential-stimulus-presentation","195","333552","0.0-38.0-1.3","SS1613138570662","trial","","40","800","949.1199999582022","images/stimuli/spore_stims/simple_19_A_b.gif","images/stimuli/spore_stims/simple_19_B_b.gif","","","","","10","simple_similar","images/stimuli/spore_stims/simple_19_B_b.gif","left","","","","",""
"","null","html-keyboard-response","196","334808","0.0-38.0-0.4","SS1613138570662","","","null","","","","","<p><img src= images/blank.png width =""200"" height = ""200"" style = ""float:right""></p><p><img src=images/blank.png width =""800"" height = ""200""></p>","","","","","","","","","","","",""
"","439.97499998658895","sequential-stimulus-presentation","197","336086","0.0-38.0-1.4","SS1613138570662","trial","","40","800","1239.974999986589","images/stimuli/spore_stims/simple_19_A_b.gif","images/stimuli/spore_stims/simple_19_B_b.gif","","","","","10","simple_similar","images/stimuli/spore_stims/simple_19_A_b.gif","right","","","","",""
"","null","html-keyboard-response","198","337067","0.0-38.0-0.5","SS1613138570662","","","null","","","","","<p><img src= images/blank.png width =""200"" height = ""200"" style = ""float:right""></p><p><img src=images/blank.png width =""800"" height = ""200""></p>","","","","","","","","","","","",""
"","448.0250000488013","sequential-stimulus-presentation","199","338355","0.0-38.0-1.5","SS1613138570662","trial","","40","800","1248.0250000488013","images/stimuli/spore_stims/simple_19_A_b.gif","images/stimuli/spore_stims/simple_19_B_b.gif","","","","","10","simple_similar","images/stimuli/spore_stims/simple_19_B_b.gif","left","","","","",""
"","null","html-keyboard-response","200","339267","0.0-38.0-0.6","SS1613138570662","","","null","","","","","<p><img src= images/blank.png width =""200"" height = ""200"" style = ""float:right""></p><p><img src=images/blank.png width =""800"" height = ""200""></p>","","","","","","","","","","","",""
"","297.86999989300966","sequential-stimulus-presentation","201","340407","0.0-38.0-1.6","SS1613138570662","trial","","40","800","1097.8699998930097","images/stimuli/spore_stims/simple_19_A_b.gif","images/stimuli/spore_stims/simple_19_B_b.gif","","","","","10","simple_similar","images/stimuli/spore_stims/simple_19_B_b.gif","left","","","","",""
"","null","html-keyboard-response","202","341379","0.0-38.0-0.7","SS1613138570662","","","null","","","","","<p><img src= images/blank.png width =""200"" height = ""200"" style = ""float:right""></p><p><img src=images/blank.png width =""800"" height = ""200""></p>","","","","","","","","","","","",""
"","299.8999999836087","sequential-stimulus-presentation","203","342595","0.0-38.0-1.7","SS1613138570662","trial","","40","800","1099.8999999836087","images/stimuli/spore_stims/simple_19_A_b.gif","images/stimuli/spore_stims/simple_19_B_b.gif","","","","","10","simple_similar","images/stimuli/spore_stims/simple_19_B_b.gif","left","","","","",""
"","1362.7199998591095","html-keyboard-response","204","343979","0.0-39.0","SS1613138570662","pref_question","","50","","","","","<video width ='960' height = '540' style='padding-top:8%' autoplay muted><source src='images/stimuli/wall_pref.mp4' type='video/mp4'></video>","2","middle","45%","10","","","","","","","",""
"","641.9850001111627","sequential-stimulus-presentation","205","345506","0.0-40.0","SS1613138570662","pref_reveal","","40","800","1441.9850001111627","null","null","","","","","10","","","","novel","","","",""
"","null","html-keyboard-response","206","346812","0.0-41.0-0.0","SS1613138570662","","","null","","","","","<p><img src= images/blank.png width =""200"" height = ""200"" style = ""float:right""></p><p><img src=images/blank.png width =""800"" height = ""200""></p>","","","","","","","","","","","",""
"","230.29000009410083","sequential-stimulus-presentation","207","347900","0.0-41.0-1.0","SS1613138570662","trial","","40","800","1030.2900000941008","images/stimuli/spore_stims/complex_17_B_a.gif","images/stimuli/spore_stims/complex_09_A_b.gif","","","","","11","complex_dissimilar","images/stimuli/spore_stims/complex_09_A_b.gif","middle","","","","",""
"","null","html-keyboard-response","208","348860","0.0-41.0-0.1","SS1613138570662","","","null","","","","","<p><img src= images/blank.png width =""200"" height = ""200"" style = ""float:right""></p><p><img src=images/blank.png width =""800"" height = ""200""></p>","","","","","","","","","","","",""
"","415.6199998687953","sequential-stimulus-presentation","209","350113","0.0-41.0-1.1","SS1613138570662","trial","","40","800","1215.6199998687953","images/stimuli/spore_stims/complex_17_B_a.gif","images/stimuli/spore_stims/complex_09_A_b.gif","","","","","11","complex_dissimilar","images/stimuli/spore_stims/complex_09_A_b.gif","middle","","","","",""
"","null","html-keyboard-response","210","351196","0.0-41.0-0.2","SS1613138570662","","","null","","","","","<p><img src= images/blank.png width =""200"" height = ""200"" style = ""float:right""></p><p><img src=images/blank.png width =""800"" height = ""200""></p>","","","","","","","","","","","",""
"","75.0199998728931","sequential-stimulus-presentation","211","352173","0.0-41.0-1.2","SS1613138570662","trial","","40","800","875.0199998728931","images/stimuli/spore_stims/complex_17_B_a.gif","images/stimuli/spore_stims/complex_09_A_b.gif","","","","","11","complex_dissimilar","images/stimuli/spore_stims/complex_09_A_b.gif","middle","","","","",""
"","null","html-keyboard-response","212","353297","0.0-41.0-0.3","SS1613138570662","","","null","","","","","<p><img src= images/blank.png width =""200"" height = ""200"" style = ""float:right""></p><p><img src=images/blank.png width =""800"" height = ""200""></p>","","","","","","","","","","","",""
"","153.88499991968274","sequential-stimulus-presentation","213","354277","0.0-41.0-1.3","SS1613138570662","trial","","40","800","953.8849999196827","images/stimuli/spore_stims/complex_17_B_a.gif","images/stimuli/spore_stims/complex_09_A_b.gif","","","","","11","complex_dissimilar","images/stimuli/spore_stims/complex_17_B_a.gif","right","","","","",""
"","null","html-keyboard-response","214","355448","0.0-41.0-0.4","SS1613138570662","","","null","","","","","<p><img src= images/blank.png width =""200"" height = ""200"" style = ""float:right""></p><p><img src=images/blank.png width =""800"" height = ""200""></p>","","","","","","","","","","","",""
"","187.21499992534518","sequential-stimulus-presentation","215","356464","0.0-41.0-1.4","SS1613138570662","trial","","40","800","987.2149999253452","images/stimuli/spore_stims/complex_17_B_a.gif","images/stimuli/spore_stims/complex_09_A_b.gif","","","","","11","complex_dissimilar","images/stimuli/spore_stims/complex_09_A_b.gif","middle","","","","",""
"","null","html-keyboard-response","216","357350","0.0-41.0-0.5","SS1613138570662","","","null","","","","","<p><img src= images/blank.png width =""200"" height = ""200"" style = ""float:right""></p><p><img src=images/blank.png width =""800"" height = ""200""></p>","","","","","","","","","","","",""
"","126.35000003501773","sequential-stimulus-presentation","217","358319","0.0-41.0-1.5","SS1613138570662","trial","","40","800","926.3500000350177","images/stimuli/spore_stims/complex_17_B_a.gif","images/stimuli/spore_stims/complex_09_A_b.gif","","","","","11","complex_dissimilar","images/stimuli/spore_stims/complex_09_A_b.gif","middle","","","","",""
"","null","html-keyboard-response","218","359435","0.0-41.0-0.6","SS1613138570662","","","null","","","","","<p><img src= images/blank.png width =""200"" height = ""200"" style = ""float:right""></p><p><img src=images/blank.png width =""800"" height = ""200""></p>","","","","","","","","","","","",""
"","187.2650000732392","sequential-stimulus-presentation","219","360445","0.0-41.0-1.6","SS1613138570662","trial","","40","800","987.2650000732392","images/stimuli/spore_stims/complex_17_B_a.gif","images/stimuli/spore_stims/complex_09_A_b.gif","","","","","11","complex_dissimilar","images/stimuli/spore_stims/complex_09_A_b.gif","middle","","","","",""
"","null","html-keyboard-response","220","361581","0.0-41.0-0.7","SS1613138570662","","","null","","","","","<p><img src= images/blank.png width =""200"" height = ""200"" style = ""float:right""></p><p><img src=images/blank.png width =""800"" height = ""200""></p>","","","","","","","","","","","",""
"","478.6100001074374","sequential-stimulus-presentation","221","362909","0.0-41.0-1.7","SS1613138570662","trial","","40","800","1278.6100001074374","images/stimuli/spore_stims/complex_17_B_a.gif","images/stimuli/spore_stims/complex_09_A_b.gif","","","","","11","complex_dissimilar","images/stimuli/spore_stims/complex_09_A_b.gif","middle","","","","",""
"","1759.0749999508262","html-keyboard-response","222","364813","0.0-42.0","SS1613138570662","pref_question","","50","","","","","<video width ='960' height = '540' style='padding-top:8%' autoplay muted><source src='images/stimuli/wall_pref.mp4' type='video/mp4'></video>","2","middle","45%","11","","","","","","","",""
"","2052.000000141561","sequential-stimulus-presentation","223","367872","0.0-43.0","SS1613138570662","pref_reveal","","40","800","2852.000000141561","null","null","","","","","11","","","","background","","","",""
"","null","html-keyboard-response","224","368873","0.0-44.0-0.0","SS1613138570662","","","null","","","","","<p><img src= images/blank.png width =""200"" height = ""200"" style = ""float:right""></p><p><img src=images/blank.png width =""800"" height = ""200""></p>","","","","","","","","","","","",""
"","268.3800000231713","sequential-stimulus-presentation","225","369970","0.0-44.0-1.0","SS1613138570662","trial","","40","800","1068.3800000231713","images/stimuli/spore_stims/complex_11_B_a.gif","images/stimuli/spore_stims/complex_11_A_a.gif","","","","","12","complex_similar","images/stimuli/spore_stims/complex_11_A_a.gif","left","","","","",""
"","null","html-keyboard-response","226","370914","0.0-44.0-0.1","SS1613138570662","","","null","","","","","<p><img src= images/blank.png width =""200"" height = ""200"" style = ""float:right""></p><p><img src=images/blank.png width =""800"" height = ""200""></p>","","","","","","","","","","","",""
"","102.40500001236796","sequential-stimulus-presentation","227","371851","0.0-44.0-1.1","SS1613138570662","trial","","40","800","902.405000012368","images/stimuli/spore_stims/complex_11_B_a.gif","images/stimuli/spore_stims/complex_11_A_a.gif","","","","","12","complex_similar","images/stimuli/spore_stims/complex_11_A_a.gif","left","","","","",""
"","null","html-keyboard-response","228","373053","0.0-44.0-0.2","SS1613138570662","","","null","","","","","<p><img src= images/blank.png width =""200"" height = ""200"" style = ""float:right""></p><p><img src=images/blank.png width =""800"" height = ""200""></p>","","","","","","","","","","","",""
"","347.2649999894202","sequential-stimulus-presentation","229","374293","0.0-44.0-1.2","SS1613138570662","trial","","40","800","1147.2649999894202","images/stimuli/spore_stims/complex_11_B_a.gif","images/stimuli/spore_stims/complex_11_A_a.gif","","","","","12","complex_similar","images/stimuli/spore_stims/complex_11_A_a.gif","left","","","","",""
"","null","html-keyboard-response","230","375286","0.0-44.0-0.3","SS1613138570662","","","null","","","","","<p><img src= images/blank.png width =""200"" height = ""200"" style = ""float:right""></p><p><img src=images/blank.png width =""800"" height = ""200""></p>","","","","","","","","","","","",""
"","649.974999949336","sequential-stimulus-presentation","231","376756","0.0-44.0-1.3","SS1613138570662","trial","","40","800","1449.974999949336","images/stimuli/spore_stims/complex_11_B_a.gif","images/stimuli/spore_stims/complex_11_A_a.gif","","","","","12","complex_similar","images/stimuli/spore_stims/complex_11_B_a.gif","middle","","","","",""
"","null","html-keyboard-response","232","378012","0.0-44.0-0.4","SS1613138570662","","","null","","","","","<p><img src= images/blank.png width =""200"" height = ""200"" style = ""float:right""></p><p><img src=images/blank.png width =""800"" height = ""200""></p>","","","","","","","","","","","",""
"","318.71999986469746","sequential-stimulus-presentation","233","379193","0.0-44.0-1.4","SS1613138570662","trial","","40","800","1118.7199998646975","images/stimuli/spore_stims/complex_11_B_a.gif","images/stimuli/spore_stims/complex_11_A_a.gif","","","","","12","complex_similar","images/stimuli/spore_stims/complex_11_A_a.gif","left","","","","",""
"","null","html-keyboard-response","234","380129","0.0-44.0-0.5","SS1613138570662","","","null","","","","","<p><img src= images/blank.png width =""200"" height = ""200"" style = ""float:right""></p><p><img src=images/blank.png width =""800"" height = ""200""></p>","","","","","","","","","","","",""
"","130.73999993503094","sequential-stimulus-presentation","235","381095","0.0-44.0-1.5","SS1613138570662","trial","","40","800","930.7399999350309","images/stimuli/spore_stims/complex_11_B_a.gif","images/stimuli/spore_stims/complex_11_A_a.gif","","","","","12","complex_similar","images/stimuli/spore_stims/complex_11_A_a.gif","left","","","","",""
"","null","html-keyboard-response","236","382033","0.0-44.0-0.6","SS1613138570662","","","null","","","","","<p><img src= images/blank.png width =""200"" height = ""200"" style = ""float:right""></p><p><img src=images/blank.png width =""800"" height = ""200""></p>","","","","","","","","","","","",""
"","52.0599998999387","sequential-stimulus-presentation","237","382927","0.0-44.0-1.6","SS1613138570662","trial","","40","800","852.0599998999387","images/stimuli/spore_stims/complex_11_B_a.gif","images/stimuli/spore_stims/complex_11_A_a.gif","","","","","12","complex_similar","images/stimuli/spore_stims/complex_11_A_a.gif","left","","","","",""
"","null","html-keyboard-response","238","383884","0.0-44.0-0.7","SS1613138570662","","","null","","","","","<p><img src= images/blank.png width =""200"" height = ""200"" style = ""float:right""></p><p><img src=images/blank.png width =""800"" height = ""200""></p>","","","","","","","","","","","",""
"","779.6150001231581","sequential-stimulus-presentation","239","385501","0.0-44.0-1.7","SS1613138570662","trial","","40","800","1579.615000123158","images/stimuli/spore_stims/complex_11_B_a.gif","images/stimuli/spore_stims/complex_11_A_a.gif","","","","","12","complex_similar","images/stimuli/spore_stims/complex_11_A_a.gif","left","","","","",""
"","1293.5099999886006","html-keyboard-response","240","386811","0.0-45.0","SS1613138570662","pref_question","","50","","","","","<video width ='960' height = '540' style='padding-top:8%' autoplay muted><source src='images/stimuli/wall_pref.mp4' type='video/mp4'></video>","2","middle","45%","12","","","","","","","",""
"","1586.7200000211596","sequential-stimulus-presentation","241","389238","0.0-46.0","SS1613138570662","pref_reveal","","40","800","2386.7200000211596","null","null","","","","","12","","","","deviant","","","",""
"","null","html-keyboard-response","242","390164","0.0-47.0-0.0","SS1613138570662","","","null","","","","","<p><img src= images/blank.png width =""200"" height = ""200"" style = ""float:right""></p><p><img src=images/blank.png width =""800"" height = ""200""></p>","","","","","","","","","","","",""
"","519.1549998708069","sequential-stimulus-presentation","243","391582","0.0-47.0-1.0","SS1613138570662","trial","","40","800","1319.154999870807","images/stimuli/spore_stims/complex_02_B_b.gif","images/stimuli/spore_stims/complex_02_A_b.gif","","","","","13","complex_similar","images/stimuli/spore_stims/complex_02_A_b.gif","left","","","","",""
"","null","html-keyboard-response","244","392865","0.0-47.0-0.1","SS1613138570662","","","null","","","","","<p><img src= images/blank.png width =""200"" height = ""200"" style = ""float:right""></p><p><img src=images/blank.png width =""800"" height = ""200""></p>","","","","","","","","","","","",""
"","629.0150000713766","sequential-stimulus-presentation","245","394314","0.0-47.0-1.1","SS1613138570662","trial","","40","800","1429.0150000713766","images/stimuli/spore_stims/complex_02_B_b.gif","images/stimuli/spore_stims/complex_02_A_b.gif","","","","","13","complex_similar","images/stimuli/spore_stims/complex_02_A_b.gif","left","","","","",""
"","null","html-keyboard-response","246","395509","0.0-47.0-0.2","SS1613138570662","","","null","","","","","<p><img src= images/blank.png width =""200"" height = ""200"" style = ""float:right""></p><p><img src=images/blank.png width =""800"" height = ""200""></p>","","","","","","","","","","","",""
"","182.7449998818338","sequential-stimulus-presentation","247","396533","0.0-47.0-1.2","SS1613138570662","trial","","40","800","982.7449998818338","images/stimuli/spore_stims/complex_02_B_b.gif","images/stimuli/spore_stims/complex_02_A_b.gif","","","","","13","complex_similar","images/stimuli/spore_stims/complex_02_A_b.gif","left","","","","",""
"","null","html-keyboard-response","248","397666","0.0-47.0-0.3","SS1613138570662","","","null","","","","","<p><img src= images/blank.png width =""200"" height = ""200"" style = ""float:right""></p><p><img src=images/blank.png width =""800"" height = ""200""></p>","","","","","","","","","","","",""
"","305.14499987475574","sequential-stimulus-presentation","249","398817","0.0-47.0-1.3","SS1613138570662","trial","","40","800","1105.1449998747557","images/stimuli/spore_stims/complex_02_B_b.gif","images/stimuli/spore_stims/complex_02_A_b.gif","","","","","13","complex_similar","images/stimuli/spore_stims/complex_02_A_b.gif","left","","","","",""
"","null","html-keyboard-response","250","400119","0.0-47.0-0.4","SS1613138570662","","","null","","","","","<p><img src= images/blank.png width =""200"" height = ""200"" style = ""float:right""></p><p><img src=images/blank.png width =""800"" height = ""200""></p>","","","","","","","","","","","",""
"","649.0700000431389","sequential-stimulus-presentation","251","401663","0.0-47.0-1.4","SS1613138570662","trial","","40","800","1449.0700000431389","images/stimuli/spore_stims/complex_02_B_b.gif","images/stimuli/spore_stims/complex_02_A_b.gif","","","","","13","complex_similar","images/stimuli/spore_stims/complex_02_B_b.gif","middle","","","","",""
"","null","html-keyboard-response","252","402641","0.0-47.0-0.5","SS1613138570662","","","null","","","","","<p><img src= images/blank.png width =""200"" height = ""200"" style = ""float:right""></p><p><img src=images/blank.png width =""800"" height = ""200""></p>","","","","","","","","","","","",""
"","20.825000014156103","sequential-stimulus-presentation","253","403506","0.0-47.0-1.5","SS1613138570662","trial","","40","800","820.8250000141561","images/stimuli/spore_stims/complex_02_B_b.gif","images/stimuli/spore_stims/complex_02_A_b.gif","","","","","13","complex_similar","images/stimuli/spore_stims/complex_02_A_b.gif","left","","","","",""
"","null","html-keyboard-response","254","404339","0.0-47.0-0.6","SS1613138570662","","","null","","","","","<p><img src= images/blank.png width =""200"" height = ""200"" style = ""float:right""></p><p><img src=images/blank.png width =""800"" height = ""200""></p>","","","","","","","","","","","",""
"","16.155000077560544","sequential-stimulus-presentation","255","405200","0.0-47.0-1.6","SS1613138570662","trial","","40","800","816.1550000775605","images/stimuli/spore_stims/complex_02_B_b.gif","images/stimuli/spore_stims/complex_02_A_b.gif","","","","","13","complex_similar","images/stimuli/spore_stims/complex_02_A_b.gif","left","","","","",""
"","null","html-keyboard-response","256","406649","0.0-47.0-0.7","SS1613138570662","","","null","","","","","<p><img src= images/blank.png width =""200"" height = ""200"" style = ""float:right""></p><p><img src=images/blank.png width =""800"" height = ""200""></p>","","","","","","","","","","","",""
"","251.88000011257827","sequential-stimulus-presentation","257","407747","0.0-47.0-1.7","SS1613138570662","trial","","40","800","1051.8800001125783","images/stimuli/spore_stims/complex_02_B_b.gif","images/stimuli/spore_stims/complex_02_A_b.gif","","","","","13","complex_similar","images/stimuli/spore_stims/complex_02_A_b.gif","left","","","","",""
"","2711.2350000534207","html-keyboard-response","258","410472","0.0-48.0","SS1613138570662","pref_question","","50","","","","","<video width ='960' height = '540' style='padding-top:8%' autoplay muted><source src='images/stimuli/wall_pref.mp4' type='video/mp4'></video>","2","middle","45%","13","","","","","","","",""
"","187.21999996341765","sequential-stimulus-presentation","259","411535","0.0-49.0","SS1613138570662","pref_reveal","","40","800","987.2199999634176","null","null","","","","","13","","","","deviant","","","",""
"","null","html-keyboard-response","260","412495","0.0-50.0-0.0","SS1613138570662","","","null","","","","","<p><img src= images/blank.png width =""200"" height = ""200"" style = ""float:right""></p><p><img src=images/blank.png width =""800"" height = ""200""></p>","","","","","","","","","","","",""
"","397.9500001296401","sequential-stimulus-presentation","261","413739","0.0-50.0-1.0","SS1613138570662","trial","","40","800","1197.95000012964","images/stimuli/spore_stims/simple_15_B_b.gif","images/stimuli/spore_stims/simple_15_A_b.gif","","","","","14","simple_similar","images/stimuli/spore_stims/simple_15_A_b.gif","right","","","","",""
"","null","html-keyboard-response","262","414946","0.0-50.0-0.1","SS1613138570662","","","null","","","","","<p><img src= images/blank.png width =""200"" height = ""200"" style = ""float:right""></p><p><img src=images/blank.png width =""800"" height = ""200""></p>","","","","","","","","","","","",""
"","155.28999990783632","sequential-stimulus-presentation","263","416086","0.0-50.0-1.1","SS1613138570662","trial","","40","800","955.2899999078363","images/stimuli/spore_stims/simple_15_B_b.gif","images/stimuli/spore_stims/simple_15_A_b.gif","","","","","14","simple_similar","images/stimuli/spore_stims/simple_15_A_b.gif","right","","","","",""
"","null","html-keyboard-response","264","416943","0.0-50.0-0.2","SS1613138570662","","","null","","","","","<p><img src= images/blank.png width =""200"" height = ""200"" style = ""float:right""></p><p><img src=images/blank.png width =""800"" height = ""200""></p>","","","","","","","","","","","",""
"","5.529999965801835","sequential-stimulus-presentation","265","417817","0.0-50.0-1.2","SS1613138570662","trial","","40","800","805.5299999658018","images/stimuli/spore_stims/simple_15_B_b.gif","images/stimuli/spore_stims/simple_15_A_b.gif","","","","","14","simple_similar","images/stimuli/spore_stims/simple_15_B_b.gif","left","","","","",""
"","null","html-keyboard-response","266","418674","0.0-50.0-0.3","SS1613138570662","","","null","","","","","<p><img src= images/blank.png width =""200"" height = ""200"" style = ""float:right""></p><p><img src=images/blank.png width =""800"" height = ""200""></p>","","","","","","","","","","","",""
"","6.569999968633056","sequential-stimulus-presentation","267","419530","0.0-50.0-1.3","SS1613138570662","trial","","40","800","806.569999968633","images/stimuli/spore_stims/simple_15_B_b.gif","images/stimuli/spore_stims/simple_15_A_b.gif","","","","","14","simple_similar","images/stimuli/spore_stims/simple_15_A_b.gif","right","","","","",""
"","null","html-keyboard-response","268","420850","0.0-50.0-0.4","SS1613138570662","","","null","","","","","<p><img src= images/blank.png width =""200"" height = ""200"" style = ""float:right""></p><p><img src=images/blank.png width =""800"" height = ""200""></p>","","","","","","","","","","","",""
"","92.74499979801476","sequential-stimulus-presentation","269","421768","0.0-50.0-1.4","SS1613138570662","trial","","40","800","892.7449997980148","images/stimuli/spore_stims/simple_15_B_b.gif","images/stimuli/spore_stims/simple_15_A_b.gif","","","","","14","simple_similar","images/stimuli/spore_stims/simple_15_A_b.gif","right","","","","",""
"","null","html-keyboard-response","270","422737","0.0-50.0-0.5","SS1613138570662","","","null","","","","","<p><img src= images/blank.png width =""200"" height = ""200"" style = ""float:right""></p><p><img src=images/blank.png width =""800"" height = ""200""></p>","","","","","","","","","","","",""
"","328.38000007905066","sequential-stimulus-presentation","271","423983","0.0-50.0-1.5","SS1613138570662","trial","","40","800","1128.3800000790507","images/stimuli/spore_stims/simple_15_B_b.gif","images/stimuli/spore_stims/simple_15_A_b.gif","","","","","14","simple_similar","images/stimuli/spore_stims/simple_15_A_b.gif","right","","","","",""
"","null","html-keyboard-response","272","425075","0.0-50.0-0.6","SS1613138570662","","","null","","","","","<p><img src= images/blank.png width =""200"" height = ""200"" style = ""float:right""></p><p><img src=images/blank.png width =""800"" height = ""200""></p>","","","","","","","","","","","",""
"","352.0849999040365","sequential-stimulus-presentation","273","426268","0.0-50.0-1.6","SS1613138570662","trial","","40","800","1152.0849999040365","images/stimuli/spore_stims/simple_15_B_b.gif","images/stimuli/spore_stims/simple_15_A_b.gif","","","","","14","simple_similar","images/stimuli/spore_stims/simple_15_A_b.gif","right","","","","",""
"","null","html-keyboard-response","274","427327","0.0-50.0-0.7","SS1613138570662","","","null","","","","","<p><img src= images/blank.png width =""200"" height = ""200"" style = ""float:right""></p><p><img src=images/blank.png width =""800"" height = ""200""></p>","","","","","","","","","","","",""
"","473.25000003911555","sequential-stimulus-presentation","275","428651","0.0-50.0-1.7","SS1613138570662","trial","","40","800","1273.2500000391155","images/stimuli/spore_stims/simple_15_B_b.gif","images/stimuli/spore_stims/simple_15_A_b.gif","","","","","14","simple_similar","images/stimuli/spore_stims/simple_15_A_b.gif","right","","","","",""
"","1649.0149998571724","html-keyboard-response","276","430329","0.0-51.0","SS1613138570662","pref_question","","50","","","","","<video width ='960' height = '540' style='padding-top:8%' autoplay muted><source src='images/stimuli/wall_pref.mp4' type='video/mp4'></video>","2","middle","45%","14","","","","","","","",""
"","1104.5800000429153","sequential-stimulus-presentation","277","432280","0.0-52.0","SS1613138570662","pref_reveal","","40","800","1904.5800000429153","null","null","","","","","14","","","","novel","","","",""
"","null","html-keyboard-response","278","433245","0.0-53.0-0.0","SS1613138570662","","","null","","","","","<p><img src= images/blank.png width =""200"" height = ""200"" style = ""float:right""></p><p><img src=images/blank.png width =""800"" height = ""200""></p>","","","","","","","","","","","",""
"","71.06500002555549","sequential-stimulus-presentation","279","434169","0.0-53.0-1.0","SS1613138570662","trial","","40","800","871.0650000255555","images/stimuli/spore_stims/simple_13_B_d.gif","images/stimuli/spore_stims/simple_06_B_c.gif","","","","","15","simple_dissimilar","images/stimuli/spore_stims/simple_06_B_c.gif","left","","","","",""
"","null","html-keyboard-response","280","435256","0.0-53.0-0.1","SS1613138570662","","","null","","","","","<p><img src= images/blank.png width =""200"" height = ""200"" style = ""float:right""></p><p><img src=images/blank.png width =""800"" height = ""200""></p>","","","","","","","","","","","",""
"","688.5450000409037","sequential-stimulus-presentation","281","436796","0.0-53.0-1.1","SS1613138570662","trial","","40","800","1488.5450000409037","images/stimuli/spore_stims/simple_13_B_d.gif","images/stimuli/spore_stims/simple_06_B_c.gif","","","","","15","simple_dissimilar","images/stimuli/spore_stims/simple_06_B_c.gif","left","","","","",""
"","null","html-keyboard-response","282","437889","0.0-53.0-0.2","SS1613138570662","","","null","","","","","<p><img src= images/blank.png width =""200"" height = ""200"" style = ""float:right""></p><p><img src=images/blank.png width =""800"" height = ""200""></p>","","","","","","","","","","","",""
"","941.2249999586493","sequential-stimulus-presentation","283","439687","0.0-53.0-1.2","SS1613138570662","trial","","40","800","1741.2249999586493","images/stimuli/spore_stims/simple_13_B_d.gif","images/stimuli/spore_stims/simple_06_B_c.gif","","","","","15","simple_dissimilar","images/stimuli/spore_stims/simple_06_B_c.gif","left","","","","",""
"","null","html-keyboard-response","284","440985","0.0-53.0-0.3","SS1613138570662","","","null","","","","","<p><img src= images/blank.png width =""200"" height = ""200"" style = ""float:right""></p><p><img src=images/blank.png width =""800"" height = ""200""></p>","","","","","","","","","","","",""
"","3846.949999919161","sequential-stimulus-presentation","285","445654","0.0-53.0-1.3","SS1613138570662","trial","","40","800","4646.949999919161","images/stimuli/spore_stims/simple_13_B_d.gif","images/stimuli/spore_stims/simple_06_B_c.gif","","","","","15","simple_dissimilar","images/stimuli/spore_stims/simple_13_B_d.gif","middle","","","","",""
"","null","html-keyboard-response","286","446518","0.0-53.0-0.4","SS1613138570662","","","null","","","","","<p><img src= images/blank.png width =""200"" height = ""200"" style = ""float:right""></p><p><img src=images/blank.png width =""800"" height = ""200""></p>","","","","","","","","","","","",""
"","1143.7349999323487","sequential-stimulus-presentation","287","448495","0.0-53.0-1.4","SS1613138570662","trial","","40","800","1943.7349999323487","images/stimuli/spore_stims/simple_13_B_d.gif","images/stimuli/spore_stims/simple_06_B_c.gif","","","","","15","simple_dissimilar","images/stimuli/spore_stims/simple_06_B_c.gif","left","","","","",""
"","null","html-keyboard-response","288","449365","0.0-53.0-0.5","SS1613138570662","","","null","","","","","<p><img src= images/blank.png width =""200"" height = ""200"" style = ""float:right""></p><p><img src=images/blank.png width =""800"" height = ""200""></p>","","","","","","","","","","","",""
"","65.82000013440847","sequential-stimulus-presentation","289","450279","0.0-53.0-1.5","SS1613138570662","trial","","40","800","865.8200001344085","images/stimuli/spore_stims/simple_13_B_d.gif","images/stimuli/spore_stims/simple_06_B_c.gif","","","","","15","simple_dissimilar","images/stimuli/spore_stims/simple_06_B_c.gif","left","","","","",""
"","null","html-keyboard-response","290","451639","0.0-53.0-0.6","SS1613138570662","","","null","","","","","<p><img src= images/blank.png width =""200"" height = ""200"" style = ""float:right""></p><p><img src=images/blank.png width =""800"" height = ""200""></p>","","","","","","","","","","","",""
"","325.13000001199543","sequential-stimulus-presentation","291","452831","0.0-53.0-1.6","SS1613138570662","trial","","40","800","1125.1300000119954","images/stimuli/spore_stims/simple_13_B_d.gif","images/stimuli/spore_stims/simple_06_B_c.gif","","","","","15","simple_dissimilar","images/stimuli/spore_stims/simple_06_B_c.gif","left","","","","",""
"","null","html-keyboard-response","292","453920","0.0-53.0-0.7","SS1613138570662","","","null","","","","","<p><img src= images/blank.png width =""200"" height = ""200"" style = ""float:right""></p><p><img src=images/blank.png width =""800"" height = ""200""></p>","","","","","","","","","","","",""
"","19043.640000047162","sequential-stimulus-presentation","293","474130","0.0-53.0-1.7","SS1613138570662","trial","","40","800","19843.640000047162","images/stimuli/spore_stims/simple_13_B_d.gif","images/stimuli/spore_stims/simple_06_B_c.gif","","","","","15","simple_dissimilar","images/stimuli/spore_stims/simple_06_B_c.gif","left","","","","",""
"","3543.055000016466","html-keyboard-response","294","477687","0.0-54.0","SS1613138570662","pref_question","","49","","","","","<video width ='960' height = '540' style='padding-top:8%' autoplay muted><source src='images/stimuli/wall_pref.mp4' type='video/mp4'></video>","1","left","25%","15","","","","","","","",""
"","568.3949999511242","sequential-stimulus-presentation","295","479080","0.0-55.0","SS1613138570662","pref_reveal","","40","800","1368.3949999511242","null","null","","","","","15","","","","background","","","",""
"","null","html-keyboard-response","296","480175","0.0-56.0-0.0","SS1613138570662","","","null","","","","","<p><img src= images/blank.png width =""200"" height = ""200"" style = ""float:right""></p><p><img src=images/blank.png width =""800"" height = ""200""></p>","","","","","","","","","","","",""
"","124.36500005424023","sequential-stimulus-presentation","297","481144","0.0-56.0-1.0","SS1613138570662","trial","","40","800","924.3650000542402","images/stimuli/spore_stims/simple_08_A_b.gif","images/stimuli/spore_stims/simple_04_B_b.gif","","","","","16","simple_dissimilar","images/stimuli/spore_stims/simple_04_B_b.gif","left","","","","",""
"","null","html-keyboard-response","298","482274","0.0-56.0-0.1","SS1613138570662","","","null","","","","","<p><img src= images/blank.png width =""200"" height = ""200"" style = ""float:right""></p><p><img src=images/blank.png width =""800"" height = ""200""></p>","","","","","","","","","","","",""
"","2669.8099998757243","sequential-stimulus-presentation","299","485784","0.0-56.0-1.1","SS1613138570662","trial","","40","800","3469.8099998757243","images/stimuli/spore_stims/simple_08_A_b.gif","images/stimuli/spore_stims/simple_04_B_b.gif","","","","","16","simple_dissimilar","images/stimuli/spore_stims/simple_04_B_b.gif","left","","","","",""
"","null","html-keyboard-response","300","486924","0.0-56.0-0.2","SS1613138570662","","","null","","","","","<p><img src= images/blank.png width =""200"" height = ""200"" style = ""float:right""></p><p><img src=images/blank.png width =""800"" height = ""200""></p>","","","","","","","","","","","",""
"","272.1299999393523","sequential-stimulus-presentation","301","488080","0.0-56.0-1.2","SS1613138570662","trial","","40","800","1072.1299999393523","images/stimuli/spore_stims/simple_08_A_b.gif","images/stimuli/spore_stims/simple_04_B_b.gif","","","","","16","simple_dissimilar","images/stimuli/spore_stims/simple_04_B_b.gif","left","","","","",""
"","null","html-keyboard-response","302","489209","0.0-56.0-0.3","SS1613138570662","","","null","","","","","<p><img src= images/blank.png width =""200"" height = ""200"" style = ""float:right""></p><p><img src=images/blank.png width =""800"" height = ""200""></p>","","","","","","","","","","","",""
"","1455.2350000012666","sequential-stimulus-presentation","303","491579","0.0-56.0-1.3","SS1613138570662","trial","","40","800","2255.2350000012666","images/stimuli/spore_stims/simple_08_A_b.gif","images/stimuli/spore_stims/simple_04_B_b.gif","","","","","16","simple_dissimilar","images/stimuli/spore_stims/simple_08_A_b.gif","right","","","","",""
"","null","html-keyboard-response","304","492800","0.0-56.0-0.4","SS1613138570662","","","null","","","","","<p><img src= images/blank.png width =""200"" height = ""200"" style = ""float:right""></p><p><img src=images/blank.png width =""800"" height = ""200""></p>","","","","","","","","","","","",""
"","1.1050000321120024","sequential-stimulus-presentation","305","493637","0.0-56.0-1.4","SS1613138570662","trial","","40","800","801.105000032112","images/stimuli/spore_stims/simple_08_A_b.gif","images/stimuli/spore_stims/simple_04_B_b.gif","","","","","16","simple_dissimilar","images/stimuli/spore_stims/simple_04_B_b.gif","left","","","","",""
"","null","html-keyboard-response","306","494556","0.0-56.0-0.5","SS1613138570662","","","null","","","","","<p><img src= images/blank.png width =""200"" height = ""200"" style = ""float:right""></p><p><img src=images/blank.png width =""800"" height = ""200""></p>","","","","","","","","","","","",""
"","1143.5149998869747","sequential-stimulus-presentation","307","496591","0.0-56.0-1.5","SS1613138570662","trial","","40","800","1943.5149998869747","images/stimuli/spore_stims/simple_08_A_b.gif","images/stimuli/spore_stims/simple_04_B_b.gif","","","","","16","simple_dissimilar","images/stimuli/spore_stims/simple_04_B_b.gif","left","","","","",""
"","null","html-keyboard-response","308","497751","0.0-56.0-0.6","SS1613138570662","","","null","","","","","<p><img src= images/blank.png width =""200"" height = ""200"" style = ""float:right""></p><p><img src=images/blank.png width =""800"" height = ""200""></p>","","","","","","","","","","","",""
"","586.9050000328571","sequential-stimulus-presentation","309","499169","0.0-56.0-1.6","SS1613138570662","trial","","40","800","1386.905000032857","images/stimuli/spore_stims/simple_08_A_b.gif","images/stimuli/spore_stims/simple_04_B_b.gif","","","","","16","simple_dissimilar","images/stimuli/spore_stims/simple_04_B_b.gif","left","","","","",""
"","null","html-keyboard-response","310","500139","0.0-56.0-0.7","SS1613138570662","","","null","","","","","<p><img src= images/blank.png width =""200"" height = ""200"" style = ""float:right""></p><p><img src=images/blank.png width =""800"" height = ""200""></p>","","","","","","","","","","","",""
"","167.30000008828938","sequential-stimulus-presentation","311","501163","0.0-56.0-1.7","SS1613138570662","trial","","40","800","967.3000000882894","images/stimuli/spore_stims/simple_08_A_b.gif","images/stimuli/spore_stims/simple_04_B_b.gif","","","","","16","simple_dissimilar","images/stimuli/spore_stims/simple_04_B_b.gif","left","","","","",""
"","10520.30500001274","html-keyboard-response","312","511714","0.0-57.0","SS1613138570662","pref_question","","51","","","","","<video width ='960' height = '540' style='padding-top:8%' autoplay muted><source src='images/stimuli/wall_pref.mp4' type='video/mp4'></video>","3","right","66%","16","","","","","","","",""
