"view_history","rt","trial_type","trial_index","time_elapsed","internal_node_id","subject","stimulus_type","trial_stimulus","key_press","minimum_viewing_duration","trial_looking_time","block_deviant","block_background","stimulus","wall_pref","location","location_percent","block_number","block_type","stimulus_displayed","position_displayed","stim_type_selected","responses","question_order","stimulus_left","stimulus_right"
"[{""page_index"":0,""viewing_time"":9435.044999991078}]","9435.8099999954","instructions","0","9438","0.0-0.0","SS1613138604289","","","","","","","","","","","","","","","","","","","",""
"[{""page_index"":0,""viewing_time"":1610.4149999737274},{""page_index"":1,""viewing_time"":2450.9200000029523}]","4061.874999984866","instructions","1","15503","0.0-1.0","SS1613138604289","instructions","","","","","","","","","","","","","","","","","","",""
"","4545.639999996638","sequential-stimulus-presentation","2","20855","0.0-2.0","SS1613138604289","","","40","800","5345.639999996638","null","null","","","","","","","","","","","","",""
"","68.95499999518506","sequential-stimulus-presentation","3","21730","0.0-3.0","SS1613138604289","","","40","800","868.9549999951851","null","null","","","","","","","","","","","","",""
"[{""page_index"":0,""viewing_time"":1174.219999986235}]","1174.509999982547","instructions","4","22906","0.0-4.0","SS1613138604289","instructions","","","","","","","","","","","","","","","","","","",""
"","1972.0199999865144","html-keyboard-response","5","24881","0.0-5.0","SS1613138604289","instructions","","49","","","","","<video width ='960' height = '540' autoplay muted><source src='images/stimuli/wall_pref.mp4' type='video/mp4'></video>","1","left","25%","","","","","","","","",""
"","4.329999996116385","sequential-stimulus-presentation","6","25701","0.0-6.0","SS1613138604289","pref_reveal","","40","800","804.3299999961164","null","null","","","","","","","","","","","","",""
"[{""page_index"":0,""viewing_time"":1258.5149999940768},{""page_index"":1,""viewing_time"":2132.465000002412},{""page_index"":2,""viewing_time"":1177.2349999810103},{""page_index"":3,""viewing_time"":1008.4250000072643}]","5577.049999992596","instructions","7","31279","0.0-7.0","SS1613138604289","instructions","","","","","","","","","","","","","","","","","","",""
"","null","html-keyboard-response","8","32525","0.0-8.0-0.0","SS1613138604289","","","null","","","","","<p><img src= images/blank.png width =""200"" height = ""200"" style = ""float:right""></p><p><img src=images/blank.png width =""800"" height = ""200""></p>","","","","","","","","","","","",""
"","40.03999999258667","sequential-stimulus-presentation","9","33373","0.0-8.0-1.0","SS1613138604289","trial","","40","800","840.0399999925867","images/stimuli/spore_stims/simple_16_B_d.gif","images/stimuli/spore_stims/simple_01_B_c.gif","","","","","0","simple_dissimilar","images/stimuli/spore_stims/simple_01_B_c.gif","right","","","","",""
"","null","html-keyboard-response","10","34478","0.0-8.0-0.1","SS1613138604289","","","null","","","","","<p><img src= images/blank.png width =""200"" height = ""200"" style = ""float:right""></p><p><img src=images/blank.png width =""800"" height = ""200""></p>","","","","","","","","","","","",""
"","103.21500001009554","sequential-stimulus-presentation","11","35387","0.0-8.0-1.1","SS1613138604289","trial","","40","800","903.2150000100955","images/stimuli/spore_stims/simple_16_B_d.gif","images/stimuli/spore_stims/simple_01_B_c.gif","","","","","0","simple_dissimilar","images/stimuli/spore_stims/simple_01_B_c.gif","right","","","","",""
"","null","html-keyboard-response","12","36390","0.0-8.0-0.2","SS1613138604289","","","null","","","","","<p><img src= images/blank.png width =""200"" height = ""200"" style = ""float:right""></p><p><img src=images/blank.png width =""800"" height = ""200""></p>","","","","","","","","","","","",""
"","554.5099999872036","sequential-stimulus-presentation","13","37749","0.0-8.0-1.2","SS1613138604289","trial","","40","800","1354.5099999872036","images/stimuli/spore_stims/simple_16_B_d.gif","images/stimuli/spore_stims/simple_01_B_c.gif","","","","","0","simple_dissimilar","images/stimuli/spore_stims/simple_16_B_d.gif","middle","","","","",""
"","null","html-keyboard-response","14","39018","0.0-8.0-0.3","SS1613138604289","","","null","","","","","<p><img src= images/blank.png width =""200"" height = ""200"" style = ""float:right""></p><p><img src=images/blank.png width =""800"" height = ""200""></p>","","","","","","","","","","","",""
"","14.679999992949888","sequential-stimulus-presentation","15","39838","0.0-8.0-1.3","SS1613138604289","trial","","40","800","814.6799999929499","images/stimuli/spore_stims/simple_16_B_d.gif","images/stimuli/spore_stims/simple_01_B_c.gif","","","","","0","simple_dissimilar","images/stimuli/spore_stims/simple_01_B_c.gif","right","","","","",""
"","null","html-keyboard-response","16","40963","0.0-8.0-0.4","SS1613138604289","","","null","","","","","<p><img src= images/blank.png width =""200"" height = ""200"" style = ""float:right""></p><p><img src=images/blank.png width =""800"" height = ""200""></p>","","","","","","","","","","","",""
"","139.84499999787658","sequential-stimulus-presentation","17","41934","0.0-8.0-1.4","SS1613138604289","trial","","40","800","939.8449999978766","images/stimuli/spore_stims/simple_16_B_d.gif","images/stimuli/spore_stims/simple_01_B_c.gif","","","","","0","simple_dissimilar","images/stimuli/spore_stims/simple_01_B_c.gif","right","","","","",""
"","null","html-keyboard-response","18","43037","0.0-8.0-0.5","SS1613138604289","","","null","","","","","<p><img src= images/blank.png width =""200"" height = ""200"" style = ""float:right""></p><p><img src=images/blank.png width =""800"" height = ""200""></p>","","","","","","","","","","","",""
"","116.10499999369495","sequential-stimulus-presentation","19","43958","0.0-8.0-1.5","SS1613138604289","trial","","40","800","916.104999993695","images/stimuli/spore_stims/simple_16_B_d.gif","images/stimuli/spore_stims/simple_01_B_c.gif","","","","","0","simple_dissimilar","images/stimuli/spore_stims/simple_01_B_c.gif","right","","","","",""
"","null","html-keyboard-response","20","44802","0.0-8.0-0.6","SS1613138604289","","","null","","","","","<p><img src= images/blank.png width =""200"" height = ""200"" style = ""float:right""></p><p><img src=images/blank.png width =""800"" height = ""200""></p>","","","","","","","","","","","",""
"","125.99000000045635","sequential-stimulus-presentation","21","45735","0.0-8.0-1.6","SS1613138604289","trial","","40","800","925.9900000004563","images/stimuli/spore_stims/simple_16_B_d.gif","images/stimuli/spore_stims/simple_01_B_c.gif","","","","","0","simple_dissimilar","images/stimuli/spore_stims/simple_01_B_c.gif","right","","","","",""
"","null","html-keyboard-response","22","46831","0.0-8.0-0.7","SS1613138604289","","","null","","","","","<p><img src= images/blank.png width =""200"" height = ""200"" style = ""float:right""></p><p><img src=images/blank.png width =""800"" height = ""200""></p>","","","","","","","","","","","",""
"","215.43499999097548","sequential-stimulus-presentation","23","47850","0.0-8.0-1.7","SS1613138604289","trial","","40","800","1015.4349999909755","images/stimuli/spore_stims/simple_16_B_d.gif","images/stimuli/spore_stims/simple_01_B_c.gif","","","","","0","simple_dissimilar","images/stimuli/spore_stims/simple_01_B_c.gif","right","","","","",""
"","185.83500001113862","html-keyboard-response","24","48040","0.0-9.0","SS1613138604289","pref_question","","51","","","","","<video width ='960' height = '540' style='padding-top:8%' autoplay muted><source src='images/stimuli/wall_pref.mp4' type='video/mp4'></video>","3","right","66%","0","","","","","","","",""
"","134.1649999958463","sequential-stimulus-presentation","25","48980","0.0-10.0","SS1613138604289","pref_reveal","","40","800","934.1649999958463","null","null","","","","","0","","","","background","","","",""
"","null","html-keyboard-response","26","50190","0.0-11.0-0.0","SS1613138604289","","","null","","","","","<p><img src= images/blank.png width =""200"" height = ""200"" style = ""float:right""></p><p><img src=images/blank.png width =""800"" height = ""200""></p>","","","","","","","","","","","",""
"","396.3400000066031","sequential-stimulus-presentation","27","51391","0.0-11.0-1.0","SS1613138604289","trial","","40","800","1196.340000006603","images/stimuli/spore_stims/simple_10_A_d.gif","images/stimuli/spore_stims/simple_01_A_b.gif","","","","","1","simple_dissimilar","images/stimuli/spore_stims/simple_01_A_b.gif","left","","","","",""
"","null","html-keyboard-response","28","52615","0.0-11.0-0.1","SS1613138604289","","","null","","","","","<p><img src= images/blank.png width =""200"" height = ""200"" style = ""float:right""></p><p><img src=images/blank.png width =""800"" height = ""200""></p>","","","","","","","","","","","",""
"","88.58999999938533","sequential-stimulus-presentation","29","53511","0.0-11.0-1.1","SS1613138604289","trial","","40","800","888.5899999993853","images/stimuli/spore_stims/simple_10_A_d.gif","images/stimuli/spore_stims/simple_01_A_b.gif","","","","","1","simple_dissimilar","images/stimuli/spore_stims/simple_01_A_b.gif","left","","","","",""
"","null","html-keyboard-response","30","54688","0.0-11.0-0.2","SS1613138604289","","","null","","","","","<p><img src= images/blank.png width =""200"" height = ""200"" style = ""float:right""></p><p><img src=images/blank.png width =""800"" height = ""200""></p>","","","","","","","","","","","",""
"","195.29999999213032","sequential-stimulus-presentation","31","55714","0.0-11.0-1.2","SS1613138604289","trial","","40","800","995.2999999921303","images/stimuli/spore_stims/simple_10_A_d.gif","images/stimuli/spore_stims/simple_01_A_b.gif","","","","","1","simple_dissimilar","images/stimuli/spore_stims/simple_01_A_b.gif","left","","","","",""
"","null","html-keyboard-response","32","56545","0.0-11.0-0.3","SS1613138604289","","","null","","","","","<p><img src= images/blank.png width =""200"" height = ""200"" style = ""float:right""></p><p><img src=images/blank.png width =""800"" height = ""200""></p>","","","","","","","","","","","",""
"","79.71499999985099","sequential-stimulus-presentation","33","57437","0.0-11.0-1.3","SS1613138604289","trial","","40","800","879.714999999851","images/stimuli/spore_stims/simple_10_A_d.gif","images/stimuli/spore_stims/simple_01_A_b.gif","","","","","1","simple_dissimilar","images/stimuli/spore_stims/simple_01_A_b.gif","left","","","","",""
"","null","html-keyboard-response","34","58555","0.0-11.0-0.4","SS1613138604289","","","null","","","","","<p><img src= images/blank.png width =""200"" height = ""200"" style = ""float:right""></p><p><img src=images/blank.png width =""800"" height = ""200""></p>","","","","","","","","","","","",""
"","81.9249999767635","sequential-stimulus-presentation","35","59443","0.0-11.0-1.4","SS1613138604289","trial","","40","800","881.9249999767635","images/stimuli/spore_stims/simple_10_A_d.gif","images/stimuli/spore_stims/simple_01_A_b.gif","","","","","1","simple_dissimilar","images/stimuli/spore_stims/simple_01_A_b.gif","left","","","","",""
"","null","html-keyboard-response","36","60391","0.0-11.0-0.5","SS1613138604289","","","null","","","","","<p><img src= images/blank.png width =""200"" height = ""200"" style = ""float:right""></p><p><img src=images/blank.png width =""800"" height = ""200""></p>","","","","","","","","","","","",""
"","36.37000001617707","sequential-stimulus-presentation","37","61234","0.0-11.0-1.5","SS1613138604289","trial","","40","800","836.3700000161771","images/stimuli/spore_stims/simple_10_A_d.gif","images/stimuli/spore_stims/simple_01_A_b.gif","","","","","1","simple_dissimilar","images/stimuli/spore_stims/simple_01_A_b.gif","left","","","","",""
"","null","html-keyboard-response","38","62473","0.0-11.0-0.6","SS1613138604289","","","null","","","","","<p><img src= images/blank.png width =""200"" height = ""200"" style = ""float:right""></p><p><img src=images/blank.png width =""800"" height = ""200""></p>","","","","","","","","","","","",""
"","189.314999995986","sequential-stimulus-presentation","39","63468","0.0-11.0-1.6","SS1613138604289","trial","","40","800","989.314999995986","images/stimuli/spore_stims/simple_10_A_d.gif","images/stimuli/spore_stims/simple_01_A_b.gif","","","","","1","simple_dissimilar","images/stimuli/spore_stims/simple_01_A_b.gif","left","","","","",""
"","null","html-keyboard-response","40","64722","0.0-11.0-0.7","SS1613138604289","","","null","","","","","<p><img src= images/blank.png width =""200"" height = ""200"" style = ""float:right""></p><p><img src=images/blank.png width =""800"" height = ""200""></p>","","","","","","","","","","","",""
"","163.11500000301749","sequential-stimulus-presentation","41","65691","0.0-11.0-1.7","SS1613138604289","trial","","40","800","963.1150000030175","images/stimuli/spore_stims/simple_10_A_d.gif","images/stimuli/spore_stims/simple_01_A_b.gif","","","","","1","simple_dissimilar","images/stimuli/spore_stims/simple_10_A_d.gif","middle","","","","",""
"","113.21999999927357","html-keyboard-response","42","65810","0.0-12.0","SS1613138604289","pref_question","","50","","","","","<video width ='960' height = '540' style='padding-top:8%' autoplay muted><source src='images/stimuli/wall_pref.mp4' type='video/mp4'></video>","2","middle","45%","1","","","","","","","",""
"","148.64500000840053","sequential-stimulus-presentation","43","66764","0.0-13.0","SS1613138604289","pref_reveal","","40","800","948.6450000084005","null","null","","","","","1","","","","deviant","","","",""
"","null","html-keyboard-response","44","67923","0.0-14.0-0.0","SS1613138604289","","","null","","","","","<p><img src= images/blank.png width =""200"" height = ""200"" style = ""float:right""></p><p><img src=images/blank.png width =""800"" height = ""200""></p>","","","","","","","","","","","",""
"","3.6900000122841448","sequential-stimulus-presentation","45","68741","0.0-14.0-1.0","SS1613138604289","trial","","40","800","803.6900000122841","images/stimuli/spore_stims/complex_06_B_a.gif","images/stimuli/spore_stims/complex_06_A_d.gif","","","","","2","complex_dissimilar","images/stimuli/spore_stims/complex_06_A_d.gif","right","","","","",""
"","null","html-keyboard-response","46","69721","0.0-14.0-0.1","SS1613138604289","","","null","","","","","<p><img src= images/blank.png width =""200"" height = ""200"" style = ""float:right""></p><p><img src=images/blank.png width =""800"" height = ""200""></p>","","","","","","","","","","","",""
"","249.63999999454245","sequential-stimulus-presentation","47","70777","0.0-14.0-1.1","SS1613138604289","trial","","40","800","1049.6399999945424","images/stimuli/spore_stims/complex_06_B_a.gif","images/stimuli/spore_stims/complex_06_A_d.gif","","","","","2","complex_dissimilar","images/stimuli/spore_stims/complex_06_A_d.gif","right","","","","",""
"","null","html-keyboard-response","48","71938","0.0-14.0-0.2","SS1613138604289","","","null","","","","","<p><img src= images/blank.png width =""200"" height = ""200"" style = ""float:right""></p><p><img src=images/blank.png width =""800"" height = ""200""></p>","","","","","","","","","","","",""
"","46.200000011594966","sequential-stimulus-presentation","49","72789","0.0-14.0-1.2","SS1613138604289","trial","","40","800","846.200000011595","images/stimuli/spore_stims/complex_06_B_a.gif","images/stimuli/spore_stims/complex_06_A_d.gif","","","","","2","complex_dissimilar","images/stimuli/spore_stims/complex_06_A_d.gif","right","","","","",""
"","null","html-keyboard-response","50","73650","0.0-14.0-0.3","SS1613138604289","","","null","","","","","<p><img src= images/blank.png width =""200"" height = ""200"" style = ""float:right""></p><p><img src=images/blank.png width =""800"" height = ""200""></p>","","","","","","","","","","","",""
"","117.28999999468215","sequential-stimulus-presentation","51","74578","0.0-14.0-1.3","SS1613138604289","trial","","40","800","917.2899999946821","images/stimuli/spore_stims/complex_06_B_a.gif","images/stimuli/spore_stims/complex_06_A_d.gif","","","","","2","complex_dissimilar","images/stimuli/spore_stims/complex_06_A_d.gif","right","","","","",""
"","null","html-keyboard-response","52","75671","0.0-14.0-0.4","SS1613138604289","","","null","","","","","<p><img src= images/blank.png width =""200"" height = ""200"" style = ""float:right""></p><p><img src=images/blank.png width =""800"" height = ""200""></p>","","","","","","","","","","","",""
"","97.34999999636784","sequential-stimulus-presentation","53","76573","0.0-14.0-1.4","SS1613138604289","trial","","40","800","897.3499999963678","images/stimuli/spore_stims/complex_06_B_a.gif","images/stimuli/spore_stims/complex_06_A_d.gif","","","","","2","complex_dissimilar","images/stimuli/spore_stims/complex_06_A_d.gif","right","","","","",""
"","null","html-keyboard-response","54","77499","0.0-14.0-0.5","SS1613138604289","","","null","","","","","<p><img src= images/blank.png width =""200"" height = ""200"" style = ""float:right""></p><p><img src=images/blank.png width =""800"" height = ""200""></p>","","","","","","","","","","","",""
"","230.76499998569489","sequential-stimulus-presentation","55","78536","0.0-14.0-1.5","SS1613138604289","trial","","40","800","1030.7649999856949","images/stimuli/spore_stims/complex_06_B_a.gif","images/stimuli/spore_stims/complex_06_A_d.gif","","","","","2","complex_dissimilar","images/stimuli/spore_stims/complex_06_A_d.gif","right","","","","",""
"","null","html-keyboard-response","56","79771","0.0-14.0-0.6","SS1613138604289","","","null","","","","","<p><img src= images/blank.png width =""200"" height = ""200"" style = ""float:right""></p><p><img src=images/blank.png width =""800"" height = ""200""></p>","","","","","","","","","","","",""
"","39.18500000145286","sequential-stimulus-presentation","57","80615","0.0-14.0-1.6","SS1613138604289","trial","","40","800","839.1850000014529","images/stimuli/spore_stims/complex_06_B_a.gif","images/stimuli/spore_stims/complex_06_A_d.gif","","","","","2","complex_dissimilar","images/stimuli/spore_stims/complex_06_B_a.gif","left","","","","",""
"","null","html-keyboard-response","58","81809","0.0-14.0-0.7","SS1613138604289","","","null","","","","","<p><img src= images/blank.png width =""200"" height = ""200"" style = ""float:right""></p><p><img src=images/blank.png width =""800"" height = ""200""></p>","","","","","","","","","","","",""
"","86.06499998131767","sequential-stimulus-presentation","59","82699","0.0-14.0-1.7","SS1613138604289","trial","","40","800","886.0649999813177","images/stimuli/spore_stims/complex_06_B_a.gif","images/stimuli/spore_stims/complex_06_A_d.gif","","","","","2","complex_dissimilar","images/stimuli/spore_stims/complex_06_A_d.gif","right","","","","",""
"","221.62500000558794","html-keyboard-response","60","82926","0.0-15.0","SS1613138604289","pref_question","","51","","","","","<video width ='960' height = '540' style='padding-top:8%' autoplay muted><source src='images/stimuli/wall_pref.mp4' type='video/mp4'></video>","3","right","66%","2","","","","","","","",""
"","406.49999998277053","sequential-stimulus-presentation","61","84139","0.0-16.0","SS1613138604289","pref_reveal","","40","800","1206.4999999827705","null","null","","","","","2","","","","background","","","",""
"","null","html-keyboard-response","62","85087","0.0-17.0-0.0","SS1613138604289","","","null","","","","","<p><img src= images/blank.png width =""200"" height = ""200"" style = ""float:right""></p><p><img src=images/blank.png width =""800"" height = ""200""></p>","","","","","","","","","","","",""
"","150.324999995064","sequential-stimulus-presentation","63","86043","0.0-17.0-1.0","SS1613138604289","trial","","40","800","950.324999995064","images/stimuli/spore_stims/complex_20_B_c.gif","images/stimuli/spore_stims/complex_20_A_c.gif","","","","","3","complex_similar","images/stimuli/spore_stims/complex_20_A_c.gif","middle","","","","",""
"","null","html-keyboard-response","64","87132","0.0-17.0-0.1","SS1613138604289","","","null","","","","","<p><img src= images/blank.png width =""200"" height = ""200"" style = ""float:right""></p><p><img src=images/blank.png width =""800"" height = ""200""></p>","","","","","","","","","","","",""
"","292.5499999837484","sequential-stimulus-presentation","65","88230","0.0-17.0-1.1","SS1613138604289","trial","","40","800","1092.5499999837484","images/stimuli/spore_stims/complex_20_B_c.gif","images/stimuli/spore_stims/complex_20_A_c.gif","","","","","3","complex_similar","images/stimuli/spore_stims/complex_20_A_c.gif","middle","","","","",""
"","null","html-keyboard-response","66","89248","0.0-17.0-0.2","SS1613138604289","","","null","","","","","<p><img src= images/blank.png width =""200"" height = ""200"" style = ""float:right""></p><p><img src=images/blank.png width =""800"" height = ""200""></p>","","","","","","","","","","","",""
"","290.7849999901373","sequential-stimulus-presentation","67","90353","0.0-17.0-1.2","SS1613138604289","trial","","40","800","1090.7849999901373","images/stimuli/spore_stims/complex_20_B_c.gif","images/stimuli/spore_stims/complex_20_A_c.gif","","","","","3","complex_similar","images/stimuli/spore_stims/complex_20_A_c.gif","middle","","","","",""
"","null","html-keyboard-response","68","91248","0.0-17.0-0.3","SS1613138604289","","","null","","","","","<p><img src= images/blank.png width =""200"" height = ""200"" style = ""float:right""></p><p><img src=images/blank.png width =""800"" height = ""200""></p>","","","","","","","","","","","",""
"","182.40999997942708","sequential-stimulus-presentation","69","92237","0.0-17.0-1.3","SS1613138604289","trial","","40","800","982.4099999794271","images/stimuli/spore_stims/complex_20_B_c.gif","images/stimuli/spore_stims/complex_20_A_c.gif","","","","","3","complex_similar","images/stimuli/spore_stims/complex_20_A_c.gif","middle","","","","",""
"","null","html-keyboard-response","70","93520","0.0-17.0-0.4","SS1613138604289","","","null","","","","","<p><img src= images/blank.png width =""200"" height = ""200"" style = ""float:right""></p><p><img src=images/blank.png width =""800"" height = ""200""></p>","","","","","","","","","","","",""
"","217.94500001124106","sequential-stimulus-presentation","71","94543","0.0-17.0-1.4","SS1613138604289","trial","","40","800","1017.9450000112411","images/stimuli/spore_stims/complex_20_B_c.gif","images/stimuli/spore_stims/complex_20_A_c.gif","","","","","3","complex_similar","images/stimuli/spore_stims/complex_20_A_c.gif","middle","","","","",""
"","null","html-keyboard-response","72","95430","0.0-17.0-0.5","SS1613138604289","","","null","","","","","<p><img src= images/blank.png width =""200"" height = ""200"" style = ""float:right""></p><p><img src=images/blank.png width =""800"" height = ""200""></p>","","","","","","","","","","","",""
"","2.970000001369044","sequential-stimulus-presentation","73","96238","0.0-17.0-1.5","SS1613138604289","trial","","40","800","802.970000001369","images/stimuli/spore_stims/complex_20_B_c.gif","images/stimuli/spore_stims/complex_20_A_c.gif","","","","","3","complex_similar","images/stimuli/spore_stims/complex_20_A_c.gif","middle","","","","",""
"","null","html-keyboard-response","74","97489","0.0-17.0-0.6","SS1613138604289","","","null","","","","","<p><img src= images/blank.png width =""200"" height = ""200"" style = ""float:right""></p><p><img src=images/blank.png width =""800"" height = ""200""></p>","","","","","","","","","","","",""
"","111.52999999467283","sequential-stimulus-presentation","75","98413","0.0-17.0-1.6","SS1613138604289","trial","","40","800","911.5299999946728","images/stimuli/spore_stims/complex_20_B_c.gif","images/stimuli/spore_stims/complex_20_A_c.gif","","","","","3","complex_similar","images/stimuli/spore_stims/complex_20_B_c.gif","right","","","","",""
"","null","html-keyboard-response","76","99618","0.0-17.0-0.7","SS1613138604289","","","null","","","","","<p><img src= images/blank.png width =""200"" height = ""200"" style = ""float:right""></p><p><img src=images/blank.png width =""800"" height = ""200""></p>","","","","","","","","","","","",""
"","395.7850000006147","sequential-stimulus-presentation","77","100819","0.0-17.0-1.7","SS1613138604289","trial","","40","800","1195.7850000006147","images/stimuli/spore_stims/complex_20_B_c.gif","images/stimuli/spore_stims/complex_20_A_c.gif","","","","","3","complex_similar","images/stimuli/spore_stims/complex_20_A_c.gif","middle","","","","",""
"","23.889999982202426","html-keyboard-response","78","100846","0.0-18.0","SS1613138604289","pref_question","","51","","","","","<video width ='960' height = '540' style='padding-top:8%' autoplay muted><source src='images/stimuli/wall_pref.mp4' type='video/mp4'></video>","3","right","66%","3","","","","","","","",""
"","14.839999988907948","sequential-stimulus-presentation","79","101668","0.0-19.0","SS1613138604289","pref_reveal","","40","800","814.839999988908","null","null","","","","","3","","","","deviant","","","",""
"","null","html-keyboard-response","80","102616","0.0-20.0-0.0","SS1613138604289","","","null","","","","","<p><img src= images/blank.png width =""200"" height = ""200"" style = ""float:right""></p><p><img src=images/blank.png width =""800"" height = ""200""></p>","","","","","","","","","","","",""
"","105.55999999633059","sequential-stimulus-presentation","81","103543","0.0-20.0-1.0","SS1613138604289","trial","","40","800","905.5599999963306","images/stimuli/spore_stims/simple_03_B_c.gif","images/stimuli/spore_stims/simple_03_A_c.gif","","","","","4","simple_similar","images/stimuli/spore_stims/simple_03_A_c.gif","right","","","","",""
"","null","html-keyboard-response","82","104438","0.0-20.0-0.1","SS1613138604289","","","null","","","","","<p><img src= images/blank.png width =""200"" height = ""200"" style = ""float:right""></p><p><img src=images/blank.png width =""800"" height = ""200""></p>","","","","","","","","","","","",""
"","9.785000002011657","sequential-stimulus-presentation","83","105254","0.0-20.0-1.1","SS1613138604289","trial","","40","800","809.7850000020117","images/stimuli/spore_stims/simple_03_B_c.gif","images/stimuli/spore_stims/simple_03_A_c.gif","","","","","4","simple_similar","images/stimuli/spore_stims/simple_03_A_c.gif","right","","","","",""
"","null","html-keyboard-response","84","106533","0.0-20.0-0.2","SS1613138604289","","","null","","","","","<p><img src= images/blank.png width =""200"" height = ""200"" style = ""float:right""></p><p><img src=images/blank.png width =""800"" height = ""200""></p>","","","","","","","","","","","",""
"","6.194999994477257","sequential-stimulus-presentation","85","107345","0.0-20.0-1.2","SS1613138604289","trial","","40","800","806.1949999944773","images/stimuli/spore_stims/simple_03_B_c.gif","images/stimuli/spore_stims/simple_03_A_c.gif","","","","","4","simple_similar","images/stimuli/spore_stims/simple_03_A_c.gif","right","","","","",""
"","null","html-keyboard-response","86","108205","0.0-20.0-0.3","SS1613138604289","","","null","","","","","<p><img src= images/blank.png width =""200"" height = ""200"" style = ""float:right""></p><p><img src=images/blank.png width =""800"" height = ""200""></p>","","","","","","","","","","","",""
"","13.139999995473772","sequential-stimulus-presentation","87","109039","0.0-20.0-1.3","SS1613138604289","trial","","40","800","813.1399999954738","images/stimuli/spore_stims/simple_03_B_c.gif","images/stimuli/spore_stims/simple_03_A_c.gif","","","","","4","simple_similar","images/stimuli/spore_stims/simple_03_A_c.gif","right","","","","",""
"","null","html-keyboard-response","88","110118","0.0-20.0-0.4","SS1613138604289","","","null","","","","","<p><img src= images/blank.png width =""200"" height = ""200"" style = ""float:right""></p><p><img src=images/blank.png width =""800"" height = ""200""></p>","","","","","","","","","","","",""
"","107.17000000295229","sequential-stimulus-presentation","89","111032","0.0-20.0-1.4","SS1613138604289","trial","","40","800","907.1700000029523","images/stimuli/spore_stims/simple_03_B_c.gif","images/stimuli/spore_stims/simple_03_A_c.gif","","","","","4","simple_similar","images/stimuli/spore_stims/simple_03_A_c.gif","right","","","","",""
"","null","html-keyboard-response","90","111984","0.0-20.0-0.5","SS1613138604289","","","null","","","","","<p><img src= images/blank.png width =""200"" height = ""200"" style = ""float:right""></p><p><img src=images/blank.png width =""800"" height = ""200""></p>","","","","","","","","","","","",""
"","237.75500000920147","sequential-stimulus-presentation","91","113026","0.0-20.0-1.5","SS1613138604289","trial","","40","800","1037.7550000092015","images/stimuli/spore_stims/simple_03_B_c.gif","images/stimuli/spore_stims/simple_03_A_c.gif","","","","","4","simple_similar","images/stimuli/spore_stims/simple_03_A_c.gif","right","","","","",""
"","null","html-keyboard-response","92","114327","0.0-20.0-0.6","SS1613138604289","","","null","","","","","<p><img src= images/blank.png width =""200"" height = ""200"" style = ""float:right""></p><p><img src=images/blank.png width =""800"" height = ""200""></p>","","","","","","","","","","","",""
"","42.22000000299886","sequential-stimulus-presentation","93","115187","0.0-20.0-1.6","SS1613138604289","trial","","40","800","842.2200000029989","images/stimuli/spore_stims/simple_03_B_c.gif","images/stimuli/spore_stims/simple_03_A_c.gif","","","","","4","simple_similar","images/stimuli/spore_stims/simple_03_B_c.gif","middle","","","","",""
"","null","html-keyboard-response","94","116091","0.0-20.0-0.7","SS1613138604289","","","null","","","","","<p><img src= images/blank.png width =""200"" height = ""200"" style = ""float:right""></p><p><img src=images/blank.png width =""800"" height = ""200""></p>","","","","","","","","","","","",""
"","182.44000000413507","sequential-stimulus-presentation","95","117079","0.0-20.0-1.7","SS1613138604289","trial","","40","800","982.4400000041351","images/stimuli/spore_stims/simple_03_B_c.gif","images/stimuli/spore_stims/simple_03_A_c.gif","","","","","4","simple_similar","images/stimuli/spore_stims/simple_03_A_c.gif","right","","","","",""
"","47.30500001460314","html-keyboard-response","96","117148","0.0-21.0","SS1613138604289","pref_question","","49","","","","","<video width ='960' height = '540' style='padding-top:8%' autoplay muted><source src='images/stimuli/wall_pref.mp4' type='video/mp4'></video>","1","left","25%","4","","","","","","","",""
"","145.19499999005347","sequential-stimulus-presentation","97","118104","0.0-22.0","SS1613138604289","pref_reveal","","40","800","945.1949999900535","null","null","","","","","4","","","","novel","","","",""
"","null","html-keyboard-response","98","119129","0.0-23.0-0.0","SS1613138604289","","","null","","","","","<p><img src= images/blank.png width =""200"" height = ""200"" style = ""float:right""></p><p><img src=images/blank.png width =""800"" height = ""200""></p>","","","","","","","","","","","",""
"","55.76499999733642","sequential-stimulus-presentation","99","119992","0.0-23.0-1.0","SS1613138604289","trial","","40","800","855.7649999973364","images/stimuli/spore_stims/complex_15_B_a.gif","images/stimuli/spore_stims/complex_17_A_a.gif","","","","","5","complex_dissimilar","images/stimuli/spore_stims/complex_17_A_a.gif","left","","","","",""
"","null","html-keyboard-response","100","120852","0.0-23.0-0.1","SS1613138604289","","","null","","","","","<p><img src= images/blank.png width =""200"" height = ""200"" style = ""float:right""></p><p><img src=images/blank.png width =""800"" height = ""200""></p>","","","","","","","","","","","",""
"","72.11000000825152","sequential-stimulus-presentation","101","121744","0.0-23.0-1.1","SS1613138604289","trial","","40","800","872.1100000082515","images/stimuli/spore_stims/complex_15_B_a.gif","images/stimuli/spore_stims/complex_17_A_a.gif","","","","","5","complex_dissimilar","images/stimuli/spore_stims/complex_17_A_a.gif","left","","","","",""
"","null","html-keyboard-response","102","122602","0.0-23.0-0.2","SS1613138604289","","","null","","","","","<p><img src= images/blank.png width =""200"" height = ""200"" style = ""float:right""></p><p><img src=images/blank.png width =""800"" height = ""200""></p>","","","","","","","","","","","",""
"","120.93999999342486","sequential-stimulus-presentation","103","123528","0.0-23.0-1.2","SS1613138604289","trial","","40","800","920.9399999934249","images/stimuli/spore_stims/complex_15_B_a.gif","images/stimuli/spore_stims/complex_17_A_a.gif","","","","","5","complex_dissimilar","images/stimuli/spore_stims/complex_17_A_a.gif","left","","","","",""
"","null","html-keyboard-response","104","124749","0.0-23.0-0.3","SS1613138604289","","","null","","","","","<p><img src= images/blank.png width =""200"" height = ""200"" style = ""float:right""></p><p><img src=images/blank.png width =""800"" height = ""200""></p>","","","","","","","","","","","",""
"","412.44000001461245","sequential-stimulus-presentation","105","125968","0.0-23.0-1.3","SS1613138604289","trial","","40","800","1212.4400000146125","images/stimuli/spore_stims/complex_15_B_a.gif","images/stimuli/spore_stims/complex_17_A_a.gif","","","","","5","complex_dissimilar","images/stimuli/spore_stims/complex_17_A_a.gif","left","","","","",""
"","null","html-keyboard-response","106","126829","0.0-23.0-0.4","SS1613138604289","","","null","","","","","<p><img src= images/blank.png width =""200"" height = ""200"" style = ""float:right""></p><p><img src=images/blank.png width =""800"" height = ""200""></p>","","","","","","","","","","","",""
"","132.74500000989065","sequential-stimulus-presentation","107","127775","0.0-23.0-1.4","SS1613138604289","trial","","40","800","932.7450000098906","images/stimuli/spore_stims/complex_15_B_a.gif","images/stimuli/spore_stims/complex_17_A_a.gif","","","","","5","complex_dissimilar","images/stimuli/spore_stims/complex_15_B_a.gif","right","","","","",""
"","null","html-keyboard-response","108","128800","0.0-23.0-0.5","SS1613138604289","","","null","","","","","<p><img src= images/blank.png width =""200"" height = ""200"" style = ""float:right""></p><p><img src=images/blank.png width =""800"" height = ""200""></p>","","","","","","","","","","","",""
"","97.09000002476387","sequential-stimulus-presentation","109","129715","0.0-23.0-1.5","SS1613138604289","trial","","40","800","897.0900000247639","images/stimuli/spore_stims/complex_15_B_a.gif","images/stimuli/spore_stims/complex_17_A_a.gif","","","","","5","complex_dissimilar","images/stimuli/spore_stims/complex_17_A_a.gif","left","","","","",""
"","null","html-keyboard-response","110","130803","0.0-23.0-0.6","SS1613138604289","","","null","","","","","<p><img src= images/blank.png width =""200"" height = ""200"" style = ""float:right""></p><p><img src=images/blank.png width =""800"" height = ""200""></p>","","","","","","","","","","","",""
"","92.36500001861714","sequential-stimulus-presentation","111","131700","0.0-23.0-1.6","SS1613138604289","trial","","40","800","892.3650000186171","images/stimuli/spore_stims/complex_15_B_a.gif","images/stimuli/spore_stims/complex_17_A_a.gif","","","","","5","complex_dissimilar","images/stimuli/spore_stims/complex_17_A_a.gif","left","","","","",""
"","null","html-keyboard-response","112","132756","0.0-23.0-0.7","SS1613138604289","","","null","","","","","<p><img src= images/blank.png width =""200"" height = ""200"" style = ""float:right""></p><p><img src=images/blank.png width =""800"" height = ""200""></p>","","","","","","","","","","","",""
"","70.42000000365078","sequential-stimulus-presentation","113","133633","0.0-23.0-1.7","SS1613138604289","trial","","40","800","870.4200000036508","images/stimuli/spore_stims/complex_15_B_a.gif","images/stimuli/spore_stims/complex_17_A_a.gif","","","","","5","complex_dissimilar","images/stimuli/spore_stims/complex_17_A_a.gif","left","","","","",""
"","0.30499999411404133","html-keyboard-response","114","133651","0.0-24.0","SS1613138604289","pref_question","","51","","","","","<video width ='960' height = '540' style='padding-top:8%' autoplay muted><source src='images/stimuli/wall_pref.mp4' type='video/mp4'></video>","3","right","66%","5","","","","","","","",""
"","187.5350000045728","sequential-stimulus-presentation","115","134652","0.0-25.0","SS1613138604289","pref_reveal","","40","800","987.5350000045728","null","null","","","","","5","","","","deviant","","","",""
"","null","html-keyboard-response","116","135617","0.0-26.0-0.0","SS1613138604289","","","null","","","","","<p><img src= images/blank.png width =""200"" height = ""200"" style = ""float:right""></p><p><img src=images/blank.png width =""800"" height = ""200""></p>","","","","","","","","","","","",""
"","93.20500001194887","sequential-stimulus-presentation","117","136523","0.0-26.0-1.0","SS1613138604289","trial","","40","800","893.2050000119489","images/stimuli/spore_stims/complex_01_B_a.gif","images/stimuli/spore_stims/complex_01_A_a.gif","","","","","6","complex_similar","images/stimuli/spore_stims/complex_01_A_a.gif","right","","","","",""
"","null","html-keyboard-response","118","137826","0.0-26.0-0.1","SS1613138604289","","","null","","","","","<p><img src= images/blank.png width =""200"" height = ""200"" style = ""float:right""></p><p><img src=images/blank.png width =""800"" height = ""200""></p>","","","","","","","","","","","",""
"","198.11500000650994","sequential-stimulus-presentation","119","138838","0.0-26.0-1.1","SS1613138604289","trial","","40","800","998.11500000651","images/stimuli/spore_stims/complex_01_B_a.gif","images/stimuli/spore_stims/complex_01_A_a.gif","","","","","6","complex_similar","images/stimuli/spore_stims/complex_01_A_a.gif","right","","","","",""
"","null","html-keyboard-response","120","139698","0.0-26.0-0.2","SS1613138604289","","","null","","","","","<p><img src= images/blank.png width =""200"" height = ""200"" style = ""float:right""></p><p><img src=images/blank.png width =""800"" height = ""200""></p>","","","","","","","","","","","",""
"","1414.87499998766","sequential-stimulus-presentation","121","141932","0.0-26.0-1.2","SS1613138604289","trial","","40","800","2214.87499998766","images/stimuli/spore_stims/complex_01_B_a.gif","images/stimuli/spore_stims/complex_01_A_a.gif","","","","","6","complex_similar","images/stimuli/spore_stims/complex_01_A_a.gif","right","","","","",""
"","null","html-keyboard-response","122","143004","0.0-26.0-0.3","SS1613138604289","","","null","","","","","<p><img src= images/blank.png width =""200"" height = ""200"" style = ""float:right""></p><p><img src=images/blank.png width =""800"" height = ""200""></p>","","","","","","","","","","","",""
"","1816.5699999954086","sequential-stimulus-presentation","123","145627","0.0-26.0-1.3","SS1613138604289","trial","","40","800","2616.5699999954086","images/stimuli/spore_stims/complex_01_B_a.gif","images/stimuli/spore_stims/complex_01_A_a.gif","","","","","6","complex_similar","images/stimuli/spore_stims/complex_01_B_a.gif","middle","","","","",""
"","null","html-keyboard-response","124","146714","0.0-26.0-0.4","SS1613138604289","","","null","","","","","<p><img src= images/blank.png width =""200"" height = ""200"" style = ""float:right""></p><p><img src=images/blank.png width =""800"" height = ""200""></p>","","","","","","","","","","","",""
"","202.27999999769963","sequential-stimulus-presentation","125","147724","0.0-26.0-1.4","SS1613138604289","trial","","40","800","1002.2799999976996","images/stimuli/spore_stims/complex_01_B_a.gif","images/stimuli/spore_stims/complex_01_A_a.gif","","","","","6","complex_similar","images/stimuli/spore_stims/complex_01_A_a.gif","right","","","","",""
"","null","html-keyboard-response","126","148735","0.0-26.0-0.5","SS1613138604289","","","null","","","","","<p><img src= images/blank.png width =""200"" height = ""200"" style = ""float:right""></p><p><img src=images/blank.png width =""800"" height = ""200""></p>","","","","","","","","","","","",""
"","54.275000002235174","sequential-stimulus-presentation","127","149596","0.0-26.0-1.5","SS1613138604289","trial","","40","800","854.2750000022352","images/stimuli/spore_stims/complex_01_B_a.gif","images/stimuli/spore_stims/complex_01_A_a.gif","","","","","6","complex_similar","images/stimuli/spore_stims/complex_01_A_a.gif","right","","","","",""
"","null","html-keyboard-response","128","150585","0.0-26.0-0.6","SS1613138604289","","","null","","","","","<p><img src= images/blank.png width =""200"" height = ""200"" style = ""float:right""></p><p><img src=images/blank.png width =""800"" height = ""200""></p>","","","","","","","","","","","",""
"","117.23999999230728","sequential-stimulus-presentation","129","151509","0.0-26.0-1.6","SS1613138604289","trial","","40","800","917.2399999923073","images/stimuli/spore_stims/complex_01_B_a.gif","images/stimuli/spore_stims/complex_01_A_a.gif","","","","","6","complex_similar","images/stimuli/spore_stims/complex_01_A_a.gif","right","","","","",""
"","null","html-keyboard-response","130","152671","0.0-26.0-0.7","SS1613138604289","","","null","","","","","<p><img src= images/blank.png width =""200"" height = ""200"" style = ""float:right""></p><p><img src=images/blank.png width =""800"" height = ""200""></p>","","","","","","","","","","","",""
"","191.31499997456558","sequential-stimulus-presentation","131","153675","0.0-26.0-1.7","SS1613138604289","trial","","40","800","991.3149999745656","images/stimuli/spore_stims/complex_01_B_a.gif","images/stimuli/spore_stims/complex_01_A_a.gif","","","","","6","complex_similar","images/stimuli/spore_stims/complex_01_A_a.gif","right","","","","",""
"","131.27000001259148","html-keyboard-response","132","153812","0.0-27.0","SS1613138604289","pref_question","","49","","","","","<video width ='960' height = '540' style='padding-top:8%' autoplay muted><source src='images/stimuli/wall_pref.mp4' type='video/mp4'></video>","1","left","25%","6","","","","","","","",""
"","15.415000001667067","sequential-stimulus-presentation","133","154657","0.0-28.0","SS1613138604289","pref_reveal","","40","800","815.4150000016671","null","null","","","","","6","","","","novel","","","",""
"","null","html-keyboard-response","134","155577","0.0-29.0-0.0","SS1613138604289","","","null","","","","","<p><img src= images/blank.png width =""200"" height = ""200"" style = ""float:right""></p><p><img src=images/blank.png width =""800"" height = ""200""></p>","","","","","","","","","","","",""
"","143.65499999257736","sequential-stimulus-presentation","135","156531","0.0-29.0-1.0","SS1613138604289","trial","","40","800","943.6549999925774","images/stimuli/spore_stims/complex_18_B_b.gif","images/stimuli/spore_stims/complex_18_A_b.gif","","","","","7","complex_similar","images/stimuli/spore_stims/complex_18_A_b.gif","middle","","","","",""
"","null","html-keyboard-response","136","157432","0.0-29.0-0.1","SS1613138604289","","","null","","","","","<p><img src= images/blank.png width =""200"" height = ""200"" style = ""float:right""></p><p><img src=images/blank.png width =""800"" height = ""200""></p>","","","","","","","","","","","",""
"","153.61000000848435","sequential-stimulus-presentation","137","158392","0.0-29.0-1.1","SS1613138604289","trial","","40","800","953.6100000084843","images/stimuli/spore_stims/complex_18_B_b.gif","images/stimuli/spore_stims/complex_18_A_b.gif","","","","","7","complex_similar","images/stimuli/spore_stims/complex_18_A_b.gif","middle","","","","",""
"","null","html-keyboard-response","138","159562","0.0-29.0-0.2","SS1613138604289","","","null","","","","","<p><img src= images/blank.png width =""200"" height = ""200"" style = ""float:right""></p><p><img src=images/blank.png width =""800"" height = ""200""></p>","","","","","","","","","","","",""
"","196.47500000428408","sequential-stimulus-presentation","139","160568","0.0-29.0-1.2","SS1613138604289","trial","","40","800","996.4750000042841","images/stimuli/spore_stims/complex_18_B_b.gif","images/stimuli/spore_stims/complex_18_A_b.gif","","","","","7","complex_similar","images/stimuli/spore_stims/complex_18_B_b.gif","right","","","","",""
"","null","html-keyboard-response","140","161628","0.0-29.0-0.3","SS1613138604289","","","null","","","","","<p><img src= images/blank.png width =""200"" height = ""200"" style = ""float:right""></p><p><img src=images/blank.png width =""800"" height = ""200""></p>","","","","","","","","","","","",""
"","119.73000000580214","sequential-stimulus-presentation","141","162557","0.0-29.0-1.3","SS1613138604289","trial","","40","800","919.7300000058021","images/stimuli/spore_stims/complex_18_B_b.gif","images/stimuli/spore_stims/complex_18_A_b.gif","","","","","7","complex_similar","images/stimuli/spore_stims/complex_18_A_b.gif","middle","","","","",""
"","null","html-keyboard-response","142","163450","0.0-29.0-0.4","SS1613138604289","","","null","","","","","<p><img src= images/blank.png width =""200"" height = ""200"" style = ""float:right""></p><p><img src=images/blank.png width =""800"" height = ""200""></p>","","","","","","","","","","","",""
"","169.98000000603497","sequential-stimulus-presentation","143","164438","0.0-29.0-1.4","SS1613138604289","trial","","40","800","969.980000006035","images/stimuli/spore_stims/complex_18_B_b.gif","images/stimuli/spore_stims/complex_18_A_b.gif","","","","","7","complex_similar","images/stimuli/spore_stims/complex_18_A_b.gif","middle","","","","",""
"","null","html-keyboard-response","144","165726","0.0-29.0-0.5","SS1613138604289","","","null","","","","","<p><img src= images/blank.png width =""200"" height = ""200"" style = ""float:right""></p><p><img src=images/blank.png width =""800"" height = ""200""></p>","","","","","","","","","","","",""
"","16.86499998322688","sequential-stimulus-presentation","145","166549","0.0-29.0-1.5","SS1613138604289","trial","","40","800","816.8649999832269","images/stimuli/spore_stims/complex_18_B_b.gif","images/stimuli/spore_stims/complex_18_A_b.gif","","","","","7","complex_similar","images/stimuli/spore_stims/complex_18_A_b.gif","middle","","","","",""
"","null","html-keyboard-response","146","167411","0.0-29.0-0.6","SS1613138604289","","","null","","","","","<p><img src= images/blank.png width =""200"" height = ""200"" style = ""float:right""></p><p><img src=images/blank.png width =""800"" height = ""200""></p>","","","","","","","","","","","",""
"","182.2950000059791","sequential-stimulus-presentation","147","168412","0.0-29.0-1.6","SS1613138604289","trial","","40","800","982.2950000059791","images/stimuli/spore_stims/complex_18_B_b.gif","images/stimuli/spore_stims/complex_18_A_b.gif","","","","","7","complex_similar","images/stimuli/spore_stims/complex_18_A_b.gif","middle","","","","",""
"","null","html-keyboard-response","148","169266","0.0-29.0-0.7","SS1613138604289","","","null","","","","","<p><img src= images/blank.png width =""200"" height = ""200"" style = ""float:right""></p><p><img src=images/blank.png width =""800"" height = ""200""></p>","","","","","","","","","","","",""
"","251.66000000899658","sequential-stimulus-presentation","149","170324","0.0-29.0-1.7","SS1613138604289","trial","","40","800","1051.6600000089966","images/stimuli/spore_stims/complex_18_B_b.gif","images/stimuli/spore_stims/complex_18_A_b.gif","","","","","7","complex_similar","images/stimuli/spore_stims/complex_18_A_b.gif","middle","","","","",""
"","238.630000007106","html-keyboard-response","150","170587","0.0-30.0","SS1613138604289","pref_question","","50","","","","","<video width ='960' height = '540' style='padding-top:8%' autoplay muted><source src='images/stimuli/wall_pref.mp4' type='video/mp4'></video>","2","middle","45%","7","","","","","","","",""
"","2066.4450000040233","sequential-stimulus-presentation","151","173461","0.0-31.0","SS1613138604289","pref_reveal","","40","800","2866.4450000040233","null","null","","","","","7","","","","background","","","",""
"","null","html-keyboard-response","152","174339","0.0-32.0-0.0","SS1613138604289","","","null","","","","","<p><img src= images/blank.png width =""200"" height = ""200"" style = ""float:right""></p><p><img src=images/blank.png width =""800"" height = ""200""></p>","","","","","","","","","","","",""
"","31.27499998663552","sequential-stimulus-presentation","153","175176","0.0-32.0-1.0","SS1613138604289","trial","","40","800","831.2749999866355","images/stimuli/spore_stims/complex_19_B_b.gif","images/stimuli/spore_stims/complex_19_A_b.gif","","","","","8","complex_similar","images/stimuli/spore_stims/complex_19_A_b.gif","middle","","","","",""
"","null","html-keyboard-response","154","176057","0.0-32.0-0.1","SS1613138604289","","","null","","","","","<p><img src= images/blank.png width =""200"" height = ""200"" style = ""float:right""></p><p><img src=images/blank.png width =""800"" height = ""200""></p>","","","","","","","","","","","",""
"","52.285000012489036","sequential-stimulus-presentation","155","176932","0.0-32.0-1.1","SS1613138604289","trial","","40","800","852.285000012489","images/stimuli/spore_stims/complex_19_B_b.gif","images/stimuli/spore_stims/complex_19_A_b.gif","","","","","8","complex_similar","images/stimuli/spore_stims/complex_19_A_b.gif","middle","","","","",""
"","null","html-keyboard-response","156","178187","0.0-32.0-0.2","SS1613138604289","","","null","","","","","<p><img src= images/blank.png width =""200"" height = ""200"" style = ""float:right""></p><p><img src=images/blank.png width =""800"" height = ""200""></p>","","","","","","","","","","","",""
"","137.11000001057982","sequential-stimulus-presentation","157","179131","0.0-32.0-1.2","SS1613138604289","trial","","40","800","937.1100000105798","images/stimuli/spore_stims/complex_19_B_b.gif","images/stimuli/spore_stims/complex_19_A_b.gif","","","","","8","complex_similar","images/stimuli/spore_stims/complex_19_A_b.gif","middle","","","","",""
"","null","html-keyboard-response","158","180158","0.0-32.0-0.3","SS1613138604289","","","null","","","","","<p><img src= images/blank.png width =""200"" height = ""200"" style = ""float:right""></p><p><img src=images/blank.png width =""800"" height = ""200""></p>","","","","","","","","","","","",""
"","141.35999997961335","sequential-stimulus-presentation","159","181107","0.0-32.0-1.3","SS1613138604289","trial","","40","800","941.3599999796133","images/stimuli/spore_stims/complex_19_B_b.gif","images/stimuli/spore_stims/complex_19_A_b.gif","","","","","8","complex_similar","images/stimuli/spore_stims/complex_19_B_b.gif","left","","","","",""
"","null","html-keyboard-response","160","181992","0.0-32.0-0.4","SS1613138604289","","","null","","","","","<p><img src= images/blank.png width =""200"" height = ""200"" style = ""float:right""></p><p><img src=images/blank.png width =""800"" height = ""200""></p>","","","","","","","","","","","",""
"","122.02999999863096","sequential-stimulus-presentation","161","182920","0.0-32.0-1.4","SS1613138604289","trial","","40","800","922.029999998631","images/stimuli/spore_stims/complex_19_B_b.gif","images/stimuli/spore_stims/complex_19_A_b.gif","","","","","8","complex_similar","images/stimuli/spore_stims/complex_19_A_b.gif","middle","","","","",""
"","null","html-keyboard-response","162","183963","0.0-32.0-0.5","SS1613138604289","","","null","","","","","<p><img src= images/blank.png width =""200"" height = ""200"" style = ""float:right""></p><p><img src=images/blank.png width =""800"" height = ""200""></p>","","","","","","","","","","","",""
"","183.46000000019558","sequential-stimulus-presentation","163","184953","0.0-32.0-1.5","SS1613138604289","trial","","40","800","983.4600000001956","images/stimuli/spore_stims/complex_19_B_b.gif","images/stimuli/spore_stims/complex_19_A_b.gif","","","","","8","complex_similar","images/stimuli/spore_stims/complex_19_A_b.gif","middle","","","","",""
"","null","html-keyboard-response","164","186026","0.0-32.0-0.6","SS1613138604289","","","null","","","","","<p><img src= images/blank.png width =""200"" height = ""200"" style = ""float:right""></p><p><img src=images/blank.png width =""800"" height = ""200""></p>","","","","","","","","","","","",""
"","185.43499999213964","sequential-stimulus-presentation","165","187018","0.0-32.0-1.6","SS1613138604289","trial","","40","800","985.4349999921396","images/stimuli/spore_stims/complex_19_B_b.gif","images/stimuli/spore_stims/complex_19_A_b.gif","","","","","8","complex_similar","images/stimuli/spore_stims/complex_19_A_b.gif","middle","","","","",""
"","null","html-keyboard-response","166","188154","0.0-32.0-0.7","SS1613138604289","","","null","","","","","<p><img src= images/blank.png width =""200"" height = ""200"" style = ""float:right""></p><p><img src=images/blank.png width =""800"" height = ""200""></p>","","","","","","","","","","","",""
"","72.71000000764616","sequential-stimulus-presentation","167","189035","0.0-32.0-1.7","SS1613138604289","trial","","40","800","872.7100000076462","images/stimuli/spore_stims/complex_19_B_b.gif","images/stimuli/spore_stims/complex_19_A_b.gif","","","","","8","complex_similar","images/stimuli/spore_stims/complex_19_A_b.gif","middle","","","","",""
"","75.4200000083074","html-keyboard-response","168","189134","0.0-33.0","SS1613138604289","pref_question","","51","","","","","<video width ='960' height = '540' style='padding-top:8%' autoplay muted><source src='images/stimuli/wall_pref.mp4' type='video/mp4'></video>","3","right","66%","8","","","","","","","",""
"","203.72000001952983","sequential-stimulus-presentation","169","190149","0.0-34.0","SS1613138604289","pref_reveal","","40","800","1003.7200000195298","null","null","","","","","8","","","","novel","","","",""
"","null","html-keyboard-response","170","191120","0.0-35.0-0.0","SS1613138604289","","","null","","","","","<p><img src= images/blank.png width =""200"" height = ""200"" style = ""float:right""></p><p><img src=images/blank.png width =""800"" height = ""200""></p>","","","","","","","","","","","",""
"","227.22000000067055","sequential-stimulus-presentation","171","192155","0.0-35.0-1.0","SS1613138604289","trial","","40","800","1027.2200000006706","images/stimuli/spore_stims/simple_17_A_b.gif","images/stimuli/spore_stims/simple_17_B_b.gif","","","","","9","simple_similar","images/stimuli/spore_stims/simple_17_B_b.gif","right","","","","",""
"","null","html-keyboard-response","172","193248","0.0-35.0-0.1","SS1613138604289","","","null","","","","","<p><img src= images/blank.png width =""200"" height = ""200"" style = ""float:right""></p><p><img src=images/blank.png width =""800"" height = ""200""></p>","","","","","","","","","","","",""
"","7.829999987734482","sequential-stimulus-presentation","173","194065","0.0-35.0-1.1","SS1613138604289","trial","","40","800","807.8299999877345","images/stimuli/spore_stims/simple_17_A_b.gif","images/stimuli/spore_stims/simple_17_B_b.gif","","","","","9","simple_similar","images/stimuli/spore_stims/simple_17_B_b.gif","right","","","","",""
"","null","html-keyboard-response","174","195249","0.0-35.0-0.2","SS1613138604289","","","null","","","","","<p><img src= images/blank.png width =""200"" height = ""200"" style = ""float:right""></p><p><img src=images/blank.png width =""800"" height = ""200""></p>","","","","","","","","","","","",""
"","179.42000000039116","sequential-stimulus-presentation","175","196235","0.0-35.0-1.2","SS1613138604289","trial","","40","800","979.4200000003912","images/stimuli/spore_stims/simple_17_A_b.gif","images/stimuli/spore_stims/simple_17_B_b.gif","","","","","9","simple_similar","images/stimuli/spore_stims/simple_17_A_b.gif","left","","","","",""
"","null","html-keyboard-response","176","197090","0.0-35.0-0.3","SS1613138604289","","","null","","","","","<p><img src= images/blank.png width =""200"" height = ""200"" style = ""float:right""></p><p><img src=images/blank.png width =""800"" height = ""200""></p>","","","","","","","","","","","",""
"","127.43500000215136","sequential-stimulus-presentation","177","198024","0.0-35.0-1.3","SS1613138604289","trial","","40","800","927.4350000021514","images/stimuli/spore_stims/simple_17_A_b.gif","images/stimuli/spore_stims/simple_17_B_b.gif","","","","","9","simple_similar","images/stimuli/spore_stims/simple_17_B_b.gif","right","","","","",""
"","null","html-keyboard-response","178","199297","0.0-35.0-0.4","SS1613138604289","","","null","","","","","<p><img src= images/blank.png width =""200"" height = ""200"" style = ""float:right""></p><p><img src=images/blank.png width =""800"" height = ""200""></p>","","","","","","","","","","","",""
"","214.27500000572763","sequential-stimulus-presentation","179","200324","0.0-35.0-1.4","SS1613138604289","trial","","40","800","1014.2750000057276","images/stimuli/spore_stims/simple_17_A_b.gif","images/stimuli/spore_stims/simple_17_B_b.gif","","","","","9","simple_similar","images/stimuli/spore_stims/simple_17_B_b.gif","right","","","","",""
"","null","html-keyboard-response","180","201538","0.0-35.0-0.5","SS1613138604289","","","null","","","","","<p><img src= images/blank.png width =""200"" height = ""200"" style = ""float:right""></p><p><img src=images/blank.png width =""800"" height = ""200""></p>","","","","","","","","","","","",""
"","122.10000000777654","sequential-stimulus-presentation","181","202467","0.0-35.0-1.5","SS1613138604289","trial","","40","800","922.1000000077765","images/stimuli/spore_stims/simple_17_A_b.gif","images/stimuli/spore_stims/simple_17_B_b.gif","","","","","9","simple_similar","images/stimuli/spore_stims/simple_17_B_b.gif","right","","","","",""
"","null","html-keyboard-response","182","203499","0.0-35.0-0.6","SS1613138604289","","","null","","","","","<p><img src= images/blank.png width =""200"" height = ""200"" style = ""float:right""></p><p><img src=images/blank.png width =""800"" height = ""200""></p>","","","","","","","","","","","",""
"","186.43000000156462","sequential-stimulus-presentation","183","204512","0.0-35.0-1.6","SS1613138604289","trial","","40","800","986.4300000015646","images/stimuli/spore_stims/simple_17_A_b.gif","images/stimuli/spore_stims/simple_17_B_b.gif","","","","","9","simple_similar","images/stimuli/spore_stims/simple_17_B_b.gif","right","","","","",""
"","null","html-keyboard-response","184","205713","0.0-35.0-0.7","SS1613138604289","","","null","","","","","<p><img src= images/blank.png width =""200"" height = ""200"" style = ""float:right""></p><p><img src=images/blank.png width =""800"" height = ""200""></p>","","","","","","","","","","","",""
"","67.8149999876041","sequential-stimulus-presentation","185","206589","0.0-35.0-1.7","SS1613138604289","trial","","40","800","867.8149999876041","images/stimuli/spore_stims/simple_17_A_b.gif","images/stimuli/spore_stims/simple_17_B_b.gif","","","","","9","simple_similar","images/stimuli/spore_stims/simple_17_B_b.gif","right","","","","",""
"","30.03500000340864","html-keyboard-response","186","206627","0.0-36.0","SS1613138604289","pref_question","","51","","","","","<video width ='960' height = '540' style='padding-top:8%' autoplay muted><source src='images/stimuli/wall_pref.mp4' type='video/mp4'></video>","3","right","66%","9","","","","","","","",""
"","37.780000013299286","sequential-stimulus-presentation","187","207473","0.0-37.0","SS1613138604289","pref_reveal","","40","800","837.7800000132993","null","null","","","","","9","","","","background","","","",""
"","null","html-keyboard-response","188","208513","0.0-38.0-0.0","SS1613138604289","","","null","","","","","<p><img src= images/blank.png width =""200"" height = ""200"" style = ""float:right""></p><p><img src=images/blank.png width =""800"" height = ""200""></p>","","","","","","","","","","","",""
"","29.980000021168962","sequential-stimulus-presentation","189","209351","0.0-38.0-1.0","SS1613138604289","trial","","40","800","829.980000021169","images/stimuli/spore_stims/simple_20_B_c.gif","images/stimuli/spore_stims/simple_20_A_c.gif","","","","","10","simple_similar","images/stimuli/spore_stims/simple_20_A_c.gif","middle","","","","",""
"","null","html-keyboard-response","190","210228","0.0-38.0-0.1","SS1613138604289","","","null","","","","","<p><img src= images/blank.png width =""200"" height = ""200"" style = ""float:right""></p><p><img src=images/blank.png width =""800"" height = ""200""></p>","","","","","","","","","","","",""
"","119.31999999796972","sequential-stimulus-presentation","191","211154","0.0-38.0-1.1","SS1613138604289","trial","","40","800","919.3199999979697","images/stimuli/spore_stims/simple_20_B_c.gif","images/stimuli/spore_stims/simple_20_A_c.gif","","","","","10","simple_similar","images/stimuli/spore_stims/simple_20_A_c.gif","middle","","","","",""
"","null","html-keyboard-response","192","212444","0.0-38.0-0.2","SS1613138604289","","","null","","","","","<p><img src= images/blank.png width =""200"" height = ""200"" style = ""float:right""></p><p><img src=images/blank.png width =""800"" height = ""200""></p>","","","","","","","","","","","",""
"","712.2749999980442","sequential-stimulus-presentation","193","213962","0.0-38.0-1.2","SS1613138604289","trial","","40","800","1512.2749999980442","images/stimuli/spore_stims/simple_20_B_c.gif","images/stimuli/spore_stims/simple_20_A_c.gif","","","","","10","simple_similar","images/stimuli/spore_stims/simple_20_A_c.gif","middle","","","","",""
"","null","html-keyboard-response","194","215206","0.0-38.0-0.3","SS1613138604289","","","null","","","","","<p><img src= images/blank.png width =""200"" height = ""200"" style = ""float:right""></p><p><img src=images/blank.png width =""800"" height = ""200""></p>","","","","","","","","","","","",""
"","31.46499997819774","sequential-stimulus-presentation","195","216044","0.0-38.0-1.3","SS1613138604289","trial","","40","800","831.4649999781977","images/stimuli/spore_stims/simple_20_B_c.gif","images/stimuli/spore_stims/simple_20_A_c.gif","","","","","10","simple_similar","images/stimuli/spore_stims/simple_20_B_c.gif","left","","","","",""
"","null","html-keyboard-response","196","217132","0.0-38.0-0.4","SS1613138604289","","","null","","","","","<p><img src= images/blank.png width =""200"" height = ""200"" style = ""float:right""></p><p><img src=images/blank.png width =""800"" height = ""200""></p>","","","","","","","","","","","",""
"","57.57499998435378","sequential-stimulus-presentation","197","218025","0.0-38.0-1.4","SS1613138604289","trial","","40","800","857.5749999843538","images/stimuli/spore_stims/simple_20_B_c.gif","images/stimuli/spore_stims/simple_20_A_c.gif","","","","","10","simple_similar","images/stimuli/spore_stims/simple_20_A_c.gif","middle","","","","",""
"","null","html-keyboard-response","198","219180","0.0-38.0-0.5","SS1613138604289","","","null","","","","","<p><img src= images/blank.png width =""200"" height = ""200"" style = ""float:right""></p><p><img src=images/blank.png width =""800"" height = ""200""></p>","","","","","","","","","","","",""
"","108.11499998089857","sequential-stimulus-presentation","199","220100","0.0-38.0-1.5","SS1613138604289","trial","","40","800","908.1149999808986","images/stimuli/spore_stims/simple_20_B_c.gif","images/stimuli/spore_stims/simple_20_A_c.gif","","","","","10","simple_similar","images/stimuli/spore_stims/simple_20_A_c.gif","middle","","","","",""
"","null","html-keyboard-response","200","221198","0.0-38.0-0.6","SS1613138604289","","","null","","","","","<p><img src= images/blank.png width =""200"" height = ""200"" style = ""float:right""></p><p><img src=images/blank.png width =""800"" height = ""200""></p>","","","","","","","","","","","",""
"","239.480000018375","sequential-stimulus-presentation","201","222245","0.0-38.0-1.6","SS1613138604289","trial","","40","800","1039.480000018375","images/stimuli/spore_stims/simple_20_B_c.gif","images/stimuli/spore_stims/simple_20_A_c.gif","","","","","10","simple_similar","images/stimuli/spore_stims/simple_20_A_c.gif","middle","","","","",""
"","null","html-keyboard-response","202","223336","0.0-38.0-0.7","SS1613138604289","","","null","","","","","<p><img src= images/blank.png width =""200"" height = ""200"" style = ""float:right""></p><p><img src=images/blank.png width =""800"" height = ""200""></p>","","","","","","","","","","","",""
"","151.8649999925401","sequential-stimulus-presentation","203","224297","0.0-38.0-1.7","SS1613138604289","trial","","40","800","951.8649999925401","images/stimuli/spore_stims/simple_20_B_c.gif","images/stimuli/spore_stims/simple_20_A_c.gif","","","","","10","simple_similar","images/stimuli/spore_stims/simple_20_A_c.gif","middle","","","","",""
"","297.90000000502914","html-keyboard-response","204","224619","0.0-39.0","SS1613138604289","pref_question","","50","","","","","<video width ='960' height = '540' style='padding-top:8%' autoplay muted><source src='images/stimuli/wall_pref.mp4' type='video/mp4'></video>","2","middle","45%","10","","","","","","","",""
"","139.6099999838043","sequential-stimulus-presentation","205","225577","0.0-40.0","SS1613138604289","pref_reveal","","40","800","939.6099999838043","null","null","","","","","10","","","","background","","","",""
"","null","html-keyboard-response","206","226766","0.0-41.0-0.0","SS1613138604289","","","null","","","","","<p><img src= images/blank.png width =""200"" height = ""200"" style = ""float:right""></p><p><img src=images/blank.png width =""800"" height = ""200""></p>","","","","","","","","","","","",""
"","238.5399999911897","sequential-stimulus-presentation","207","227812","0.0-41.0-1.0","SS1613138604289","trial","","40","800","1038.5399999911897","images/stimuli/spore_stims/simple_11_A_d.gif","images/stimuli/spore_stims/simple_11_B_c.gif","","","","","11","simple_dissimilar","images/stimuli/spore_stims/simple_11_B_c.gif","left","","","","",""
"","null","html-keyboard-response","208","228863","0.0-41.0-0.1","SS1613138604289","","","null","","","","","<p><img src= images/blank.png width =""200"" height = ""200"" style = ""float:right""></p><p><img src=images/blank.png width =""800"" height = ""200""></p>","","","","","","","","","","","",""
"","40.72499999892898","sequential-stimulus-presentation","209","229711","0.0-41.0-1.1","SS1613138604289","trial","","40","800","840.724999998929","images/stimuli/spore_stims/simple_11_A_d.gif","images/stimuli/spore_stims/simple_11_B_c.gif","","","","","11","simple_dissimilar","images/stimuli/spore_stims/simple_11_B_c.gif","left","","","","",""
"","null","html-keyboard-response","210","230832","0.0-41.0-0.2","SS1613138604289","","","null","","","","","<p><img src= images/blank.png width =""200"" height = ""200"" style = ""float:right""></p><p><img src=images/blank.png width =""800"" height = ""200""></p>","","","","","","","","","","","",""
"","448.6800000013318","sequential-stimulus-presentation","211","232103","0.0-41.0-1.2","SS1613138604289","trial","","40","800","1248.6800000013318","images/stimuli/spore_stims/simple_11_A_d.gif","images/stimuli/spore_stims/simple_11_B_c.gif","","","","","11","simple_dissimilar","images/stimuli/spore_stims/simple_11_B_c.gif","left","","","","",""
"","null","html-keyboard-response","212","233076","0.0-41.0-0.3","SS1613138604289","","","null","","","","","<p><img src= images/blank.png width =""200"" height = ""200"" style = ""float:right""></p><p><img src=images/blank.png width =""800"" height = ""200""></p>","","","","","","","","","","","",""
"","134.96999998460524","sequential-stimulus-presentation","213","234018","0.0-41.0-1.3","SS1613138604289","trial","","40","800","934.9699999846052","images/stimuli/spore_stims/simple_11_A_d.gif","images/stimuli/spore_stims/simple_11_B_c.gif","","","","","11","simple_dissimilar","images/stimuli/spore_stims/simple_11_B_c.gif","left","","","","",""
"","null","html-keyboard-response","214","234984","0.0-41.0-0.4","SS1613138604289","","","null","","","","","<p><img src= images/blank.png width =""200"" height = ""200"" style = ""float:right""></p><p><img src=images/blank.png width =""800"" height = ""200""></p>","","","","","","","","","","","",""
"","87.67000000807457","sequential-stimulus-presentation","215","235879","0.0-41.0-1.4","SS1613138604289","trial","","40","800","887.6700000080746","images/stimuli/spore_stims/simple_11_A_d.gif","images/stimuli/spore_stims/simple_11_B_c.gif","","","","","11","simple_dissimilar","images/stimuli/spore_stims/simple_11_B_c.gif","left","","","","",""
"","null","html-keyboard-response","216","236910","0.0-41.0-0.5","SS1613138604289","","","null","","","","","<p><img src= images/blank.png width =""200"" height = ""200"" style = ""float:right""></p><p><img src=images/blank.png width =""800"" height = ""200""></p>","","","","","","","","","","","",""
"","236.43499999889173","sequential-stimulus-presentation","217","237953","0.0-41.0-1.5","SS1613138604289","trial","","40","800","1036.4349999988917","images/stimuli/spore_stims/simple_11_A_d.gif","images/stimuli/spore_stims/simple_11_B_c.gif","","","","","11","simple_dissimilar","images/stimuli/spore_stims/simple_11_B_c.gif","left","","","","",""
"","null","html-keyboard-response","218","239106","0.0-41.0-0.6","SS1613138604289","","","null","","","","","<p><img src= images/blank.png width =""200"" height = ""200"" style = ""float:right""></p><p><img src=images/blank.png width =""800"" height = ""200""></p>","","","","","","","","","","","",""
"","175.9650000021793","sequential-stimulus-presentation","219","240091","0.0-41.0-1.6","SS1613138604289","trial","","40","800","975.9650000021793","images/stimuli/spore_stims/simple_11_A_d.gif","images/stimuli/spore_stims/simple_11_B_c.gif","","","","","11","simple_dissimilar","images/stimuli/spore_stims/simple_11_A_d.gif","middle","","","","",""
"","null","html-keyboard-response","220","241094","0.0-41.0-0.7","SS1613138604289","","","null","","","","","<p><img src= images/blank.png width =""200"" height = ""200"" style = ""float:right""></p><p><img src=images/blank.png width =""800"" height = ""200""></p>","","","","","","","","","","","",""
"","28.855000011390075","sequential-stimulus-presentation","221","241930","0.0-41.0-1.7","SS1613138604289","trial","","40","800","828.8550000113901","images/stimuli/spore_stims/simple_11_A_d.gif","images/stimuli/spore_stims/simple_11_B_c.gif","","","","","11","simple_dissimilar","images/stimuli/spore_stims/simple_11_B_c.gif","left","","","","",""
"","2.359999984037131","html-keyboard-response","222","241938","0.0-42.0","SS1613138604289","pref_question","","50","","","","","<video width ='960' height = '540' style='padding-top:8%' autoplay muted><source src='images/stimuli/wall_pref.mp4' type='video/mp4'></video>","2","middle","45%","11","","","","","","","",""
"","152.78499998385087","sequential-stimulus-presentation","223","242900","0.0-43.0","SS1613138604289","pref_reveal","","40","800","952.7849999838509","null","null","","","","","11","","","","deviant","","","",""
"","null","html-keyboard-response","224","243965","0.0-44.0-0.0","SS1613138604289","","","null","","","","","<p><img src= images/blank.png width =""200"" height = ""200"" style = ""float:right""></p><p><img src=images/blank.png width =""800"" height = ""200""></p>","","","","","","","","","","","",""
"","45.840000006137416","sequential-stimulus-presentation","225","244817","0.0-44.0-1.0","SS1613138604289","trial","","40","800","845.8400000061374","images/stimuli/spore_stims/simple_10_B_d.gif","images/stimuli/spore_stims/simple_07_A_b.gif","","","","","12","simple_dissimilar","images/stimuli/spore_stims/simple_07_A_b.gif","left","","","","",""
"","null","html-keyboard-response","226","246010","0.0-44.0-0.1","SS1613138604289","","","null","","","","","<p><img src= images/blank.png width =""200"" height = ""200"" style = ""float:right""></p><p><img src=images/blank.png width =""800"" height = ""200""></p>","","","","","","","","","","","",""
"","178.89999999897555","sequential-stimulus-presentation","227","247001","0.0-44.0-1.1","SS1613138604289","trial","","40","800","978.8999999989755","images/stimuli/spore_stims/simple_10_B_d.gif","images/stimuli/spore_stims/simple_07_A_b.gif","","","","","12","simple_dissimilar","images/stimuli/spore_stims/simple_07_A_b.gif","left","","","","",""
"","null","html-keyboard-response","228","248147","0.0-44.0-0.2","SS1613138604289","","","null","","","","","<p><img src= images/blank.png width =""200"" height = ""200"" style = ""float:right""></p><p><img src=images/blank.png width =""800"" height = ""200""></p>","","","","","","","","","","","",""
"","106.02999999537133","sequential-stimulus-presentation","229","249066","0.0-44.0-1.2","SS1613138604289","trial","","40","800","906.0299999953713","images/stimuli/spore_stims/simple_10_B_d.gif","images/stimuli/spore_stims/simple_07_A_b.gif","","","","","12","simple_dissimilar","images/stimuli/spore_stims/simple_10_B_d.gif","middle","","","","",""
"","null","html-keyboard-response","230","250116","0.0-44.0-0.3","SS1613138604289","","","null","","","","","<p><img src= images/blank.png width =""200"" height = ""200"" style = ""float:right""></p><p><img src=images/blank.png width =""800"" height = ""200""></p>","","","","","","","","","","","",""
"","345.6599999917671","sequential-stimulus-presentation","231","251272","0.0-44.0-1.3","SS1613138604289","trial","","40","800","1145.659999991767","images/stimuli/spore_stims/simple_10_B_d.gif","images/stimuli/spore_stims/simple_07_A_b.gif","","","","","12","simple_dissimilar","images/stimuli/spore_stims/simple_07_A_b.gif","left","","","","",""
"","null","html-keyboard-response","232","252387","0.0-44.0-0.4","SS1613138604289","","","null","","","","","<p><img src= images/blank.png width =""200"" height = ""200"" style = ""float:right""></p><p><img src=images/blank.png width =""800"" height = ""200""></p>","","","","","","","","","","","",""
"","150.70000002742745","sequential-stimulus-presentation","233","253351","0.0-44.0-1.4","SS1613138604289","trial","","40","800","950.7000000274274","images/stimuli/spore_stims/simple_10_B_d.gif","images/stimuli/spore_stims/simple_07_A_b.gif","","","","","12","simple_dissimilar","images/stimuli/spore_stims/simple_07_A_b.gif","left","","","","",""
"","null","html-keyboard-response","234","254378","0.0-44.0-0.5","SS1613138604289","","","null","","","","","<p><img src= images/blank.png width =""200"" height = ""200"" style = ""float:right""></p><p><img src=images/blank.png width =""800"" height = ""200""></p>","","","","","","","","","","","",""
"","203.07499999762513","sequential-stimulus-presentation","235","255392","0.0-44.0-1.5","SS1613138604289","trial","","40","800","1003.0749999976251","images/stimuli/spore_stims/simple_10_B_d.gif","images/stimuli/spore_stims/simple_07_A_b.gif","","","","","12","simple_dissimilar","images/stimuli/spore_stims/simple_07_A_b.gif","left","","","","",""
"","null","html-keyboard-response","236","256519","0.0-44.0-0.6","SS1613138604289","","","null","","","","","<p><img src= images/blank.png width =""200"" height = ""200"" style = ""float:right""></p><p><img src=images/blank.png width =""800"" height = ""200""></p>","","","","","","","","","","","",""
"","286.694999987958","sequential-stimulus-presentation","237","257614","0.0-44.0-1.6","SS1613138604289","trial","","40","800","1086.694999987958","images/stimuli/spore_stims/simple_10_B_d.gif","images/stimuli/spore_stims/simple_07_A_b.gif","","","","","12","simple_dissimilar","images/stimuli/spore_stims/simple_07_A_b.gif","left","","","","",""
"","null","html-keyboard-response","238","258419","0.0-44.0-0.7","SS1613138604289","","","null","","","","","<p><img src= images/blank.png width =""200"" height = ""200"" style = ""float:right""></p><p><img src=images/blank.png width =""800"" height = ""200""></p>","","","","","","","","","","","",""
"","258.9449999795761","sequential-stimulus-presentation","239","259484","0.0-44.0-1.7","SS1613138604289","trial","","40","800","1058.944999979576","images/stimuli/spore_stims/simple_10_B_d.gif","images/stimuli/spore_stims/simple_07_A_b.gif","","","","","12","simple_dissimilar","images/stimuli/spore_stims/simple_07_A_b.gif","left","","","","",""
"","658.1149999983609","html-keyboard-response","240","260149","0.0-45.0","SS1613138604289","pref_question","","51","","","","","<video width ='960' height = '540' style='padding-top:8%' autoplay muted><source src='images/stimuli/wall_pref.mp4' type='video/mp4'></video>","3","right","66%","12","","","","","","","",""
"","222.4350000033155","sequential-stimulus-presentation","241","261179","0.0-46.0","SS1613138604289","pref_reveal","","40","800","1022.4350000033155","null","null","","","","","12","","","","novel","","","",""
"","null","html-keyboard-response","242","262419","0.0-47.0-0.0","SS1613138604289","","","null","","","","","<p><img src= images/blank.png width =""200"" height = ""200"" style = ""float:right""></p><p><img src=images/blank.png width =""800"" height = ""200""></p>","","","","","","","","","","","",""
"","78.09999998426065","sequential-stimulus-presentation","243","263304","0.0-47.0-1.0","SS1613138604289","trial","","40","800","878.0999999842606","images/stimuli/spore_stims/complex_16_B_d.gif","images/stimuli/spore_stims/complex_14_B_c.gif","","","","","13","complex_dissimilar","images/stimuli/spore_stims/complex_14_B_c.gif","right","","","","",""
"","null","html-keyboard-response","244","264149","0.0-47.0-0.1","SS1613138604289","","","null","","","","","<p><img src= images/blank.png width =""200"" height = ""200"" style = ""float:right""></p><p><img src=images/blank.png width =""800"" height = ""200""></p>","","","","","","","","","","","",""
"","193.25499999104068","sequential-stimulus-presentation","245","265169","0.0-47.0-1.1","SS1613138604289","trial","","40","800","993.2549999910407","images/stimuli/spore_stims/complex_16_B_d.gif","images/stimuli/spore_stims/complex_14_B_c.gif","","","","","13","complex_dissimilar","images/stimuli/spore_stims/complex_14_B_c.gif","right","","","","",""
"","null","html-keyboard-response","246","266186","0.0-47.0-0.2","SS1613138604289","","","null","","","","","<p><img src= images/blank.png width =""200"" height = ""200"" style = ""float:right""></p><p><img src=images/blank.png width =""800"" height = ""200""></p>","","","","","","","","","","","",""
"","189.17999998666346","sequential-stimulus-presentation","247","267188","0.0-47.0-1.2","SS1613138604289","trial","","40","800","989.1799999866635","images/stimuli/spore_stims/complex_16_B_d.gif","images/stimuli/spore_stims/complex_14_B_c.gif","","","","","13","complex_dissimilar","images/stimuli/spore_stims/complex_14_B_c.gif","right","","","","",""
"","null","html-keyboard-response","248","268016","0.0-47.0-0.3","SS1613138604289","","","null","","","","","<p><img src= images/blank.png width =""200"" height = ""200"" style = ""float:right""></p><p><img src=images/blank.png width =""800"" height = ""200""></p>","","","","","","","","","","","",""
"","67.15499999700114","sequential-stimulus-presentation","249","268890","0.0-47.0-1.3","SS1613138604289","trial","","40","800","867.1549999970011","images/stimuli/spore_stims/complex_16_B_d.gif","images/stimuli/spore_stims/complex_14_B_c.gif","","","","","13","complex_dissimilar","images/stimuli/spore_stims/complex_16_B_d.gif","middle","","","","",""
"","null","html-keyboard-response","250","269766","0.0-47.0-0.4","SS1613138604289","","","null","","","","","<p><img src= images/blank.png width =""200"" height = ""200"" style = ""float:right""></p><p><img src=images/blank.png width =""800"" height = ""200""></p>","","","","","","","","","","","",""
"","136.55500000459142","sequential-stimulus-presentation","251","270711","0.0-47.0-1.4","SS1613138604289","trial","","40","800","936.5550000045914","images/stimuli/spore_stims/complex_16_B_d.gif","images/stimuli/spore_stims/complex_14_B_c.gif","","","","","13","complex_dissimilar","images/stimuli/spore_stims/complex_14_B_c.gif","right","","","","",""
"","null","html-keyboard-response","252","271581","0.0-47.0-0.5","SS1613138604289","","","null","","","","","<p><img src= images/blank.png width =""200"" height = ""200"" style = ""float:right""></p><p><img src=images/blank.png width =""800"" height = ""200""></p>","","","","","","","","","","","",""
"","511.4750000066124","sequential-stimulus-presentation","253","272901","0.0-47.0-1.5","SS1613138604289","trial","","40","800","1311.4750000066124","images/stimuli/spore_stims/complex_16_B_d.gif","images/stimuli/spore_stims/complex_14_B_c.gif","","","","","13","complex_dissimilar","images/stimuli/spore_stims/complex_14_B_c.gif","right","","","","",""
"","null","html-keyboard-response","254","274029","0.0-47.0-0.6","SS1613138604289","","","null","","","","","<p><img src= images/blank.png width =""200"" height = ""200"" style = ""float:right""></p><p><img src=images/blank.png width =""800"" height = ""200""></p>","","","","","","","","","","","",""
"","728.0199999804609","sequential-stimulus-presentation","255","275572","0.0-47.0-1.6","SS1613138604289","trial","","40","800","1528.0199999804609","images/stimuli/spore_stims/complex_16_B_d.gif","images/stimuli/spore_stims/complex_14_B_c.gif","","","","","13","complex_dissimilar","images/stimuli/spore_stims/complex_14_B_c.gif","right","","","","",""
"","null","html-keyboard-response","256","276459","0.0-47.0-0.7","SS1613138604289","","","null","","","","","<p><img src= images/blank.png width =""200"" height = ""200"" style = ""float:right""></p><p><img src=images/blank.png width =""800"" height = ""200""></p>","","","","","","","","","","","",""
"","165.00000000814907","sequential-stimulus-presentation","257","277432","0.0-47.0-1.7","SS1613138604289","trial","","40","800","965.0000000081491","images/stimuli/spore_stims/complex_16_B_d.gif","images/stimuli/spore_stims/complex_14_B_c.gif","","","","","13","complex_dissimilar","images/stimuli/spore_stims/complex_14_B_c.gif","right","","","","",""
"","508.49000000744127","html-keyboard-response","258","277948","0.0-48.0","SS1613138604289","pref_question","","51","","","","","<video width ='960' height = '540' style='padding-top:8%' autoplay muted><source src='images/stimuli/wall_pref.mp4' type='video/mp4'></video>","3","right","66%","13","","","","","","","",""
"","175.71000001044013","sequential-stimulus-presentation","259","278933","0.0-49.0","SS1613138604289","pref_reveal","","40","800","975.7100000104401","null","null","","","","","13","","","","background","","","",""
"","null","html-keyboard-response","260","280058","0.0-50.0-0.0","SS1613138604289","","","null","","","","","<p><img src= images/blank.png width =""200"" height = ""200"" style = ""float:right""></p><p><img src=images/blank.png width =""800"" height = ""200""></p>","","","","","","","","","","","",""
"","175.16499999328516","sequential-stimulus-presentation","261","281058","0.0-50.0-1.0","SS1613138604289","trial","","40","800","975.1649999932852","images/stimuli/spore_stims/simple_14_A_b.gif","images/stimuli/spore_stims/simple_14_B_b.gif","","","","","14","simple_similar","images/stimuli/spore_stims/simple_14_B_b.gif","left","","","","",""
"","null","html-keyboard-response","262","282235","0.0-50.0-0.1","SS1613138604289","","","null","","","","","<p><img src= images/blank.png width =""200"" height = ""200"" style = ""float:right""></p><p><img src=images/blank.png width =""800"" height = ""200""></p>","","","","","","","","","","","",""
"","215.90000001015142","sequential-stimulus-presentation","263","283259","0.0-50.0-1.1","SS1613138604289","trial","","40","800","1015.9000000101514","images/stimuli/spore_stims/simple_14_A_b.gif","images/stimuli/spore_stims/simple_14_B_b.gif","","","","","14","simple_similar","images/stimuli/spore_stims/simple_14_B_b.gif","left","","","","",""
"","null","html-keyboard-response","264","284518","0.0-50.0-0.2","SS1613138604289","","","null","","","","","<p><img src= images/blank.png width =""200"" height = ""200"" style = ""float:right""></p><p><img src=images/blank.png width =""800"" height = ""200""></p>","","","","","","","","","","","",""
"","127.16999999247491","sequential-stimulus-presentation","265","285454","0.0-50.0-1.2","SS1613138604289","trial","","40","800","927.1699999924749","images/stimuli/spore_stims/simple_14_A_b.gif","images/stimuli/spore_stims/simple_14_B_b.gif","","","","","14","simple_similar","images/stimuli/spore_stims/simple_14_B_b.gif","left","","","","",""
"","null","html-keyboard-response","266","286478","0.0-50.0-0.3","SS1613138604289","","","null","","","","","<p><img src= images/blank.png width =""200"" height = ""200"" style = ""float:right""></p><p><img src=images/blank.png width =""800"" height = ""200""></p>","","","","","","","","","","","",""
"","182.650000002468","sequential-stimulus-presentation","267","287473","0.0-50.0-1.3","SS1613138604289","trial","","40","800","982.650000002468","images/stimuli/spore_stims/simple_14_A_b.gif","images/stimuli/spore_stims/simple_14_B_b.gif","","","","","14","simple_similar","images/stimuli/spore_stims/simple_14_B_b.gif","left","","","","",""
"","null","html-keyboard-response","268","288453","0.0-50.0-0.4","SS1613138604289","","","null","","","","","<p><img src= images/blank.png width =""200"" height = ""200"" style = ""float:right""></p><p><img src=images/blank.png width =""800"" height = ""200""></p>","","","","","","","","","","","",""
"","81.85499999672174","sequential-stimulus-presentation","269","289356","0.0-50.0-1.4","SS1613138604289","trial","","40","800","881.8549999967217","images/stimuli/spore_stims/simple_14_A_b.gif","images/stimuli/spore_stims/simple_14_B_b.gif","","","","","14","simple_similar","images/stimuli/spore_stims/simple_14_A_b.gif","right","","","","",""
"","null","html-keyboard-response","270","290464","0.0-50.0-0.5","SS1613138604289","","","null","","","","","<p><img src= images/blank.png width =""200"" height = ""200"" style = ""float:right""></p><p><img src=images/blank.png width =""800"" height = ""200""></p>","","","","","","","","","","","",""
"","13.37000000057742","sequential-stimulus-presentation","271","291287","0.0-50.0-1.5","SS1613138604289","trial","","40","800","813.3700000005774","images/stimuli/spore_stims/simple_14_A_b.gif","images/stimuli/spore_stims/simple_14_B_b.gif","","","","","14","simple_similar","images/stimuli/spore_stims/simple_14_B_b.gif","left","","","","",""
"","null","html-keyboard-response","272","292146","0.0-50.0-0.6","SS1613138604289","","","null","","","","","<p><img src= images/blank.png width =""200"" height = ""200"" style = ""float:right""></p><p><img src=images/blank.png width =""800"" height = ""200""></p>","","","","","","","","","","","",""
"","166.58000001916662","sequential-stimulus-presentation","273","293121","0.0-50.0-1.6","SS1613138604289","trial","","40","800","966.5800000191666","images/stimuli/spore_stims/simple_14_A_b.gif","images/stimuli/spore_stims/simple_14_B_b.gif","","","","","14","simple_similar","images/stimuli/spore_stims/simple_14_B_b.gif","left","","","","",""
"","null","html-keyboard-response","274","293951","0.0-50.0-0.7","SS1613138604289","","","null","","","","","<p><img src= images/blank.png width =""200"" height = ""200"" style = ""float:right""></p><p><img src=images/blank.png width =""800"" height = ""200""></p>","","","","","","","","","","","",""
"","398.5499999835156","sequential-stimulus-presentation","275","295156","0.0-50.0-1.7","SS1613138604289","trial","","40","800","1198.5499999835156","images/stimuli/spore_stims/simple_14_A_b.gif","images/stimuli/spore_stims/simple_14_B_b.gif","","","","","14","simple_similar","images/stimuli/spore_stims/simple_14_B_b.gif","left","","","","",""
"","0.3649999853223562","html-keyboard-response","276","295177","0.0-51.0","SS1613138604289","pref_question","","51","","","","","<video width ='960' height = '540' style='padding-top:8%' autoplay muted><source src='images/stimuli/wall_pref.mp4' type='video/mp4'></video>","3","right","66%","14","","","","","","","",""
"","59.69999998342246","sequential-stimulus-presentation","277","296061","0.0-52.0","SS1613138604289","pref_reveal","","40","800","859.6999999834225","null","null","","","","","14","","","","deviant","","","",""
"","null","html-keyboard-response","278","297140","0.0-53.0-0.0","SS1613138604289","","","null","","","","","<p><img src= images/blank.png width =""200"" height = ""200"" style = ""float:right""></p><p><img src=images/blank.png width =""800"" height = ""200""></p>","","","","","","","","","","","",""
"","158.44499997911043","sequential-stimulus-presentation","279","298108","0.0-53.0-1.0","SS1613138604289","trial","","40","800","958.4449999791104","images/stimuli/spore_stims/complex_08_B_c.gif","images/stimuli/spore_stims/complex_08_A_c.gif","","","","","15","complex_similar","images/stimuli/spore_stims/complex_08_A_c.gif","left","","","","",""
"","null","html-keyboard-response","280","299055","0.0-53.0-0.1","SS1613138604289","","","null","","","","","<p><img src= images/blank.png width =""200"" height = ""200"" style = ""float:right""></p><p><img src=images/blank.png width =""800"" height = ""200""></p>","","","","","","","","","","","",""
"","29.1000000142958","sequential-stimulus-presentation","281","299890","0.0-53.0-1.1","SS1613138604289","trial","","40","800","829.1000000142958","images/stimuli/spore_stims/complex_08_B_c.gif","images/stimuli/spore_stims/complex_08_A_c.gif","","","","","15","complex_similar","images/stimuli/spore_stims/complex_08_A_c.gif","left","","","","",""
"","null","html-keyboard-response","282","300907","0.0-53.0-0.2","SS1613138604289","","","null","","","","","<p><img src= images/blank.png width =""200"" height = ""200"" style = ""float:right""></p><p><img src=images/blank.png width =""800"" height = ""200""></p>","","","","","","","","","","","",""
"","150.37499999743886","sequential-stimulus-presentation","283","301865","0.0-53.0-1.2","SS1613138604289","trial","","40","800","950.3749999974389","images/stimuli/spore_stims/complex_08_B_c.gif","images/stimuli/spore_stims/complex_08_A_c.gif","","","","","15","complex_similar","images/stimuli/spore_stims/complex_08_A_c.gif","left","","","","",""
"","null","html-keyboard-response","284","302997","0.0-53.0-0.3","SS1613138604289","","","null","","","","","<p><img src= images/blank.png width =""200"" height = ""200"" style = ""float:right""></p><p><img src=images/blank.png width =""800"" height = ""200""></p>","","","","","","","","","","","",""
"","205.87999999406748","sequential-stimulus-presentation","285","304013","0.0-53.0-1.3","SS1613138604289","trial","","40","800","1005.8799999940675","images/stimuli/spore_stims/complex_08_B_c.gif","images/stimuli/spore_stims/complex_08_A_c.gif","","","","","15","complex_similar","images/stimuli/spore_stims/complex_08_A_c.gif","left","","","","",""
"","null","html-keyboard-response","286","305150","0.0-53.0-0.4","SS1613138604289","","","null","","","","","<p><img src= images/blank.png width =""200"" height = ""200"" style = ""float:right""></p><p><img src=images/blank.png width =""800"" height = ""200""></p>","","","","","","","","","","","",""
"","60.545000014826655","sequential-stimulus-presentation","287","306018","0.0-53.0-1.4","SS1613138604289","trial","","40","800","860.5450000148267","images/stimuli/spore_stims/complex_08_B_c.gif","images/stimuli/spore_stims/complex_08_A_c.gif","","","","","15","complex_similar","images/stimuli/spore_stims/complex_08_A_c.gif","left","","","","",""
"","null","html-keyboard-response","288","307283","0.0-53.0-0.5","SS1613138604289","","","null","","","","","<p><img src= images/blank.png width =""200"" height = ""200"" style = ""float:right""></p><p><img src=images/blank.png width =""800"" height = ""200""></p>","","","","","","","","","","","",""
"","403.5300000105053","sequential-stimulus-presentation","289","308496","0.0-53.0-1.5","SS1613138604289","trial","","40","800","1203.5300000105053","images/stimuli/spore_stims/complex_08_B_c.gif","images/stimuli/spore_stims/complex_08_A_c.gif","","","","","15","complex_similar","images/stimuli/spore_stims/complex_08_B_c.gif","right","","","","",""
"","null","html-keyboard-response","290","309697","0.0-53.0-0.6","SS1613138604289","","","null","","","","","<p><img src= images/blank.png width =""200"" height = ""200"" style = ""float:right""></p><p><img src=images/blank.png width =""800"" height = ""200""></p>","","","","","","","","","","","",""
"","184.81000000610948","sequential-stimulus-presentation","291","310698","0.0-53.0-1.6","SS1613138604289","trial","","40","800","984.8100000061095","images/stimuli/spore_stims/complex_08_B_c.gif","images/stimuli/spore_stims/complex_08_A_c.gif","","","","","15","complex_similar","images/stimuli/spore_stims/complex_08_A_c.gif","left","","","","",""
"","null","html-keyboard-response","292","311961","0.0-53.0-0.7","SS1613138604289","","","null","","","","","<p><img src= images/blank.png width =""200"" height = ""200"" style = ""float:right""></p><p><img src=images/blank.png width =""800"" height = ""200""></p>","","","","","","","","","","","",""
"","109.1149999992922","sequential-stimulus-presentation","293","312891","0.0-53.0-1.7","SS1613138604289","trial","","40","800","909.1149999992922","images/stimuli/spore_stims/complex_08_B_c.gif","images/stimuli/spore_stims/complex_08_A_c.gif","","","","","15","complex_similar","images/stimuli/spore_stims/complex_08_A_c.gif","left","","","","",""
"","29.960000014398247","html-keyboard-response","294","312928","0.0-54.0","SS1613138604289","pref_question","","51","","","","","<video width ='960' height = '540' style='padding-top:8%' autoplay muted><source src='images/stimuli/wall_pref.mp4' type='video/mp4'></video>","3","right","66%","15","","","","","","","",""
"","1.1799999920185655","sequential-stimulus-presentation","295","313742","0.0-55.0","SS1613138604289","pref_reveal","","40","800","801.1799999920186","null","null","","","","","15","","","","deviant","","","",""
"","null","html-keyboard-response","296","314770","0.0-56.0-0.0","SS1613138604289","","","null","","","","","<p><img src= images/blank.png width =""200"" height = ""200"" style = ""float:right""></p><p><img src=images/blank.png width =""800"" height = ""200""></p>","","","","","","","","","","","",""
"","49.43499999353662","sequential-stimulus-presentation","297","315627","0.0-56.0-1.0","SS1613138604289","trial","","40","800","849.4349999935366","images/stimuli/spore_stims/simple_02_B_b.gif","images/stimuli/spore_stims/simple_02_A_b.gif","","","","","16","simple_similar","images/stimuli/spore_stims/simple_02_A_b.gif","right","","","","",""
"","null","html-keyboard-response","298","316929","0.0-56.0-0.1","SS1613138604289","","","null","","","","","<p><img src= images/blank.png width =""200"" height = ""200"" style = ""float:right""></p><p><img src=images/blank.png width =""800"" height = ""200""></p>","","","","","","","","","","","",""
"","130.12000001617707","sequential-stimulus-presentation","299","317882","0.0-56.0-1.1","SS1613138604289","trial","","40","800","930.1200000161771","images/stimuli/spore_stims/simple_02_B_b.gif","images/stimuli/spore_stims/simple_02_A_b.gif","","","","","16","simple_similar","images/stimuli/spore_stims/simple_02_A_b.gif","right","","","","",""
"","null","html-keyboard-response","300","318727","0.0-56.0-0.2","SS1613138604289","","","null","","","","","<p><img src= images/blank.png width =""200"" height = ""200"" style = ""float:right""></p><p><img src=images/blank.png width =""800"" height = ""200""></p>","","","","","","","","","","","",""
"","38.569999975152314","sequential-stimulus-presentation","301","319573","0.0-56.0-1.2","SS1613138604289","trial","","40","800","838.5699999751523","images/stimuli/spore_stims/simple_02_B_b.gif","images/stimuli/spore_stims/simple_02_A_b.gif","","","","","16","simple_similar","images/stimuli/spore_stims/simple_02_B_b.gif","left","","","","",""
"","null","html-keyboard-response","302","320773","0.0-56.0-0.3","SS1613138604289","","","null","","","","","<p><img src= images/blank.png width =""200"" height = ""200"" style = ""float:right""></p><p><img src=images/blank.png width =""800"" height = ""200""></p>","","","","","","","","","","","",""
"","58.73499999870546","sequential-stimulus-presentation","303","321639","0.0-56.0-1.3","SS1613138604289","trial","","40","800","858.7349999987055","images/stimuli/spore_stims/simple_02_B_b.gif","images/stimuli/spore_stims/simple_02_A_b.gif","","","","","16","simple_similar","images/stimuli/spore_stims/simple_02_A_b.gif","right","","","","",""
"","null","html-keyboard-response","304","322471","0.0-56.0-0.4","SS1613138604289","","","null","","","","","<p><img src= images/blank.png width =""200"" height = ""200"" style = ""float:right""></p><p><img src=images/blank.png width =""800"" height = ""200""></p>","","","","","","","","","","","",""
"","29.08999999635853","sequential-stimulus-presentation","305","323314","0.0-56.0-1.4","SS1613138604289","trial","","40","800","829.0899999963585","images/stimuli/spore_stims/simple_02_B_b.gif","images/stimuli/spore_stims/simple_02_A_b.gif","","","","","16","simple_similar","images/stimuli/spore_stims/simple_02_A_b.gif","right","","","","",""
"","null","html-keyboard-response","306","324285","0.0-56.0-0.5","SS1613138604289","","","null","","","","","<p><img src= images/blank.png width =""200"" height = ""200"" style = ""float:right""></p><p><img src=images/blank.png width =""800"" height = ""200""></p>","","","","","","","","","","","",""
"","219.7100000048522","sequential-stimulus-presentation","307","325315","0.0-56.0-1.5","SS1613138604289","trial","","40","800","1019.7100000048522","images/stimuli/spore_stims/simple_02_B_b.gif","images/stimuli/spore_stims/simple_02_A_b.gif","","","","","16","simple_similar","images/stimuli/spore_stims/simple_02_A_b.gif","right","","","","",""
"","null","html-keyboard-response","308","326573","0.0-56.0-0.6","SS1613138604289","","","null","","","","","<p><img src= images/blank.png width =""200"" height = ""200"" style = ""float:right""></p><p><img src=images/blank.png width =""800"" height = ""200""></p>","","","","","","","","","","","",""
"","35.9349999926053","sequential-stimulus-presentation","309","327420","0.0-56.0-1.6","SS1613138604289","trial","","40","800","835.9349999926053","images/stimuli/spore_stims/simple_02_B_b.gif","images/stimuli/spore_stims/simple_02_A_b.gif","","","","","16","simple_similar","images/stimuli/spore_stims/simple_02_A_b.gif","right","","","","",""
"","null","html-keyboard-response","310","328360","0.0-56.0-0.7","SS1613138604289","","","null","","","","","<p><img src= images/blank.png width =""200"" height = ""200"" style = ""float:right""></p><p><img src=images/blank.png width =""800"" height = ""200""></p>","","","","","","","","","","","",""
"","200.47000001068227","sequential-stimulus-presentation","311","329371","0.0-56.0-1.7","SS1613138604289","trial","","40","800","1000.4700000106823","images/stimuli/spore_stims/simple_02_B_b.gif","images/stimuli/spore_stims/simple_02_A_b.gif","","","","","16","simple_similar","images/stimuli/spore_stims/simple_02_A_b.gif","right","","","","",""
"","58.864999999059364","html-keyboard-response","312","329438","0.0-57.0","SS1613138604289","pref_question","","51","","","","","<video width ='960' height = '540' style='padding-top:8%' autoplay muted><source src='images/stimuli/wall_pref.mp4' type='video/mp4'></video>","3","right","66%","16","","","","","","","",""
