"view_history","rt","trial_type","trial_index","time_elapsed","internal_node_id","subject","stimulus_type","trial_stimulus","key_press","minimum_viewing_duration","trial_looking_time","block_deviant","block_background","stimulus","wall_pref","location","location_percent","block_number","block_type","stimulus_displayed","position_displayed","stim_type_selected","responses","question_order","stimulus_left","stimulus_right"
"[{""page_index"":0,""viewing_time"":14413.34999999981}]","14415.289999999914","instructions","0","14420","0.0-0.0","SS1613139910775","","","","","","","","","","","","","","","","","","","",""
"[{""page_index"":0,""viewing_time"":7415.600000000268},{""page_index"":1,""viewing_time"":12881.42499999958}]","20297.70000000007","instructions","1","36722","0.0-1.0","SS1613139910775","instructions","","","","","","","","","","","","","","","","","","",""
"","15060.269999999946","sequential-stimulus-presentation","2","52598","0.0-2.0","SS1613139910775","","","40","800","15860.269999999946","null","null","","","","","","","","","","","","",""
"","4686.50499999967","sequential-stimulus-presentation","3","58099","0.0-3.0","SS1613139910775","","","40","800","5486.50499999967","null","null","","","","","","","","","","","","",""
"[{""page_index"":0,""viewing_time"":3044.2800000000716}]","3045.2649999997375","instructions","4","61146","0.0-4.0","SS1613139910775","instructions","","","","","","","","","","","","","","","","","","",""
"","13193.009999999951","html-keyboard-response","5","74352","0.0-5.0","SS1613139910775","instructions","","49","","","","","<video width ='960' height = '540' autoplay muted><source src='images/stimuli/wall_pref.mp4' type='video/mp4'></video>","1","left","25%","","","","","","","","",""
"","2614.3199999996577","sequential-stimulus-presentation","6","77780","0.0-6.0","SS1613139910775","pref_reveal","","40","800","3414.3199999996577","null","null","","","","","","","","","","","","",""
"[{""page_index"":0,""viewing_time"":3495.275000000227},{""page_index"":1,""viewing_time"":4377.765000000189},{""page_index"":2,""viewing_time"":2245.034999999916},{""page_index"":3,""viewing_time"":1901.6149999997579}]","12021.015000000276","instructions","7","89804","0.0-7.0","SS1613139910775","instructions","","","","","","","","","","","","","","","","","","",""
"","null","html-keyboard-response","8","90947","0.0-8.0-0.0","SS1613139910775","","","null","","","","","<p><img src= images/blank.png width =""200"" height = ""200"" style = ""float:right""></p><p><img src=images/blank.png width =""800"" height = ""200""></p>","","","","","","","","","","","",""
"","2069.714999999618","sequential-stimulus-presentation","9","93828","0.0-8.0-1.0","SS1613139910775","trial","","40","800","2869.714999999618","images/stimuli/spore_stims/simple_12_A_d.gif","images/stimuli/spore_stims/simple_12_B_d.gif","","","","","0","simple_similar","images/stimuli/spore_stims/simple_12_B_d.gif","middle","","","","",""
"","null","html-keyboard-response","10","94828","0.0-8.0-0.1","SS1613139910775","","","null","","","","","<p><img src= images/blank.png width =""200"" height = ""200"" style = ""float:right""></p><p><img src=images/blank.png width =""800"" height = ""200""></p>","","","","","","","","","","","",""
"","2374.1350000000384","sequential-stimulus-presentation","11","98013","0.0-8.0-1.1","SS1613139910775","trial","","40","800","3174.1350000000384","images/stimuli/spore_stims/simple_12_A_d.gif","images/stimuli/spore_stims/simple_12_B_d.gif","","","","","0","simple_similar","images/stimuli/spore_stims/simple_12_B_d.gif","middle","","","","",""
"","null","html-keyboard-response","12","99173","0.0-8.0-0.2","SS1613139910775","","","null","","","","","<p><img src= images/blank.png width =""200"" height = ""200"" style = ""float:right""></p><p><img src=images/blank.png width =""800"" height = ""200""></p>","","","","","","","","","","","",""
"","839.7000000004191","sequential-stimulus-presentation","13","100824","0.0-8.0-1.2","SS1613139910775","trial","","40","800","1639.700000000419","images/stimuli/spore_stims/simple_12_A_d.gif","images/stimuli/spore_stims/simple_12_B_d.gif","","","","","0","simple_similar","images/stimuli/spore_stims/simple_12_B_d.gif","middle","","","","",""
"","null","html-keyboard-response","14","101700","0.0-8.0-0.3","SS1613139910775","","","null","","","","","<p><img src= images/blank.png width =""200"" height = ""200"" style = ""float:right""></p><p><img src=images/blank.png width =""800"" height = ""200""></p>","","","","","","","","","","","",""
"","1512.8350000004575","sequential-stimulus-presentation","15","104023","0.0-8.0-1.3","SS1613139910775","trial","","40","800","2312.8350000004575","images/stimuli/spore_stims/simple_12_A_d.gif","images/stimuli/spore_stims/simple_12_B_d.gif","","","","","0","simple_similar","images/stimuli/spore_stims/simple_12_B_d.gif","middle","","","","",""
"","null","html-keyboard-response","16","104940","0.0-8.0-0.4","SS1613139910775","","","null","","","","","<p><img src= images/blank.png width =""200"" height = ""200"" style = ""float:right""></p><p><img src=images/blank.png width =""800"" height = ""200""></p>","","","","","","","","","","","",""
"","733.8700000000244","sequential-stimulus-presentation","17","106488","0.0-8.0-1.4","SS1613139910775","trial","","40","800","1533.8700000000244","images/stimuli/spore_stims/simple_12_A_d.gif","images/stimuli/spore_stims/simple_12_B_d.gif","","","","","0","simple_similar","images/stimuli/spore_stims/simple_12_B_d.gif","middle","","","","",""
"","null","html-keyboard-response","18","107640","0.0-8.0-0.5","SS1613139910775","","","null","","","","","<p><img src= images/blank.png width =""200"" height = ""200"" style = ""float:right""></p><p><img src=images/blank.png width =""800"" height = ""200""></p>","","","","","","","","","","","",""
"","2343.599999999249","sequential-stimulus-presentation","19","110796","0.0-8.0-1.5","SS1613139910775","trial","","40","800","3143.599999999249","images/stimuli/spore_stims/simple_12_A_d.gif","images/stimuli/spore_stims/simple_12_B_d.gif","","","","","0","simple_similar","images/stimuli/spore_stims/simple_12_B_d.gif","middle","","","","",""
"","null","html-keyboard-response","20","111884","0.0-8.0-0.6","SS1613139910775","","","null","","","","","<p><img src= images/blank.png width =""200"" height = ""200"" style = ""float:right""></p><p><img src=images/blank.png width =""800"" height = ""200""></p>","","","","","","","","","","","",""
"","183.44500000058906","sequential-stimulus-presentation","21","112886","0.0-8.0-1.6","SS1613139910775","trial","","40","800","983.4450000005891","images/stimuli/spore_stims/simple_12_A_d.gif","images/stimuli/spore_stims/simple_12_B_d.gif","","","","","0","simple_similar","images/stimuli/spore_stims/simple_12_B_d.gif","middle","","","","",""
"","null","html-keyboard-response","22","113803","0.0-8.0-0.7","SS1613139910775","","","null","","","","","<p><img src= images/blank.png width =""200"" height = ""200"" style = ""float:right""></p><p><img src=images/blank.png width =""800"" height = ""200""></p>","","","","","","","","","","","",""
"","2992.9750000001222","sequential-stimulus-presentation","23","117621","0.0-8.0-1.7","SS1613139910775","trial","","40","800","3792.9750000001222","images/stimuli/spore_stims/simple_12_A_d.gif","images/stimuli/spore_stims/simple_12_B_d.gif","","","","","0","simple_similar","images/stimuli/spore_stims/simple_12_A_d.gif","right","","","","",""
"","3011.795000000333","html-keyboard-response","24","120643","0.0-9.0","SS1613139910775","pref_question","","50","","","","","<video width ='960' height = '540' style='padding-top:8%' autoplay muted><source src='images/stimuli/wall_pref.mp4' type='video/mp4'></video>","2","middle","45%","0","","","","","","","",""
"","854.5450000001292","sequential-stimulus-presentation","25","122311","0.0-10.0","SS1613139910775","pref_reveal","","40","800","1654.5450000001292","null","null","","","","","0","","","","background","","","",""
"","null","html-keyboard-response","26","123250","0.0-11.0-0.0","SS1613139910775","","","null","","","","","<p><img src= images/blank.png width =""200"" height = ""200"" style = ""float:right""></p><p><img src=images/blank.png width =""800"" height = ""200""></p>","","","","","","","","","","","",""
"","1184.7399999996705","sequential-stimulus-presentation","27","125248","0.0-11.0-1.0","SS1613139910775","trial","","40","800","1984.7399999996705","images/stimuli/spore_stims/complex_17_A_d.gif","images/stimuli/spore_stims/complex_05_B_a.gif","","","","","1","complex_dissimilar","images/stimuli/spore_stims/complex_05_B_a.gif","right","","","","",""
"","null","html-keyboard-response","28","126505","0.0-11.0-0.1","SS1613139910775","","","null","","","","","<p><img src= images/blank.png width =""200"" height = ""200"" style = ""float:right""></p><p><img src=images/blank.png width =""800"" height = ""200""></p>","","","","","","","","","","","",""
"","2737.8300000000454","sequential-stimulus-presentation","29","130062","0.0-11.0-1.1","SS1613139910775","trial","","40","800","3537.8300000000454","images/stimuli/spore_stims/complex_17_A_d.gif","images/stimuli/spore_stims/complex_05_B_a.gif","","","","","1","complex_dissimilar","images/stimuli/spore_stims/complex_05_B_a.gif","right","","","","",""
"","null","html-keyboard-response","30","131261","0.0-11.0-0.2","SS1613139910775","","","null","","","","","<p><img src= images/blank.png width =""200"" height = ""200"" style = ""float:right""></p><p><img src=images/blank.png width =""800"" height = ""200""></p>","","","","","","","","","","","",""
"","770.3899999996647","sequential-stimulus-presentation","31","132843","0.0-11.0-1.2","SS1613139910775","trial","","40","800","1570.3899999996647","images/stimuli/spore_stims/complex_17_A_d.gif","images/stimuli/spore_stims/complex_05_B_a.gif","","","","","1","complex_dissimilar","images/stimuli/spore_stims/complex_05_B_a.gif","right","","","","",""
"","null","html-keyboard-response","32","133726","0.0-11.0-0.3","SS1613139910775","","","null","","","","","<p><img src= images/blank.png width =""200"" height = ""200"" style = ""float:right""></p><p><img src=images/blank.png width =""800"" height = ""200""></p>","","","","","","","","","","","",""
"","535.0900000003166","sequential-stimulus-presentation","33","135074","0.0-11.0-1.3","SS1613139910775","trial","","40","800","1335.0900000003166","images/stimuli/spore_stims/complex_17_A_d.gif","images/stimuli/spore_stims/complex_05_B_a.gif","","","","","1","complex_dissimilar","images/stimuli/spore_stims/complex_05_B_a.gif","right","","","","",""
"","null","html-keyboard-response","34","136252","0.0-11.0-0.4","SS1613139910775","","","null","","","","","<p><img src= images/blank.png width =""200"" height = ""200"" style = ""float:right""></p><p><img src=images/blank.png width =""800"" height = ""200""></p>","","","","","","","","","","","",""
"","772.3999999998196","sequential-stimulus-presentation","35","137835","0.0-11.0-1.4","SS1613139910775","trial","","40","800","1572.3999999998196","images/stimuli/spore_stims/complex_17_A_d.gif","images/stimuli/spore_stims/complex_05_B_a.gif","","","","","1","complex_dissimilar","images/stimuli/spore_stims/complex_05_B_a.gif","right","","","","",""
"","null","html-keyboard-response","36","138655","0.0-11.0-0.5","SS1613139910775","","","null","","","","","<p><img src= images/blank.png width =""200"" height = ""200"" style = ""float:right""></p><p><img src=images/blank.png width =""800"" height = ""200""></p>","","","","","","","","","","","",""
"","863.1299999997136","sequential-stimulus-presentation","37","140330","0.0-11.0-1.5","SS1613139910775","trial","","40","800","1663.1299999997136","images/stimuli/spore_stims/complex_17_A_d.gif","images/stimuli/spore_stims/complex_05_B_a.gif","","","","","1","complex_dissimilar","images/stimuli/spore_stims/complex_17_A_d.gif","middle","","","","",""
"","null","html-keyboard-response","38","141218","0.0-11.0-0.6","SS1613139910775","","","null","","","","","<p><img src= images/blank.png width =""200"" height = ""200"" style = ""float:right""></p><p><img src=images/blank.png width =""800"" height = ""200""></p>","","","","","","","","","","","",""
"","897.1050000000105","sequential-stimulus-presentation","39","142930","0.0-11.0-1.6","SS1613139910775","trial","","40","800","1697.1050000000105","images/stimuli/spore_stims/complex_17_A_d.gif","images/stimuli/spore_stims/complex_05_B_a.gif","","","","","1","complex_dissimilar","images/stimuli/spore_stims/complex_05_B_a.gif","right","","","","",""
"","null","html-keyboard-response","40","144172","0.0-11.0-0.7","SS1613139910775","","","null","","","","","<p><img src= images/blank.png width =""200"" height = ""200"" style = ""float:right""></p><p><img src=images/blank.png width =""800"" height = ""200""></p>","","","","","","","","","","","",""
"","501.5400000002119","sequential-stimulus-presentation","41","145486","0.0-11.0-1.7","SS1613139910775","trial","","40","800","1301.5400000002119","images/stimuli/spore_stims/complex_17_A_d.gif","images/stimuli/spore_stims/complex_05_B_a.gif","","","","","1","complex_dissimilar","images/stimuli/spore_stims/complex_05_B_a.gif","right","","","","",""
"","783.7399999998452","html-keyboard-response","42","146303","0.0-12.0","SS1613139910775","pref_question","","49","","","","","<video width ='960' height = '540' style='padding-top:8%' autoplay muted><source src='images/stimuli/wall_pref.mp4' type='video/mp4'></video>","1","left","25%","1","","","","","","","",""
"","582.7049999998126","sequential-stimulus-presentation","43","147694","0.0-13.0","SS1613139910775","pref_reveal","","40","800","1382.7049999998126","null","null","","","","","1","","","","novel","","","",""
"","null","html-keyboard-response","44","148521","0.0-14.0-0.0","SS1613139910775","","","null","","","","","<p><img src= images/blank.png width =""200"" height = ""200"" style = ""float:right""></p><p><img src=images/blank.png width =""800"" height = ""200""></p>","","","","","","","","","","","",""
"","543.4450000002398","sequential-stimulus-presentation","45","149876","0.0-14.0-1.0","SS1613139910775","trial","","40","800","1343.4450000002398","images/stimuli/spore_stims/complex_10_B_b.gif","images/stimuli/spore_stims/complex_10_A_b.gif","","","","","2","complex_similar","images/stimuli/spore_stims/complex_10_A_b.gif","left","","","","",""
"","null","html-keyboard-response","46","151069","0.0-14.0-0.1","SS1613139910775","","","null","","","","","<p><img src= images/blank.png width =""200"" height = ""200"" style = ""float:right""></p><p><img src=images/blank.png width =""800"" height = ""200""></p>","","","","","","","","","","","",""
"","437.16000000041095","sequential-stimulus-presentation","47","152318","0.0-14.0-1.1","SS1613139910775","trial","","40","800","1237.160000000411","images/stimuli/spore_stims/complex_10_B_b.gif","images/stimuli/spore_stims/complex_10_A_b.gif","","","","","2","complex_similar","images/stimuli/spore_stims/complex_10_A_b.gif","left","","","","",""
"","null","html-keyboard-response","48","153203","0.0-14.0-0.2","SS1613139910775","","","null","","","","","<p><img src= images/blank.png width =""200"" height = ""200"" style = ""float:right""></p><p><img src=images/blank.png width =""800"" height = ""200""></p>","","","","","","","","","","","",""
"","449.88999999986845","sequential-stimulus-presentation","49","154466","0.0-14.0-1.2","SS1613139910775","trial","","40","800","1249.8899999998685","images/stimuli/spore_stims/complex_10_B_b.gif","images/stimuli/spore_stims/complex_10_A_b.gif","","","","","2","complex_similar","images/stimuli/spore_stims/complex_10_B_b.gif","middle","","","","",""
"","null","html-keyboard-response","50","155484","0.0-14.0-0.3","SS1613139910775","","","null","","","","","<p><img src= images/blank.png width =""200"" height = ""200"" style = ""float:right""></p><p><img src=images/blank.png width =""800"" height = ""200""></p>","","","","","","","","","","","",""
"","165.80000000065775","sequential-stimulus-presentation","51","156463","0.0-14.0-1.3","SS1613139910775","trial","","40","800","965.8000000006577","images/stimuli/spore_stims/complex_10_B_b.gif","images/stimuli/spore_stims/complex_10_A_b.gif","","","","","2","complex_similar","images/stimuli/spore_stims/complex_10_A_b.gif","left","","","","",""
"","null","html-keyboard-response","52","157541","0.0-14.0-0.4","SS1613139910775","","","null","","","","","<p><img src= images/blank.png width =""200"" height = ""200"" style = ""float:right""></p><p><img src=images/blank.png width =""800"" height = ""200""></p>","","","","","","","","","","","",""
"","336.744999999617","sequential-stimulus-presentation","53","158714","0.0-14.0-1.4","SS1613139910775","trial","","40","800","1136.744999999617","images/stimuli/spore_stims/complex_10_B_b.gif","images/stimuli/spore_stims/complex_10_A_b.gif","","","","","2","complex_similar","images/stimuli/spore_stims/complex_10_A_b.gif","left","","","","",""
"","null","html-keyboard-response","54","159742","0.0-14.0-0.5","SS1613139910775","","","null","","","","","<p><img src= images/blank.png width =""200"" height = ""200"" style = ""float:right""></p><p><img src=images/blank.png width =""800"" height = ""200""></p>","","","","","","","","","","","",""
"","206.78999999925145","sequential-stimulus-presentation","55","160762","0.0-14.0-1.5","SS1613139910775","trial","","40","800","1006.7899999992514","images/stimuli/spore_stims/complex_10_B_b.gif","images/stimuli/spore_stims/complex_10_A_b.gif","","","","","2","complex_similar","images/stimuli/spore_stims/complex_10_A_b.gif","left","","","","",""
"","null","html-keyboard-response","56","161798","0.0-14.0-0.6","SS1613139910775","","","null","","","","","<p><img src= images/blank.png width =""200"" height = ""200"" style = ""float:right""></p><p><img src=images/blank.png width =""800"" height = ""200""></p>","","","","","","","","","","","",""
"","276.439999999624","sequential-stimulus-presentation","57","162890","0.0-14.0-1.6","SS1613139910775","trial","","40","800","1076.439999999624","images/stimuli/spore_stims/complex_10_B_b.gif","images/stimuli/spore_stims/complex_10_A_b.gif","","","","","2","complex_similar","images/stimuli/spore_stims/complex_10_A_b.gif","left","","","","",""
"","null","html-keyboard-response","58","164083","0.0-14.0-0.7","SS1613139910775","","","null","","","","","<p><img src= images/blank.png width =""200"" height = ""200"" style = ""float:right""></p><p><img src=images/blank.png width =""800"" height = ""200""></p>","","","","","","","","","","","",""
"","616.2749999994121","sequential-stimulus-presentation","59","165511","0.0-14.0-1.7","SS1613139910775","trial","","40","800","1416.274999999412","images/stimuli/spore_stims/complex_10_B_b.gif","images/stimuli/spore_stims/complex_10_A_b.gif","","","","","2","complex_similar","images/stimuli/spore_stims/complex_10_A_b.gif","left","","","","",""
"","1142.820000000036","html-keyboard-response","60","166662","0.0-15.0","SS1613139910775","pref_question","","51","","","","","<video width ='960' height = '540' style='padding-top:8%' autoplay muted><source src='images/stimuli/wall_pref.mp4' type='video/mp4'></video>","3","right","66%","2","","","","","","","",""
"","2695.2300000002724","sequential-stimulus-presentation","61","170172","0.0-16.0","SS1613139910775","pref_reveal","","40","800","3495.2300000002724","null","null","","","","","2","","","","novel","","","",""
"","null","html-keyboard-response","62","171224","0.0-17.0-0.0","SS1613139910775","","","null","","","","","<p><img src= images/blank.png width =""200"" height = ""200"" style = ""float:right""></p><p><img src=images/blank.png width =""800"" height = ""200""></p>","","","","","","","","","","","",""
"","467.3000000002503","sequential-stimulus-presentation","63","172503","0.0-17.0-1.0","SS1613139910775","trial","","40","800","1267.3000000002503","images/stimuli/spore_stims/simple_01_B_a.gif","images/stimuli/spore_stims/simple_07_B_b.gif","","","","","3","simple_dissimilar","images/stimuli/spore_stims/simple_07_B_b.gif","left","","","","",""
"","null","html-keyboard-response","64","173612","0.0-17.0-0.1","SS1613139910775","","","null","","","","","<p><img src= images/blank.png width =""200"" height = ""200"" style = ""float:right""></p><p><img src=images/blank.png width =""800"" height = ""200""></p>","","","","","","","","","","","",""
"","378.0599999999977","sequential-stimulus-presentation","65","174805","0.0-17.0-1.1","SS1613139910775","trial","","40","800","1178.0599999999977","images/stimuli/spore_stims/simple_01_B_a.gif","images/stimuli/spore_stims/simple_07_B_b.gif","","","","","3","simple_dissimilar","images/stimuli/spore_stims/simple_07_B_b.gif","left","","","","",""
"","null","html-keyboard-response","66","176053","0.0-17.0-0.2","SS1613139910775","","","null","","","","","<p><img src= images/blank.png width =""200"" height = ""200"" style = ""float:right""></p><p><img src=images/blank.png width =""800"" height = ""200""></p>","","","","","","","","","","","",""
"","475.51000000024214","sequential-stimulus-presentation","67","177341","0.0-17.0-1.2","SS1613139910775","trial","","40","800","1275.5100000002421","images/stimuli/spore_stims/simple_01_B_a.gif","images/stimuli/spore_stims/simple_07_B_b.gif","","","","","3","simple_dissimilar","images/stimuli/spore_stims/simple_01_B_a.gif","middle","","","","",""
"","null","html-keyboard-response","68","178348","0.0-17.0-0.3","SS1613139910775","","","null","","","","","<p><img src= images/blank.png width =""200"" height = ""200"" style = ""float:right""></p><p><img src=images/blank.png width =""800"" height = ""200""></p>","","","","","","","","","","","",""
"","90.69499999989057","sequential-stimulus-presentation","69","179248","0.0-17.0-1.3","SS1613139910775","trial","","40","800","890.6949999998906","images/stimuli/spore_stims/simple_01_B_a.gif","images/stimuli/spore_stims/simple_07_B_b.gif","","","","","3","simple_dissimilar","images/stimuli/spore_stims/simple_07_B_b.gif","left","","","","",""
"","null","html-keyboard-response","70","180545","0.0-17.0-0.4","SS1613139910775","","","null","","","","","<p><img src= images/blank.png width =""200"" height = ""200"" style = ""float:right""></p><p><img src=images/blank.png width =""800"" height = ""200""></p>","","","","","","","","","","","",""
"","598.4650000000256","sequential-stimulus-presentation","71","181957","0.0-17.0-1.4","SS1613139910775","trial","","40","800","1398.4650000000256","images/stimuli/spore_stims/simple_01_B_a.gif","images/stimuli/spore_stims/simple_07_B_b.gif","","","","","3","simple_dissimilar","images/stimuli/spore_stims/simple_07_B_b.gif","left","","","","",""
"","null","html-keyboard-response","72","182991","0.0-17.0-0.5","SS1613139910775","","","null","","","","","<p><img src= images/blank.png width =""200"" height = ""200"" style = ""float:right""></p><p><img src=images/blank.png width =""800"" height = ""200""></p>","","","","","","","","","","","",""
"","459.96999999988475","sequential-stimulus-presentation","73","184262","0.0-17.0-1.5","SS1613139910775","trial","","40","800","1259.9699999998847","images/stimuli/spore_stims/simple_01_B_a.gif","images/stimuli/spore_stims/simple_07_B_b.gif","","","","","3","simple_dissimilar","images/stimuli/spore_stims/simple_07_B_b.gif","left","","","","",""
"","null","html-keyboard-response","74","185340","0.0-17.0-0.6","SS1613139910775","","","null","","","","","<p><img src= images/blank.png width =""200"" height = ""200"" style = ""float:right""></p><p><img src=images/blank.png width =""800"" height = ""200""></p>","","","","","","","","","","","",""
"","135.44000000003143","sequential-stimulus-presentation","75","186284","0.0-17.0-1.6","SS1613139910775","trial","","40","800","935.4400000000314","images/stimuli/spore_stims/simple_01_B_a.gif","images/stimuli/spore_stims/simple_07_B_b.gif","","","","","3","simple_dissimilar","images/stimuli/spore_stims/simple_07_B_b.gif","left","","","","",""
"","null","html-keyboard-response","76","187493","0.0-17.0-0.7","SS1613139910775","","","null","","","","","<p><img src= images/blank.png width =""200"" height = ""200"" style = ""float:right""></p><p><img src=images/blank.png width =""800"" height = ""200""></p>","","","","","","","","","","","",""
"","720.8000000000466","sequential-stimulus-presentation","77","189027","0.0-17.0-1.7","SS1613139910775","trial","","40","800","1520.8000000000466","images/stimuli/spore_stims/simple_01_B_a.gif","images/stimuli/spore_stims/simple_07_B_b.gif","","","","","3","simple_dissimilar","images/stimuli/spore_stims/simple_07_B_b.gif","left","","","","",""
"","1140.760000000213","html-keyboard-response","78","190180","0.0-18.0","SS1613139910775","pref_question","","51","","","","","<video width ='960' height = '540' style='padding-top:8%' autoplay muted><source src='images/stimuli/wall_pref.mp4' type='video/mp4'></video>","3","right","66%","3","","","","","","","",""
"","267.8799999994226","sequential-stimulus-presentation","79","191261","0.0-19.0","SS1613139910775","pref_reveal","","40","800","1067.8799999994226","null","null","","","","","3","","","","novel","","","",""
"","null","html-keyboard-response","80","192384","0.0-20.0-0.0","SS1613139910775","","","null","","","","","<p><img src= images/blank.png width =""200"" height = ""200"" style = ""float:right""></p><p><img src=images/blank.png width =""800"" height = ""200""></p>","","","","","","","","","","","",""
"","144.15499999994063","sequential-stimulus-presentation","81","193338","0.0-20.0-1.0","SS1613139910775","trial","","40","800","944.1549999999406","images/stimuli/spore_stims/complex_01_A_c.gif","images/stimuli/spore_stims/complex_09_B_d.gif","","","","","4","complex_dissimilar","images/stimuli/spore_stims/complex_09_B_d.gif","right","","","","",""
"","null","html-keyboard-response","82","194338","0.0-20.0-0.1","SS1613139910775","","","null","","","","","<p><img src= images/blank.png width =""200"" height = ""200"" style = ""float:right""></p><p><img src=images/blank.png width =""800"" height = ""200""></p>","","","","","","","","","","","",""
"","437.61499999981606","sequential-stimulus-presentation","83","195610","0.0-20.0-1.1","SS1613139910775","trial","","40","800","1237.614999999816","images/stimuli/spore_stims/complex_01_A_c.gif","images/stimuli/spore_stims/complex_09_B_d.gif","","","","","4","complex_dissimilar","images/stimuli/spore_stims/complex_09_B_d.gif","right","","","","",""
"","null","html-keyboard-response","84","196817","0.0-20.0-0.2","SS1613139910775","","","null","","","","","<p><img src= images/blank.png width =""200"" height = ""200"" style = ""float:right""></p><p><img src=images/blank.png width =""800"" height = ""200""></p>","","","","","","","","","","","",""
"","373.5500000002503","sequential-stimulus-presentation","85","198002","0.0-20.0-1.2","SS1613139910775","trial","","40","800","1173.5500000002503","images/stimuli/spore_stims/complex_01_A_c.gif","images/stimuli/spore_stims/complex_09_B_d.gif","","","","","4","complex_dissimilar","images/stimuli/spore_stims/complex_09_B_d.gif","right","","","","",""
"","null","html-keyboard-response","86","198891","0.0-20.0-0.3","SS1613139910775","","","null","","","","","<p><img src= images/blank.png width =""200"" height = ""200"" style = ""float:right""></p><p><img src=images/blank.png width =""800"" height = ""200""></p>","","","","","","","","","","","",""
"","539.4099999993923","sequential-stimulus-presentation","87","200242","0.0-20.0-1.3","SS1613139910775","trial","","40","800","1339.4099999993923","images/stimuli/spore_stims/complex_01_A_c.gif","images/stimuli/spore_stims/complex_09_B_d.gif","","","","","4","complex_dissimilar","images/stimuli/spore_stims/complex_09_B_d.gif","right","","","","",""
"","null","html-keyboard-response","88","201525","0.0-20.0-0.4","SS1613139910775","","","null","","","","","<p><img src= images/blank.png width =""200"" height = ""200"" style = ""float:right""></p><p><img src=images/blank.png width =""800"" height = ""200""></p>","","","","","","","","","","","",""
"","104.34999999959837","sequential-stimulus-presentation","89","202442","0.0-20.0-1.4","SS1613139910775","trial","","40","800","904.3499999995984","images/stimuli/spore_stims/complex_01_A_c.gif","images/stimuli/spore_stims/complex_09_B_d.gif","","","","","4","complex_dissimilar","images/stimuli/spore_stims/complex_01_A_c.gif","left","","","","",""
"","null","html-keyboard-response","90","203332","0.0-20.0-0.5","SS1613139910775","","","null","","","","","<p><img src= images/blank.png width =""200"" height = ""200"" style = ""float:right""></p><p><img src=images/blank.png width =""800"" height = ""200""></p>","","","","","","","","","","","",""
"","438.1899999998568","sequential-stimulus-presentation","91","204583","0.0-20.0-1.5","SS1613139910775","trial","","40","800","1238.1899999998568","images/stimuli/spore_stims/complex_01_A_c.gif","images/stimuli/spore_stims/complex_09_B_d.gif","","","","","4","complex_dissimilar","images/stimuli/spore_stims/complex_09_B_d.gif","right","","","","",""
"","null","html-keyboard-response","92","205853","0.0-20.0-0.6","SS1613139910775","","","null","","","","","<p><img src= images/blank.png width =""200"" height = ""200"" style = ""float:right""></p><p><img src=images/blank.png width =""800"" height = ""200""></p>","","","","","","","","","","","",""
"","396.4400000004389","sequential-stimulus-presentation","93","207058","0.0-20.0-1.6","SS1613139910775","trial","","40","800","1196.4400000004389","images/stimuli/spore_stims/complex_01_A_c.gif","images/stimuli/spore_stims/complex_09_B_d.gif","","","","","4","complex_dissimilar","images/stimuli/spore_stims/complex_09_B_d.gif","right","","","","",""
"","null","html-keyboard-response","94","208202","0.0-20.0-0.7","SS1613139910775","","","null","","","","","<p><img src= images/blank.png width =""200"" height = ""200"" style = ""float:right""></p><p><img src=images/blank.png width =""800"" height = ""200""></p>","","","","","","","","","","","",""
"","142.5499999995809","sequential-stimulus-presentation","95","209156","0.0-20.0-1.7","SS1613139910775","trial","","40","800","942.5499999995809","images/stimuli/spore_stims/complex_01_A_c.gif","images/stimuli/spore_stims/complex_09_B_d.gif","","","","","4","complex_dissimilar","images/stimuli/spore_stims/complex_09_B_d.gif","right","","","","",""
"","1049.785000000149","html-keyboard-response","96","210215","0.0-21.0","SS1613139910775","pref_question","","50","","","","","<video width ='960' height = '540' style='padding-top:8%' autoplay muted><source src='images/stimuli/wall_pref.mp4' type='video/mp4'></video>","2","middle","45%","4","","","","","","","",""
"","221.19999999995343","sequential-stimulus-presentation","97","211285","0.0-22.0","SS1613139910775","pref_reveal","","40","800","1021.1999999999534","null","null","","","","","4","","","","novel","","","",""
"","null","html-keyboard-response","98","212255","0.0-23.0-0.0","SS1613139910775","","","null","","","","","<p><img src= images/blank.png width =""200"" height = ""200"" style = ""float:right""></p><p><img src=images/blank.png width =""800"" height = ""200""></p>","","","","","","","","","","","",""
"","85.62499999970896","sequential-stimulus-presentation","99","213153","0.0-23.0-1.0","SS1613139910775","trial","","40","800","885.624999999709","images/stimuli/spore_stims/complex_15_B_c.gif","images/stimuli/spore_stims/complex_16_A_a.gif","","","","","5","complex_dissimilar","images/stimuli/spore_stims/complex_16_A_a.gif","middle","","","","",""
"","null","html-keyboard-response","100","214257","0.0-23.0-0.1","SS1613139910775","","","null","","","","","<p><img src= images/blank.png width =""200"" height = ""200"" style = ""float:right""></p><p><img src=images/blank.png width =""800"" height = ""200""></p>","","","","","","","","","","","",""
"","71.33999999950174","sequential-stimulus-presentation","101","215140","0.0-23.0-1.1","SS1613139910775","trial","","40","800","871.3399999995017","images/stimuli/spore_stims/complex_15_B_c.gif","images/stimuli/spore_stims/complex_16_A_a.gif","","","","","5","complex_dissimilar","images/stimuli/spore_stims/complex_16_A_a.gif","middle","","","","",""
"","null","html-keyboard-response","102","216408","0.0-23.0-0.2","SS1613139910775","","","null","","","","","<p><img src= images/blank.png width =""200"" height = ""200"" style = ""float:right""></p><p><img src=images/blank.png width =""800"" height = ""200""></p>","","","","","","","","","","","",""
"","69.399999999383","sequential-stimulus-presentation","103","217321","0.0-23.0-1.2","SS1613139910775","trial","","40","800","869.399999999383","images/stimuli/spore_stims/complex_15_B_c.gif","images/stimuli/spore_stims/complex_16_A_a.gif","","","","","5","complex_dissimilar","images/stimuli/spore_stims/complex_15_B_c.gif","right","","","","",""
"","null","html-keyboard-response","104","218170","0.0-23.0-0.3","SS1613139910775","","","null","","","","","<p><img src= images/blank.png width =""200"" height = ""200"" style = ""float:right""></p><p><img src=images/blank.png width =""800"" height = ""200""></p>","","","","","","","","","","","",""
"","388.7500000001164","sequential-stimulus-presentation","105","219375","0.0-23.0-1.3","SS1613139910775","trial","","40","800","1188.7500000001164","images/stimuli/spore_stims/complex_15_B_c.gif","images/stimuli/spore_stims/complex_16_A_a.gif","","","","","5","complex_dissimilar","images/stimuli/spore_stims/complex_16_A_a.gif","middle","","","","",""
"","null","html-keyboard-response","106","220444","0.0-23.0-0.4","SS1613139910775","","","null","","","","","<p><img src= images/blank.png width =""200"" height = ""200"" style = ""float:right""></p><p><img src=images/blank.png width =""800"" height = ""200""></p>","","","","","","","","","","","",""
"","66.48499999940395","sequential-stimulus-presentation","107","221338","0.0-23.0-1.4","SS1613139910775","trial","","40","800","866.484999999404","images/stimuli/spore_stims/complex_15_B_c.gif","images/stimuli/spore_stims/complex_16_A_a.gif","","","","","5","complex_dissimilar","images/stimuli/spore_stims/complex_16_A_a.gif","middle","","","","",""
"","null","html-keyboard-response","108","222397","0.0-23.0-0.5","SS1613139910775","","","null","","","","","<p><img src= images/blank.png width =""200"" height = ""200"" style = ""float:right""></p><p><img src=images/blank.png width =""800"" height = ""200""></p>","","","","","","","","","","","",""
"","4391.479999999283","sequential-stimulus-presentation","109","227601","0.0-23.0-1.5","SS1613139910775","trial","","40","800","5191.479999999283","images/stimuli/spore_stims/complex_15_B_c.gif","images/stimuli/spore_stims/complex_16_A_a.gif","","","","","5","complex_dissimilar","images/stimuli/spore_stims/complex_16_A_a.gif","middle","","","","",""
"","null","html-keyboard-response","110","228551","0.0-23.0-0.6","SS1613139910775","","","null","","","","","<p><img src= images/blank.png width =""200"" height = ""200"" style = ""float:right""></p><p><img src=images/blank.png width =""800"" height = ""200""></p>","","","","","","","","","","","",""
"","487.82500000018626","sequential-stimulus-presentation","111","229860","0.0-23.0-1.6","SS1613139910775","trial","","40","800","1287.8250000001863","images/stimuli/spore_stims/complex_15_B_c.gif","images/stimuli/spore_stims/complex_16_A_a.gif","","","","","5","complex_dissimilar","images/stimuli/spore_stims/complex_16_A_a.gif","middle","","","","",""
"","null","html-keyboard-response","112","230981","0.0-23.0-0.7","SS1613139910775","","","null","","","","","<p><img src= images/blank.png width =""200"" height = ""200"" style = ""float:right""></p><p><img src=images/blank.png width =""800"" height = ""200""></p>","","","","","","","","","","","",""
"","410.97999999969034","sequential-stimulus-presentation","113","232204","0.0-23.0-1.7","SS1613139910775","trial","","40","800","1210.9799999996903","images/stimuli/spore_stims/complex_15_B_c.gif","images/stimuli/spore_stims/complex_16_A_a.gif","","","","","5","complex_dissimilar","images/stimuli/spore_stims/complex_16_A_a.gif","middle","","","","",""
"","775.8899999998976","html-keyboard-response","114","232988","0.0-24.0","SS1613139910775","pref_question","","49","","","","","<video width ='960' height = '540' style='padding-top:8%' autoplay muted><source src='images/stimuli/wall_pref.mp4' type='video/mp4'></video>","1","left","25%","5","","","","","","","",""
"","147.2849999999744","sequential-stimulus-presentation","115","233945","0.0-25.0","SS1613139910775","pref_reveal","","40","800","947.2849999999744","null","null","","","","","5","","","","novel","","","",""
"","null","html-keyboard-response","116","234974","0.0-26.0-0.0","SS1613139910775","","","null","","","","","<p><img src= images/blank.png width =""200"" height = ""200"" style = ""float:right""></p><p><img src=images/blank.png width =""800"" height = ""200""></p>","","","","","","","","","","","",""
"","449.95999999996275","sequential-stimulus-presentation","117","236257","0.0-26.0-1.0","SS1613139910775","trial","","40","800","1249.9599999999627","images/stimuli/spore_stims/simple_02_B_d.gif","images/stimuli/spore_stims/simple_15_A_a.gif","","","","","6","simple_dissimilar","images/stimuli/spore_stims/simple_15_A_a.gif","right","","","","",""
"","null","html-keyboard-response","118","237104","0.0-26.0-0.1","SS1613139910775","","","null","","","","","<p><img src= images/blank.png width =""200"" height = ""200"" style = ""float:right""></p><p><img src=images/blank.png width =""800"" height = ""200""></p>","","","","","","","","","","","",""
"","124496.49499999941","sequential-stimulus-presentation","119","362419","0.0-26.0-1.1","SS1613139910775","trial","","40","800","125296.49499999941","images/stimuli/spore_stims/simple_02_B_d.gif","images/stimuli/spore_stims/simple_15_A_a.gif","","","","","6","simple_dissimilar","images/stimuli/spore_stims/simple_15_A_a.gif","right","","","","",""
"","null","html-keyboard-response","120","363391","0.0-26.0-0.2","SS1613139910775","","","null","","","","","<p><img src= images/blank.png width =""200"" height = ""200"" style = ""float:right""></p><p><img src=images/blank.png width =""800"" height = ""200""></p>","","","","","","","","","","","",""
"","512.9649999999092","sequential-stimulus-presentation","121","364719","0.0-26.0-1.2","SS1613139910775","trial","","40","800","1312.9649999999092","images/stimuli/spore_stims/simple_02_B_d.gif","images/stimuli/spore_stims/simple_15_A_a.gif","","","","","6","simple_dissimilar","images/stimuli/spore_stims/simple_02_B_d.gif","left","","","","",""
"","null","html-keyboard-response","122","365827","0.0-26.0-0.3","SS1613139910775","","","null","","","","","<p><img src= images/blank.png width =""200"" height = ""200"" style = ""float:right""></p><p><img src=images/blank.png width =""800"" height = ""200""></p>","","","","","","","","","","","",""
"","10.585000000020955","sequential-stimulus-presentation","123","366652","0.0-26.0-1.3","SS1613139910775","trial","","40","800","810.585000000021","images/stimuli/spore_stims/simple_02_B_d.gif","images/stimuli/spore_stims/simple_15_A_a.gif","","","","","6","simple_dissimilar","images/stimuli/spore_stims/simple_15_A_a.gif","right","","","","",""
"","null","html-keyboard-response","124","367688","0.0-26.0-0.4","SS1613139910775","","","null","","","","","<p><img src= images/blank.png width =""200"" height = ""200"" style = ""float:right""></p><p><img src=images/blank.png width =""800"" height = ""200""></p>","","","","","","","","","","","",""
"","435.7449999997625","sequential-stimulus-presentation","125","368936","0.0-26.0-1.4","SS1613139910775","trial","","40","800","1235.7449999997625","images/stimuli/spore_stims/simple_02_B_d.gif","images/stimuli/spore_stims/simple_15_A_a.gif","","","","","6","simple_dissimilar","images/stimuli/spore_stims/simple_15_A_a.gif","right","","","","",""
"","null","html-keyboard-response","126","370163","0.0-26.0-0.5","SS1613139910775","","","null","","","","","<p><img src= images/blank.png width =""200"" height = ""200"" style = ""float:right""></p><p><img src=images/blank.png width =""800"" height = ""200""></p>","","","","","","","","","","","",""
"","49.345000000321306","sequential-stimulus-presentation","127","371030","0.0-26.0-1.5","SS1613139910775","trial","","40","800","849.3450000003213","images/stimuli/spore_stims/simple_02_B_d.gif","images/stimuli/spore_stims/simple_15_A_a.gif","","","","","6","simple_dissimilar","images/stimuli/spore_stims/simple_15_A_a.gif","right","","","","",""
"","null","html-keyboard-response","128","372083","0.0-26.0-0.6","SS1613139910775","","","null","","","","","<p><img src= images/blank.png width =""200"" height = ""200"" style = ""float:right""></p><p><img src=images/blank.png width =""800"" height = ""200""></p>","","","","","","","","","","","",""
"","484.7900000004447","sequential-stimulus-presentation","129","373417","0.0-26.0-1.6","SS1613139910775","trial","","40","800","1284.7900000004447","images/stimuli/spore_stims/simple_02_B_d.gif","images/stimuli/spore_stims/simple_15_A_a.gif","","","","","6","simple_dissimilar","images/stimuli/spore_stims/simple_15_A_a.gif","right","","","","",""
"","null","html-keyboard-response","130","374272","0.0-26.0-0.7","SS1613139910775","","","null","","","","","<p><img src= images/blank.png width =""200"" height = ""200"" style = ""float:right""></p><p><img src=images/blank.png width =""800"" height = ""200""></p>","","","","","","","","","","","",""
"","404.5500000002212","sequential-stimulus-presentation","131","375490","0.0-26.0-1.7","SS1613139910775","trial","","40","800","1204.5500000002212","images/stimuli/spore_stims/simple_02_B_d.gif","images/stimuli/spore_stims/simple_15_A_a.gif","","","","","6","simple_dissimilar","images/stimuli/spore_stims/simple_15_A_a.gif","right","","","","",""
"","1288.7550000004703","html-keyboard-response","132","376790","0.0-27.0","SS1613139910775","pref_question","","50","","","","","<video width ='960' height = '540' style='padding-top:8%' autoplay muted><source src='images/stimuli/wall_pref.mp4' type='video/mp4'></video>","2","middle","45%","6","","","","","","","",""
"","160.04499999963446","sequential-stimulus-presentation","133","377764","0.0-28.0","SS1613139910775","pref_reveal","","40","800","960.0449999996345","null","null","","","","","6","","","","novel","","","",""
"","null","html-keyboard-response","134","378699","0.0-29.0-0.0","SS1613139910775","","","null","","","","","<p><img src= images/blank.png width =""200"" height = ""200"" style = ""float:right""></p><p><img src=images/blank.png width =""800"" height = ""200""></p>","","","","","","","","","","","",""
"","1806.6449999996694","sequential-stimulus-presentation","135","381321","0.0-29.0-1.0","SS1613139910775","trial","","40","800","2606.6449999996694","images/stimuli/spore_stims/complex_07_A_d.gif","images/stimuli/spore_stims/complex_11_B_b.gif","","","","","7","complex_dissimilar","images/stimuli/spore_stims/complex_11_B_b.gif","middle","","","","",""
"","null","html-keyboard-response","136","382426","0.0-29.0-0.1","SS1613139910775","","","null","","","","","<p><img src= images/blank.png width =""200"" height = ""200"" style = ""float:right""></p><p><img src=images/blank.png width =""800"" height = ""200""></p>","","","","","","","","","","","",""
"","28.904999999213032","sequential-stimulus-presentation","137","383298","0.0-29.0-1.1","SS1613139910775","trial","","40","800","828.904999999213","images/stimuli/spore_stims/complex_07_A_d.gif","images/stimuli/spore_stims/complex_11_B_b.gif","","","","","7","complex_dissimilar","images/stimuli/spore_stims/complex_11_B_b.gif","middle","","","","",""
"","null","html-keyboard-response","138","384478","0.0-29.0-0.2","SS1613139910775","","","null","","","","","<p><img src= images/blank.png width =""200"" height = ""200"" style = ""float:right""></p><p><img src=images/blank.png width =""800"" height = ""200""></p>","","","","","","","","","","","",""
"","458.8850000000093","sequential-stimulus-presentation","139","385771","0.0-29.0-1.2","SS1613139910775","trial","","40","800","1258.8850000000093","images/stimuli/spore_stims/complex_07_A_d.gif","images/stimuli/spore_stims/complex_11_B_b.gif","","","","","7","complex_dissimilar","images/stimuli/spore_stims/complex_07_A_d.gif","right","","","","",""
"","null","html-keyboard-response","140","386626","0.0-29.0-0.3","SS1613139910775","","","null","","","","","<p><img src= images/blank.png width =""200"" height = ""200"" style = ""float:right""></p><p><img src=images/blank.png width =""800"" height = ""200""></p>","","","","","","","","","","","",""
"","167.06999999948312","sequential-stimulus-presentation","141","387614","0.0-29.0-1.3","SS1613139910775","trial","","40","800","967.0699999994831","images/stimuli/spore_stims/complex_07_A_d.gif","images/stimuli/spore_stims/complex_11_B_b.gif","","","","","7","complex_dissimilar","images/stimuli/spore_stims/complex_11_B_b.gif","middle","","","","",""
"","null","html-keyboard-response","142","388880","0.0-29.0-0.4","SS1613139910775","","","null","","","","","<p><img src= images/blank.png width =""200"" height = ""200"" style = ""float:right""></p><p><img src=images/blank.png width =""800"" height = ""200""></p>","","","","","","","","","","","",""
"","1155.0550000001676","sequential-stimulus-presentation","143","390850","0.0-29.0-1.4","SS1613139910775","trial","","40","800","1955.0550000001676","images/stimuli/spore_stims/complex_07_A_d.gif","images/stimuli/spore_stims/complex_11_B_b.gif","","","","","7","complex_dissimilar","images/stimuli/spore_stims/complex_11_B_b.gif","middle","","","","",""
"","null","html-keyboard-response","144","392133","0.0-29.0-0.5","SS1613139910775","","","null","","","","","<p><img src= images/blank.png width =""200"" height = ""200"" style = ""float:right""></p><p><img src=images/blank.png width =""800"" height = ""200""></p>","","","","","","","","","","","",""
"","193.22499999997672","sequential-stimulus-presentation","145","393141","0.0-29.0-1.5","SS1613139910775","trial","","40","800","993.2249999999767","images/stimuli/spore_stims/complex_07_A_d.gif","images/stimuli/spore_stims/complex_11_B_b.gif","","","","","7","complex_dissimilar","images/stimuli/spore_stims/complex_11_B_b.gif","middle","","","","",""
"","null","html-keyboard-response","146","394317","0.0-29.0-0.6","SS1613139910775","","","null","","","","","<p><img src= images/blank.png width =""200"" height = ""200"" style = ""float:right""></p><p><img src=images/blank.png width =""800"" height = ""200""></p>","","","","","","","","","","","",""
"","678.1700000001001","sequential-stimulus-presentation","147","395839","0.0-29.0-1.6","SS1613139910775","trial","","40","800","1478.1700000001001","images/stimuli/spore_stims/complex_07_A_d.gif","images/stimuli/spore_stims/complex_11_B_b.gif","","","","","7","complex_dissimilar","images/stimuli/spore_stims/complex_11_B_b.gif","middle","","","","",""
"","null","html-keyboard-response","148","396813","0.0-29.0-0.7","SS1613139910775","","","null","","","","","<p><img src= images/blank.png width =""200"" height = ""200"" style = ""float:right""></p><p><img src=images/blank.png width =""800"" height = ""200""></p>","","","","","","","","","","","",""
"","56.59000000014203","sequential-stimulus-presentation","149","397689","0.0-29.0-1.7","SS1613139910775","trial","","40","800","856.590000000142","images/stimuli/spore_stims/complex_07_A_d.gif","images/stimuli/spore_stims/complex_11_B_b.gif","","","","","7","complex_dissimilar","images/stimuli/spore_stims/complex_11_B_b.gif","middle","","","","",""
"","1486.8500000002095","html-keyboard-response","150","399189","0.0-30.0","SS1613139910775","pref_question","","49","","","","","<video width ='960' height = '540' style='padding-top:8%' autoplay muted><source src='images/stimuli/wall_pref.mp4' type='video/mp4'></video>","1","left","25%","7","","","","","","","",""
"","1289.0000000006985","sequential-stimulus-presentation","151","401292","0.0-31.0","SS1613139910775","pref_reveal","","40","800","2089.0000000006985","null","null","","","","","7","","","","novel","","","",""
"","null","html-keyboard-response","152","402170","0.0-32.0-0.0","SS1613139910775","","","null","","","","","<p><img src= images/blank.png width =""200"" height = ""200"" style = ""float:right""></p><p><img src=images/blank.png width =""800"" height = ""200""></p>","","","","","","","","","","","",""
"","638.5149999996647","sequential-stimulus-presentation","153","403623","0.0-32.0-1.0","SS1613139910775","trial","","40","800","1438.5149999996647","images/stimuli/spore_stims/complex_09_A_d.gif","images/stimuli/spore_stims/complex_18_B_b.gif","","","","","8","complex_dissimilar","images/stimuli/spore_stims/complex_18_B_b.gif","right","","","","",""
"","null","html-keyboard-response","154","404834","0.0-32.0-0.1","SS1613139910775","","","null","","","","","<p><img src= images/blank.png width =""200"" height = ""200"" style = ""float:right""></p><p><img src=images/blank.png width =""800"" height = ""200""></p>","","","","","","","","","","","",""
"","542.9150000000373","sequential-stimulus-presentation","155","406190","0.0-32.0-1.1","SS1613139910775","trial","","40","800","1342.9150000000373","images/stimuli/spore_stims/complex_09_A_d.gif","images/stimuli/spore_stims/complex_18_B_b.gif","","","","","8","complex_dissimilar","images/stimuli/spore_stims/complex_18_B_b.gif","right","","","","",""
"","null","html-keyboard-response","156","407015","0.0-32.0-0.2","SS1613139910775","","","null","","","","","<p><img src= images/blank.png width =""200"" height = ""200"" style = ""float:right""></p><p><img src=images/blank.png width =""800"" height = ""200""></p>","","","","","","","","","","","",""
"","318.97500000009313","sequential-stimulus-presentation","157","408174","0.0-32.0-1.2","SS1613139910775","trial","","40","800","1118.9750000000931","images/stimuli/spore_stims/complex_09_A_d.gif","images/stimuli/spore_stims/complex_18_B_b.gif","","","","","8","complex_dissimilar","images/stimuli/spore_stims/complex_18_B_b.gif","right","","","","",""
"","null","html-keyboard-response","158","409122","0.0-32.0-0.3","SS1613139910775","","","null","","","","","<p><img src= images/blank.png width =""200"" height = ""200"" style = ""float:right""></p><p><img src=images/blank.png width =""800"" height = ""200""></p>","","","","","","","","","","","",""
"","25.94500000035623","sequential-stimulus-presentation","159","409964","0.0-32.0-1.3","SS1613139910775","trial","","40","800","825.9450000003562","images/stimuli/spore_stims/complex_09_A_d.gif","images/stimuli/spore_stims/complex_18_B_b.gif","","","","","8","complex_dissimilar","images/stimuli/spore_stims/complex_18_B_b.gif","right","","","","",""
"","null","html-keyboard-response","160","410983","0.0-32.0-0.4","SS1613139910775","","","null","","","","","<p><img src= images/blank.png width =""200"" height = ""200"" style = ""float:right""></p><p><img src=images/blank.png width =""800"" height = ""200""></p>","","","","","","","","","","","",""
"","118.79500000033295","sequential-stimulus-presentation","161","411917","0.0-32.0-1.4","SS1613139910775","trial","","40","800","918.795000000333","images/stimuli/spore_stims/complex_09_A_d.gif","images/stimuli/spore_stims/complex_18_B_b.gif","","","","","8","complex_dissimilar","images/stimuli/spore_stims/complex_09_A_d.gif","middle","","","","",""
"","null","html-keyboard-response","162","412828","0.0-32.0-0.5","SS1613139910775","","","null","","","","","<p><img src= images/blank.png width =""200"" height = ""200"" style = ""float:right""></p><p><img src=images/blank.png width =""800"" height = ""200""></p>","","","","","","","","","","","",""
"","471.4700000003795","sequential-stimulus-presentation","163","414139","0.0-32.0-1.5","SS1613139910775","trial","","40","800","1271.4700000003795","images/stimuli/spore_stims/complex_09_A_d.gif","images/stimuli/spore_stims/complex_18_B_b.gif","","","","","8","complex_dissimilar","images/stimuli/spore_stims/complex_18_B_b.gif","right","","","","",""
"","null","html-keyboard-response","164","415382","0.0-32.0-0.6","SS1613139910775","","","null","","","","","<p><img src= images/blank.png width =""200"" height = ""200"" style = ""float:right""></p><p><img src=images/blank.png width =""800"" height = ""200""></p>","","","","","","","","","","","",""
"","650.2800000007264","sequential-stimulus-presentation","165","416849","0.0-32.0-1.6","SS1613139910775","trial","","40","800","1450.2800000007264","images/stimuli/spore_stims/complex_09_A_d.gif","images/stimuli/spore_stims/complex_18_B_b.gif","","","","","8","complex_dissimilar","images/stimuli/spore_stims/complex_18_B_b.gif","right","","","","",""
"","null","html-keyboard-response","166","417989","0.0-32.0-0.7","SS1613139910775","","","null","","","","","<p><img src= images/blank.png width =""200"" height = ""200"" style = ""float:right""></p><p><img src=images/blank.png width =""800"" height = ""200""></p>","","","","","","","","","","","",""
"","59.37999999971362","sequential-stimulus-presentation","167","418864","0.0-32.0-1.7","SS1613139910775","trial","","40","800","859.3799999997136","images/stimuli/spore_stims/complex_09_A_d.gif","images/stimuli/spore_stims/complex_18_B_b.gif","","","","","8","complex_dissimilar","images/stimuli/spore_stims/complex_18_B_b.gif","right","","","","",""
"","756.6999999999534","html-keyboard-response","168","419630","0.0-33.0","SS1613139910775","pref_question","","49","","","","","<video width ='960' height = '540' style='padding-top:8%' autoplay muted><source src='images/stimuli/wall_pref.mp4' type='video/mp4'></video>","1","left","25%","8","","","","","","","",""
"","28.04000000015367","sequential-stimulus-presentation","169","420468","0.0-34.0","SS1613139910775","pref_reveal","","40","800","828.0400000001537","null","null","","","","","8","","","","novel","","","",""
"","null","html-keyboard-response","170","421692","0.0-35.0-0.0","SS1613139910775","","","null","","","","","<p><img src= images/blank.png width =""200"" height = ""200"" style = ""float:right""></p><p><img src=images/blank.png width =""800"" height = ""200""></p>","","","","","","","","","","","",""
"","576.1700000002747","sequential-stimulus-presentation","171","423107","0.0-35.0-1.0","SS1613139910775","trial","","40","800","1376.1700000002747","images/stimuli/spore_stims/simple_19_A_c.gif","images/stimuli/spore_stims/simple_19_B_c.gif","","","","","9","simple_similar","images/stimuli/spore_stims/simple_19_B_c.gif","right","","","","",""
"","null","html-keyboard-response","172","424008","0.0-35.0-0.1","SS1613139910775","","","null","","","","","<p><img src= images/blank.png width =""200"" height = ""200"" style = ""float:right""></p><p><img src=images/blank.png width =""800"" height = ""200""></p>","","","","","","","","","","","",""
"","8.554999999469146","sequential-stimulus-presentation","173","424832","0.0-35.0-1.1","SS1613139910775","trial","","40","800","808.5549999994691","images/stimuli/spore_stims/simple_19_A_c.gif","images/stimuli/spore_stims/simple_19_B_c.gif","","","","","9","simple_similar","images/stimuli/spore_stims/simple_19_B_c.gif","right","","","","",""
"","null","html-keyboard-response","174","425957","0.0-35.0-0.2","SS1613139910775","","","null","","","","","<p><img src= images/blank.png width =""200"" height = ""200"" style = ""float:right""></p><p><img src=images/blank.png width =""800"" height = ""200""></p>","","","","","","","","","","","",""
"","399.3549999995739","sequential-stimulus-presentation","175","427173","0.0-35.0-1.2","SS1613139910775","trial","","40","800","1199.354999999574","images/stimuli/spore_stims/simple_19_A_c.gif","images/stimuli/spore_stims/simple_19_B_c.gif","","","","","9","simple_similar","images/stimuli/spore_stims/simple_19_B_c.gif","right","","","","",""
"","null","html-keyboard-response","176","428063","0.0-35.0-0.3","SS1613139910775","","","null","","","","","<p><img src= images/blank.png width =""200"" height = ""200"" style = ""float:right""></p><p><img src=images/blank.png width =""800"" height = ""200""></p>","","","","","","","","","","","",""
"","112.82500000012806","sequential-stimulus-presentation","177","428991","0.0-35.0-1.3","SS1613139910775","trial","","40","800","912.8250000001281","images/stimuli/spore_stims/simple_19_A_c.gif","images/stimuli/spore_stims/simple_19_B_c.gif","","","","","9","simple_similar","images/stimuli/spore_stims/simple_19_B_c.gif","right","","","","",""
"","null","html-keyboard-response","178","430052","0.0-35.0-0.4","SS1613139910775","","","null","","","","","<p><img src= images/blank.png width =""200"" height = ""200"" style = ""float:right""></p><p><img src=images/blank.png width =""800"" height = ""200""></p>","","","","","","","","","","","",""
"","427.73500000016065","sequential-stimulus-presentation","179","431297","0.0-35.0-1.4","SS1613139910775","trial","","40","800","1227.7350000001607","images/stimuli/spore_stims/simple_19_A_c.gif","images/stimuli/spore_stims/simple_19_B_c.gif","","","","","9","simple_similar","images/stimuli/spore_stims/simple_19_B_c.gif","right","","","","",""
"","null","html-keyboard-response","180","432532","0.0-35.0-0.5","SS1613139910775","","","null","","","","","<p><img src= images/blank.png width =""200"" height = ""200"" style = ""float:right""></p><p><img src=images/blank.png width =""800"" height = ""200""></p>","","","","","","","","","","","",""
"","230.37500000011642","sequential-stimulus-presentation","181","433579","0.0-35.0-1.5","SS1613139910775","trial","","40","800","1030.3750000001164","images/stimuli/spore_stims/simple_19_A_c.gif","images/stimuli/spore_stims/simple_19_B_c.gif","","","","","9","simple_similar","images/stimuli/spore_stims/simple_19_B_c.gif","right","","","","",""
"","null","html-keyboard-response","182","434713","0.0-35.0-0.6","SS1613139910775","","","null","","","","","<p><img src= images/blank.png width =""200"" height = ""200"" style = ""float:right""></p><p><img src=images/blank.png width =""800"" height = ""200""></p>","","","","","","","","","","","",""
"","63.01999999961117","sequential-stimulus-presentation","183","435611","0.0-35.0-1.6","SS1613139910775","trial","","40","800","863.0199999996112","images/stimuli/spore_stims/simple_19_A_c.gif","images/stimuli/spore_stims/simple_19_B_c.gif","","","","","9","simple_similar","images/stimuli/spore_stims/simple_19_B_c.gif","right","","","","",""
"","null","html-keyboard-response","184","436719","0.0-35.0-0.7","SS1613139910775","","","null","","","","","<p><img src= images/blank.png width =""200"" height = ""200"" style = ""float:right""></p><p><img src=images/blank.png width =""800"" height = ""200""></p>","","","","","","","","","","","",""
"","510.320000000298","sequential-stimulus-presentation","185","438046","0.0-35.0-1.7","SS1613139910775","trial","","40","800","1310.320000000298","images/stimuli/spore_stims/simple_19_A_c.gif","images/stimuli/spore_stims/simple_19_B_c.gif","","","","","9","simple_similar","images/stimuli/spore_stims/simple_19_A_c.gif","left","","","","",""
"","2049.834999999788","html-keyboard-response","186","440109","0.0-36.0","SS1613139910775","pref_question","","50","","","","","<video width ='960' height = '540' style='padding-top:8%' autoplay muted><source src='images/stimuli/wall_pref.mp4' type='video/mp4'></video>","2","middle","45%","9","","","","","","","",""
"","971.8849999999511","sequential-stimulus-presentation","187","441897","0.0-37.0","SS1613139910775","pref_reveal","","40","800","1771.884999999951","null","null","","","","","9","","","","novel","","","",""
"","null","html-keyboard-response","188","442920","0.0-38.0-0.0","SS1613139910775","","","null","","","","","<p><img src= images/blank.png width =""200"" height = ""200"" style = ""float:right""></p><p><img src=images/blank.png width =""800"" height = ""200""></p>","","","","","","","","","","","",""
"","412.5650000005262","sequential-stimulus-presentation","189","444150","0.0-38.0-1.0","SS1613139910775","trial","","40","800","1212.5650000005262","images/stimuli/spore_stims/complex_18_B_b.gif","images/stimuli/spore_stims/complex_18_A_b.gif","","","","","10","complex_similar","images/stimuli/spore_stims/complex_18_A_b.gif","left","","","","",""
"","null","html-keyboard-response","190","445248","0.0-38.0-0.1","SS1613139910775","","","null","","","","","<p><img src= images/blank.png width =""200"" height = ""200"" style = ""float:right""></p><p><img src=images/blank.png width =""800"" height = ""200""></p>","","","","","","","","","","","",""
"","83.789999999688","sequential-stimulus-presentation","191","446147","0.0-38.0-1.1","SS1613139910775","trial","","40","800","883.789999999688","images/stimuli/spore_stims/complex_18_B_b.gif","images/stimuli/spore_stims/complex_18_A_b.gif","","","","","10","complex_similar","images/stimuli/spore_stims/complex_18_A_b.gif","left","","","","",""
"","null","html-keyboard-response","192","447396","0.0-38.0-0.2","SS1613139910775","","","null","","","","","<p><img src= images/blank.png width =""200"" height = ""200"" style = ""float:right""></p><p><img src=images/blank.png width =""800"" height = ""200""></p>","","","","","","","","","","","",""
"","3137.4749999995693","sequential-stimulus-presentation","193","451344","0.0-38.0-1.2","SS1613139910775","trial","","40","800","3937.4749999995693","images/stimuli/spore_stims/complex_18_B_b.gif","images/stimuli/spore_stims/complex_18_A_b.gif","","","","","10","complex_similar","images/stimuli/spore_stims/complex_18_A_b.gif","left","","","","",""
"","null","html-keyboard-response","194","452536","0.0-38.0-0.3","SS1613139910775","","","null","","","","","<p><img src= images/blank.png width =""200"" height = ""200"" style = ""float:right""></p><p><img src=images/blank.png width =""800"" height = ""200""></p>","","","","","","","","","","","",""
"","547.6349999998929","sequential-stimulus-presentation","195","453900","0.0-38.0-1.3","SS1613139910775","trial","","40","800","1347.634999999893","images/stimuli/spore_stims/complex_18_B_b.gif","images/stimuli/spore_stims/complex_18_A_b.gif","","","","","10","complex_similar","images/stimuli/spore_stims/complex_18_A_b.gif","left","","","","",""
"","null","html-keyboard-response","196","455132","0.0-38.0-0.4","SS1613139910775","","","null","","","","","<p><img src= images/blank.png width =""200"" height = ""200"" style = ""float:right""></p><p><img src=images/blank.png width =""800"" height = ""200""></p>","","","","","","","","","","","",""
"","2520.9650000006077","sequential-stimulus-presentation","197","458470","0.0-38.0-1.4","SS1613139910775","trial","","40","800","3320.9650000006077","images/stimuli/spore_stims/complex_18_B_b.gif","images/stimuli/spore_stims/complex_18_A_b.gif","","","","","10","complex_similar","images/stimuli/spore_stims/complex_18_A_b.gif","left","","","","",""
"","null","html-keyboard-response","198","459315","0.0-38.0-0.5","SS1613139910775","","","null","","","","","<p><img src= images/blank.png width =""200"" height = ""200"" style = ""float:right""></p><p><img src=images/blank.png width =""800"" height = ""200""></p>","","","","","","","","","","","",""
"","571.9849999995786","sequential-stimulus-presentation","199","460705","0.0-38.0-1.5","SS1613139910775","trial","","40","800","1371.9849999995786","images/stimuli/spore_stims/complex_18_B_b.gif","images/stimuli/spore_stims/complex_18_A_b.gif","","","","","10","complex_similar","images/stimuli/spore_stims/complex_18_A_b.gif","left","","","","",""
"","null","html-keyboard-response","200","461899","0.0-38.0-0.6","SS1613139910775","","","null","","","","","<p><img src= images/blank.png width =""200"" height = ""200"" style = ""float:right""></p><p><img src=images/blank.png width =""800"" height = ""200""></p>","","","","","","","","","","","",""
"","7.994999999937136","sequential-stimulus-presentation","201","462722","0.0-38.0-1.6","SS1613139910775","trial","","40","800","807.9949999999371","images/stimuli/spore_stims/complex_18_B_b.gif","images/stimuli/spore_stims/complex_18_A_b.gif","","","","","10","complex_similar","images/stimuli/spore_stims/complex_18_A_b.gif","left","","","","",""
"","null","html-keyboard-response","202","463958","0.0-38.0-0.7","SS1613139910775","","","null","","","","","<p><img src= images/blank.png width =""200"" height = ""200"" style = ""float:right""></p><p><img src=images/blank.png width =""800"" height = ""200""></p>","","","","","","","","","","","",""
"","449.9200000000419","sequential-stimulus-presentation","203","465226","0.0-38.0-1.7","SS1613139910775","trial","","40","800","1249.920000000042","images/stimuli/spore_stims/complex_18_B_b.gif","images/stimuli/spore_stims/complex_18_A_b.gif","","","","","10","complex_similar","images/stimuli/spore_stims/complex_18_B_b.gif","middle","","","","",""
"","1109.8199999996577","html-keyboard-response","204","466345","0.0-39.0","SS1613139910775","pref_question","","51","","","","","<video width ='960' height = '540' style='padding-top:8%' autoplay muted><source src='images/stimuli/wall_pref.mp4' type='video/mp4'></video>","3","right","66%","10","","","","","","","",""
"","524.7599999993108","sequential-stimulus-presentation","205","467725","0.0-40.0","SS1613139910775","pref_reveal","","40","800","1324.7599999993108","null","null","","","","","10","","","","novel","","","",""
"","null","html-keyboard-response","206","468838","0.0-41.0-0.0","SS1613139910775","","","null","","","","","<p><img src= images/blank.png width =""200"" height = ""200"" style = ""float:right""></p><p><img src=images/blank.png width =""800"" height = ""200""></p>","","","","","","","","","","","",""
"","787.3750000008149","sequential-stimulus-presentation","207","470437","0.0-41.0-1.0","SS1613139910775","trial","","40","800","1587.375000000815","images/stimuli/spore_stims/simple_08_B_c.gif","images/stimuli/spore_stims/simple_17_B_b.gif","","","","","11","simple_dissimilar","images/stimuli/spore_stims/simple_17_B_b.gif","left","","","","",""
"","null","html-keyboard-response","208","471657","0.0-41.0-0.1","SS1613139910775","","","null","","","","","<p><img src= images/blank.png width =""200"" height = ""200"" style = ""float:right""></p><p><img src=images/blank.png width =""800"" height = ""200""></p>","","","","","","","","","","","",""
"","479.4149999998044","sequential-stimulus-presentation","209","472953","0.0-41.0-1.1","SS1613139910775","trial","","40","800","1279.4149999998044","images/stimuli/spore_stims/simple_08_B_c.gif","images/stimuli/spore_stims/simple_17_B_b.gif","","","","","11","simple_dissimilar","images/stimuli/spore_stims/simple_17_B_b.gif","left","","","","",""
"","null","html-keyboard-response","210","473838","0.0-41.0-0.2","SS1613139910775","","","null","","","","","<p><img src= images/blank.png width =""200"" height = ""200"" style = ""float:right""></p><p><img src=images/blank.png width =""800"" height = ""200""></p>","","","","","","","","","","","",""
"","267.12500000034925","sequential-stimulus-presentation","211","474916","0.0-41.0-1.2","SS1613139910775","trial","","40","800","1067.1250000003492","images/stimuli/spore_stims/simple_08_B_c.gif","images/stimuli/spore_stims/simple_17_B_b.gif","","","","","11","simple_dissimilar","images/stimuli/spore_stims/simple_17_B_b.gif","left","","","","",""
"","null","html-keyboard-response","212","476055","0.0-41.0-0.3","SS1613139910775","","","null","","","","","<p><img src= images/blank.png width =""200"" height = ""200"" style = ""float:right""></p><p><img src=images/blank.png width =""800"" height = ""200""></p>","","","","","","","","","","","",""
"","33.20499999972526","sequential-stimulus-presentation","213","476906","0.0-41.0-1.3","SS1613139910775","trial","","40","800","833.2049999997253","images/stimuli/spore_stims/simple_08_B_c.gif","images/stimuli/spore_stims/simple_17_B_b.gif","","","","","11","simple_dissimilar","images/stimuli/spore_stims/simple_17_B_b.gif","left","","","","",""
"","null","html-keyboard-response","214","478147","0.0-41.0-0.4","SS1613139910775","","","null","","","","","<p><img src= images/blank.png width =""200"" height = ""200"" style = ""float:right""></p><p><img src=images/blank.png width =""800"" height = ""200""></p>","","","","","","","","","","","",""
"","82.375","sequential-stimulus-presentation","215","479048","0.0-41.0-1.4","SS1613139910775","trial","","40","800","882.375","images/stimuli/spore_stims/simple_08_B_c.gif","images/stimuli/spore_stims/simple_17_B_b.gif","","","","","11","simple_dissimilar","images/stimuli/spore_stims/simple_17_B_b.gif","left","","","","",""
"","null","html-keyboard-response","216","479914","0.0-41.0-0.5","SS1613139910775","","","null","","","","","<p><img src= images/blank.png width =""200"" height = ""200"" style = ""float:right""></p><p><img src=images/blank.png width =""800"" height = ""200""></p>","","","","","","","","","","","",""
"","142.71000000007916","sequential-stimulus-presentation","217","480877","0.0-41.0-1.5","SS1613139910775","trial","","40","800","942.7100000000792","images/stimuli/spore_stims/simple_08_B_c.gif","images/stimuli/spore_stims/simple_17_B_b.gif","","","","","11","simple_dissimilar","images/stimuli/spore_stims/simple_08_B_c.gif","middle","","","","",""
"","null","html-keyboard-response","218","481712","0.0-41.0-0.6","SS1613139910775","","","null","","","","","<p><img src= images/blank.png width =""200"" height = ""200"" style = ""float:right""></p><p><img src=images/blank.png width =""800"" height = ""200""></p>","","","","","","","","","","","",""
"","540.3900000001304","sequential-stimulus-presentation","219","483093","0.0-41.0-1.6","SS1613139910775","trial","","40","800","1340.3900000001304","images/stimuli/spore_stims/simple_08_B_c.gif","images/stimuli/spore_stims/simple_17_B_b.gif","","","","","11","simple_dissimilar","images/stimuli/spore_stims/simple_17_B_b.gif","left","","","","",""
"","null","html-keyboard-response","220","484006","0.0-41.0-0.7","SS1613139910775","","","null","","","","","<p><img src= images/blank.png width =""200"" height = ""200"" style = ""float:right""></p><p><img src=images/blank.png width =""800"" height = ""200""></p>","","","","","","","","","","","",""
"","489.93500000052154","sequential-stimulus-presentation","221","485328","0.0-41.0-1.7","SS1613139910775","trial","","40","800","1289.9350000005215","images/stimuli/spore_stims/simple_08_B_c.gif","images/stimuli/spore_stims/simple_17_B_b.gif","","","","","11","simple_dissimilar","images/stimuli/spore_stims/simple_17_B_b.gif","left","","","","",""
"","867.9799999999814","html-keyboard-response","222","486211","0.0-42.0","SS1613139910775","pref_question","","51","","","","","<video width ='960' height = '540' style='padding-top:8%' autoplay muted><source src='images/stimuli/wall_pref.mp4' type='video/mp4'></video>","3","right","66%","11","","","","","","","",""
"","415.8400000005495","sequential-stimulus-presentation","223","487440","0.0-43.0","SS1613139910775","pref_reveal","","40","800","1215.8400000005495","null","null","","","","","11","","","","novel","","","",""
"","null","html-keyboard-response","224","488515","0.0-44.0-0.0","SS1613139910775","","","null","","","","","<p><img src= images/blank.png width =""200"" height = ""200"" style = ""float:right""></p><p><img src=images/blank.png width =""800"" height = ""200""></p>","","","","","","","","","","","",""
"","0.23499999952036887","sequential-stimulus-presentation","225","489331","0.0-44.0-1.0","SS1613139910775","trial","","40","800","800.2349999995204","images/stimuli/spore_stims/simple_11_A_a.gif","images/stimuli/spore_stims/simple_11_B_a.gif","","","","","12","simple_similar","images/stimuli/spore_stims/simple_11_B_a.gif","left","","","","",""
"","null","html-keyboard-response","226","490364","0.0-44.0-0.1","SS1613139910775","","","null","","","","","<p><img src= images/blank.png width =""200"" height = ""200"" style = ""float:right""></p><p><img src=images/blank.png width =""800"" height = ""200""></p>","","","","","","","","","","","",""
"","658.4899999997579","sequential-stimulus-presentation","227","491838","0.0-44.0-1.1","SS1613139910775","trial","","40","800","1458.4899999997579","images/stimuli/spore_stims/simple_11_A_a.gif","images/stimuli/spore_stims/simple_11_B_a.gif","","","","","12","simple_similar","images/stimuli/spore_stims/simple_11_B_a.gif","left","","","","",""
"","null","html-keyboard-response","228","492992","0.0-44.0-0.2","SS1613139910775","","","null","","","","","<p><img src= images/blank.png width =""200"" height = ""200"" style = ""float:right""></p><p><img src=images/blank.png width =""800"" height = ""200""></p>","","","","","","","","","","","",""
"","164.13999999989755","sequential-stimulus-presentation","229","493976","0.0-44.0-1.2","SS1613139910775","trial","","40","800","964.1399999998976","images/stimuli/spore_stims/simple_11_A_a.gif","images/stimuli/spore_stims/simple_11_B_a.gif","","","","","12","simple_similar","images/stimuli/spore_stims/simple_11_B_a.gif","left","","","","",""
"","null","html-keyboard-response","230","494815","0.0-44.0-0.3","SS1613139910775","","","null","","","","","<p><img src= images/blank.png width =""200"" height = ""200"" style = ""float:right""></p><p><img src=images/blank.png width =""800"" height = ""200""></p>","","","","","","","","","","","",""
"","12.684999999706633","sequential-stimulus-presentation","231","495683","0.0-44.0-1.3","SS1613139910775","trial","","40","800","812.6849999997066","images/stimuli/spore_stims/simple_11_A_a.gif","images/stimuli/spore_stims/simple_11_B_a.gif","","","","","12","simple_similar","images/stimuli/spore_stims/simple_11_B_a.gif","left","","","","",""
"","null","html-keyboard-response","232","496880","0.0-44.0-0.4","SS1613139910775","","","null","","","","","<p><img src= images/blank.png width =""200"" height = ""200"" style = ""float:right""></p><p><img src=images/blank.png width =""800"" height = ""200""></p>","","","","","","","","","","","",""
"","285.83999999950174","sequential-stimulus-presentation","233","497982","0.0-44.0-1.4","SS1613139910775","trial","","40","800","1085.8399999995017","images/stimuli/spore_stims/simple_11_A_a.gif","images/stimuli/spore_stims/simple_11_B_a.gif","","","","","12","simple_similar","images/stimuli/spore_stims/simple_11_B_a.gif","left","","","","",""
"","null","html-keyboard-response","234","499217","0.0-44.0-0.5","SS1613139910775","","","null","","","","","<p><img src= images/blank.png width =""200"" height = ""200"" style = ""float:right""></p><p><img src=images/blank.png width =""800"" height = ""200""></p>","","","","","","","","","","","",""
"","162.19000000006054","sequential-stimulus-presentation","235","500196","0.0-44.0-1.5","SS1613139910775","trial","","40","800","962.1900000000605","images/stimuli/spore_stims/simple_11_A_a.gif","images/stimuli/spore_stims/simple_11_B_a.gif","","","","","12","simple_similar","images/stimuli/spore_stims/simple_11_A_a.gif","right","","","","",""
"","null","html-keyboard-response","236","501314","0.0-44.0-0.6","SS1613139910775","","","null","","","","","<p><img src= images/blank.png width =""200"" height = ""200"" style = ""float:right""></p><p><img src=images/blank.png width =""800"" height = ""200""></p>","","","","","","","","","","","",""
"","140.8150000006426","sequential-stimulus-presentation","237","502268","0.0-44.0-1.6","SS1613139910775","trial","","40","800","940.8150000006426","images/stimuli/spore_stims/simple_11_A_a.gif","images/stimuli/spore_stims/simple_11_B_a.gif","","","","","12","simple_similar","images/stimuli/spore_stims/simple_11_B_a.gif","left","","","","",""
"","null","html-keyboard-response","238","503538","0.0-44.0-0.7","SS1613139910775","","","null","","","","","<p><img src= images/blank.png width =""200"" height = ""200"" style = ""float:right""></p><p><img src=images/blank.png width =""800"" height = ""200""></p>","","","","","","","","","","","",""
"","451.2500000001164","sequential-stimulus-presentation","239","504832","0.0-44.0-1.7","SS1613139910775","trial","","40","800","1251.2500000001164","images/stimuli/spore_stims/simple_11_A_a.gif","images/stimuli/spore_stims/simple_11_B_a.gif","","","","","12","simple_similar","images/stimuli/spore_stims/simple_11_B_a.gif","left","","","","",""
"","674.6400000001304","html-keyboard-response","240","505521","0.0-45.0","SS1613139910775","pref_question","","50","","","","","<video width ='960' height = '540' style='padding-top:8%' autoplay muted><source src='images/stimuli/wall_pref.mp4' type='video/mp4'></video>","2","middle","45%","12","","","","","","","",""
"","17.039999999688007","sequential-stimulus-presentation","241","506351","0.0-46.0","SS1613139910775","pref_reveal","","40","800","817.039999999688","null","null","","","","","12","","","","novel","","","",""
"","null","html-keyboard-response","242","507408","0.0-47.0-0.0","SS1613139910775","","","null","","","","","<p><img src= images/blank.png width =""200"" height = ""200"" style = ""float:right""></p><p><img src=images/blank.png width =""800"" height = ""200""></p>","","","","","","","","","","","",""
"","250.54999999981374","sequential-stimulus-presentation","243","508476","0.0-47.0-1.0","SS1613139910775","trial","","40","800","1050.5499999998137","images/stimuli/spore_stims/simple_20_A_c.gif","images/stimuli/spore_stims/simple_20_B_c.gif","","","","","13","simple_similar","images/stimuli/spore_stims/simple_20_B_c.gif","left","","","","",""
"","null","html-keyboard-response","244","509523","0.0-47.0-0.1","SS1613139910775","","","null","","","","","<p><img src= images/blank.png width =""200"" height = ""200"" style = ""float:right""></p><p><img src=images/blank.png width =""800"" height = ""200""></p>","","","","","","","","","","","",""
"","249.2299999993993","sequential-stimulus-presentation","245","510588","0.0-47.0-1.1","SS1613139910775","trial","","40","800","1049.2299999993993","images/stimuli/spore_stims/simple_20_A_c.gif","images/stimuli/spore_stims/simple_20_B_c.gif","","","","","13","simple_similar","images/stimuli/spore_stims/simple_20_B_c.gif","left","","","","",""
"","null","html-keyboard-response","246","511836","0.0-47.0-0.2","SS1613139910775","","","null","","","","","<p><img src= images/blank.png width =""200"" height = ""200"" style = ""float:right""></p><p><img src=images/blank.png width =""800"" height = ""200""></p>","","","","","","","","","","","",""
"","320.9750000005588","sequential-stimulus-presentation","247","512974","0.0-47.0-1.2","SS1613139910775","trial","","40","800","1120.9750000005588","images/stimuli/spore_stims/simple_20_A_c.gif","images/stimuli/spore_stims/simple_20_B_c.gif","","","","","13","simple_similar","images/stimuli/spore_stims/simple_20_B_c.gif","left","","","","",""
"","null","html-keyboard-response","248","513976","0.0-47.0-0.3","SS1613139910775","","","null","","","","","<p><img src= images/blank.png width =""200"" height = ""200"" style = ""float:right""></p><p><img src=images/blank.png width =""800"" height = ""200""></p>","","","","","","","","","","","",""
"","459.5350000000326","sequential-stimulus-presentation","249","515252","0.0-47.0-1.3","SS1613139910775","trial","","40","800","1259.5350000000326","images/stimuli/spore_stims/simple_20_A_c.gif","images/stimuli/spore_stims/simple_20_B_c.gif","","","","","13","simple_similar","images/stimuli/spore_stims/simple_20_B_c.gif","left","","","","",""
"","null","html-keyboard-response","250","516387","0.0-47.0-0.4","SS1613139910775","","","null","","","","","<p><img src= images/blank.png width =""200"" height = ""200"" style = ""float:right""></p><p><img src=images/blank.png width =""800"" height = ""200""></p>","","","","","","","","","","","",""
"","67.66999999945983","sequential-stimulus-presentation","251","517272","0.0-47.0-1.4","SS1613139910775","trial","","40","800","867.6699999994598","images/stimuli/spore_stims/simple_20_A_c.gif","images/stimuli/spore_stims/simple_20_B_c.gif","","","","","13","simple_similar","images/stimuli/spore_stims/simple_20_B_c.gif","left","","","","",""
"","null","html-keyboard-response","252","518330","0.0-47.0-0.5","SS1613139910775","","","null","","","","","<p><img src= images/blank.png width =""200"" height = ""200"" style = ""float:right""></p><p><img src=images/blank.png width =""800"" height = ""200""></p>","","","","","","","","","","","",""
"","22.640000000130385","sequential-stimulus-presentation","253","519170","0.0-47.0-1.5","SS1613139910775","trial","","40","800","822.6400000001304","images/stimuli/spore_stims/simple_20_A_c.gif","images/stimuli/spore_stims/simple_20_B_c.gif","","","","","13","simple_similar","images/stimuli/spore_stims/simple_20_B_c.gif","left","","","","",""
"","null","html-keyboard-response","254","520346","0.0-47.0-0.6","SS1613139910775","","","null","","","","","<p><img src= images/blank.png width =""200"" height = ""200"" style = ""float:right""></p><p><img src=images/blank.png width =""800"" height = ""200""></p>","","","","","","","","","","","",""
"","199.17499999969732","sequential-stimulus-presentation","255","521361","0.0-47.0-1.6","SS1613139910775","trial","","40","800","999.1749999996973","images/stimuli/spore_stims/simple_20_A_c.gif","images/stimuli/spore_stims/simple_20_B_c.gif","","","","","13","simple_similar","images/stimuli/spore_stims/simple_20_A_c.gif","right","","","","",""
"","null","html-keyboard-response","256","522555","0.0-47.0-0.7","SS1613139910775","","","null","","","","","<p><img src= images/blank.png width =""200"" height = ""200"" style = ""float:right""></p><p><img src=images/blank.png width =""800"" height = ""200""></p>","","","","","","","","","","","",""
"","535.6799999999348","sequential-stimulus-presentation","257","523907","0.0-47.0-1.7","SS1613139910775","trial","","40","800","1335.6799999999348","images/stimuli/spore_stims/simple_20_A_c.gif","images/stimuli/spore_stims/simple_20_B_c.gif","","","","","13","simple_similar","images/stimuli/spore_stims/simple_20_B_c.gif","left","","","","",""
"","824.0399999994552","html-keyboard-response","258","524781","0.0-48.0","SS1613139910775","pref_question","","50","","","","","<video width ='960' height = '540' style='padding-top:8%' autoplay muted><source src='images/stimuli/wall_pref.mp4' type='video/mp4'></video>","2","middle","45%","13","","","","","","","",""
"","410.8200000000652","sequential-stimulus-presentation","259","526005","0.0-49.0","SS1613139910775","pref_reveal","","40","800","1210.8200000000652","null","null","","","","","13","","","","novel","","","",""
"","null","html-keyboard-response","260","527167","0.0-50.0-0.0","SS1613139910775","","","null","","","","","<p><img src= images/blank.png width =""200"" height = ""200"" style = ""float:right""></p><p><img src=images/blank.png width =""800"" height = ""200""></p>","","","","","","","","","","","",""
"","471.01499999919906","sequential-stimulus-presentation","261","528449","0.0-50.0-1.0","SS1613139910775","trial","","40","800","1271.014999999199","images/stimuli/spore_stims/complex_19_B_d.gif","images/stimuli/spore_stims/complex_19_A_d.gif","","","","","14","complex_similar","images/stimuli/spore_stims/complex_19_A_d.gif","middle","","","","",""
"","null","html-keyboard-response","262","529745","0.0-50.0-0.1","SS1613139910775","","","null","","","","","<p><img src= images/blank.png width =""200"" height = ""200"" style = ""float:right""></p><p><img src=images/blank.png width =""800"" height = ""200""></p>","","","","","","","","","","","",""
"","548.0999999999767","sequential-stimulus-presentation","263","531134","0.0-50.0-1.1","SS1613139910775","trial","","40","800","1348.0999999999767","images/stimuli/spore_stims/complex_19_B_d.gif","images/stimuli/spore_stims/complex_19_A_d.gif","","","","","14","complex_similar","images/stimuli/spore_stims/complex_19_A_d.gif","middle","","","","",""
"","null","html-keyboard-response","264","532193","0.0-50.0-0.2","SS1613139910775","","","null","","","","","<p><img src= images/blank.png width =""200"" height = ""200"" style = ""float:right""></p><p><img src=images/blank.png width =""800"" height = ""200""></p>","","","","","","","","","","","",""
"","65.14500000048429","sequential-stimulus-presentation","265","533075","0.0-50.0-1.2","SS1613139910775","trial","","40","800","865.1450000004843","images/stimuli/spore_stims/complex_19_B_d.gif","images/stimuli/spore_stims/complex_19_A_d.gif","","","","","14","complex_similar","images/stimuli/spore_stims/complex_19_A_d.gif","middle","","","","",""
"","null","html-keyboard-response","266","534286","0.0-50.0-0.3","SS1613139910775","","","null","","","","","<p><img src= images/blank.png width =""200"" height = ""200"" style = ""float:right""></p><p><img src=images/blank.png width =""800"" height = ""200""></p>","","","","","","","","","","","",""
"","365.3549999999814","sequential-stimulus-presentation","267","535471","0.0-50.0-1.3","SS1613139910775","trial","","40","800","1165.3549999999814","images/stimuli/spore_stims/complex_19_B_d.gif","images/stimuli/spore_stims/complex_19_A_d.gif","","","","","14","complex_similar","images/stimuli/spore_stims/complex_19_A_d.gif","middle","","","","",""
"","null","html-keyboard-response","268","536665","0.0-50.0-0.4","SS1613139910775","","","null","","","","","<p><img src= images/blank.png width =""200"" height = ""200"" style = ""float:right""></p><p><img src=images/blank.png width =""800"" height = ""200""></p>","","","","","","","","","","","",""
"","492.9249999995809","sequential-stimulus-presentation","269","537980","0.0-50.0-1.4","SS1613139910775","trial","","40","800","1292.924999999581","images/stimuli/spore_stims/complex_19_B_d.gif","images/stimuli/spore_stims/complex_19_A_d.gif","","","","","14","complex_similar","images/stimuli/spore_stims/complex_19_A_d.gif","middle","","","","",""
"","null","html-keyboard-response","270","539139","0.0-50.0-0.5","SS1613139910775","","","null","","","","","<p><img src= images/blank.png width =""200"" height = ""200"" style = ""float:right""></p><p><img src=images/blank.png width =""800"" height = ""200""></p>","","","","","","","","","","","",""
"","453.70000000006985","sequential-stimulus-presentation","271","540411","0.0-50.0-1.5","SS1613139910775","trial","","40","800","1253.7000000000698","images/stimuli/spore_stims/complex_19_B_d.gif","images/stimuli/spore_stims/complex_19_A_d.gif","","","","","14","complex_similar","images/stimuli/spore_stims/complex_19_B_d.gif","right","","","","",""
"","null","html-keyboard-response","272","541681","0.0-50.0-0.6","SS1613139910775","","","null","","","","","<p><img src= images/blank.png width =""200"" height = ""200"" style = ""float:right""></p><p><img src=images/blank.png width =""800"" height = ""200""></p>","","","","","","","","","","","",""
"","54.01999999966938","sequential-stimulus-presentation","273","542554","0.0-50.0-1.6","SS1613139910775","trial","","40","800","854.0199999996694","images/stimuli/spore_stims/complex_19_B_d.gif","images/stimuli/spore_stims/complex_19_A_d.gif","","","","","14","complex_similar","images/stimuli/spore_stims/complex_19_A_d.gif","middle","","","","",""
"","null","html-keyboard-response","274","543543","0.0-50.0-0.7","SS1613139910775","","","null","","","","","<p><img src= images/blank.png width =""200"" height = ""200"" style = ""float:right""></p><p><img src=images/blank.png width =""800"" height = ""200""></p>","","","","","","","","","","","",""
"","194.9450000001816","sequential-stimulus-presentation","275","544557","0.0-50.0-1.7","SS1613139910775","trial","","40","800","994.9450000001816","images/stimuli/spore_stims/complex_19_B_d.gif","images/stimuli/spore_stims/complex_19_A_d.gif","","","","","14","complex_similar","images/stimuli/spore_stims/complex_19_A_d.gif","middle","","","","",""
"","723.6199999997625","html-keyboard-response","276","545315","0.0-51.0","SS1613139910775","pref_question","","49","","","","","<video width ='960' height = '540' style='padding-top:8%' autoplay muted><source src='images/stimuli/wall_pref.mp4' type='video/mp4'></video>","1","left","25%","14","","","","","","","",""
"","432.18999999947846","sequential-stimulus-presentation","277","546561","0.0-52.0","SS1613139910775","pref_reveal","","40","800","1232.1899999994785","null","null","","","","","14","","","","novel","","","",""
"","null","html-keyboard-response","278","547628","0.0-53.0-0.0","SS1613139910775","","","null","","","","","<p><img src= images/blank.png width =""200"" height = ""200"" style = ""float:right""></p><p><img src=images/blank.png width =""800"" height = ""200""></p>","","","","","","","","","","","",""
"","403.5650000005262","sequential-stimulus-presentation","279","548847","0.0-53.0-1.0","SS1613139910775","trial","","40","800","1203.5650000005262","images/stimuli/spore_stims/simple_09_B_b.gif","images/stimuli/spore_stims/simple_03_A_d.gif","","","","","15","simple_dissimilar","images/stimuli/spore_stims/simple_03_A_d.gif","right","","","","",""
"","null","html-keyboard-response","280","549977","0.0-53.0-0.1","SS1613139910775","","","null","","","","","<p><img src= images/blank.png width =""200"" height = ""200"" style = ""float:right""></p><p><img src=images/blank.png width =""800"" height = ""200""></p>","","","","","","","","","","","",""
"","371.914999999688","sequential-stimulus-presentation","281","551165","0.0-53.0-1.1","SS1613139910775","trial","","40","800","1171.914999999688","images/stimuli/spore_stims/simple_09_B_b.gif","images/stimuli/spore_stims/simple_03_A_d.gif","","","","","15","simple_dissimilar","images/stimuli/spore_stims/simple_03_A_d.gif","right","","","","",""
"","null","html-keyboard-response","282","552402","0.0-53.0-0.2","SS1613139910775","","","null","","","","","<p><img src= images/blank.png width =""200"" height = ""200"" style = ""float:right""></p><p><img src=images/blank.png width =""800"" height = ""200""></p>","","","","","","","","","","","",""
"","24.000000000349246","sequential-stimulus-presentation","283","553242","0.0-53.0-1.2","SS1613139910775","trial","","40","800","824.0000000003492","images/stimuli/spore_stims/simple_09_B_b.gif","images/stimuli/spore_stims/simple_03_A_d.gif","","","","","15","simple_dissimilar","images/stimuli/spore_stims/simple_03_A_d.gif","right","","","","",""
"","null","html-keyboard-response","284","554124","0.0-53.0-0.3","SS1613139910775","","","null","","","","","<p><img src= images/blank.png width =""200"" height = ""200"" style = ""float:right""></p><p><img src=images/blank.png width =""800"" height = ""200""></p>","","","","","","","","","","","",""
"","328.26000000024214","sequential-stimulus-presentation","285","555268","0.0-53.0-1.3","SS1613139910775","trial","","40","800","1128.2600000002421","images/stimuli/spore_stims/simple_09_B_b.gif","images/stimuli/spore_stims/simple_03_A_d.gif","","","","","15","simple_dissimilar","images/stimuli/spore_stims/simple_03_A_d.gif","right","","","","",""
"","null","html-keyboard-response","286","556241","0.0-53.0-0.4","SS1613139910775","","","null","","","","","<p><img src= images/blank.png width =""200"" height = ""200"" style = ""float:right""></p><p><img src=images/blank.png width =""800"" height = ""200""></p>","","","","","","","","","","","",""
"","267.42500000004657","sequential-stimulus-presentation","287","557322","0.0-53.0-1.4","SS1613139910775","trial","","40","800","1067.4250000000466","images/stimuli/spore_stims/simple_09_B_b.gif","images/stimuli/spore_stims/simple_03_A_d.gif","","","","","15","simple_dissimilar","images/stimuli/spore_stims/simple_03_A_d.gif","right","","","","",""
"","null","html-keyboard-response","288","558163","0.0-53.0-0.5","SS1613139910775","","","null","","","","","<p><img src= images/blank.png width =""200"" height = ""200"" style = ""float:right""></p><p><img src=images/blank.png width =""800"" height = ""200""></p>","","","","","","","","","","","",""
"","81.83499999996275","sequential-stimulus-presentation","289","559061","0.0-53.0-1.5","SS1613139910775","trial","","40","800","881.8349999999627","images/stimuli/spore_stims/simple_09_B_b.gif","images/stimuli/spore_stims/simple_03_A_d.gif","","","","","15","simple_dissimilar","images/stimuli/spore_stims/simple_03_A_d.gif","right","","","","",""
"","null","html-keyboard-response","290","560149","0.0-53.0-0.6","SS1613139910775","","","null","","","","","<p><img src= images/blank.png width =""200"" height = ""200"" style = ""float:right""></p><p><img src=images/blank.png width =""800"" height = ""200""></p>","","","","","","","","","","","",""
"","202.2950000000419","sequential-stimulus-presentation","291","561168","0.0-53.0-1.6","SS1613139910775","trial","","40","800","1002.2950000000419","images/stimuli/spore_stims/simple_09_B_b.gif","images/stimuli/spore_stims/simple_03_A_d.gif","","","","","15","simple_dissimilar","images/stimuli/spore_stims/simple_09_B_b.gif","left","","","","",""
"","null","html-keyboard-response","292","562013","0.0-53.0-0.7","SS1613139910775","","","null","","","","","<p><img src= images/blank.png width =""200"" height = ""200"" style = ""float:right""></p><p><img src=images/blank.png width =""800"" height = ""200""></p>","","","","","","","","","","","",""
"","27.785000000265427","sequential-stimulus-presentation","293","562864","0.0-53.0-1.7","SS1613139910775","trial","","40","800","827.7850000002654","images/stimuli/spore_stims/simple_09_B_b.gif","images/stimuli/spore_stims/simple_03_A_d.gif","","","","","15","simple_dissimilar","images/stimuli/spore_stims/simple_03_A_d.gif","right","","","","",""
"","1716.7950000002747","html-keyboard-response","294","564593","0.0-54.0","SS1613139910775","pref_question","","50","","","","","<video width ='960' height = '540' style='padding-top:8%' autoplay muted><source src='images/stimuli/wall_pref.mp4' type='video/mp4'></video>","2","middle","45%","15","","","","","","","",""
"","735.9050000003772","sequential-stimulus-presentation","295","566145","0.0-55.0","SS1613139910775","pref_reveal","","40","800","1535.9050000003772","null","null","","","","","15","","","","novel","","","",""
"","null","html-keyboard-response","296","567071","0.0-56.0-0.0","SS1613139910775","","","null","","","","","<p><img src= images/blank.png width =""200"" height = ""200"" style = ""float:right""></p><p><img src=images/blank.png width =""800"" height = ""200""></p>","","","","","","","","","","","",""
"","145.09499999985565","sequential-stimulus-presentation","297","568034","0.0-56.0-1.0","SS1613139910775","trial","","40","800","945.0949999998556","images/stimuli/spore_stims/complex_13_B_c.gif","images/stimuli/spore_stims/complex_13_A_c.gif","","","","","16","complex_similar","images/stimuli/spore_stims/complex_13_A_c.gif","middle","","","","",""
"","null","html-keyboard-response","298","569282","0.0-56.0-0.1","SS1613139910775","","","null","","","","","<p><img src= images/blank.png width =""200"" height = ""200"" style = ""float:right""></p><p><img src=images/blank.png width =""800"" height = ""200""></p>","","","","","","","","","","","",""
"","589.9899999994086","sequential-stimulus-presentation","299","570706","0.0-56.0-1.1","SS1613139910775","trial","","40","800","1389.9899999994086","images/stimuli/spore_stims/complex_13_B_c.gif","images/stimuli/spore_stims/complex_13_A_c.gif","","","","","16","complex_similar","images/stimuli/spore_stims/complex_13_A_c.gif","middle","","","","",""
"","null","html-keyboard-response","300","571907","0.0-56.0-0.2","SS1613139910775","","","null","","","","","<p><img src= images/blank.png width =""200"" height = ""200"" style = ""float:right""></p><p><img src=images/blank.png width =""800"" height = ""200""></p>","","","","","","","","","","","",""
"","2251.3550000003306","sequential-stimulus-presentation","301","574975","0.0-56.0-1.2","SS1613139910775","trial","","40","800","3051.3550000003306","images/stimuli/spore_stims/complex_13_B_c.gif","images/stimuli/spore_stims/complex_13_A_c.gif","","","","","16","complex_similar","images/stimuli/spore_stims/complex_13_B_c.gif","left","","","","",""
"","null","html-keyboard-response","302","576234","0.0-56.0-0.3","SS1613139910775","","","null","","","","","<p><img src= images/blank.png width =""200"" height = ""200"" style = ""float:right""></p><p><img src=images/blank.png width =""800"" height = ""200""></p>","","","","","","","","","","","",""
"","468.2700000003679","sequential-stimulus-presentation","303","577520","0.0-56.0-1.3","SS1613139910775","trial","","40","800","1268.2700000003679","images/stimuli/spore_stims/complex_13_B_c.gif","images/stimuli/spore_stims/complex_13_A_c.gif","","","","","16","complex_similar","images/stimuli/spore_stims/complex_13_A_c.gif","middle","","","","",""
"","null","html-keyboard-response","304","578682","0.0-56.0-0.4","SS1613139910775","","","null","","","","","<p><img src= images/blank.png width =""200"" height = ""200"" style = ""float:right""></p><p><img src=images/blank.png width =""800"" height = ""200""></p>","","","","","","","","","","","",""
"","1389.9199999996927","sequential-stimulus-presentation","305","580884","0.0-56.0-1.4","SS1613139910775","trial","","40","800","2189.9199999996927","images/stimuli/spore_stims/complex_13_B_c.gif","images/stimuli/spore_stims/complex_13_A_c.gif","","","","","16","complex_similar","images/stimuli/spore_stims/complex_13_A_c.gif","middle","","","","",""
"","null","html-keyboard-response","306","581960","0.0-56.0-0.5","SS1613139910775","","","null","","","","","<p><img src= images/blank.png width =""200"" height = ""200"" style = ""float:right""></p><p><img src=images/blank.png width =""800"" height = ""200""></p>","","","","","","","","","","","",""
"","126.28999999922235","sequential-stimulus-presentation","307","582935","0.0-56.0-1.5","SS1613139910775","trial","","40","800","926.2899999992223","images/stimuli/spore_stims/complex_13_B_c.gif","images/stimuli/spore_stims/complex_13_A_c.gif","","","","","16","complex_similar","images/stimuli/spore_stims/complex_13_A_c.gif","middle","","","","",""
"","null","html-keyboard-response","308","584089","0.0-56.0-0.6","SS1613139910775","","","null","","","","","<p><img src= images/blank.png width =""200"" height = ""200"" style = ""float:right""></p><p><img src=images/blank.png width =""800"" height = ""200""></p>","","","","","","","","","","","",""
"","482.9399999998277","sequential-stimulus-presentation","309","585389","0.0-56.0-1.6","SS1613139910775","trial","","40","800","1282.9399999998277","images/stimuli/spore_stims/complex_13_B_c.gif","images/stimuli/spore_stims/complex_13_A_c.gif","","","","","16","complex_similar","images/stimuli/spore_stims/complex_13_A_c.gif","middle","","","","",""
"","null","html-keyboard-response","310","586327","0.0-56.0-0.7","SS1613139910775","","","null","","","","","<p><img src= images/blank.png width =""200"" height = ""200"" style = ""float:right""></p><p><img src=images/blank.png width =""800"" height = ""200""></p>","","","","","","","","","","","",""
"","356.039999999688","sequential-stimulus-presentation","311","587495","0.0-56.0-1.7","SS1613139910775","trial","","40","800","1156.039999999688","images/stimuli/spore_stims/complex_13_B_c.gif","images/stimuli/spore_stims/complex_13_A_c.gif","","","","","16","complex_similar","images/stimuli/spore_stims/complex_13_A_c.gif","middle","","","","",""
"","1580.1049999999814","html-keyboard-response","312","589108","0.0-57.0","SS1613139910775","pref_question","","51","","","","","<video width ='960' height = '540' style='padding-top:8%' autoplay muted><source src='images/stimuli/wall_pref.mp4' type='video/mp4'></video>","3","right","66%","16","","","","","","","",""
