"view_history","rt","trial_type","trial_index","time_elapsed","internal_node_id","subject","stimulus_type","trial_stimulus","key_press","minimum_viewing_duration","trial_looking_time","block_deviant","block_background","stimulus","wall_pref","location","location_percent","block_number","block_type","stimulus_displayed","position_displayed","stim_type_selected","responses","question_order","stimulus_left","stimulus_right"
"[{""page_index"":0,""viewing_time"":41377}]","41377","instructions","0","41378","0.0-0.0","SS1613098632464","","","","","","","","","","","","","","","","","","","",""
"[{""page_index"":0,""viewing_time"":6345},{""page_index"":1,""viewing_time"":232528}]","238874","instructions","1","282265","0.0-1.0","SS1613098632464","instructions","","","","","","","","","","","","","","","","","","",""
"","63194","sequential-stimulus-presentation","2","346283","0.0-2.0","SS1613098632464","","","40","800","63994","null","null","","","","","","","","","","","","",""
"","1865","sequential-stimulus-presentation","3","348962","0.0-3.0","SS1613098632464","","","40","800","2665","null","null","","","","","","","","","","","","",""
"[{""page_index"":0,""viewing_time"":2975}]","2975","instructions","4","351937","0.0-4.0","SS1613098632464","instructions","","","","","","","","","","","","","","","","","","",""
"","6757","html-keyboard-response","5","358698","0.0-5.0","SS1613098632464","instructions","","49","","","","","<video width ='960' height = '540' autoplay muted><source src='images/stimuli/wall_pref.mp4' type='video/mp4'></video>","1","left","25%","","","","","","","","",""
"","1019","sequential-stimulus-presentation","6","360529","0.0-6.0","SS1613098632464","pref_reveal","","40","800","1819","null","null","","","","","","","","","","","","",""
"[{""page_index"":0,""viewing_time"":4399},{""page_index"":1,""viewing_time"":3112},{""page_index"":2,""viewing_time"":1456},{""page_index"":3,""viewing_time"":960}]","9927","instructions","7","370457","0.0-7.0","SS1613098632464","instructions","","","","","","","","","","","","","","","","","","",""
"","null","html-keyboard-response","8","371367","0.0-8.0-0.0","SS1613098632464","","","null","","","","","<p><img src= images/blank.png width =""200"" height = ""200"" style = ""float:right""></p><p><img src=images/blank.png width =""800"" height = ""200""></p>","","","","","","","","","","","",""
"","7892","sequential-stimulus-presentation","9","380066","0.0-8.0-1.0","SS1613098632464","trial","","40","800","8692","images/stimuli/spore_stims/complex_18_A_c.gif","images/stimuli/spore_stims/complex_18_B_b.gif","","","","","0","complex_dissimilar","images/stimuli/spore_stims/complex_18_B_b.gif","left","","","","",""
"","null","html-keyboard-response","10","381094","0.0-8.0-0.1","SS1613098632464","","","null","","","","","<p><img src= images/blank.png width =""200"" height = ""200"" style = ""float:right""></p><p><img src=images/blank.png width =""800"" height = ""200""></p>","","","","","","","","","","","",""
"","1926","sequential-stimulus-presentation","11","383834","0.0-8.0-1.1","SS1613098632464","trial","","40","800","2726","images/stimuli/spore_stims/complex_18_A_c.gif","images/stimuli/spore_stims/complex_18_B_b.gif","","","","","0","complex_dissimilar","images/stimuli/spore_stims/complex_18_B_b.gif","left","","","","",""
"","null","html-keyboard-response","12","385074","0.0-8.0-0.2","SS1613098632464","","","null","","","","","<p><img src= images/blank.png width =""200"" height = ""200"" style = ""float:right""></p><p><img src=images/blank.png width =""800"" height = ""200""></p>","","","","","","","","","","","",""
"","6910","sequential-stimulus-presentation","13","392798","0.0-8.0-1.2","SS1613098632464","trial","","40","800","7710","images/stimuli/spore_stims/complex_18_A_c.gif","images/stimuli/spore_stims/complex_18_B_b.gif","","","","","0","complex_dissimilar","images/stimuli/spore_stims/complex_18_A_c.gif","right","","","","",""
"","null","html-keyboard-response","14","394029","0.0-8.0-0.3","SS1613098632464","","","null","","","","","<p><img src= images/blank.png width =""200"" height = ""200"" style = ""float:right""></p><p><img src=images/blank.png width =""800"" height = ""200""></p>","","","","","","","","","","","",""
"","622","sequential-stimulus-presentation","15","395466","0.0-8.0-1.3","SS1613098632464","trial","","40","800","1422","images/stimuli/spore_stims/complex_18_A_c.gif","images/stimuli/spore_stims/complex_18_B_b.gif","","","","","0","complex_dissimilar","images/stimuli/spore_stims/complex_18_B_b.gif","left","","","","",""
"","null","html-keyboard-response","16","396273","0.0-8.0-0.4","SS1613098632464","","","null","","","","","<p><img src= images/blank.png width =""200"" height = ""200"" style = ""float:right""></p><p><img src=images/blank.png width =""800"" height = ""200""></p>","","","","","","","","","","","",""
"","1032","sequential-stimulus-presentation","17","398114","0.0-8.0-1.4","SS1613098632464","trial","","40","800","1832","images/stimuli/spore_stims/complex_18_A_c.gif","images/stimuli/spore_stims/complex_18_B_b.gif","","","","","0","complex_dissimilar","images/stimuli/spore_stims/complex_18_B_b.gif","left","","","","",""
"","null","html-keyboard-response","18","399332","0.0-8.0-0.5","SS1613098632464","","","null","","","","","<p><img src= images/blank.png width =""200"" height = ""200"" style = ""float:right""></p><p><img src=images/blank.png width =""800"" height = ""200""></p>","","","","","","","","","","","",""
"","1368","sequential-stimulus-presentation","19","401506","0.0-8.0-1.5","SS1613098632464","trial","","40","800","2168","images/stimuli/spore_stims/complex_18_A_c.gif","images/stimuli/spore_stims/complex_18_B_b.gif","","","","","0","complex_dissimilar","images/stimuli/spore_stims/complex_18_B_b.gif","left","","","","",""
"","null","html-keyboard-response","20","402767","0.0-8.0-0.6","SS1613098632464","","","null","","","","","<p><img src= images/blank.png width =""200"" height = ""200"" style = ""float:right""></p><p><img src=images/blank.png width =""800"" height = ""200""></p>","","","","","","","","","","","",""
"","937","sequential-stimulus-presentation","21","404513","0.0-8.0-1.6","SS1613098632464","trial","","40","800","1737","images/stimuli/spore_stims/complex_18_A_c.gif","images/stimuli/spore_stims/complex_18_B_b.gif","","","","","0","complex_dissimilar","images/stimuli/spore_stims/complex_18_B_b.gif","left","","","","",""
"","null","html-keyboard-response","22","405424","0.0-8.0-0.7","SS1613098632464","","","null","","","","","<p><img src= images/blank.png width =""200"" height = ""200"" style = ""float:right""></p><p><img src=images/blank.png width =""800"" height = ""200""></p>","","","","","","","","","","","",""
"","1364","sequential-stimulus-presentation","23","407594","0.0-8.0-1.7","SS1613098632464","trial","","40","800","2164","images/stimuli/spore_stims/complex_18_A_c.gif","images/stimuli/spore_stims/complex_18_B_b.gif","","","","","0","complex_dissimilar","images/stimuli/spore_stims/complex_18_B_b.gif","left","","","","",""
"","2117","html-keyboard-response","24","409713","0.0-9.0","SS1613098632464","pref_question","","51","","","","","<video width ='960' height = '540' style='padding-top:8%' autoplay muted><source src='images/stimuli/wall_pref.mp4' type='video/mp4'></video>","3","right","66%","0","","","","","","","",""
"","1241","sequential-stimulus-presentation","25","411762","0.0-10.0","SS1613098632464","pref_reveal","","40","800","2041","null","null","","","","","0","","","","deviant","","","",""
"","null","html-keyboard-response","26","412739","0.0-11.0-0.0","SS1613098632464","","","null","","","","","<p><img src= images/blank.png width =""200"" height = ""200"" style = ""float:right""></p><p><img src=images/blank.png width =""800"" height = ""200""></p>","","","","","","","","","","","",""
"","1163","sequential-stimulus-presentation","27","414705","0.0-11.0-1.0","SS1613098632464","trial","","40","800","1963","images/stimuli/spore_stims/simple_17_B_c.gif","images/stimuli/spore_stims/simple_17_A_c.gif","","","","","1","simple_similar","images/stimuli/spore_stims/simple_17_A_c.gif","left","","","","",""
"","null","html-keyboard-response","28","415695","0.0-11.0-0.1","SS1613098632464","","","null","","","","","<p><img src= images/blank.png width =""200"" height = ""200"" style = ""float:right""></p><p><img src=images/blank.png width =""800"" height = ""200""></p>","","","","","","","","","","","",""
"","494","sequential-stimulus-presentation","29","417001","0.0-11.0-1.1","SS1613098632464","trial","","40","800","1294","images/stimuli/spore_stims/simple_17_B_c.gif","images/stimuli/spore_stims/simple_17_A_c.gif","","","","","1","simple_similar","images/stimuli/spore_stims/simple_17_A_c.gif","left","","","","",""
"","null","html-keyboard-response","30","417830","0.0-11.0-0.2","SS1613098632464","","","null","","","","","<p><img src= images/blank.png width =""200"" height = ""200"" style = ""float:right""></p><p><img src=images/blank.png width =""800"" height = ""200""></p>","","","","","","","","","","","",""
"","435","sequential-stimulus-presentation","31","419082","0.0-11.0-1.2","SS1613098632464","trial","","40","800","1235","images/stimuli/spore_stims/simple_17_B_c.gif","images/stimuli/spore_stims/simple_17_A_c.gif","","","","","1","simple_similar","images/stimuli/spore_stims/simple_17_A_c.gif","left","","","","",""
"","null","html-keyboard-response","32","420215","0.0-11.0-0.3","SS1613098632464","","","null","","","","","<p><img src= images/blank.png width =""200"" height = ""200"" style = ""float:right""></p><p><img src=images/blank.png width =""800"" height = ""200""></p>","","","","","","","","","","","",""
"","748","sequential-stimulus-presentation","33","421776","0.0-11.0-1.3","SS1613098632464","trial","","40","800","1548","images/stimuli/spore_stims/simple_17_B_c.gif","images/stimuli/spore_stims/simple_17_A_c.gif","","","","","1","simple_similar","images/stimuli/spore_stims/simple_17_B_c.gif","middle","","","","",""
"","null","html-keyboard-response","34","422980","0.0-11.0-0.4","SS1613098632464","","","null","","","","","<p><img src= images/blank.png width =""200"" height = ""200"" style = ""float:right""></p><p><img src=images/blank.png width =""800"" height = ""200""></p>","","","","","","","","","","","",""
"","394","sequential-stimulus-presentation","35","424178","0.0-11.0-1.4","SS1613098632464","trial","","40","800","1194","images/stimuli/spore_stims/simple_17_B_c.gif","images/stimuli/spore_stims/simple_17_A_c.gif","","","","","1","simple_similar","images/stimuli/spore_stims/simple_17_A_c.gif","left","","","","",""
"","null","html-keyboard-response","36","425133","0.0-11.0-0.5","SS1613098632464","","","null","","","","","<p><img src= images/blank.png width =""200"" height = ""200"" style = ""float:right""></p><p><img src=images/blank.png width =""800"" height = ""200""></p>","","","","","","","","","","","",""
"","395","sequential-stimulus-presentation","37","426345","0.0-11.0-1.5","SS1613098632464","trial","","40","800","1195","images/stimuli/spore_stims/simple_17_B_c.gif","images/stimuli/spore_stims/simple_17_A_c.gif","","","","","1","simple_similar","images/stimuli/spore_stims/simple_17_A_c.gif","left","","","","",""
"","null","html-keyboard-response","38","427602","0.0-11.0-0.6","SS1613098632464","","","null","","","","","<p><img src= images/blank.png width =""200"" height = ""200"" style = ""float:right""></p><p><img src=images/blank.png width =""800"" height = ""200""></p>","","","","","","","","","","","",""
"","484","sequential-stimulus-presentation","39","428889","0.0-11.0-1.6","SS1613098632464","trial","","40","800","1284","images/stimuli/spore_stims/simple_17_B_c.gif","images/stimuli/spore_stims/simple_17_A_c.gif","","","","","1","simple_similar","images/stimuli/spore_stims/simple_17_A_c.gif","left","","","","",""
"","null","html-keyboard-response","40","429725","0.0-11.0-0.7","SS1613098632464","","","null","","","","","<p><img src= images/blank.png width =""200"" height = ""200"" style = ""float:right""></p><p><img src=images/blank.png width =""800"" height = ""200""></p>","","","","","","","","","","","",""
"","520","sequential-stimulus-presentation","41","431049","0.0-11.0-1.7","SS1613098632464","trial","","40","800","1320","images/stimuli/spore_stims/simple_17_B_c.gif","images/stimuli/spore_stims/simple_17_A_c.gif","","","","","1","simple_similar","images/stimuli/spore_stims/simple_17_A_c.gif","left","","","","",""
"","2046","html-keyboard-response","42","433098","0.0-12.0","SS1613098632464","pref_question","","49","","","","","<video width ='960' height = '540' style='padding-top:8%' autoplay muted><source src='images/stimuli/wall_pref.mp4' type='video/mp4'></video>","1","left","25%","1","","","","","","","",""
"","723","sequential-stimulus-presentation","43","434625","0.0-13.0","SS1613098632464","pref_reveal","","40","800","1523","null","null","","","","","1","","","","background","","","",""
"","null","html-keyboard-response","44","435600","0.0-14.0-0.0","SS1613098632464","","","null","","","","","<p><img src= images/blank.png width =""200"" height = ""200"" style = ""float:right""></p><p><img src=images/blank.png width =""800"" height = ""200""></p>","","","","","","","","","","","",""
"","1091","sequential-stimulus-presentation","45","437506","0.0-14.0-1.0","SS1613098632464","trial","","40","800","1891","images/stimuli/spore_stims/simple_18_B_c.gif","images/stimuli/spore_stims/simple_18_A_c.gif","","","","","2","simple_similar","images/stimuli/spore_stims/simple_18_A_c.gif","left","","","","",""
"","null","html-keyboard-response","46","438514","0.0-14.0-0.1","SS1613098632464","","","null","","","","","<p><img src= images/blank.png width =""200"" height = ""200"" style = ""float:right""></p><p><img src=images/blank.png width =""800"" height = ""200""></p>","","","","","","","","","","","",""
"","601","sequential-stimulus-presentation","47","439937","0.0-14.0-1.1","SS1613098632464","trial","","40","800","1401","images/stimuli/spore_stims/simple_18_B_c.gif","images/stimuli/spore_stims/simple_18_A_c.gif","","","","","2","simple_similar","images/stimuli/spore_stims/simple_18_A_c.gif","left","","","","",""
"","null","html-keyboard-response","48","440987","0.0-14.0-0.2","SS1613098632464","","","null","","","","","<p><img src= images/blank.png width =""200"" height = ""200"" style = ""float:right""></p><p><img src=images/blank.png width =""800"" height = ""200""></p>","","","","","","","","","","","",""
"","435","sequential-stimulus-presentation","49","442233","0.0-14.0-1.2","SS1613098632464","trial","","40","800","1235","images/stimuli/spore_stims/simple_18_B_c.gif","images/stimuli/spore_stims/simple_18_A_c.gif","","","","","2","simple_similar","images/stimuli/spore_stims/simple_18_A_c.gif","left","","","","",""
"","null","html-keyboard-response","50","443181","0.0-14.0-0.3","SS1613098632464","","","null","","","","","<p><img src= images/blank.png width =""200"" height = ""200"" style = ""float:right""></p><p><img src=images/blank.png width =""800"" height = ""200""></p>","","","","","","","","","","","",""
"","441","sequential-stimulus-presentation","51","444425","0.0-14.0-1.3","SS1613098632464","trial","","40","800","1241","images/stimuli/spore_stims/simple_18_B_c.gif","images/stimuli/spore_stims/simple_18_A_c.gif","","","","","2","simple_similar","images/stimuli/spore_stims/simple_18_A_c.gif","left","","","","",""
"","null","html-keyboard-response","52","445707","0.0-14.0-0.4","SS1613098632464","","","null","","","","","<p><img src= images/blank.png width =""200"" height = ""200"" style = ""float:right""></p><p><img src=images/blank.png width =""800"" height = ""200""></p>","","","","","","","","","","","",""
"","397","sequential-stimulus-presentation","53","446913","0.0-14.0-1.4","SS1613098632464","trial","","40","800","1197","images/stimuli/spore_stims/simple_18_B_c.gif","images/stimuli/spore_stims/simple_18_A_c.gif","","","","","2","simple_similar","images/stimuli/spore_stims/simple_18_A_c.gif","left","","","","",""
"","null","html-keyboard-response","54","448077","0.0-14.0-0.5","SS1613098632464","","","null","","","","","<p><img src= images/blank.png width =""200"" height = ""200"" style = ""float:right""></p><p><img src=images/blank.png width =""800"" height = ""200""></p>","","","","","","","","","","","",""
"","389","sequential-stimulus-presentation","55","449281","0.0-14.0-1.5","SS1613098632464","trial","","40","800","1189","images/stimuli/spore_stims/simple_18_B_c.gif","images/stimuli/spore_stims/simple_18_A_c.gif","","","","","2","simple_similar","images/stimuli/spore_stims/simple_18_A_c.gif","left","","","","",""
"","null","html-keyboard-response","56","450529","0.0-14.0-0.6","SS1613098632464","","","null","","","","","<p><img src= images/blank.png width =""200"" height = ""200"" style = ""float:right""></p><p><img src=images/blank.png width =""800"" height = ""200""></p>","","","","","","","","","","","",""
"","396","sequential-stimulus-presentation","57","451737","0.0-14.0-1.6","SS1613098632464","trial","","40","800","1196","images/stimuli/spore_stims/simple_18_B_c.gif","images/stimuli/spore_stims/simple_18_A_c.gif","","","","","2","simple_similar","images/stimuli/spore_stims/simple_18_B_c.gif","right","","","","",""
"","null","html-keyboard-response","58","452570","0.0-14.0-0.7","SS1613098632464","","","null","","","","","<p><img src= images/blank.png width =""200"" height = ""200"" style = ""float:right""></p><p><img src=images/blank.png width =""800"" height = ""200""></p>","","","","","","","","","","","",""
"","928","sequential-stimulus-presentation","59","454313","0.0-14.0-1.7","SS1613098632464","trial","","40","800","1728","images/stimuli/spore_stims/simple_18_B_c.gif","images/stimuli/spore_stims/simple_18_A_c.gif","","","","","2","simple_similar","images/stimuli/spore_stims/simple_18_A_c.gif","left","","","","",""
"","5095","html-keyboard-response","60","459411","0.0-15.0","SS1613098632464","pref_question","","51","","","","","<video width ='960' height = '540' style='padding-top:8%' autoplay muted><source src='images/stimuli/wall_pref.mp4' type='video/mp4'></video>","3","right","66%","2","","","","","","","",""
"","2557","sequential-stimulus-presentation","61","462778","0.0-16.0","SS1613098632464","pref_reveal","","40","800","3357","null","null","","","","","2","","","","deviant","","","",""
"","null","html-keyboard-response","62","463957","0.0-17.0-0.0","SS1613098632464","","","null","","","","","<p><img src= images/blank.png width =""200"" height = ""200"" style = ""float:right""></p><p><img src=images/blank.png width =""800"" height = ""200""></p>","","","","","","","","","","","",""
"","559","sequential-stimulus-presentation","63","465329","0.0-17.0-1.0","SS1613098632464","trial","","40","800","1359","images/stimuli/spore_stims/complex_05_B_d.gif","images/stimuli/spore_stims/complex_07_B_a.gif","","","","","3","complex_dissimilar","images/stimuli/spore_stims/complex_07_B_a.gif","right","","","","",""
"","null","html-keyboard-response","64","466376","0.0-17.0-0.1","SS1613098632464","","","null","","","","","<p><img src= images/blank.png width =""200"" height = ""200"" style = ""float:right""></p><p><img src=images/blank.png width =""800"" height = ""200""></p>","","","","","","","","","","","",""
"","808","sequential-stimulus-presentation","65","468001","0.0-17.0-1.1","SS1613098632464","trial","","40","800","1608","images/stimuli/spore_stims/complex_05_B_d.gif","images/stimuli/spore_stims/complex_07_B_a.gif","","","","","3","complex_dissimilar","images/stimuli/spore_stims/complex_07_B_a.gif","right","","","","",""
"","null","html-keyboard-response","66","468927","0.0-17.0-0.2","SS1613098632464","","","null","","","","","<p><img src= images/blank.png width =""200"" height = ""200"" style = ""float:right""></p><p><img src=images/blank.png width =""800"" height = ""200""></p>","","","","","","","","","","","",""
"","3160","sequential-stimulus-presentation","67","472898","0.0-17.0-1.2","SS1613098632464","trial","","40","800","3960","images/stimuli/spore_stims/complex_05_B_d.gif","images/stimuli/spore_stims/complex_07_B_a.gif","","","","","3","complex_dissimilar","images/stimuli/spore_stims/complex_05_B_d.gif","middle","","","","",""
"","null","html-keyboard-response","68","473730","0.0-17.0-0.3","SS1613098632464","","","null","","","","","<p><img src= images/blank.png width =""200"" height = ""200"" style = ""float:right""></p><p><img src=images/blank.png width =""800"" height = ""200""></p>","","","","","","","","","","","",""
"","2521","sequential-stimulus-presentation","69","477066","0.0-17.0-1.3","SS1613098632464","trial","","40","800","3321","images/stimuli/spore_stims/complex_05_B_d.gif","images/stimuli/spore_stims/complex_07_B_a.gif","","","","","3","complex_dissimilar","images/stimuli/spore_stims/complex_07_B_a.gif","right","","","","",""
"","null","html-keyboard-response","70","478333","0.0-17.0-0.4","SS1613098632464","","","null","","","","","<p><img src= images/blank.png width =""200"" height = ""200"" style = ""float:right""></p><p><img src=images/blank.png width =""800"" height = ""200""></p>","","","","","","","","","","","",""
"","2357","sequential-stimulus-presentation","71","481506","0.0-17.0-1.4","SS1613098632464","trial","","40","800","3157","images/stimuli/spore_stims/complex_05_B_d.gif","images/stimuli/spore_stims/complex_07_B_a.gif","","","","","3","complex_dissimilar","images/stimuli/spore_stims/complex_07_B_a.gif","right","","","","",""
"","null","html-keyboard-response","72","482805","0.0-17.0-0.5","SS1613098632464","","","null","","","","","<p><img src= images/blank.png width =""200"" height = ""200"" style = ""float:right""></p><p><img src=images/blank.png width =""800"" height = ""200""></p>","","","","","","","","","","","",""
"","1223","sequential-stimulus-presentation","73","484834","0.0-17.0-1.5","SS1613098632464","trial","","40","800","2023","images/stimuli/spore_stims/complex_05_B_d.gif","images/stimuli/spore_stims/complex_07_B_a.gif","","","","","3","complex_dissimilar","images/stimuli/spore_stims/complex_07_B_a.gif","right","","","","",""
"","null","html-keyboard-response","74","486000","0.0-17.0-0.6","SS1613098632464","","","null","","","","","<p><img src= images/blank.png width =""200"" height = ""200"" style = ""float:right""></p><p><img src=images/blank.png width =""800"" height = ""200""></p>","","","","","","","","","","","",""
"","1012","sequential-stimulus-presentation","75","487818","0.0-17.0-1.6","SS1613098632464","trial","","40","800","1812","images/stimuli/spore_stims/complex_05_B_d.gif","images/stimuli/spore_stims/complex_07_B_a.gif","","","","","3","complex_dissimilar","images/stimuli/spore_stims/complex_07_B_a.gif","right","","","","",""
"","null","html-keyboard-response","76","488993","0.0-17.0-0.7","SS1613098632464","","","null","","","","","<p><img src= images/blank.png width =""200"" height = ""200"" style = ""float:right""></p><p><img src=images/blank.png width =""800"" height = ""200""></p>","","","","","","","","","","","",""
"","2743","sequential-stimulus-presentation","77","492553","0.0-17.0-1.7","SS1613098632464","trial","","40","800","3543","images/stimuli/spore_stims/complex_05_B_d.gif","images/stimuli/spore_stims/complex_07_B_a.gif","","","","","3","complex_dissimilar","images/stimuli/spore_stims/complex_07_B_a.gif","right","","","","",""
"","2724","html-keyboard-response","78","495282","0.0-18.0","SS1613098632464","pref_question","","49","","","","","<video width ='960' height = '540' style='padding-top:8%' autoplay muted><source src='images/stimuli/wall_pref.mp4' type='video/mp4'></video>","1","left","25%","3","","","","","","","",""
"","2244","sequential-stimulus-presentation","79","498338","0.0-19.0","SS1613098632464","pref_reveal","","40","800","3044","null","null","","","","","3","","","","novel","","","",""
"","null","html-keyboard-response","80","499226","0.0-20.0-0.0","SS1613098632464","","","null","","","","","<p><img src= images/blank.png width =""200"" height = ""200"" style = ""float:right""></p><p><img src=images/blank.png width =""800"" height = ""200""></p>","","","","","","","","","","","",""
"","2355","sequential-stimulus-presentation","81","502394","0.0-20.0-1.0","SS1613098632464","trial","","40","800","3155","images/stimuli/spore_stims/simple_10_B_c.gif","images/stimuli/spore_stims/simple_20_A_c.gif","","","","","4","simple_dissimilar","images/stimuli/spore_stims/simple_20_A_c.gif","right","","","","",""
"","null","html-keyboard-response","82","503423","0.0-20.0-0.1","SS1613098632464","","","null","","","","","<p><img src= images/blank.png width =""200"" height = ""200"" style = ""float:right""></p><p><img src=images/blank.png width =""800"" height = ""200""></p>","","","","","","","","","","","",""
"","404","sequential-stimulus-presentation","83","504642","0.0-20.0-1.1","SS1613098632464","trial","","40","800","1204","images/stimuli/spore_stims/simple_10_B_c.gif","images/stimuli/spore_stims/simple_20_A_c.gif","","","","","4","simple_dissimilar","images/stimuli/spore_stims/simple_20_A_c.gif","right","","","","",""
"","null","html-keyboard-response","84","505732","0.0-20.0-0.2","SS1613098632464","","","null","","","","","<p><img src= images/blank.png width =""200"" height = ""200"" style = ""float:right""></p><p><img src=images/blank.png width =""800"" height = ""200""></p>","","","","","","","","","","","",""
"","471","sequential-stimulus-presentation","85","507018","0.0-20.0-1.2","SS1613098632464","trial","","40","800","1271","images/stimuli/spore_stims/simple_10_B_c.gif","images/stimuli/spore_stims/simple_20_A_c.gif","","","","","4","simple_dissimilar","images/stimuli/spore_stims/simple_20_A_c.gif","right","","","","",""
"","null","html-keyboard-response","86","508262","0.0-20.0-0.3","SS1613098632464","","","null","","","","","<p><img src= images/blank.png width =""200"" height = ""200"" style = ""float:right""></p><p><img src=images/blank.png width =""800"" height = ""200""></p>","","","","","","","","","","","",""
"","813","sequential-stimulus-presentation","87","509881","0.0-20.0-1.3","SS1613098632464","trial","","40","800","1613","images/stimuli/spore_stims/simple_10_B_c.gif","images/stimuli/spore_stims/simple_20_A_c.gif","","","","","4","simple_dissimilar","images/stimuli/spore_stims/simple_20_A_c.gif","right","","","","",""
"","null","html-keyboard-response","88","510873","0.0-20.0-0.4","SS1613098632464","","","null","","","","","<p><img src= images/blank.png width =""200"" height = ""200"" style = ""float:right""></p><p><img src=images/blank.png width =""800"" height = ""200""></p>","","","","","","","","","","","",""
"","538","sequential-stimulus-presentation","89","512226","0.0-20.0-1.4","SS1613098632464","trial","","40","800","1338","images/stimuli/spore_stims/simple_10_B_c.gif","images/stimuli/spore_stims/simple_20_A_c.gif","","","","","4","simple_dissimilar","images/stimuli/spore_stims/simple_20_A_c.gif","right","","","","",""
"","null","html-keyboard-response","90","513343","0.0-20.0-0.5","SS1613098632464","","","null","","","","","<p><img src= images/blank.png width =""200"" height = ""200"" style = ""float:right""></p><p><img src=images/blank.png width =""800"" height = ""200""></p>","","","","","","","","","","","",""
"","428","sequential-stimulus-presentation","91","514586","0.0-20.0-1.5","SS1613098632464","trial","","40","800","1228","images/stimuli/spore_stims/simple_10_B_c.gif","images/stimuli/spore_stims/simple_20_A_c.gif","","","","","4","simple_dissimilar","images/stimuli/spore_stims/simple_20_A_c.gif","right","","","","",""
"","null","html-keyboard-response","92","515656","0.0-20.0-0.6","SS1613098632464","","","null","","","","","<p><img src= images/blank.png width =""200"" height = ""200"" style = ""float:right""></p><p><img src=images/blank.png width =""800"" height = ""200""></p>","","","","","","","","","","","",""
"","561","sequential-stimulus-presentation","93","517033","0.0-20.0-1.6","SS1613098632464","trial","","40","800","1361","images/stimuli/spore_stims/simple_10_B_c.gif","images/stimuli/spore_stims/simple_20_A_c.gif","","","","","4","simple_dissimilar","images/stimuli/spore_stims/simple_20_A_c.gif","right","","","","",""
"","null","html-keyboard-response","94","518067","0.0-20.0-0.7","SS1613098632464","","","null","","","","","<p><img src= images/blank.png width =""200"" height = ""200"" style = ""float:right""></p><p><img src=images/blank.png width =""800"" height = ""200""></p>","","","","","","","","","","","",""
"","869","sequential-stimulus-presentation","95","519754","0.0-20.0-1.7","SS1613098632464","trial","","40","800","1669","images/stimuli/spore_stims/simple_10_B_c.gif","images/stimuli/spore_stims/simple_20_A_c.gif","","","","","4","simple_dissimilar","images/stimuli/spore_stims/simple_10_B_c.gif","left","","","","",""
"","4220","html-keyboard-response","96","523978","0.0-21.0","SS1613098632464","pref_question","","49","","","","","<video width ='960' height = '540' style='padding-top:8%' autoplay muted><source src='images/stimuli/wall_pref.mp4' type='video/mp4'></video>","1","left","25%","4","","","","","","","",""
"","904","sequential-stimulus-presentation","97","525689","0.0-22.0","SS1613098632464","pref_reveal","","40","800","1704","null","null","","","","","4","","","","deviant","","","",""
"","null","html-keyboard-response","98","526916","0.0-23.0-0.0","SS1613098632464","","","null","","","","","<p><img src= images/blank.png width =""200"" height = ""200"" style = ""float:right""></p><p><img src=images/blank.png width =""800"" height = ""200""></p>","","","","","","","","","","","",""
"","1037","sequential-stimulus-presentation","99","528769","0.0-23.0-1.0","SS1613098632464","trial","","40","800","1837","images/stimuli/spore_stims/simple_03_A_c.gif","images/stimuli/spore_stims/simple_03_B_c.gif","","","","","5","simple_similar","images/stimuli/spore_stims/simple_03_B_c.gif","right","","","","",""
"","null","html-keyboard-response","100","529829","0.0-23.0-0.1","SS1613098632464","","","null","","","","","<p><img src= images/blank.png width =""200"" height = ""200"" style = ""float:right""></p><p><img src=images/blank.png width =""800"" height = ""200""></p>","","","","","","","","","","","",""
"","2586","sequential-stimulus-presentation","101","533233","0.0-23.0-1.1","SS1613098632464","trial","","40","800","3386","images/stimuli/spore_stims/simple_03_A_c.gif","images/stimuli/spore_stims/simple_03_B_c.gif","","","","","5","simple_similar","images/stimuli/spore_stims/simple_03_B_c.gif","right","","","","",""
"","null","html-keyboard-response","102","534401","0.0-23.0-0.2","SS1613098632464","","","null","","","","","<p><img src= images/blank.png width =""200"" height = ""200"" style = ""float:right""></p><p><img src=images/blank.png width =""800"" height = ""200""></p>","","","","","","","","","","","",""
"","770","sequential-stimulus-presentation","103","535985","0.0-23.0-1.2","SS1613098632464","trial","","40","800","1570","images/stimuli/spore_stims/simple_03_A_c.gif","images/stimuli/spore_stims/simple_03_B_c.gif","","","","","5","simple_similar","images/stimuli/spore_stims/simple_03_B_c.gif","right","","","","",""
"","null","html-keyboard-response","104","537153","0.0-23.0-0.3","SS1613098632464","","","null","","","","","<p><img src= images/blank.png width =""200"" height = ""200"" style = ""float:right""></p><p><img src=images/blank.png width =""800"" height = ""200""></p>","","","","","","","","","","","",""
"","1752","sequential-stimulus-presentation","105","539713","0.0-23.0-1.3","SS1613098632464","trial","","40","800","2552","images/stimuli/spore_stims/simple_03_A_c.gif","images/stimuli/spore_stims/simple_03_B_c.gif","","","","","5","simple_similar","images/stimuli/spore_stims/simple_03_B_c.gif","right","","","","",""
"","null","html-keyboard-response","106","540883","0.0-23.0-0.4","SS1613098632464","","","null","","","","","<p><img src= images/blank.png width =""200"" height = ""200"" style = ""float:right""></p><p><img src=images/blank.png width =""800"" height = ""200""></p>","","","","","","","","","","","",""
"","1645","sequential-stimulus-presentation","107","543337","0.0-23.0-1.4","SS1613098632464","trial","","40","800","2445","images/stimuli/spore_stims/simple_03_A_c.gif","images/stimuli/spore_stims/simple_03_B_c.gif","","","","","5","simple_similar","images/stimuli/spore_stims/simple_03_A_c.gif","left","","","","",""
"","null","html-keyboard-response","108","544500","0.0-23.0-0.5","SS1613098632464","","","null","","","","","<p><img src= images/blank.png width =""200"" height = ""200"" style = ""float:right""></p><p><img src=images/blank.png width =""800"" height = ""200""></p>","","","","","","","","","","","",""
"","745","sequential-stimulus-presentation","109","546050","0.0-23.0-1.5","SS1613098632464","trial","","40","800","1545","images/stimuli/spore_stims/simple_03_A_c.gif","images/stimuli/spore_stims/simple_03_B_c.gif","","","","","5","simple_similar","images/stimuli/spore_stims/simple_03_B_c.gif","right","","","","",""
"","null","html-keyboard-response","110","547173","0.0-23.0-0.6","SS1613098632464","","","null","","","","","<p><img src= images/blank.png width =""200"" height = ""200"" style = ""float:right""></p><p><img src=images/blank.png width =""800"" height = ""200""></p>","","","","","","","","","","","",""
"","660","sequential-stimulus-presentation","111","548650","0.0-23.0-1.6","SS1613098632464","trial","","40","800","1460","images/stimuli/spore_stims/simple_03_A_c.gif","images/stimuli/spore_stims/simple_03_B_c.gif","","","","","5","simple_similar","images/stimuli/spore_stims/simple_03_B_c.gif","right","","","","",""
"","null","html-keyboard-response","112","549514","0.0-23.0-0.7","SS1613098632464","","","null","","","","","<p><img src= images/blank.png width =""200"" height = ""200"" style = ""float:right""></p><p><img src=images/blank.png width =""800"" height = ""200""></p>","","","","","","","","","","","",""
"","661","sequential-stimulus-presentation","113","550985","0.0-23.0-1.7","SS1613098632464","trial","","40","800","1461","images/stimuli/spore_stims/simple_03_A_c.gif","images/stimuli/spore_stims/simple_03_B_c.gif","","","","","5","simple_similar","images/stimuli/spore_stims/simple_03_B_c.gif","right","","","","",""
"","1621","html-keyboard-response","114","552610","0.0-24.0","SS1613098632464","pref_question","","50","","","","","<video width ='960' height = '540' style='padding-top:8%' autoplay muted><source src='images/stimuli/wall_pref.mp4' type='video/mp4'></video>","2","middle","45%","5","","","","","","","",""
"","1842","sequential-stimulus-presentation","115","555258","0.0-25.0","SS1613098632464","pref_reveal","","40","800","2642","null","null","","","","","5","","","","novel","","","",""
"","null","html-keyboard-response","116","556461","0.0-26.0-0.0","SS1613098632464","","","null","","","","","<p><img src= images/blank.png width =""200"" height = ""200"" style = ""float:right""></p><p><img src=images/blank.png width =""800"" height = ""200""></p>","","","","","","","","","","","",""
"","2214","sequential-stimulus-presentation","117","559490","0.0-26.0-1.0","SS1613098632464","trial","","40","800","3014","images/stimuli/spore_stims/complex_07_A_b.gif","images/stimuli/spore_stims/complex_02_B_b.gif","","","","","6","complex_dissimilar","images/stimuli/spore_stims/complex_02_B_b.gif","middle","","","","",""
"","null","html-keyboard-response","118","560789","0.0-26.0-0.1","SS1613098632464","","","null","","","","","<p><img src= images/blank.png width =""200"" height = ""200"" style = ""float:right""></p><p><img src=images/blank.png width =""800"" height = ""200""></p>","","","","","","","","","","","",""
"","1311","sequential-stimulus-presentation","119","562913","0.0-26.0-1.1","SS1613098632464","trial","","40","800","2111","images/stimuli/spore_stims/complex_07_A_b.gif","images/stimuli/spore_stims/complex_02_B_b.gif","","","","","6","complex_dissimilar","images/stimuli/spore_stims/complex_02_B_b.gif","middle","","","","",""
"","null","html-keyboard-response","120","563897","0.0-26.0-0.2","SS1613098632464","","","null","","","","","<p><img src= images/blank.png width =""200"" height = ""200"" style = ""float:right""></p><p><img src=images/blank.png width =""800"" height = ""200""></p>","","","","","","","","","","","",""
"","663","sequential-stimulus-presentation","121","565370","0.0-26.0-1.2","SS1613098632464","trial","","40","800","1463","images/stimuli/spore_stims/complex_07_A_b.gif","images/stimuli/spore_stims/complex_02_B_b.gif","","","","","6","complex_dissimilar","images/stimuli/spore_stims/complex_02_B_b.gif","middle","","","","",""
"","null","html-keyboard-response","122","566417","0.0-26.0-0.3","SS1613098632464","","","null","","","","","<p><img src= images/blank.png width =""200"" height = ""200"" style = ""float:right""></p><p><img src=images/blank.png width =""800"" height = ""200""></p>","","","","","","","","","","","",""
"","564","sequential-stimulus-presentation","123","567793","0.0-26.0-1.3","SS1613098632464","trial","","40","800","1364","images/stimuli/spore_stims/complex_07_A_b.gif","images/stimuli/spore_stims/complex_02_B_b.gif","","","","","6","complex_dissimilar","images/stimuli/spore_stims/complex_02_B_b.gif","middle","","","","",""
"","null","html-keyboard-response","124","568977","0.0-26.0-0.4","SS1613098632464","","","null","","","","","<p><img src= images/blank.png width =""200"" height = ""200"" style = ""float:right""></p><p><img src=images/blank.png width =""800"" height = ""200""></p>","","","","","","","","","","","",""
"","2891","sequential-stimulus-presentation","125","572681","0.0-26.0-1.4","SS1613098632464","trial","","40","800","3691","images/stimuli/spore_stims/complex_07_A_b.gif","images/stimuli/spore_stims/complex_02_B_b.gif","","","","","6","complex_dissimilar","images/stimuli/spore_stims/complex_07_A_b.gif","left","","","","",""
"","null","html-keyboard-response","126","573854","0.0-26.0-0.5","SS1613098632464","","","null","","","","","<p><img src= images/blank.png width =""200"" height = ""200"" style = ""float:right""></p><p><img src=images/blank.png width =""800"" height = ""200""></p>","","","","","","","","","","","",""
"","1080","sequential-stimulus-presentation","127","575745","0.0-26.0-1.5","SS1613098632464","trial","","40","800","1880","images/stimuli/spore_stims/complex_07_A_b.gif","images/stimuli/spore_stims/complex_02_B_b.gif","","","","","6","complex_dissimilar","images/stimuli/spore_stims/complex_02_B_b.gif","middle","","","","",""
"","null","html-keyboard-response","128","576976","0.0-26.0-0.6","SS1613098632464","","","null","","","","","<p><img src= images/blank.png width =""200"" height = ""200"" style = ""float:right""></p><p><img src=images/blank.png width =""800"" height = ""200""></p>","","","","","","","","","","","",""
"","1403","sequential-stimulus-presentation","129","579186","0.0-26.0-1.6","SS1613098632464","trial","","40","800","2203","images/stimuli/spore_stims/complex_07_A_b.gif","images/stimuli/spore_stims/complex_02_B_b.gif","","","","","6","complex_dissimilar","images/stimuli/spore_stims/complex_02_B_b.gif","middle","","","","",""
"","null","html-keyboard-response","130","580115","0.0-26.0-0.7","SS1613098632464","","","null","","","","","<p><img src= images/blank.png width =""200"" height = ""200"" style = ""float:right""></p><p><img src=images/blank.png width =""800"" height = ""200""></p>","","","","","","","","","","","",""
"","750","sequential-stimulus-presentation","131","581673","0.0-26.0-1.7","SS1613098632464","trial","","40","800","1550","images/stimuli/spore_stims/complex_07_A_b.gif","images/stimuli/spore_stims/complex_02_B_b.gif","","","","","6","complex_dissimilar","images/stimuli/spore_stims/complex_02_B_b.gif","middle","","","","",""
"","1620","html-keyboard-response","132","583298","0.0-27.0","SS1613098632464","pref_question","","51","","","","","<video width ='960' height = '540' style='padding-top:8%' autoplay muted><source src='images/stimuli/wall_pref.mp4' type='video/mp4'></video>","3","right","66%","6","","","","","","","",""
"","1886","sequential-stimulus-presentation","133","586002","0.0-28.0","SS1613098632464","pref_reveal","","40","800","2686","null","null","","","","","6","","","","novel","","","",""
"","null","html-keyboard-response","134","586886","0.0-29.0-0.0","SS1613098632464","","","null","","","","","<p><img src= images/blank.png width =""200"" height = ""200"" style = ""float:right""></p><p><img src=images/blank.png width =""800"" height = ""200""></p>","","","","","","","","","","","",""
"","1575","sequential-stimulus-presentation","135","589273","0.0-29.0-1.0","SS1613098632464","trial","","40","800","2375","images/stimuli/spore_stims/complex_15_A_a.gif","images/stimuli/spore_stims/complex_15_B_a.gif","","","","","7","complex_similar","images/stimuli/spore_stims/complex_15_B_a.gif","right","","","","",""
"","null","html-keyboard-response","136","590094","0.0-29.0-0.1","SS1613098632464","","","null","","","","","<p><img src= images/blank.png width =""200"" height = ""200"" style = ""float:right""></p><p><img src=images/blank.png width =""800"" height = ""200""></p>","","","","","","","","","","","",""
"","2230","sequential-stimulus-presentation","137","593130","0.0-29.0-1.1","SS1613098632464","trial","","40","800","3030","images/stimuli/spore_stims/complex_15_A_a.gif","images/stimuli/spore_stims/complex_15_B_a.gif","","","","","7","complex_similar","images/stimuli/spore_stims/complex_15_B_a.gif","right","","","","",""
"","null","html-keyboard-response","138","594094","0.0-29.0-0.2","SS1613098632464","","","null","","","","","<p><img src= images/blank.png width =""200"" height = ""200"" style = ""float:right""></p><p><img src=images/blank.png width =""800"" height = ""200""></p>","","","","","","","","","","","",""
"","1701","sequential-stimulus-presentation","139","596609","0.0-29.0-1.2","SS1613098632464","trial","","40","800","2501","images/stimuli/spore_stims/complex_15_A_a.gif","images/stimuli/spore_stims/complex_15_B_a.gif","","","","","7","complex_similar","images/stimuli/spore_stims/complex_15_B_a.gif","right","","","","",""
"","null","html-keyboard-response","140","597451","0.0-29.0-0.3","SS1613098632464","","","null","","","","","<p><img src= images/blank.png width =""200"" height = ""200"" style = ""float:right""></p><p><img src=images/blank.png width =""800"" height = ""200""></p>","","","","","","","","","","","",""
"","930","sequential-stimulus-presentation","141","599201","0.0-29.0-1.3","SS1613098632464","trial","","40","800","1730","images/stimuli/spore_stims/complex_15_A_a.gif","images/stimuli/spore_stims/complex_15_B_a.gif","","","","","7","complex_similar","images/stimuli/spore_stims/complex_15_B_a.gif","right","","","","",""
"","null","html-keyboard-response","142","600475","0.0-29.0-0.4","SS1613098632464","","","null","","","","","<p><img src= images/blank.png width =""200"" height = ""200"" style = ""float:right""></p><p><img src=images/blank.png width =""800"" height = ""200""></p>","","","","","","","","","","","",""
"","2746","sequential-stimulus-presentation","143","604034","0.0-29.0-1.4","SS1613098632464","trial","","40","800","3546","images/stimuli/spore_stims/complex_15_A_a.gif","images/stimuli/spore_stims/complex_15_B_a.gif","","","","","7","complex_similar","images/stimuli/spore_stims/complex_15_B_a.gif","right","","","","",""
"","null","html-keyboard-response","144","605170","0.0-29.0-0.5","SS1613098632464","","","null","","","","","<p><img src= images/blank.png width =""200"" height = ""200"" style = ""float:right""></p><p><img src=images/blank.png width =""800"" height = ""200""></p>","","","","","","","","","","","",""
"","3926","sequential-stimulus-presentation","145","609914","0.0-29.0-1.5","SS1613098632464","trial","","40","800","4726","images/stimuli/spore_stims/complex_15_A_a.gif","images/stimuli/spore_stims/complex_15_B_a.gif","","","","","7","complex_similar","images/stimuli/spore_stims/complex_15_B_a.gif","right","","","","",""
"","null","html-keyboard-response","146","611038","0.0-29.0-0.6","SS1613098632464","","","null","","","","","<p><img src= images/blank.png width =""200"" height = ""200"" style = ""float:right""></p><p><img src=images/blank.png width =""800"" height = ""200""></p>","","","","","","","","","","","",""
"","616","sequential-stimulus-presentation","147","612466","0.0-29.0-1.6","SS1613098632464","trial","","40","800","1416","images/stimuli/spore_stims/complex_15_A_a.gif","images/stimuli/spore_stims/complex_15_B_a.gif","","","","","7","complex_similar","images/stimuli/spore_stims/complex_15_B_a.gif","right","","","","",""
"","null","html-keyboard-response","148","613283","0.0-29.0-0.7","SS1613098632464","","","null","","","","","<p><img src= images/blank.png width =""200"" height = ""200"" style = ""float:right""></p><p><img src=images/blank.png width =""800"" height = ""200""></p>","","","","","","","","","","","",""
"","1459","sequential-stimulus-presentation","149","615554","0.0-29.0-1.7","SS1613098632464","trial","","40","800","2259","images/stimuli/spore_stims/complex_15_A_a.gif","images/stimuli/spore_stims/complex_15_B_a.gif","","","","","7","complex_similar","images/stimuli/spore_stims/complex_15_A_a.gif","middle","","","","",""
"","1907","html-keyboard-response","150","617466","0.0-30.0","SS1613098632464","pref_question","","50","","","","","<video width ='960' height = '540' style='padding-top:8%' autoplay muted><source src='images/stimuli/wall_pref.mp4' type='video/mp4'></video>","2","middle","45%","7","","","","","","","",""
"","655","sequential-stimulus-presentation","151","618938","0.0-31.0","SS1613098632464","pref_reveal","","40","800","1455","null","null","","","","","7","","","","deviant","","","",""
"","null","html-keyboard-response","152","619942","0.0-32.0-0.0","SS1613098632464","","","null","","","","","<p><img src= images/blank.png width =""200"" height = ""200"" style = ""float:right""></p><p><img src=images/blank.png width =""800"" height = ""200""></p>","","","","","","","","","","","",""
"","2551","sequential-stimulus-presentation","153","623306","0.0-32.0-1.0","SS1613098632464","trial","","40","800","3351","images/stimuli/spore_stims/complex_09_B_b.gif","images/stimuli/spore_stims/complex_14_A_d.gif","","","","","8","complex_dissimilar","images/stimuli/spore_stims/complex_14_A_d.gif","right","","","","",""
"","null","html-keyboard-response","154","624300","0.0-32.0-0.1","SS1613098632464","","","null","","","","","<p><img src= images/blank.png width =""200"" height = ""200"" style = ""float:right""></p><p><img src=images/blank.png width =""800"" height = ""200""></p>","","","","","","","","","","","",""
"","621","sequential-stimulus-presentation","155","625738","0.0-32.0-1.1","SS1613098632464","trial","","40","800","1421","images/stimuli/spore_stims/complex_09_B_b.gif","images/stimuli/spore_stims/complex_14_A_d.gif","","","","","8","complex_dissimilar","images/stimuli/spore_stims/complex_14_A_d.gif","right","","","","",""
"","null","html-keyboard-response","156","626579","0.0-32.0-0.2","SS1613098632464","","","null","","","","","<p><img src= images/blank.png width =""200"" height = ""200"" style = ""float:right""></p><p><img src=images/blank.png width =""800"" height = ""200""></p>","","","","","","","","","","","",""
"","338","sequential-stimulus-presentation","157","627721","0.0-32.0-1.2","SS1613098632464","trial","","40","800","1138","images/stimuli/spore_stims/complex_09_B_b.gif","images/stimuli/spore_stims/complex_14_A_d.gif","","","","","8","complex_dissimilar","images/stimuli/spore_stims/complex_09_B_b.gif","middle","","","","",""
"","null","html-keyboard-response","158","629019","0.0-32.0-0.3","SS1613098632464","","","null","","","","","<p><img src= images/blank.png width =""200"" height = ""200"" style = ""float:right""></p><p><img src=images/blank.png width =""800"" height = ""200""></p>","","","","","","","","","","","",""
"","386","sequential-stimulus-presentation","159","630217","0.0-32.0-1.3","SS1613098632464","trial","","40","800","1186","images/stimuli/spore_stims/complex_09_B_b.gif","images/stimuli/spore_stims/complex_14_A_d.gif","","","","","8","complex_dissimilar","images/stimuli/spore_stims/complex_14_A_d.gif","right","","","","",""
"","null","html-keyboard-response","160","631182","0.0-32.0-0.4","SS1613098632464","","","null","","","","","<p><img src= images/blank.png width =""200"" height = ""200"" style = ""float:right""></p><p><img src=images/blank.png width =""800"" height = ""200""></p>","","","","","","","","","","","",""
"","369","sequential-stimulus-presentation","161","632362","0.0-32.0-1.4","SS1613098632464","trial","","40","800","1169","images/stimuli/spore_stims/complex_09_B_b.gif","images/stimuli/spore_stims/complex_14_A_d.gif","","","","","8","complex_dissimilar","images/stimuli/spore_stims/complex_14_A_d.gif","right","","","","",""
"","null","html-keyboard-response","162","633612","0.0-32.0-0.5","SS1613098632464","","","null","","","","","<p><img src= images/blank.png width =""200"" height = ""200"" style = ""float:right""></p><p><img src=images/blank.png width =""800"" height = ""200""></p>","","","","","","","","","","","",""
"","589","sequential-stimulus-presentation","163","635018","0.0-32.0-1.5","SS1613098632464","trial","","40","800","1389","images/stimuli/spore_stims/complex_09_B_b.gif","images/stimuli/spore_stims/complex_14_A_d.gif","","","","","8","complex_dissimilar","images/stimuli/spore_stims/complex_14_A_d.gif","right","","","","",""
"","null","html-keyboard-response","164","635855","0.0-32.0-0.6","SS1613098632464","","","null","","","","","<p><img src= images/blank.png width =""200"" height = ""200"" style = ""float:right""></p><p><img src=images/blank.png width =""800"" height = ""200""></p>","","","","","","","","","","","",""
"","883","sequential-stimulus-presentation","165","637546","0.0-32.0-1.6","SS1613098632464","trial","","40","800","1683","images/stimuli/spore_stims/complex_09_B_b.gif","images/stimuli/spore_stims/complex_14_A_d.gif","","","","","8","complex_dissimilar","images/stimuli/spore_stims/complex_14_A_d.gif","right","","","","",""
"","null","html-keyboard-response","166","638606","0.0-32.0-0.7","SS1613098632464","","","null","","","","","<p><img src= images/blank.png width =""200"" height = ""200"" style = ""float:right""></p><p><img src=images/blank.png width =""800"" height = ""200""></p>","","","","","","","","","","","",""
"","532","sequential-stimulus-presentation","167","639954","0.0-32.0-1.7","SS1613098632464","trial","","40","800","1332","images/stimuli/spore_stims/complex_09_B_b.gif","images/stimuli/spore_stims/complex_14_A_d.gif","","","","","8","complex_dissimilar","images/stimuli/spore_stims/complex_14_A_d.gif","right","","","","",""
"","1579","html-keyboard-response","168","641538","0.0-33.0","SS1613098632464","pref_question","","49","","","","","<video width ='960' height = '540' style='padding-top:8%' autoplay muted><source src='images/stimuli/wall_pref.mp4' type='video/mp4'></video>","1","left","25%","8","","","","","","","",""
"","1173","sequential-stimulus-presentation","169","643522","0.0-34.0","SS1613098632464","pref_reveal","","40","800","1973","null","null","","","","","8","","","","novel","","","",""
"","null","html-keyboard-response","170","644634","0.0-35.0-0.0","SS1613098632464","","","null","","","","","<p><img src= images/blank.png width =""200"" height = ""200"" style = ""float:right""></p><p><img src=images/blank.png width =""800"" height = ""200""></p>","","","","","","","","","","","",""
"","357","sequential-stimulus-presentation","171","645809","0.0-35.0-1.0","SS1613098632464","trial","","40","800","1157","images/stimuli/spore_stims/simple_12_A_a.gif","images/stimuli/spore_stims/simple_12_B_a.gif","","","","","9","simple_similar","images/stimuli/spore_stims/simple_12_B_a.gif","right","","","","",""
"","null","html-keyboard-response","172","646855","0.0-35.0-0.1","SS1613098632464","","","null","","","","","<p><img src= images/blank.png width =""200"" height = ""200"" style = ""float:right""></p><p><img src=images/blank.png width =""800"" height = ""200""></p>","","","","","","","","","","","",""
"","914","sequential-stimulus-presentation","173","648578","0.0-35.0-1.1","SS1613098632464","trial","","40","800","1714","images/stimuli/spore_stims/simple_12_A_a.gif","images/stimuli/spore_stims/simple_12_B_a.gif","","","","","9","simple_similar","images/stimuli/spore_stims/simple_12_B_a.gif","right","","","","",""
"","null","html-keyboard-response","174","649388","0.0-35.0-0.2","SS1613098632464","","","null","","","","","<p><img src= images/blank.png width =""200"" height = ""200"" style = ""float:right""></p><p><img src=images/blank.png width =""800"" height = ""200""></p>","","","","","","","","","","","",""
"","433","sequential-stimulus-presentation","175","650634","0.0-35.0-1.2","SS1613098632464","trial","","40","800","1233","images/stimuli/spore_stims/simple_12_A_a.gif","images/stimuli/spore_stims/simple_12_B_a.gif","","","","","9","simple_similar","images/stimuli/spore_stims/simple_12_B_a.gif","right","","","","",""
"","null","html-keyboard-response","176","651820","0.0-35.0-0.3","SS1613098632464","","","null","","","","","<p><img src= images/blank.png width =""200"" height = ""200"" style = ""float:right""></p><p><img src=images/blank.png width =""800"" height = ""200""></p>","","","","","","","","","","","",""
"","124","sequential-stimulus-presentation","177","652762","0.0-35.0-1.3","SS1613098632464","trial","","40","800","924","images/stimuli/spore_stims/simple_12_A_a.gif","images/stimuli/spore_stims/simple_12_B_a.gif","","","","","9","simple_similar","images/stimuli/spore_stims/simple_12_B_a.gif","right","","","","",""
"","null","html-keyboard-response","178","653817","0.0-35.0-0.4","SS1613098632464","","","null","","","","","<p><img src= images/blank.png width =""200"" height = ""200"" style = ""float:right""></p><p><img src=images/blank.png width =""800"" height = ""200""></p>","","","","","","","","","","","",""
"","209","sequential-stimulus-presentation","179","654834","0.0-35.0-1.4","SS1613098632464","trial","","40","800","1009","images/stimuli/spore_stims/simple_12_A_a.gif","images/stimuli/spore_stims/simple_12_B_a.gif","","","","","9","simple_similar","images/stimuli/spore_stims/simple_12_B_a.gif","right","","","","",""
"","null","html-keyboard-response","180","655709","0.0-35.0-0.5","SS1613098632464","","","null","","","","","<p><img src= images/blank.png width =""200"" height = ""200"" style = ""float:right""></p><p><img src=images/blank.png width =""800"" height = ""200""></p>","","","","","","","","","","","",""
"","837","sequential-stimulus-presentation","181","657361","0.0-35.0-1.5","SS1613098632464","trial","","40","800","1637","images/stimuli/spore_stims/simple_12_A_a.gif","images/stimuli/spore_stims/simple_12_B_a.gif","","","","","9","simple_similar","images/stimuli/spore_stims/simple_12_B_a.gif","right","","","","",""
"","null","html-keyboard-response","182","658445","0.0-35.0-0.6","SS1613098632464","","","null","","","","","<p><img src= images/blank.png width =""200"" height = ""200"" style = ""float:right""></p><p><img src=images/blank.png width =""800"" height = ""200""></p>","","","","","","","","","","","",""
"","378","sequential-stimulus-presentation","183","659634","0.0-35.0-1.6","SS1613098632464","trial","","40","800","1178","images/stimuli/spore_stims/simple_12_A_a.gif","images/stimuli/spore_stims/simple_12_B_a.gif","","","","","9","simple_similar","images/stimuli/spore_stims/simple_12_A_a.gif","left","","","","",""
"","null","html-keyboard-response","184","660700","0.0-35.0-0.7","SS1613098632464","","","null","","","","","<p><img src= images/blank.png width =""200"" height = ""200"" style = ""float:right""></p><p><img src=images/blank.png width =""800"" height = ""200""></p>","","","","","","","","","","","",""
"","363","sequential-stimulus-presentation","185","661881","0.0-35.0-1.7","SS1613098632464","trial","","40","800","1163","images/stimuli/spore_stims/simple_12_A_a.gif","images/stimuli/spore_stims/simple_12_B_a.gif","","","","","9","simple_similar","images/stimuli/spore_stims/simple_12_B_a.gif","right","","","","",""
"","3107","html-keyboard-response","186","664993","0.0-36.0","SS1613098632464","pref_question","","50","","","","","<video width ='960' height = '540' style='padding-top:8%' autoplay muted><source src='images/stimuli/wall_pref.mp4' type='video/mp4'></video>","2","middle","45%","9","","","","","","","",""
"","507","sequential-stimulus-presentation","187","666305","0.0-37.0","SS1613098632464","pref_reveal","","40","800","1307","null","null","","","","","9","","","","novel","","","",""
"","null","html-keyboard-response","188","667534","0.0-38.0-0.0","SS1613098632464","","","null","","","","","<p><img src= images/blank.png width =""200"" height = ""200"" style = ""float:right""></p><p><img src=images/blank.png width =""800"" height = ""200""></p>","","","","","","","","","","","",""
"","490","sequential-stimulus-presentation","189","668834","0.0-38.0-1.0","SS1613098632464","trial","","40","800","1290","images/stimuli/spore_stims/simple_13_B_b.gif","images/stimuli/spore_stims/simple_13_A_b.gif","","","","","10","simple_similar","images/stimuli/spore_stims/simple_13_A_b.gif","middle","","","","",""
"","null","html-keyboard-response","190","670063","0.0-38.0-0.1","SS1613098632464","","","null","","","","","<p><img src= images/blank.png width =""200"" height = ""200"" style = ""float:right""></p><p><img src=images/blank.png width =""800"" height = ""200""></p>","","","","","","","","","","","",""
"","377","sequential-stimulus-presentation","191","671259","0.0-38.0-1.1","SS1613098632464","trial","","40","800","1177","images/stimuli/spore_stims/simple_13_B_b.gif","images/stimuli/spore_stims/simple_13_A_b.gif","","","","","10","simple_similar","images/stimuli/spore_stims/simple_13_A_b.gif","middle","","","","",""
"","null","html-keyboard-response","192","672273","0.0-38.0-0.2","SS1613098632464","","","null","","","","","<p><img src= images/blank.png width =""200"" height = ""200"" style = ""float:right""></p><p><img src=images/blank.png width =""800"" height = ""200""></p>","","","","","","","","","","","",""
"","561","sequential-stimulus-presentation","193","673649","0.0-38.0-1.2","SS1613098632464","trial","","40","800","1361","images/stimuli/spore_stims/simple_13_B_b.gif","images/stimuli/spore_stims/simple_13_A_b.gif","","","","","10","simple_similar","images/stimuli/spore_stims/simple_13_A_b.gif","middle","","","","",""
"","null","html-keyboard-response","194","674799","0.0-38.0-0.3","SS1613098632464","","","null","","","","","<p><img src= images/blank.png width =""200"" height = ""200"" style = ""float:right""></p><p><img src=images/blank.png width =""800"" height = ""200""></p>","","","","","","","","","","","",""
"","416","sequential-stimulus-presentation","195","676026","0.0-38.0-1.3","SS1613098632464","trial","","40","800","1216","images/stimuli/spore_stims/simple_13_B_b.gif","images/stimuli/spore_stims/simple_13_A_b.gif","","","","","10","simple_similar","images/stimuli/spore_stims/simple_13_B_b.gif","right","","","","",""
"","null","html-keyboard-response","196","677199","0.0-38.0-0.4","SS1613098632464","","","null","","","","","<p><img src= images/blank.png width =""200"" height = ""200"" style = ""float:right""></p><p><img src=images/blank.png width =""800"" height = ""200""></p>","","","","","","","","","","","",""
"","434","sequential-stimulus-presentation","197","678450","0.0-38.0-1.4","SS1613098632464","trial","","40","800","1234","images/stimuli/spore_stims/simple_13_B_b.gif","images/stimuli/spore_stims/simple_13_A_b.gif","","","","","10","simple_similar","images/stimuli/spore_stims/simple_13_A_b.gif","middle","","","","",""
"","null","html-keyboard-response","198","679722","0.0-38.0-0.5","SS1613098632464","","","null","","","","","<p><img src= images/blank.png width =""200"" height = ""200"" style = ""float:right""></p><p><img src=images/blank.png width =""800"" height = ""200""></p>","","","","","","","","","","","",""
"","409","sequential-stimulus-presentation","199","680937","0.0-38.0-1.5","SS1613098632464","trial","","40","800","1209","images/stimuli/spore_stims/simple_13_B_b.gif","images/stimuli/spore_stims/simple_13_A_b.gif","","","","","10","simple_similar","images/stimuli/spore_stims/simple_13_A_b.gif","middle","","","","",""
"","null","html-keyboard-response","200","682082","0.0-38.0-0.6","SS1613098632464","","","null","","","","","<p><img src= images/blank.png width =""200"" height = ""200"" style = ""float:right""></p><p><img src=images/blank.png width =""800"" height = ""200""></p>","","","","","","","","","","","",""
"","457","sequential-stimulus-presentation","201","683346","0.0-38.0-1.6","SS1613098632464","trial","","40","800","1257","images/stimuli/spore_stims/simple_13_B_b.gif","images/stimuli/spore_stims/simple_13_A_b.gif","","","","","10","simple_similar","images/stimuli/spore_stims/simple_13_A_b.gif","middle","","","","",""
"","null","html-keyboard-response","202","684252","0.0-38.0-0.7","SS1613098632464","","","null","","","","","<p><img src= images/blank.png width =""200"" height = ""200"" style = ""float:right""></p><p><img src=images/blank.png width =""800"" height = ""200""></p>","","","","","","","","","","","",""
"","376","sequential-stimulus-presentation","203","685450","0.0-38.0-1.7","SS1613098632464","trial","","40","800","1176","images/stimuli/spore_stims/simple_13_B_b.gif","images/stimuli/spore_stims/simple_13_A_b.gif","","","","","10","simple_similar","images/stimuli/spore_stims/simple_13_A_b.gif","middle","","","","",""
"","1739","html-keyboard-response","204","687194","0.0-39.0","SS1613098632464","pref_question","","51","","","","","<video width ='960' height = '540' style='padding-top:8%' autoplay muted><source src='images/stimuli/wall_pref.mp4' type='video/mp4'></video>","3","right","66%","10","","","","","","","",""
"","552","sequential-stimulus-presentation","205","688562","0.0-40.0","SS1613098632464","pref_reveal","","40","800","1352","null","null","","","","","10","","","","deviant","","","",""
"","null","html-keyboard-response","206","689842","0.0-41.0-0.0","SS1613098632464","","","null","","","","","<p><img src= images/blank.png width =""200"" height = ""200"" style = ""float:right""></p><p><img src=images/blank.png width =""800"" height = ""200""></p>","","","","","","","","","","","",""
"","423","sequential-stimulus-presentation","207","691081","0.0-41.0-1.0","SS1613098632464","trial","","40","800","1223","images/stimuli/spore_stims/complex_12_A_b.gif","images/stimuli/spore_stims/complex_12_B_b.gif","","","","","11","complex_similar","images/stimuli/spore_stims/complex_12_B_b.gif","middle","","","","",""
"","null","html-keyboard-response","208","691961","0.0-41.0-0.1","SS1613098632464","","","null","","","","","<p><img src= images/blank.png width =""200"" height = ""200"" style = ""float:right""></p><p><img src=images/blank.png width =""800"" height = ""200""></p>","","","","","","","","","","","",""
"","81","sequential-stimulus-presentation","209","692849","0.0-41.0-1.1","SS1613098632464","trial","","40","800","881","images/stimuli/spore_stims/complex_12_A_b.gif","images/stimuli/spore_stims/complex_12_B_b.gif","","","","","11","complex_similar","images/stimuli/spore_stims/complex_12_B_b.gif","middle","","","","",""
"","null","html-keyboard-response","210","693907","0.0-41.0-0.2","SS1613098632464","","","null","","","","","<p><img src= images/blank.png width =""200"" height = ""200"" style = ""float:right""></p><p><img src=images/blank.png width =""800"" height = ""200""></p>","","","","","","","","","","","",""
"","363","sequential-stimulus-presentation","211","695082","0.0-41.0-1.2","SS1613098632464","trial","","40","800","1163","images/stimuli/spore_stims/complex_12_A_b.gif","images/stimuli/spore_stims/complex_12_B_b.gif","","","","","11","complex_similar","images/stimuli/spore_stims/complex_12_B_b.gif","middle","","","","",""
"","null","html-keyboard-response","212","696024","0.0-41.0-0.3","SS1613098632464","","","null","","","","","<p><img src= images/blank.png width =""200"" height = ""200"" style = ""float:right""></p><p><img src=images/blank.png width =""800"" height = ""200""></p>","","","","","","","","","","","",""
"","491","sequential-stimulus-presentation","213","697330","0.0-41.0-1.3","SS1613098632464","trial","","40","800","1291","images/stimuli/spore_stims/complex_12_A_b.gif","images/stimuli/spore_stims/complex_12_B_b.gif","","","","","11","complex_similar","images/stimuli/spore_stims/complex_12_B_b.gif","middle","","","","",""
"","null","html-keyboard-response","214","698208","0.0-41.0-0.4","SS1613098632464","","","null","","","","","<p><img src= images/blank.png width =""200"" height = ""200"" style = ""float:right""></p><p><img src=images/blank.png width =""800"" height = ""200""></p>","","","","","","","","","","","",""
"","509","sequential-stimulus-presentation","215","699529","0.0-41.0-1.4","SS1613098632464","trial","","40","800","1309","images/stimuli/spore_stims/complex_12_A_b.gif","images/stimuli/spore_stims/complex_12_B_b.gif","","","","","11","complex_similar","images/stimuli/spore_stims/complex_12_A_b.gif","right","","","","",""
"","null","html-keyboard-response","216","700461","0.0-41.0-0.5","SS1613098632464","","","null","","","","","<p><img src= images/blank.png width =""200"" height = ""200"" style = ""float:right""></p><p><img src=images/blank.png width =""800"" height = ""200""></p>","","","","","","","","","","","",""
"","584","sequential-stimulus-presentation","217","701857","0.0-41.0-1.5","SS1613098632464","trial","","40","800","1384","images/stimuli/spore_stims/complex_12_A_b.gif","images/stimuli/spore_stims/complex_12_B_b.gif","","","","","11","complex_similar","images/stimuli/spore_stims/complex_12_B_b.gif","middle","","","","",""
"","null","html-keyboard-response","218","702899","0.0-41.0-0.6","SS1613098632464","","","null","","","","","<p><img src= images/blank.png width =""200"" height = ""200"" style = ""float:right""></p><p><img src=images/blank.png width =""800"" height = ""200""></p>","","","","","","","","","","","",""
"","704","sequential-stimulus-presentation","219","704417","0.0-41.0-1.6","SS1613098632464","trial","","40","800","1504","images/stimuli/spore_stims/complex_12_A_b.gif","images/stimuli/spore_stims/complex_12_B_b.gif","","","","","11","complex_similar","images/stimuli/spore_stims/complex_12_B_b.gif","middle","","","","",""
"","null","html-keyboard-response","220","705699","0.0-41.0-0.7","SS1613098632464","","","null","","","","","<p><img src= images/blank.png width =""200"" height = ""200"" style = ""float:right""></p><p><img src=images/blank.png width =""800"" height = ""200""></p>","","","","","","","","","","","",""
"","467","sequential-stimulus-presentation","221","706986","0.0-41.0-1.7","SS1613098632464","trial","","40","800","1267","images/stimuli/spore_stims/complex_12_A_b.gif","images/stimuli/spore_stims/complex_12_B_b.gif","","","","","11","complex_similar","images/stimuli/spore_stims/complex_12_B_b.gif","middle","","","","",""
"","1721","html-keyboard-response","222","708714","0.0-42.0","SS1613098632464","pref_question","","51","","","","","<video width ='960' height = '540' style='padding-top:8%' autoplay muted><source src='images/stimuli/wall_pref.mp4' type='video/mp4'></video>","3","right","66%","11","","","","","","","",""
"","2063","sequential-stimulus-presentation","223","711593","0.0-43.0","SS1613098632464","pref_reveal","","40","800","2863","null","null","","","","","11","","","","deviant","","","",""
"","null","html-keyboard-response","224","712534","0.0-44.0-0.0","SS1613098632464","","","null","","","","","<p><img src= images/blank.png width =""200"" height = ""200"" style = ""float:right""></p><p><img src=images/blank.png width =""800"" height = ""200""></p>","","","","","","","","","","","",""
"","932","sequential-stimulus-presentation","225","714281","0.0-44.0-1.0","SS1613098632464","trial","","40","800","1732","images/stimuli/spore_stims/simple_07_A_b.gif","images/stimuli/spore_stims/simple_08_A_a.gif","","","","","12","simple_dissimilar","images/stimuli/spore_stims/simple_08_A_a.gif","left","","","","",""
"","null","html-keyboard-response","226","715253","0.0-44.0-0.1","SS1613098632464","","","null","","","","","<p><img src= images/blank.png width =""200"" height = ""200"" style = ""float:right""></p><p><img src=images/blank.png width =""800"" height = ""200""></p>","","","","","","","","","","","",""
"","577","sequential-stimulus-presentation","227","716642","0.0-44.0-1.1","SS1613098632464","trial","","40","800","1377","images/stimuli/spore_stims/simple_07_A_b.gif","images/stimuli/spore_stims/simple_08_A_a.gif","","","","","12","simple_dissimilar","images/stimuli/spore_stims/simple_08_A_a.gif","left","","","","",""
"","null","html-keyboard-response","228","717701","0.0-44.0-0.2","SS1613098632464","","","null","","","","","<p><img src= images/blank.png width =""200"" height = ""200"" style = ""float:right""></p><p><img src=images/blank.png width =""800"" height = ""200""></p>","","","","","","","","","","","",""
"","739","sequential-stimulus-presentation","229","719250","0.0-44.0-1.2","SS1613098632464","trial","","40","800","1539","images/stimuli/spore_stims/simple_07_A_b.gif","images/stimuli/spore_stims/simple_08_A_a.gif","","","","","12","simple_dissimilar","images/stimuli/spore_stims/simple_08_A_a.gif","left","","","","",""
"","null","html-keyboard-response","230","720087","0.0-44.0-0.3","SS1613098632464","","","null","","","","","<p><img src= images/blank.png width =""200"" height = ""200"" style = ""float:right""></p><p><img src=images/blank.png width =""800"" height = ""200""></p>","","","","","","","","","","","",""
"","1078","sequential-stimulus-presentation","231","721977","0.0-44.0-1.3","SS1613098632464","trial","","40","800","1878","images/stimuli/spore_stims/simple_07_A_b.gif","images/stimuli/spore_stims/simple_08_A_a.gif","","","","","12","simple_dissimilar","images/stimuli/spore_stims/simple_08_A_a.gif","left","","","","",""
"","null","html-keyboard-response","232","722812","0.0-44.0-0.4","SS1613098632464","","","null","","","","","<p><img src= images/blank.png width =""200"" height = ""200"" style = ""float:right""></p><p><img src=images/blank.png width =""800"" height = ""200""></p>","","","","","","","","","","","",""
"","603","sequential-stimulus-presentation","233","724234","0.0-44.0-1.4","SS1613098632464","trial","","40","800","1403","images/stimuli/spore_stims/simple_07_A_b.gif","images/stimuli/spore_stims/simple_08_A_a.gif","","","","","12","simple_dissimilar","images/stimuli/spore_stims/simple_08_A_a.gif","left","","","","",""
"","null","html-keyboard-response","234","725477","0.0-44.0-0.5","SS1613098632464","","","null","","","","","<p><img src= images/blank.png width =""200"" height = ""200"" style = ""float:right""></p><p><img src=images/blank.png width =""800"" height = ""200""></p>","","","","","","","","","","","",""
"","727","sequential-stimulus-presentation","235","727026","0.0-44.0-1.5","SS1613098632464","trial","","40","800","1527","images/stimuli/spore_stims/simple_07_A_b.gif","images/stimuli/spore_stims/simple_08_A_a.gif","","","","","12","simple_dissimilar","images/stimuli/spore_stims/simple_08_A_a.gif","left","","","","",""
"","null","html-keyboard-response","236","728144","0.0-44.0-0.6","SS1613098632464","","","null","","","","","<p><img src= images/blank.png width =""200"" height = ""200"" style = ""float:right""></p><p><img src=images/blank.png width =""800"" height = ""200""></p>","","","","","","","","","","","",""
"","552","sequential-stimulus-presentation","237","729514","0.0-44.0-1.6","SS1613098632464","trial","","40","800","1352","images/stimuli/spore_stims/simple_07_A_b.gif","images/stimuli/spore_stims/simple_08_A_a.gif","","","","","12","simple_dissimilar","images/stimuli/spore_stims/simple_07_A_b.gif","right","","","","",""
"","null","html-keyboard-response","238","730405","0.0-44.0-0.7","SS1613098632464","","","null","","","","","<p><img src= images/blank.png width =""200"" height = ""200"" style = ""float:right""></p><p><img src=images/blank.png width =""800"" height = ""200""></p>","","","","","","","","","","","",""
"","1772","sequential-stimulus-presentation","239","732995","0.0-44.0-1.7","SS1613098632464","trial","","40","800","2572","images/stimuli/spore_stims/simple_07_A_b.gif","images/stimuli/spore_stims/simple_08_A_a.gif","","","","","12","simple_dissimilar","images/stimuli/spore_stims/simple_08_A_a.gif","left","","","","",""
"","1928","html-keyboard-response","240","734930","0.0-45.0","SS1613098632464","pref_question","","50","","","","","<video width ='960' height = '540' style='padding-top:8%' autoplay muted><source src='images/stimuli/wall_pref.mp4' type='video/mp4'></video>","2","middle","45%","12","","","","","","","",""
"","1846","sequential-stimulus-presentation","241","737594","0.0-46.0","SS1613098632464","pref_reveal","","40","800","2646","null","null","","","","","12","","","","novel","","","",""
"","null","html-keyboard-response","242","738553","0.0-47.0-0.0","SS1613098632464","","","null","","","","","<p><img src= images/blank.png width =""200"" height = ""200"" style = ""float:right""></p><p><img src=images/blank.png width =""800"" height = ""200""></p>","","","","","","","","","","","",""
"","1884","sequential-stimulus-presentation","243","741250","0.0-47.0-1.0","SS1613098632464","trial","","40","800","2684","images/stimuli/spore_stims/complex_20_A_a.gif","images/stimuli/spore_stims/complex_20_B_a.gif","","","","","13","complex_similar","images/stimuli/spore_stims/complex_20_B_a.gif","middle","","","","",""
"","null","html-keyboard-response","244","742420","0.0-47.0-0.1","SS1613098632464","","","null","","","","","<p><img src= images/blank.png width =""200"" height = ""200"" style = ""float:right""></p><p><img src=images/blank.png width =""800"" height = ""200""></p>","","","","","","","","","","","",""
"","436","sequential-stimulus-presentation","245","743673","0.0-47.0-1.1","SS1613098632464","trial","","40","800","1236","images/stimuli/spore_stims/complex_20_A_a.gif","images/stimuli/spore_stims/complex_20_B_a.gif","","","","","13","complex_similar","images/stimuli/spore_stims/complex_20_B_a.gif","middle","","","","",""
"","null","html-keyboard-response","246","744943","0.0-47.0-0.2","SS1613098632464","","","null","","","","","<p><img src= images/blank.png width =""200"" height = ""200"" style = ""float:right""></p><p><img src=images/blank.png width =""800"" height = ""200""></p>","","","","","","","","","","","",""
"","402","sequential-stimulus-presentation","247","746154","0.0-47.0-1.2","SS1613098632464","trial","","40","800","1202","images/stimuli/spore_stims/complex_20_A_a.gif","images/stimuli/spore_stims/complex_20_B_a.gif","","","","","13","complex_similar","images/stimuli/spore_stims/complex_20_A_a.gif","left","","","","",""
"","null","html-keyboard-response","248","747420","0.0-47.0-0.3","SS1613098632464","","","null","","","","","<p><img src= images/blank.png width =""200"" height = ""200"" style = ""float:right""></p><p><img src=images/blank.png width =""800"" height = ""200""></p>","","","","","","","","","","","",""
"","2389","sequential-stimulus-presentation","249","750618","0.0-47.0-1.3","SS1613098632464","trial","","40","800","3189","images/stimuli/spore_stims/complex_20_A_a.gif","images/stimuli/spore_stims/complex_20_B_a.gif","","","","","13","complex_similar","images/stimuli/spore_stims/complex_20_B_a.gif","middle","","","","",""
"","null","html-keyboard-response","250","751641","0.0-47.0-0.4","SS1613098632464","","","null","","","","","<p><img src= images/blank.png width =""200"" height = ""200"" style = ""float:right""></p><p><img src=images/blank.png width =""800"" height = ""200""></p>","","","","","","","","","","","",""
"","910","sequential-stimulus-presentation","251","753370","0.0-47.0-1.4","SS1613098632464","trial","","40","800","1710","images/stimuli/spore_stims/complex_20_A_a.gif","images/stimuli/spore_stims/complex_20_B_a.gif","","","","","13","complex_similar","images/stimuli/spore_stims/complex_20_B_a.gif","middle","","","","",""
"","null","html-keyboard-response","252","754407","0.0-47.0-0.5","SS1613098632464","","","null","","","","","<p><img src= images/blank.png width =""200"" height = ""200"" style = ""float:right""></p><p><img src=images/blank.png width =""800"" height = ""200""></p>","","","","","","","","","","","",""
"","343","sequential-stimulus-presentation","253","755570","0.0-47.0-1.5","SS1613098632464","trial","","40","800","1143","images/stimuli/spore_stims/complex_20_A_a.gif","images/stimuli/spore_stims/complex_20_B_a.gif","","","","","13","complex_similar","images/stimuli/spore_stims/complex_20_B_a.gif","middle","","","","",""
"","null","html-keyboard-response","254","756854","0.0-47.0-0.6","SS1613098632464","","","null","","","","","<p><img src= images/blank.png width =""200"" height = ""200"" style = ""float:right""></p><p><img src=images/blank.png width =""800"" height = ""200""></p>","","","","","","","","","","","",""
"","905","sequential-stimulus-presentation","255","758578","0.0-47.0-1.6","SS1613098632464","trial","","40","800","1705","images/stimuli/spore_stims/complex_20_A_a.gif","images/stimuli/spore_stims/complex_20_B_a.gif","","","","","13","complex_similar","images/stimuli/spore_stims/complex_20_B_a.gif","middle","","","","",""
"","null","html-keyboard-response","256","759881","0.0-47.0-0.7","SS1613098632464","","","null","","","","","<p><img src= images/blank.png width =""200"" height = ""200"" style = ""float:right""></p><p><img src=images/blank.png width =""800"" height = ""200""></p>","","","","","","","","","","","",""
"","404","sequential-stimulus-presentation","257","761099","0.0-47.0-1.7","SS1613098632464","trial","","40","800","1204","images/stimuli/spore_stims/complex_20_A_a.gif","images/stimuli/spore_stims/complex_20_B_a.gif","","","","","13","complex_similar","images/stimuli/spore_stims/complex_20_B_a.gif","middle","","","","",""
"","1743","html-keyboard-response","258","762849","0.0-48.0","SS1613098632464","pref_question","","51","","","","","<video width ='960' height = '540' style='padding-top:8%' autoplay muted><source src='images/stimuli/wall_pref.mp4' type='video/mp4'></video>","3","right","66%","13","","","","","","","",""
"","849","sequential-stimulus-presentation","259","764506","0.0-49.0","SS1613098632464","pref_reveal","","40","800","1649","null","null","","","","","13","","","","novel","","","",""
"","null","html-keyboard-response","260","765685","0.0-50.0-0.0","SS1613098632464","","","null","","","","","<p><img src= images/blank.png width =""200"" height = ""200"" style = ""float:right""></p><p><img src=images/blank.png width =""800"" height = ""200""></p>","","","","","","","","","","","",""
"","301","sequential-stimulus-presentation","261","766801","0.0-50.0-1.0","SS1613098632464","trial","","40","800","1101","images/stimuli/spore_stims/complex_19_A_d.gif","images/stimuli/spore_stims/complex_19_B_d.gif","","","","","14","complex_similar","images/stimuli/spore_stims/complex_19_B_d.gif","middle","","","","",""
"","null","html-keyboard-response","262","768060","0.0-50.0-0.1","SS1613098632464","","","null","","","","","<p><img src= images/blank.png width =""200"" height = ""200"" style = ""float:right""></p><p><img src=images/blank.png width =""800"" height = ""200""></p>","","","","","","","","","","","",""
"","395","sequential-stimulus-presentation","263","769274","0.0-50.0-1.1","SS1613098632464","trial","","40","800","1195","images/stimuli/spore_stims/complex_19_A_d.gif","images/stimuli/spore_stims/complex_19_B_d.gif","","","","","14","complex_similar","images/stimuli/spore_stims/complex_19_B_d.gif","middle","","","","",""
"","null","html-keyboard-response","264","770216","0.0-50.0-0.2","SS1613098632464","","","null","","","","","<p><img src= images/blank.png width =""200"" height = ""200"" style = ""float:right""></p><p><img src=images/blank.png width =""800"" height = ""200""></p>","","","","","","","","","","","",""
"","453","sequential-stimulus-presentation","265","771490","0.0-50.0-1.2","SS1613098632464","trial","","40","800","1253","images/stimuli/spore_stims/complex_19_A_d.gif","images/stimuli/spore_stims/complex_19_B_d.gif","","","","","14","complex_similar","images/stimuli/spore_stims/complex_19_B_d.gif","middle","","","","",""
"","null","html-keyboard-response","266","772579","0.0-50.0-0.3","SS1613098632464","","","null","","","","","<p><img src= images/blank.png width =""200"" height = ""200"" style = ""float:right""></p><p><img src=images/blank.png width =""800"" height = ""200""></p>","","","","","","","","","","","",""
"","632","sequential-stimulus-presentation","267","774026","0.0-50.0-1.3","SS1613098632464","trial","","40","800","1432","images/stimuli/spore_stims/complex_19_A_d.gif","images/stimuli/spore_stims/complex_19_B_d.gif","","","","","14","complex_similar","images/stimuli/spore_stims/complex_19_B_d.gif","middle","","","","",""
"","null","html-keyboard-response","268","775242","0.0-50.0-0.4","SS1613098632464","","","null","","","","","<p><img src= images/blank.png width =""200"" height = ""200"" style = ""float:right""></p><p><img src=images/blank.png width =""800"" height = ""200""></p>","","","","","","","","","","","",""
"","427","sequential-stimulus-presentation","269","776482","0.0-50.0-1.4","SS1613098632464","trial","","40","800","1227","images/stimuli/spore_stims/complex_19_A_d.gif","images/stimuli/spore_stims/complex_19_B_d.gif","","","","","14","complex_similar","images/stimuli/spore_stims/complex_19_B_d.gif","middle","","","","",""
"","null","html-keyboard-response","270","777668","0.0-50.0-0.5","SS1613098632464","","","null","","","","","<p><img src= images/blank.png width =""200"" height = ""200"" style = ""float:right""></p><p><img src=images/blank.png width =""800"" height = ""200""></p>","","","","","","","","","","","",""
"","3880","sequential-stimulus-presentation","271","782362","0.0-50.0-1.5","SS1613098632464","trial","","40","800","4680","images/stimuli/spore_stims/complex_19_A_d.gif","images/stimuli/spore_stims/complex_19_B_d.gif","","","","","14","complex_similar","images/stimuli/spore_stims/complex_19_A_d.gif","left","","","","",""
"","null","html-keyboard-response","272","783635","0.0-50.0-0.6","SS1613098632464","","","null","","","","","<p><img src= images/blank.png width =""200"" height = ""200"" style = ""float:right""></p><p><img src=images/blank.png width =""800"" height = ""200""></p>","","","","","","","","","","","",""
"","434","sequential-stimulus-presentation","273","784881","0.0-50.0-1.6","SS1613098632464","trial","","40","800","1234","images/stimuli/spore_stims/complex_19_A_d.gif","images/stimuli/spore_stims/complex_19_B_d.gif","","","","","14","complex_similar","images/stimuli/spore_stims/complex_19_B_d.gif","middle","","","","",""
"","null","html-keyboard-response","274","786092","0.0-50.0-0.7","SS1613098632464","","","null","","","","","<p><img src= images/blank.png width =""200"" height = ""200"" style = ""float:right""></p><p><img src=images/blank.png width =""800"" height = ""200""></p>","","","","","","","","","","","",""
"","1496","sequential-stimulus-presentation","275","788402","0.0-50.0-1.7","SS1613098632464","trial","","40","800","2296","images/stimuli/spore_stims/complex_19_A_d.gif","images/stimuli/spore_stims/complex_19_B_d.gif","","","","","14","complex_similar","images/stimuli/spore_stims/complex_19_B_d.gif","middle","","","","",""
"","2107","html-keyboard-response","276","790514","0.0-51.0","SS1613098632464","pref_question","","49","","","","","<video width ='960' height = '540' style='padding-top:8%' autoplay muted><source src='images/stimuli/wall_pref.mp4' type='video/mp4'></video>","1","left","25%","14","","","","","","","",""
"","527","sequential-stimulus-presentation","277","791850","0.0-52.0","SS1613098632464","pref_reveal","","40","800","1327","null","null","","","","","14","","","","deviant","","","",""
"","null","html-keyboard-response","278","793012","0.0-53.0-0.0","SS1613098632464","","","null","","","","","<p><img src= images/blank.png width =""200"" height = ""200"" style = ""float:right""></p><p><img src=images/blank.png width =""800"" height = ""200""></p>","","","","","","","","","","","",""
"","294","sequential-stimulus-presentation","279","794113","0.0-53.0-1.0","SS1613098632464","trial","","40","800","1094","images/stimuli/spore_stims/simple_14_A_c.gif","images/stimuli/spore_stims/simple_09_A_c.gif","","","","","15","simple_dissimilar","images/stimuli/spore_stims/simple_09_A_c.gif","left","","","","",""
"","null","html-keyboard-response","280","795297","0.0-53.0-0.1","SS1613098632464","","","null","","","","","<p><img src= images/blank.png width =""200"" height = ""200"" style = ""float:right""></p><p><img src=images/blank.png width =""800"" height = ""200""></p>","","","","","","","","","","","",""
"","291","sequential-stimulus-presentation","281","796402","0.0-53.0-1.1","SS1613098632464","trial","","40","800","1091","images/stimuli/spore_stims/simple_14_A_c.gif","images/stimuli/spore_stims/simple_09_A_c.gif","","","","","15","simple_dissimilar","images/stimuli/spore_stims/simple_09_A_c.gif","left","","","","",""
"","null","html-keyboard-response","282","797396","0.0-53.0-0.2","SS1613098632464","","","null","","","","","<p><img src= images/blank.png width =""200"" height = ""200"" style = ""float:right""></p><p><img src=images/blank.png width =""800"" height = ""200""></p>","","","","","","","","","","","",""
"","462","sequential-stimulus-presentation","283","798674","0.0-53.0-1.2","SS1613098632464","trial","","40","800","1262","images/stimuli/spore_stims/simple_14_A_c.gif","images/stimuli/spore_stims/simple_09_A_c.gif","","","","","15","simple_dissimilar","images/stimuli/spore_stims/simple_09_A_c.gif","left","","","","",""
"","null","html-keyboard-response","284","799557","0.0-53.0-0.3","SS1613098632464","","","null","","","","","<p><img src= images/blank.png width =""200"" height = ""200"" style = ""float:right""></p><p><img src=images/blank.png width =""800"" height = ""200""></p>","","","","","","","","","","","",""
"","404","sequential-stimulus-presentation","285","800778","0.0-53.0-1.3","SS1613098632464","trial","","40","800","1204","images/stimuli/spore_stims/simple_14_A_c.gif","images/stimuli/spore_stims/simple_09_A_c.gif","","","","","15","simple_dissimilar","images/stimuli/spore_stims/simple_14_A_c.gif","middle","","","","",""
"","null","html-keyboard-response","286","801714","0.0-53.0-0.4","SS1613098632464","","","null","","","","","<p><img src= images/blank.png width =""200"" height = ""200"" style = ""float:right""></p><p><img src=images/blank.png width =""800"" height = ""200""></p>","","","","","","","","","","","",""
"","2898","sequential-stimulus-presentation","287","805426","0.0-53.0-1.4","SS1613098632464","trial","","40","800","3698","images/stimuli/spore_stims/simple_14_A_c.gif","images/stimuli/spore_stims/simple_09_A_c.gif","","","","","15","simple_dissimilar","images/stimuli/spore_stims/simple_09_A_c.gif","left","","","","",""
"","null","html-keyboard-response","288","806469","0.0-53.0-0.5","SS1613098632464","","","null","","","","","<p><img src= images/blank.png width =""200"" height = ""200"" style = ""float:right""></p><p><img src=images/blank.png width =""800"" height = ""200""></p>","","","","","","","","","","","",""
"","457","sequential-stimulus-presentation","289","807746","0.0-53.0-1.5","SS1613098632464","trial","","40","800","1257","images/stimuli/spore_stims/simple_14_A_c.gif","images/stimuli/spore_stims/simple_09_A_c.gif","","","","","15","simple_dissimilar","images/stimuli/spore_stims/simple_09_A_c.gif","left","","","","",""
"","null","html-keyboard-response","290","809010","0.0-53.0-0.6","SS1613098632464","","","null","","","","","<p><img src= images/blank.png width =""200"" height = ""200"" style = ""float:right""></p><p><img src=images/blank.png width =""800"" height = ""200""></p>","","","","","","","","","","","",""
"","495","sequential-stimulus-presentation","291","810314","0.0-53.0-1.6","SS1613098632464","trial","","40","800","1295","images/stimuli/spore_stims/simple_14_A_c.gif","images/stimuli/spore_stims/simple_09_A_c.gif","","","","","15","simple_dissimilar","images/stimuli/spore_stims/simple_09_A_c.gif","left","","","","",""
"","null","html-keyboard-response","292","811383","0.0-53.0-0.7","SS1613098632464","","","null","","","","","<p><img src= images/blank.png width =""200"" height = ""200"" style = ""float:right""></p><p><img src=images/blank.png width =""800"" height = ""200""></p>","","","","","","","","","","","",""
"","391","sequential-stimulus-presentation","293","812586","0.0-53.0-1.7","SS1613098632464","trial","","40","800","1191","images/stimuli/spore_stims/simple_14_A_c.gif","images/stimuli/spore_stims/simple_09_A_c.gif","","","","","15","simple_dissimilar","images/stimuli/spore_stims/simple_09_A_c.gif","left","","","","",""
"","1969","html-keyboard-response","294","814562","0.0-54.0","SS1613098632464","pref_question","","50","","","","","<video width ='960' height = '540' style='padding-top:8%' autoplay muted><source src='images/stimuli/wall_pref.mp4' type='video/mp4'></video>","2","middle","45%","15","","","","","","","",""
"","388","sequential-stimulus-presentation","295","815761","0.0-55.0","SS1613098632464","pref_reveal","","40","800","1188","null","null","","","","","15","","","","deviant","","","",""
"","null","html-keyboard-response","296","816647","0.0-56.0-0.0","SS1613098632464","","","null","","","","","<p><img src= images/blank.png width =""200"" height = ""200"" style = ""float:right""></p><p><img src=images/blank.png width =""800"" height = ""200""></p>","","","","","","","","","","","",""
"","424","sequential-stimulus-presentation","297","817881","0.0-56.0-1.0","SS1613098632464","trial","","40","800","1224","images/stimuli/spore_stims/simple_15_A_d.gif","images/stimuli/spore_stims/simple_04_A_b.gif","","","","","16","simple_dissimilar","images/stimuli/spore_stims/simple_04_A_b.gif","right","","","","",""
"","null","html-keyboard-response","298","818805","0.0-56.0-0.1","SS1613098632464","","","null","","","","","<p><img src= images/blank.png width =""200"" height = ""200"" style = ""float:right""></p><p><img src=images/blank.png width =""800"" height = ""200""></p>","","","","","","","","","","","",""
"","42800","sequential-stimulus-presentation","299","862418","0.0-56.0-1.1","SS1613098632464","trial","","40","800","43600","images/stimuli/spore_stims/simple_15_A_d.gif","images/stimuli/spore_stims/simple_04_A_b.gif","","","","","16","simple_dissimilar","images/stimuli/spore_stims/simple_04_A_b.gif","right","","","","",""
"","null","html-keyboard-response","300","863575","0.0-56.0-0.2","SS1613098632464","","","null","","","","","<p><img src= images/blank.png width =""200"" height = ""200"" style = ""float:right""></p><p><img src=images/blank.png width =""800"" height = ""200""></p>","","","","","","","","","","","",""
"","577","sequential-stimulus-presentation","301","864963","0.0-56.0-1.2","SS1613098632464","trial","","40","800","1377","images/stimuli/spore_stims/simple_15_A_d.gif","images/stimuli/spore_stims/simple_04_A_b.gif","","","","","16","simple_dissimilar","images/stimuli/spore_stims/simple_04_A_b.gif","right","","","","",""
"","null","html-keyboard-response","302","866274","0.0-56.0-0.3","SS1613098632464","","","null","","","","","<p><img src= images/blank.png width =""200"" height = ""200"" style = ""float:right""></p><p><img src=images/blank.png width =""800"" height = ""200""></p>","","","","","","","","","","","",""
"","342","sequential-stimulus-presentation","303","867425","0.0-56.0-1.3","SS1613098632464","trial","","40","800","1142","images/stimuli/spore_stims/simple_15_A_d.gif","images/stimuli/spore_stims/simple_04_A_b.gif","","","","","16","simple_dissimilar","images/stimuli/spore_stims/simple_04_A_b.gif","right","","","","",""
"","null","html-keyboard-response","304","868625","0.0-56.0-0.4","SS1613098632464","","","null","","","","","<p><img src= images/blank.png width =""200"" height = ""200"" style = ""float:right""></p><p><img src=images/blank.png width =""800"" height = ""200""></p>","","","","","","","","","","","",""
"","319","sequential-stimulus-presentation","305","869762","0.0-56.0-1.4","SS1613098632464","trial","","40","800","1119","images/stimuli/spore_stims/simple_15_A_d.gif","images/stimuli/spore_stims/simple_04_A_b.gif","","","","","16","simple_dissimilar","images/stimuli/spore_stims/simple_04_A_b.gif","right","","","","",""
"","null","html-keyboard-response","306","870911","0.0-56.0-0.5","SS1613098632464","","","null","","","","","<p><img src= images/blank.png width =""200"" height = ""200"" style = ""float:right""></p><p><img src=images/blank.png width =""800"" height = ""200""></p>","","","","","","","","","","","",""
"","364","sequential-stimulus-presentation","307","872081","0.0-56.0-1.5","SS1613098632464","trial","","40","800","1164","images/stimuli/spore_stims/simple_15_A_d.gif","images/stimuli/spore_stims/simple_04_A_b.gif","","","","","16","simple_dissimilar","images/stimuli/spore_stims/simple_04_A_b.gif","right","","","","",""
"","null","html-keyboard-response","308","873290","0.0-56.0-0.6","SS1613098632464","","","null","","","","","<p><img src= images/blank.png width =""200"" height = ""200"" style = ""float:right""></p><p><img src=images/blank.png width =""800"" height = ""200""></p>","","","","","","","","","","","",""
"","277","sequential-stimulus-presentation","309","874378","0.0-56.0-1.6","SS1613098632464","trial","","40","800","1077","images/stimuli/spore_stims/simple_15_A_d.gif","images/stimuli/spore_stims/simple_04_A_b.gif","","","","","16","simple_dissimilar","images/stimuli/spore_stims/simple_04_A_b.gif","right","","","","",""
"","null","html-keyboard-response","310","875406","0.0-56.0-0.7","SS1613098632464","","","null","","","","","<p><img src= images/blank.png width =""200"" height = ""200"" style = ""float:right""></p><p><img src=images/blank.png width =""800"" height = ""200""></p>","","","","","","","","","","","",""
"","379","sequential-stimulus-presentation","311","876602","0.0-56.0-1.7","SS1613098632464","trial","","40","800","1179","images/stimuli/spore_stims/simple_15_A_d.gif","images/stimuli/spore_stims/simple_04_A_b.gif","","","","","16","simple_dissimilar","images/stimuli/spore_stims/simple_15_A_d.gif","left","","","","",""
"","2370","html-keyboard-response","312","878978","0.0-57.0","SS1613098632464","pref_question","","51","","","","","<video width ='960' height = '540' style='padding-top:8%' autoplay muted><source src='images/stimuli/wall_pref.mp4' type='video/mp4'></video>","3","right","66%","16","","","","","","","",""
"","332","sequential-stimulus-presentation","313","880130","0.0-58.0","SS1613098632464","pref_reveal","","40","800","1132","null","null","","","","","16","","","","background","","","",""
"","null","html-keyboard-response","314","881326","0.0-59.0-0.0","SS1613098632464","","","null","","","","","<p><img src= images/blank.png width =""200"" height = ""200"" style = ""float:right""></p><p><img src=images/blank.png width =""800"" height = ""200""></p>","","","","","","","","","","","",""
"","61","sequential-stimulus-presentation","315","882202","0.0-59.0-1.0","SS1613098632464","trial","","40","800","861","images/stimuli/spore_stims/complex_06_B_a.gif","images/stimuli/spore_stims/complex_13_B_c.gif","","","","","17","complex_dissimilar","images/stimuli/spore_stims/complex_13_B_c.gif","right","","","","",""
"","null","html-keyboard-response","316","883425","0.0-59.0-0.1","SS1613098632464","","","null","","","","","<p><img src= images/blank.png width =""200"" height = ""200"" style = ""float:right""></p><p><img src=images/blank.png width =""800"" height = ""200""></p>","","","","","","","","","","","",""
"","401","sequential-stimulus-presentation","317","884634","0.0-59.0-1.1","SS1613098632464","trial","","40","800","1201","images/stimuli/spore_stims/complex_06_B_a.gif","images/stimuli/spore_stims/complex_13_B_c.gif","","","","","17","complex_dissimilar","images/stimuli/spore_stims/complex_13_B_c.gif","right","","","","",""
"","null","html-keyboard-response","318","885688","0.0-59.0-0.2","SS1613098632464","","","null","","","","","<p><img src= images/blank.png width =""200"" height = ""200"" style = ""float:right""></p><p><img src=images/blank.png width =""800"" height = ""200""></p>","","","","","","","","","","","",""
"","1694","sequential-stimulus-presentation","319","888202","0.0-59.0-1.2","SS1613098632464","trial","","40","800","2494","images/stimuli/spore_stims/complex_06_B_a.gif","images/stimuli/spore_stims/complex_13_B_c.gif","","","","","17","complex_dissimilar","images/stimuli/spore_stims/complex_13_B_c.gif","right","","","","",""
"","null","html-keyboard-response","320","889093","0.0-59.0-0.3","SS1613098632464","","","null","","","","","<p><img src= images/blank.png width =""200"" height = ""200"" style = ""float:right""></p><p><img src=images/blank.png width =""800"" height = ""200""></p>","","","","","","","","","","","",""
"","264","sequential-stimulus-presentation","321","890170","0.0-59.0-1.3","SS1613098632464","trial","","40","800","1064","images/stimuli/spore_stims/complex_06_B_a.gif","images/stimuli/spore_stims/complex_13_B_c.gif","","","","","17","complex_dissimilar","images/stimuli/spore_stims/complex_13_B_c.gif","right","","","","",""
"","null","html-keyboard-response","322","891301","0.0-59.0-0.4","SS1613098632464","","","null","","","","","<p><img src= images/blank.png width =""200"" height = ""200"" style = ""float:right""></p><p><img src=images/blank.png width =""800"" height = ""200""></p>","","","","","","","","","","","",""
"","322","sequential-stimulus-presentation","323","892442","0.0-59.0-1.4","SS1613098632464","trial","","40","800","1122","images/stimuli/spore_stims/complex_06_B_a.gif","images/stimuli/spore_stims/complex_13_B_c.gif","","","","","17","complex_dissimilar","images/stimuli/spore_stims/complex_13_B_c.gif","right","","","","",""
"","null","html-keyboard-response","324","893397","0.0-59.0-0.5","SS1613098632464","","","null","","","","","<p><img src= images/blank.png width =""200"" height = ""200"" style = ""float:right""></p><p><img src=images/blank.png width =""800"" height = ""200""></p>","","","","","","","","","","","",""
"","268","sequential-stimulus-presentation","325","894482","0.0-59.0-1.5","SS1613098632464","trial","","40","800","1068","images/stimuli/spore_stims/complex_06_B_a.gif","images/stimuli/spore_stims/complex_13_B_c.gif","","","","","17","complex_dissimilar","images/stimuli/spore_stims/complex_06_B_a.gif","middle","","","","",""
"","null","html-keyboard-response","326","895672","0.0-59.0-0.6","SS1613098632464","","","null","","","","","<p><img src= images/blank.png width =""200"" height = ""200"" style = ""float:right""></p><p><img src=images/blank.png width =""800"" height = ""200""></p>","","","","","","","","","","","",""
"","199","sequential-stimulus-presentation","327","896682","0.0-59.0-1.6","SS1613098632464","trial","","40","800","999","images/stimuli/spore_stims/complex_06_B_a.gif","images/stimuli/spore_stims/complex_13_B_c.gif","","","","","17","complex_dissimilar","images/stimuli/spore_stims/complex_13_B_c.gif","right","","","","",""
