"view_history","rt","trial_type","trial_index","time_elapsed","internal_node_id","subject","stimulus_type","trial_stimulus","key_press","minimum_viewing_duration","trial_looking_time","block_deviant","block_background","stimulus","wall_pref","location","location_percent","block_number","block_type","stimulus_displayed","position_displayed","stim_type_selected","responses","question_order","stimulus_left","stimulus_right"
"[{""page_index"":0,""viewing_time"":4426.949999993667}]","4428.094999981113","instructions","0","4431","0.0-0.0","SS1613098591974","","","","","","","","","","","","","","","","","","","",""
"[{""page_index"":0,""viewing_time"":5470.310000004247},{""page_index"":1,""viewing_time"":8391.6999999783}]","13862.554999999702","instructions","1","20320","0.0-1.0","SS1613098591974","instructions","","","","","","","","","","","","","","","","","","",""
"","11748.220000008587","sequential-stimulus-presentation","2","32888","0.0-2.0","SS1613098591974","","","40","800","12548.220000008587","null","null","","","","","","","","","","","","",""
"","4116.509999992559","sequential-stimulus-presentation","3","37813","0.0-3.0","SS1613098591974","","","40","800","4916.509999992559","null","null","","","","","","","","","","","","",""
"[{""page_index"":0,""viewing_time"":6049.739999987651}]","6050.284999975702","instructions","4","43865","0.0-4.0","SS1613098591974","instructions","","","","","","","","","","","","","","","","","","",""
"","11131.179999996675","html-keyboard-response","5","55001","0.0-5.0","SS1613098591974","instructions","","49","","","","","<video width ='960' height = '540' autoplay muted><source src='images/stimuli/wall_pref.mp4' type='video/mp4'></video>","1","left","25%","","","","","","","","",""
"","4571.34500000393","sequential-stimulus-presentation","6","60385","0.0-6.0","SS1613098591974","pref_reveal","","40","800","5371.34500000393","null","null","","","","","","","","","","","","",""
"[{""page_index"":0,""viewing_time"":9116.655000019819},{""page_index"":1,""viewing_time"":7479.924999992363},{""page_index"":2,""viewing_time"":4472.455000010086},{""page_index"":3,""viewing_time"":1751.4849999861326}]","22821.035000000848","instructions","7","83206","0.0-7.0","SS1613098591974","instructions","","","","","","","","","","","","","","","","","","",""
"","null","html-keyboard-response","8","84212","0.0-8.0-0.0","SS1613098591974","","","null","","","","","<p><img src= images/blank.png width =""200"" height = ""200"" style = ""float:right""></p><p><img src=images/blank.png width =""800"" height = ""200""></p>","","","","","","","","","","","",""
"","2384.4950000056997","sequential-stimulus-presentation","9","87406","0.0-8.0-1.0","SS1613098591974","trial","","40","800","3184.4950000056997","images/stimuli/spore_stims/complex_03_A_c.gif","images/stimuli/spore_stims/complex_15_A_c.gif","","","","","0","complex_dissimilar","images/stimuli/spore_stims/complex_15_A_c.gif","middle","","","","",""
"","null","html-keyboard-response","10","88216","0.0-8.0-0.1","SS1613098591974","","","null","","","","","<p><img src= images/blank.png width =""200"" height = ""200"" style = ""float:right""></p><p><img src=images/blank.png width =""800"" height = ""200""></p>","","","","","","","","","","","",""
"","773.589999997057","sequential-stimulus-presentation","11","89801","0.0-8.0-1.1","SS1613098591974","trial","","40","800","1573.589999997057","images/stimuli/spore_stims/complex_03_A_c.gif","images/stimuli/spore_stims/complex_15_A_c.gif","","","","","0","complex_dissimilar","images/stimuli/spore_stims/complex_15_A_c.gif","middle","","","","",""
"","null","html-keyboard-response","12","90712","0.0-8.0-0.2","SS1613098591974","","","null","","","","","<p><img src= images/blank.png width =""200"" height = ""200"" style = ""float:right""></p><p><img src=images/blank.png width =""800"" height = ""200""></p>","","","","","","","","","","","",""
"","2866.6399999929126","sequential-stimulus-presentation","13","94397","0.0-8.0-1.2","SS1613098591974","trial","","40","800","3666.6399999929126","images/stimuli/spore_stims/complex_03_A_c.gif","images/stimuli/spore_stims/complex_15_A_c.gif","","","","","0","complex_dissimilar","images/stimuli/spore_stims/complex_15_A_c.gif","middle","","","","",""
"","null","html-keyboard-response","14","95378","0.0-8.0-0.3","SS1613098591974","","","null","","","","","<p><img src= images/blank.png width =""200"" height = ""200"" style = ""float:right""></p><p><img src=images/blank.png width =""800"" height = ""200""></p>","","","","","","","","","","","",""
"","1765.2449999877717","sequential-stimulus-presentation","15","97955","0.0-8.0-1.3","SS1613098591974","trial","","40","800","2565.2449999877717","images/stimuli/spore_stims/complex_03_A_c.gif","images/stimuli/spore_stims/complex_15_A_c.gif","","","","","0","complex_dissimilar","images/stimuli/spore_stims/complex_15_A_c.gif","middle","","","","",""
"","null","html-keyboard-response","16","98856","0.0-8.0-0.4","SS1613098591974","","","null","","","","","<p><img src= images/blank.png width =""200"" height = ""200"" style = ""float:right""></p><p><img src=images/blank.png width =""800"" height = ""200""></p>","","","","","","","","","","","",""
"","105.85500000161119","sequential-stimulus-presentation","17","99772","0.0-8.0-1.4","SS1613098591974","trial","","40","800","905.8550000016112","images/stimuli/spore_stims/complex_03_A_c.gif","images/stimuli/spore_stims/complex_15_A_c.gif","","","","","0","complex_dissimilar","images/stimuli/spore_stims/complex_15_A_c.gif","middle","","","","",""
"","null","html-keyboard-response","18","100670","0.0-8.0-0.5","SS1613098591974","","","null","","","","","<p><img src= images/blank.png width =""200"" height = ""200"" style = ""float:right""></p><p><img src=images/blank.png width =""800"" height = ""200""></p>","","","","","","","","","","","",""
"","3894.830000004731","sequential-stimulus-presentation","19","105373","0.0-8.0-1.5","SS1613098591974","trial","","40","800","4694.830000004731","images/stimuli/spore_stims/complex_03_A_c.gif","images/stimuli/spore_stims/complex_15_A_c.gif","","","","","0","complex_dissimilar","images/stimuli/spore_stims/complex_03_A_c.gif","left","","","","",""
"","null","html-keyboard-response","20","106255","0.0-8.0-0.6","SS1613098591974","","","null","","","","","<p><img src= images/blank.png width =""200"" height = ""200"" style = ""float:right""></p><p><img src=images/blank.png width =""800"" height = ""200""></p>","","","","","","","","","","","",""
"","163.31000000354834","sequential-stimulus-presentation","21","107229","0.0-8.0-1.6","SS1613098591974","trial","","40","800","963.3100000035483","images/stimuli/spore_stims/complex_03_A_c.gif","images/stimuli/spore_stims/complex_15_A_c.gif","","","","","0","complex_dissimilar","images/stimuli/spore_stims/complex_15_A_c.gif","middle","","","","",""
"","null","html-keyboard-response","22","108116","0.0-8.0-0.7","SS1613098591974","","","null","","","","","<p><img src= images/blank.png width =""200"" height = ""200"" style = ""float:right""></p><p><img src=images/blank.png width =""800"" height = ""200""></p>","","","","","","","","","","","",""
"","491.4250000147149","sequential-stimulus-presentation","23","109430","0.0-8.0-1.7","SS1613098591974","trial","","40","800","1291.425000014715","images/stimuli/spore_stims/complex_03_A_c.gif","images/stimuli/spore_stims/complex_15_A_c.gif","","","","","0","complex_dissimilar","images/stimuli/spore_stims/complex_15_A_c.gif","middle","","","","",""
"","7593.724999984261","html-keyboard-response","24","117029","0.0-9.0","SS1613098591974","pref_question","","50","","","","","<video width ='960' height = '540' style='padding-top:8%' autoplay muted><source src='images/stimuli/wall_pref.mp4' type='video/mp4'></video>","2","middle","45%","0","","","","","","","",""
"","2138.1950000068173","sequential-stimulus-presentation","25","119982","0.0-10.0","SS1613098591974","pref_reveal","","40","800","2938.1950000068173","null","null","","","","","0","","","","background","","","",""
"","null","html-keyboard-response","26","121118","0.0-11.0-0.0","SS1613098591974","","","null","","","","","<p><img src= images/blank.png width =""200"" height = ""200"" style = ""float:right""></p><p><img src=images/blank.png width =""800"" height = ""200""></p>","","","","","","","","","","","",""
"","2012.8050000057556","sequential-stimulus-presentation","27","123937","0.0-11.0-1.0","SS1613098591974","trial","","40","800","2812.8050000057556","images/stimuli/spore_stims/simple_12_B_c.gif","images/stimuli/spore_stims/simple_17_A_d.gif","","","","","1","simple_dissimilar","images/stimuli/spore_stims/simple_17_A_d.gif","left","","","","",""
"","null","html-keyboard-response","28","125110","0.0-11.0-0.1","SS1613098591974","","","null","","","","","<p><img src= images/blank.png width =""200"" height = ""200"" style = ""float:right""></p><p><img src=images/blank.png width =""800"" height = ""200""></p>","","","","","","","","","","","",""
"","765.8200000005309","sequential-stimulus-presentation","29","126693","0.0-11.0-1.1","SS1613098591974","trial","","40","800","1565.8200000005309","images/stimuli/spore_stims/simple_12_B_c.gif","images/stimuli/spore_stims/simple_17_A_d.gif","","","","","1","simple_dissimilar","images/stimuli/spore_stims/simple_17_A_d.gif","left","","","","",""
"","null","html-keyboard-response","30","127936","0.0-11.0-0.2","SS1613098591974","","","null","","","","","<p><img src= images/blank.png width =""200"" height = ""200"" style = ""float:right""></p><p><img src=images/blank.png width =""800"" height = ""200""></p>","","","","","","","","","","","",""
"","1206.6500000073574","sequential-stimulus-presentation","31","129951","0.0-11.0-1.2","SS1613098591974","trial","","40","800","2006.6500000073574","images/stimuli/spore_stims/simple_12_B_c.gif","images/stimuli/spore_stims/simple_17_A_d.gif","","","","","1","simple_dissimilar","images/stimuli/spore_stims/simple_17_A_d.gif","left","","","","",""
"","null","html-keyboard-response","32","130950","0.0-11.0-0.3","SS1613098591974","","","null","","","","","<p><img src= images/blank.png width =""200"" height = ""200"" style = ""float:right""></p><p><img src=images/blank.png width =""800"" height = ""200""></p>","","","","","","","","","","","",""
"","8882.834999996703","sequential-stimulus-presentation","33","140647","0.0-11.0-1.3","SS1613098591974","trial","","40","800","9682.834999996703","images/stimuli/spore_stims/simple_12_B_c.gif","images/stimuli/spore_stims/simple_17_A_d.gif","","","","","1","simple_dissimilar","images/stimuli/spore_stims/simple_17_A_d.gif","left","","","","",""
"","null","html-keyboard-response","34","141717","0.0-11.0-0.4","SS1613098591974","","","null","","","","","<p><img src= images/blank.png width =""200"" height = ""200"" style = ""float:right""></p><p><img src=images/blank.png width =""800"" height = ""200""></p>","","","","","","","","","","","",""
"","862.9599999985658","sequential-stimulus-presentation","35","143395","0.0-11.0-1.4","SS1613098591974","trial","","40","800","1662.9599999985658","images/stimuli/spore_stims/simple_12_B_c.gif","images/stimuli/spore_stims/simple_17_A_d.gif","","","","","1","simple_dissimilar","images/stimuli/spore_stims/simple_12_B_c.gif","middle","","","","",""
"","null","html-keyboard-response","36","144385","0.0-11.0-0.5","SS1613098591974","","","null","","","","","<p><img src= images/blank.png width =""200"" height = ""200"" style = ""float:right""></p><p><img src=images/blank.png width =""800"" height = ""200""></p>","","","","","","","","","","","",""
"","562.2499999881256","sequential-stimulus-presentation","37","145758","0.0-11.0-1.5","SS1613098591974","trial","","40","800","1362.2499999881256","images/stimuli/spore_stims/simple_12_B_c.gif","images/stimuli/spore_stims/simple_17_A_d.gif","","","","","1","simple_dissimilar","images/stimuli/spore_stims/simple_17_A_d.gif","left","","","","",""
"","null","html-keyboard-response","38","146706","0.0-11.0-0.6","SS1613098591974","","","null","","","","","<p><img src= images/blank.png width =""200"" height = ""200"" style = ""float:right""></p><p><img src=images/blank.png width =""800"" height = ""200""></p>","","","","","","","","","","","",""
"","554.7349999833386","sequential-stimulus-presentation","39","148081","0.0-11.0-1.6","SS1613098591974","trial","","40","800","1354.7349999833386","images/stimuli/spore_stims/simple_12_B_c.gif","images/stimuli/spore_stims/simple_17_A_d.gif","","","","","1","simple_dissimilar","images/stimuli/spore_stims/simple_17_A_d.gif","left","","","","",""
"","null","html-keyboard-response","40","149164","0.0-11.0-0.7","SS1613098591974","","","null","","","","","<p><img src= images/blank.png width =""200"" height = ""200"" style = ""float:right""></p><p><img src=images/blank.png width =""800"" height = ""200""></p>","","","","","","","","","","","",""
"","3552.750000002561","sequential-stimulus-presentation","41","153529","0.0-11.0-1.7","SS1613098591974","trial","","40","800","4352.750000002561","images/stimuli/spore_stims/simple_12_B_c.gif","images/stimuli/spore_stims/simple_17_A_d.gif","","","","","1","simple_dissimilar","images/stimuli/spore_stims/simple_17_A_d.gif","left","","","","",""
"","2315.9250000026077","html-keyboard-response","42","155855","0.0-12.0","SS1613098591974","pref_question","","49","","","","","<video width ='960' height = '540' style='padding-top:8%' autoplay muted><source src='images/stimuli/wall_pref.mp4' type='video/mp4'></video>","1","left","25%","1","","","","","","","",""
"","3079.5949999883305","sequential-stimulus-presentation","43","159742","0.0-13.0","SS1613098591974","pref_reveal","","40","800","3879.5949999883305","null","null","","","","","1","","","","background","","","",""
"","null","html-keyboard-response","44","160998","0.0-14.0-0.0","SS1613098591974","","","null","","","","","<p><img src= images/blank.png width =""200"" height = ""200"" style = ""float:right""></p><p><img src=images/blank.png width =""800"" height = ""200""></p>","","","","","","","","","","","",""
"","413.7150000024121","sequential-stimulus-presentation","45","162224","0.0-14.0-1.0","SS1613098591974","trial","","40","800","1213.7150000024121","images/stimuli/spore_stims/simple_19_B_b.gif","images/stimuli/spore_stims/simple_06_B_d.gif","","","","","2","simple_dissimilar","images/stimuli/spore_stims/simple_06_B_d.gif","left","","","","",""
"","null","html-keyboard-response","46","163474","0.0-14.0-0.1","SS1613098591974","","","null","","","","","<p><img src= images/blank.png width =""200"" height = ""200"" style = ""float:right""></p><p><img src=images/blank.png width =""800"" height = ""200""></p>","","","","","","","","","","","",""
"","334.8149999801535","sequential-stimulus-presentation","47","164619","0.0-14.0-1.1","SS1613098591974","trial","","40","800","1134.8149999801535","images/stimuli/spore_stims/simple_19_B_b.gif","images/stimuli/spore_stims/simple_06_B_d.gif","","","","","2","simple_dissimilar","images/stimuli/spore_stims/simple_06_B_d.gif","left","","","","",""
"","null","html-keyboard-response","48","165524","0.0-14.0-0.2","SS1613098591974","","","null","","","","","<p><img src= images/blank.png width =""200"" height = ""200"" style = ""float:right""></p><p><img src=images/blank.png width =""800"" height = ""200""></p>","","","","","","","","","","","",""
"","1121.8750000116415","sequential-stimulus-presentation","49","167455","0.0-14.0-1.2","SS1613098591974","trial","","40","800","1921.8750000116415","images/stimuli/spore_stims/simple_19_B_b.gif","images/stimuli/spore_stims/simple_06_B_d.gif","","","","","2","simple_dissimilar","images/stimuli/spore_stims/simple_06_B_d.gif","left","","","","",""
"","null","html-keyboard-response","50","168285","0.0-14.0-0.3","SS1613098591974","","","null","","","","","<p><img src= images/blank.png width =""200"" height = ""200"" style = ""float:right""></p><p><img src=images/blank.png width =""800"" height = ""200""></p>","","","","","","","","","","","",""
"","1072.085000021616","sequential-stimulus-presentation","51","170174","0.0-14.0-1.3","SS1613098591974","trial","","40","800","1872.085000021616","images/stimuli/spore_stims/simple_19_B_b.gif","images/stimuli/spore_stims/simple_06_B_d.gif","","","","","2","simple_dissimilar","images/stimuli/spore_stims/simple_06_B_d.gif","left","","","","",""
"","null","html-keyboard-response","52","171004","0.0-14.0-0.4","SS1613098591974","","","null","","","","","<p><img src= images/blank.png width =""200"" height = ""200"" style = ""float:right""></p><p><img src=images/blank.png width =""800"" height = ""200""></p>","","","","","","","","","","","",""
"","761.8749999965075","sequential-stimulus-presentation","53","172582","0.0-14.0-1.4","SS1613098591974","trial","","40","800","1561.8749999965075","images/stimuli/spore_stims/simple_19_B_b.gif","images/stimuli/spore_stims/simple_06_B_d.gif","","","","","2","simple_dissimilar","images/stimuli/spore_stims/simple_19_B_b.gif","right","","","","",""
"","null","html-keyboard-response","54","173583","0.0-14.0-0.5","SS1613098591974","","","null","","","","","<p><img src= images/blank.png width =""200"" height = ""200"" style = ""float:right""></p><p><img src=images/blank.png width =""800"" height = ""200""></p>","","","","","","","","","","","",""
"","972.9299999889918","sequential-stimulus-presentation","55","175392","0.0-14.0-1.5","SS1613098591974","trial","","40","800","1772.9299999889918","images/stimuli/spore_stims/simple_19_B_b.gif","images/stimuli/spore_stims/simple_06_B_d.gif","","","","","2","simple_dissimilar","images/stimuli/spore_stims/simple_06_B_d.gif","left","","","","",""
"","null","html-keyboard-response","56","176576","0.0-14.0-0.6","SS1613098591974","","","null","","","","","<p><img src= images/blank.png width =""200"" height = ""200"" style = ""float:right""></p><p><img src=images/blank.png width =""800"" height = ""200""></p>","","","","","","","","","","","",""
"","367.4649999884423","sequential-stimulus-presentation","57","177752","0.0-14.0-1.6","SS1613098591974","trial","","40","800","1167.4649999884423","images/stimuli/spore_stims/simple_19_B_b.gif","images/stimuli/spore_stims/simple_06_B_d.gif","","","","","2","simple_dissimilar","images/stimuli/spore_stims/simple_06_B_d.gif","left","","","","",""
"","null","html-keyboard-response","58","178881","0.0-14.0-0.7","SS1613098591974","","","null","","","","","<p><img src= images/blank.png width =""200"" height = ""200"" style = ""float:right""></p><p><img src=images/blank.png width =""800"" height = ""200""></p>","","","","","","","","","","","",""
"","596.9400000176392","sequential-stimulus-presentation","59","180286","0.0-14.0-1.7","SS1613098591974","trial","","40","800","1396.9400000176392","images/stimuli/spore_stims/simple_19_B_b.gif","images/stimuli/spore_stims/simple_06_B_d.gif","","","","","2","simple_dissimilar","images/stimuli/spore_stims/simple_06_B_d.gif","left","","","","",""
"","5483.334999997169","html-keyboard-response","60","185777","0.0-15.0","SS1613098591974","pref_question","","49","","","","","<video width ='960' height = '540' style='padding-top:8%' autoplay muted><source src='images/stimuli/wall_pref.mp4' type='video/mp4'></video>","1","left","25%","2","","","","","","","",""
"","4047.5900000019465","sequential-stimulus-presentation","61","190635","0.0-16.0","SS1613098591974","pref_reveal","","40","800","4847.5900000019465","null","null","","","","","2","","","","background","","","",""
"","null","html-keyboard-response","62","191581","0.0-17.0-0.0","SS1613098591974","","","null","","","","","<p><img src= images/blank.png width =""200"" height = ""200"" style = ""float:right""></p><p><img src=images/blank.png width =""800"" height = ""200""></p>","","","","","","","","","","","",""
"","740.3049999848008","sequential-stimulus-presentation","63","193130","0.0-17.0-1.0","SS1613098591974","trial","","40","800","1540.3049999848008","images/stimuli/spore_stims/complex_02_B_c.gif","images/stimuli/spore_stims/complex_14_A_b.gif","","","","","3","complex_dissimilar","images/stimuli/spore_stims/complex_14_A_b.gif","left","","","","",""
"","null","html-keyboard-response","64","194344","0.0-17.0-0.1","SS1613098591974","","","null","","","","","<p><img src= images/blank.png width =""200"" height = ""200"" style = ""float:right""></p><p><img src=images/blank.png width =""800"" height = ""200""></p>","","","","","","","","","","","",""
"","381.5300000132993","sequential-stimulus-presentation","65","195538","0.0-17.0-1.1","SS1613098591974","trial","","40","800","1181.5300000132993","images/stimuli/spore_stims/complex_02_B_c.gif","images/stimuli/spore_stims/complex_14_A_b.gif","","","","","3","complex_dissimilar","images/stimuli/spore_stims/complex_14_A_b.gif","left","","","","",""
"","null","html-keyboard-response","66","196777","0.0-17.0-0.2","SS1613098591974","","","null","","","","","<p><img src= images/blank.png width =""200"" height = ""200"" style = ""float:right""></p><p><img src=images/blank.png width =""800"" height = ""200""></p>","","","","","","","","","","","",""
"","383.37000002502464","sequential-stimulus-presentation","67","197971","0.0-17.0-1.2","SS1613098591974","trial","","40","800","1183.3700000250246","images/stimuli/spore_stims/complex_02_B_c.gif","images/stimuli/spore_stims/complex_14_A_b.gif","","","","","3","complex_dissimilar","images/stimuli/spore_stims/complex_14_A_b.gif","left","","","","",""
"","null","html-keyboard-response","68","199143","0.0-17.0-0.3","SS1613098591974","","","null","","","","","<p><img src= images/blank.png width =""200"" height = ""200"" style = ""float:right""></p><p><img src=images/blank.png width =""800"" height = ""200""></p>","","","","","","","","","","","",""
"","438.3899999957066","sequential-stimulus-presentation","69","200396","0.0-17.0-1.3","SS1613098591974","trial","","40","800","1238.3899999957066","images/stimuli/spore_stims/complex_02_B_c.gif","images/stimuli/spore_stims/complex_14_A_b.gif","","","","","3","complex_dissimilar","images/stimuli/spore_stims/complex_14_A_b.gif","left","","","","",""
"","null","html-keyboard-response","70","201365","0.0-17.0-0.4","SS1613098591974","","","null","","","","","<p><img src= images/blank.png width =""200"" height = ""200"" style = ""float:right""></p><p><img src=images/blank.png width =""800"" height = ""200""></p>","","","","","","","","","","","",""
"","682.3199999926146","sequential-stimulus-presentation","71","202867","0.0-17.0-1.4","SS1613098591974","trial","","40","800","1482.3199999926146","images/stimuli/spore_stims/complex_02_B_c.gif","images/stimuli/spore_stims/complex_14_A_b.gif","","","","","3","complex_dissimilar","images/stimuli/spore_stims/complex_14_A_b.gif","left","","","","",""
"","null","html-keyboard-response","72","203754","0.0-17.0-0.5","SS1613098591974","","","null","","","","","<p><img src= images/blank.png width =""200"" height = ""200"" style = ""float:right""></p><p><img src=images/blank.png width =""800"" height = ""200""></p>","","","","","","","","","","","",""
"","613.2799999904819","sequential-stimulus-presentation","73","205176","0.0-17.0-1.5","SS1613098591974","trial","","40","800","1413.2799999904819","images/stimuli/spore_stims/complex_02_B_c.gif","images/stimuli/spore_stims/complex_14_A_b.gif","","","","","3","complex_dissimilar","images/stimuli/spore_stims/complex_14_A_b.gif","left","","","","",""
"","null","html-keyboard-response","74","206366","0.0-17.0-0.6","SS1613098591974","","","null","","","","","<p><img src= images/blank.png width =""200"" height = ""200"" style = ""float:right""></p><p><img src=images/blank.png width =""800"" height = ""200""></p>","","","","","","","","","","","",""
"","388.0699999863282","sequential-stimulus-presentation","75","207564","0.0-17.0-1.6","SS1613098591974","trial","","40","800","1188.0699999863282","images/stimuli/spore_stims/complex_02_B_c.gif","images/stimuli/spore_stims/complex_14_A_b.gif","","","","","3","complex_dissimilar","images/stimuli/spore_stims/complex_14_A_b.gif","left","","","","",""
"","null","html-keyboard-response","76","208627","0.0-17.0-0.7","SS1613098591974","","","null","","","","","<p><img src= images/blank.png width =""200"" height = ""200"" style = ""float:right""></p><p><img src=images/blank.png width =""800"" height = ""200""></p>","","","","","","","","","","","",""
"","380.9400000027381","sequential-stimulus-presentation","77","209826","0.0-17.0-1.7","SS1613098591974","trial","","40","800","1180.940000002738","images/stimuli/spore_stims/complex_02_B_c.gif","images/stimuli/spore_stims/complex_14_A_b.gif","","","","","3","complex_dissimilar","images/stimuli/spore_stims/complex_02_B_c.gif","middle","","","","",""
"","1717.3600000096485","html-keyboard-response","78","211551","0.0-18.0","SS1613098591974","pref_question","","50","","","","","<video width ='960' height = '540' style='padding-top:8%' autoplay muted><source src='images/stimuli/wall_pref.mp4' type='video/mp4'></video>","2","middle","45%","3","","","","","","","",""
"","1319.0900000045076","sequential-stimulus-presentation","79","213701","0.0-19.0","SS1613098591974","pref_reveal","","40","800","2119.0900000045076","null","null","","","","","3","","","","deviant","","","",""
"","null","html-keyboard-response","80","214896","0.0-20.0-0.0","SS1613098591974","","","null","","","","","<p><img src= images/blank.png width =""200"" height = ""200"" style = ""float:right""></p><p><img src=images/blank.png width =""800"" height = ""200""></p>","","","","","","","","","","","",""
"","777.7800000039861","sequential-stimulus-presentation","81","216498","0.0-20.0-1.0","SS1613098591974","trial","","40","800","1577.780000003986","images/stimuli/spore_stims/complex_13_A_b.gif","images/stimuli/spore_stims/complex_13_B_b.gif","","","","","4","complex_similar","images/stimuli/spore_stims/complex_13_B_b.gif","left","","","","",""
"","null","html-keyboard-response","82","217560","0.0-20.0-0.1","SS1613098591974","","","null","","","","","<p><img src= images/blank.png width =""200"" height = ""200"" style = ""float:right""></p><p><img src=images/blank.png width =""800"" height = ""200""></p>","","","","","","","","","","","",""
"","555.0550000043586","sequential-stimulus-presentation","83","218924","0.0-20.0-1.1","SS1613098591974","trial","","40","800","1355.0550000043586","images/stimuli/spore_stims/complex_13_A_b.gif","images/stimuli/spore_stims/complex_13_B_b.gif","","","","","4","complex_similar","images/stimuli/spore_stims/complex_13_B_b.gif","left","","","","",""
"","null","html-keyboard-response","84","220156","0.0-20.0-0.2","SS1613098591974","","","null","","","","","<p><img src= images/blank.png width =""200"" height = ""200"" style = ""float:right""></p><p><img src=images/blank.png width =""800"" height = ""200""></p>","","","","","","","","","","","",""
"","67.1100000035949","sequential-stimulus-presentation","85","221037","0.0-20.0-1.2","SS1613098591974","trial","","40","800","867.1100000035949","images/stimuli/spore_stims/complex_13_A_b.gif","images/stimuli/spore_stims/complex_13_B_b.gif","","","","","4","complex_similar","images/stimuli/spore_stims/complex_13_A_b.gif","middle","","","","",""
"","null","html-keyboard-response","86","222058","0.0-20.0-0.3","SS1613098591974","","","null","","","","","<p><img src= images/blank.png width =""200"" height = ""200"" style = ""float:right""></p><p><img src=images/blank.png width =""800"" height = ""200""></p>","","","","","","","","","","","",""
"","2451.3549999974202","sequential-stimulus-presentation","87","225325","0.0-20.0-1.3","SS1613098591974","trial","","40","800","3251.3549999974202","images/stimuli/spore_stims/complex_13_A_b.gif","images/stimuli/spore_stims/complex_13_B_b.gif","","","","","4","complex_similar","images/stimuli/spore_stims/complex_13_B_b.gif","left","","","","",""
"","null","html-keyboard-response","88","226195","0.0-20.0-0.4","SS1613098591974","","","null","","","","","<p><img src= images/blank.png width =""200"" height = ""200"" style = ""float:right""></p><p><img src=images/blank.png width =""800"" height = ""200""></p>","","","","","","","","","","","",""
"","3998.9849999838043","sequential-stimulus-presentation","89","231005","0.0-20.0-1.4","SS1613098591974","trial","","40","800","4798.984999983804","images/stimuli/spore_stims/complex_13_A_b.gif","images/stimuli/spore_stims/complex_13_B_b.gif","","","","","4","complex_similar","images/stimuli/spore_stims/complex_13_B_b.gif","left","","","","",""
"","null","html-keyboard-response","90","232031","0.0-20.0-0.5","SS1613098591974","","","null","","","","","<p><img src= images/blank.png width =""200"" height = ""200"" style = ""float:right""></p><p><img src=images/blank.png width =""800"" height = ""200""></p>","","","","","","","","","","","",""
"","375.6649999995716","sequential-stimulus-presentation","91","233224","0.0-20.0-1.5","SS1613098591974","trial","","40","800","1175.6649999995716","images/stimuli/spore_stims/complex_13_A_b.gif","images/stimuli/spore_stims/complex_13_B_b.gif","","","","","4","complex_similar","images/stimuli/spore_stims/complex_13_B_b.gif","left","","","","",""
"","null","html-keyboard-response","92","234141","0.0-20.0-0.6","SS1613098591974","","","null","","","","","<p><img src= images/blank.png width =""200"" height = ""200"" style = ""float:right""></p><p><img src=images/blank.png width =""800"" height = ""200""></p>","","","","","","","","","","","",""
"","1487.3599999991711","sequential-stimulus-presentation","93","236438","0.0-20.0-1.6","SS1613098591974","trial","","40","800","2287.359999999171","images/stimuli/spore_stims/complex_13_A_b.gif","images/stimuli/spore_stims/complex_13_B_b.gif","","","","","4","complex_similar","images/stimuli/spore_stims/complex_13_B_b.gif","left","","","","",""
"","null","html-keyboard-response","94","237412","0.0-20.0-0.7","SS1613098591974","","","null","","","","","<p><img src= images/blank.png width =""200"" height = ""200"" style = ""float:right""></p><p><img src=images/blank.png width =""800"" height = ""200""></p>","","","","","","","","","","","",""
"","360.36500000045635","sequential-stimulus-presentation","95","238585","0.0-20.0-1.7","SS1613098591974","trial","","40","800","1160.3650000004563","images/stimuli/spore_stims/complex_13_A_b.gif","images/stimuli/spore_stims/complex_13_B_b.gif","","","","","4","complex_similar","images/stimuli/spore_stims/complex_13_B_b.gif","left","","","","",""
"","51348.76500000246","html-keyboard-response","96","289943","0.0-21.0","SS1613098591974","pref_question","","49","","","","","<video width ='960' height = '540' style='padding-top:8%' autoplay muted><source src='images/stimuli/wall_pref.mp4' type='video/mp4'></video>","1","left","25%","4","","","","","","","",""
"","1589.1650000121444","sequential-stimulus-presentation","97","292344","0.0-22.0","SS1613098591974","pref_reveal","","40","800","2389.1650000121444","null","null","","","","","4","","","","background","","","",""
"","null","html-keyboard-response","98","293218","0.0-23.0-0.0","SS1613098591974","","","null","","","","","<p><img src= images/blank.png width =""200"" height = ""200"" style = ""float:right""></p><p><img src=images/blank.png width =""800"" height = ""200""></p>","","","","","","","","","","","",""
"","1456.2849999929313","sequential-stimulus-presentation","99","295486","0.0-23.0-1.0","SS1613098591974","trial","","40","800","2256.2849999929313","images/stimuli/spore_stims/complex_12_B_c.gif","images/stimuli/spore_stims/complex_12_A_c.gif","","","","","5","complex_similar","images/stimuli/spore_stims/complex_12_A_c.gif","right","","","","",""
"","null","html-keyboard-response","100","296351","0.0-23.0-0.1","SS1613098591974","","","null","","","","","<p><img src= images/blank.png width =""200"" height = ""200"" style = ""float:right""></p><p><img src=images/blank.png width =""800"" height = ""200""></p>","","","","","","","","","","","",""
"","650.3500000108033","sequential-stimulus-presentation","101","297817","0.0-23.0-1.1","SS1613098591974","trial","","40","800","1450.3500000108033","images/stimuli/spore_stims/complex_12_B_c.gif","images/stimuli/spore_stims/complex_12_A_c.gif","","","","","5","complex_similar","images/stimuli/spore_stims/complex_12_A_c.gif","right","","","","",""
"","null","html-keyboard-response","102","298717","0.0-23.0-0.2","SS1613098591974","","","null","","","","","<p><img src= images/blank.png width =""200"" height = ""200"" style = ""float:right""></p><p><img src=images/blank.png width =""800"" height = ""200""></p>","","","","","","","","","","","",""
"","441.129999991972","sequential-stimulus-presentation","103","299972","0.0-23.0-1.2","SS1613098591974","trial","","40","800","1241.129999991972","images/stimuli/spore_stims/complex_12_B_c.gif","images/stimuli/spore_stims/complex_12_A_c.gif","","","","","5","complex_similar","images/stimuli/spore_stims/complex_12_A_c.gif","right","","","","",""
"","null","html-keyboard-response","104","301279","0.0-23.0-0.3","SS1613098591974","","","null","","","","","<p><img src= images/blank.png width =""200"" height = ""200"" style = ""float:right""></p><p><img src=images/blank.png width =""800"" height = ""200""></p>","","","","","","","","","","","",""
"","594.4650000019465","sequential-stimulus-presentation","105","302703","0.0-23.0-1.3","SS1613098591974","trial","","40","800","1394.4650000019465","images/stimuli/spore_stims/complex_12_B_c.gif","images/stimuli/spore_stims/complex_12_A_c.gif","","","","","5","complex_similar","images/stimuli/spore_stims/complex_12_B_c.gif","middle","","","","",""
"","null","html-keyboard-response","106","303694","0.0-23.0-0.4","SS1613098591974","","","null","","","","","<p><img src= images/blank.png width =""200"" height = ""200"" style = ""float:right""></p><p><img src=images/blank.png width =""800"" height = ""200""></p>","","","","","","","","","","","",""
"","379.41500000306405","sequential-stimulus-presentation","107","304885","0.0-23.0-1.4","SS1613098591974","trial","","40","800","1179.415000003064","images/stimuli/spore_stims/complex_12_B_c.gif","images/stimuli/spore_stims/complex_12_A_c.gif","","","","","5","complex_similar","images/stimuli/spore_stims/complex_12_A_c.gif","right","","","","",""
"","null","html-keyboard-response","108","306034","0.0-23.0-0.5","SS1613098591974","","","null","","","","","<p><img src= images/blank.png width =""200"" height = ""200"" style = ""float:right""></p><p><img src=images/blank.png width =""800"" height = ""200""></p>","","","","","","","","","","","",""
"","919.6149999916088","sequential-stimulus-presentation","109","307767","0.0-23.0-1.5","SS1613098591974","trial","","40","800","1719.6149999916088","images/stimuli/spore_stims/complex_12_B_c.gif","images/stimuli/spore_stims/complex_12_A_c.gif","","","","","5","complex_similar","images/stimuli/spore_stims/complex_12_A_c.gif","right","","","","",""
"","null","html-keyboard-response","110","308811","0.0-23.0-0.6","SS1613098591974","","","null","","","","","<p><img src= images/blank.png width =""200"" height = ""200"" style = ""float:right""></p><p><img src=images/blank.png width =""800"" height = ""200""></p>","","","","","","","","","","","",""
"","163.62500001559965","sequential-stimulus-presentation","111","309782","0.0-23.0-1.6","SS1613098591974","trial","","40","800","963.6250000155997","images/stimuli/spore_stims/complex_12_B_c.gif","images/stimuli/spore_stims/complex_12_A_c.gif","","","","","5","complex_similar","images/stimuli/spore_stims/complex_12_A_c.gif","right","","","","",""
"","null","html-keyboard-response","112","310639","0.0-23.0-0.7","SS1613098591974","","","null","","","","","<p><img src= images/blank.png width =""200"" height = ""200"" style = ""float:right""></p><p><img src=images/blank.png width =""800"" height = ""200""></p>","","","","","","","","","","","",""
"","386.5200000000186","sequential-stimulus-presentation","113","311835","0.0-23.0-1.7","SS1613098591974","trial","","40","800","1186.5200000000186","images/stimuli/spore_stims/complex_12_B_c.gif","images/stimuli/spore_stims/complex_12_A_c.gif","","","","","5","complex_similar","images/stimuli/spore_stims/complex_12_A_c.gif","right","","","","",""
"","2941.3349999813363","html-keyboard-response","114","314784","0.0-24.0","SS1613098591974","pref_question","","51","","","","","<video width ='960' height = '540' style='padding-top:8%' autoplay muted><source src='images/stimuli/wall_pref.mp4' type='video/mp4'></video>","3","right","66%","5","","","","","","","",""
"","1420.589999994263","sequential-stimulus-presentation","115","317031","0.0-25.0","SS1613098591974","pref_reveal","","40","800","2220.589999994263","null","null","","","","","5","","","","background","","","",""
"","null","html-keyboard-response","116","317885","0.0-26.0-0.0","SS1613098591974","","","null","","","","","<p><img src= images/blank.png width =""200"" height = ""200"" style = ""float:right""></p><p><img src=images/blank.png width =""800"" height = ""200""></p>","","","","","","","","","","","",""
"","445.78000000910833","sequential-stimulus-presentation","117","319141","0.0-26.0-1.0","SS1613098591974","trial","","40","800","1245.7800000091083","images/stimuli/spore_stims/simple_16_A_d.gif","images/stimuli/spore_stims/simple_16_B_d.gif","","","","","6","simple_similar","images/stimuli/spore_stims/simple_16_B_d.gif","right","","","","",""
"","null","html-keyboard-response","118","320252","0.0-26.0-0.1","SS1613098591974","","","null","","","","","<p><img src= images/blank.png width =""200"" height = ""200"" style = ""float:right""></p><p><img src=images/blank.png width =""800"" height = ""200""></p>","","","","","","","","","","","",""
"","56.2449999852106","sequential-stimulus-presentation","119","321121","0.0-26.0-1.1","SS1613098591974","trial","","40","800","856.2449999852106","images/stimuli/spore_stims/simple_16_A_d.gif","images/stimuli/spore_stims/simple_16_B_d.gif","","","","","6","simple_similar","images/stimuli/spore_stims/simple_16_B_d.gif","right","","","","",""
"","null","html-keyboard-response","120","322010","0.0-26.0-0.2","SS1613098591974","","","null","","","","","<p><img src= images/blank.png width =""200"" height = ""200"" style = ""float:right""></p><p><img src=images/blank.png width =""800"" height = ""200""></p>","","","","","","","","","","","",""
"","499.5899999921676","sequential-stimulus-presentation","121","323324","0.0-26.0-1.2","SS1613098591974","trial","","40","800","1299.5899999921676","images/stimuli/spore_stims/simple_16_A_d.gif","images/stimuli/spore_stims/simple_16_B_d.gif","","","","","6","simple_similar","images/stimuli/spore_stims/simple_16_B_d.gif","right","","","","",""
"","null","html-keyboard-response","122","324456","0.0-26.0-0.3","SS1613098591974","","","null","","","","","<p><img src= images/blank.png width =""200"" height = ""200"" style = ""float:right""></p><p><img src=images/blank.png width =""800"" height = ""200""></p>","","","","","","","","","","","",""
"","367.4699999974109","sequential-stimulus-presentation","123","325646","0.0-26.0-1.3","SS1613098591974","trial","","40","800","1167.469999997411","images/stimuli/spore_stims/simple_16_A_d.gif","images/stimuli/spore_stims/simple_16_B_d.gif","","","","","6","simple_similar","images/stimuli/spore_stims/simple_16_B_d.gif","right","","","","",""
"","null","html-keyboard-response","124","326542","0.0-26.0-0.4","SS1613098591974","","","null","","","","","<p><img src= images/blank.png width =""200"" height = ""200"" style = ""float:right""></p><p><img src=images/blank.png width =""800"" height = ""200""></p>","","","","","","","","","","","",""
"","5893.914999993285","sequential-stimulus-presentation","125","333244","0.0-26.0-1.4","SS1613098591974","trial","","40","800","6693.914999993285","images/stimuli/spore_stims/simple_16_A_d.gif","images/stimuli/spore_stims/simple_16_B_d.gif","","","","","6","simple_similar","images/stimuli/spore_stims/simple_16_B_d.gif","right","","","","",""
"","null","html-keyboard-response","126","334144","0.0-26.0-0.5","SS1613098591974","","","null","","","","","<p><img src= images/blank.png width =""200"" height = ""200"" style = ""float:right""></p><p><img src=images/blank.png width =""800"" height = ""200""></p>","","","","","","","","","","","",""
"","625.194999971427","sequential-stimulus-presentation","127","335584","0.0-26.0-1.5","SS1613098591974","trial","","40","800","1425.194999971427","images/stimuli/spore_stims/simple_16_A_d.gif","images/stimuli/spore_stims/simple_16_B_d.gif","","","","","6","simple_similar","images/stimuli/spore_stims/simple_16_A_d.gif","middle","","","","",""
"","null","html-keyboard-response","128","336842","0.0-26.0-0.6","SS1613098591974","","","null","","","","","<p><img src= images/blank.png width =""200"" height = ""200"" style = ""float:right""></p><p><img src=images/blank.png width =""800"" height = ""200""></p>","","","","","","","","","","","",""
"","51.01999998441897","sequential-stimulus-presentation","129","337703","0.0-26.0-1.6","SS1613098591974","trial","","40","800","851.019999984419","images/stimuli/spore_stims/simple_16_A_d.gif","images/stimuli/spore_stims/simple_16_B_d.gif","","","","","6","simple_similar","images/stimuli/spore_stims/simple_16_B_d.gif","right","","","","",""
"","null","html-keyboard-response","130","338853","0.0-26.0-0.7","SS1613098591974","","","null","","","","","<p><img src= images/blank.png width =""200"" height = ""200"" style = ""float:right""></p><p><img src=images/blank.png width =""800"" height = ""200""></p>","","","","","","","","","","","",""
"","282.46499999659136","sequential-stimulus-presentation","131","339949","0.0-26.0-1.7","SS1613098591974","trial","","40","800","1082.4649999965914","images/stimuli/spore_stims/simple_16_A_d.gif","images/stimuli/spore_stims/simple_16_B_d.gif","","","","","6","simple_similar","images/stimuli/spore_stims/simple_16_B_d.gif","right","","","","",""
"","2322.8649999946356","html-keyboard-response","132","342281","0.0-27.0","SS1613098591974","pref_question","","51","","","","","<video width ='960' height = '540' style='padding-top:8%' autoplay muted><source src='images/stimuli/wall_pref.mp4' type='video/mp4'></video>","3","right","66%","6","","","","","","","",""
"","567.9999999993015","sequential-stimulus-presentation","133","343689","0.0-28.0","SS1613098591974","pref_reveal","","40","800","1367.9999999993015","null","null","","","","","6","","","","background","","","",""
"","null","html-keyboard-response","134","344702","0.0-29.0-0.0","SS1613098591974","","","null","","","","","<p><img src= images/blank.png width =""200"" height = ""200"" style = ""float:right""></p><p><img src=images/blank.png width =""800"" height = ""200""></p>","","","","","","","","","","","",""
"","337.31999999145046","sequential-stimulus-presentation","135","345850","0.0-29.0-1.0","SS1613098591974","trial","","40","800","1137.3199999914505","images/stimuli/spore_stims/simple_20_A_b.gif","images/stimuli/spore_stims/simple_20_B_b.gif","","","","","7","simple_similar","images/stimuli/spore_stims/simple_20_B_b.gif","left","","","","",""
"","null","html-keyboard-response","136","347112","0.0-29.0-0.1","SS1613098591974","","","null","","","","","<p><img src= images/blank.png width =""200"" height = ""200"" style = ""float:right""></p><p><img src=images/blank.png width =""800"" height = ""200""></p>","","","","","","","","","","","",""
"","829.3800000101328","sequential-stimulus-presentation","137","348755","0.0-29.0-1.1","SS1613098591974","trial","","40","800","1629.3800000101328","images/stimuli/spore_stims/simple_20_A_b.gif","images/stimuli/spore_stims/simple_20_B_b.gif","","","","","7","simple_similar","images/stimuli/spore_stims/simple_20_B_b.gif","left","","","","",""
"","null","html-keyboard-response","138","349661","0.0-29.0-0.2","SS1613098591974","","","null","","","","","<p><img src= images/blank.png width =""200"" height = ""200"" style = ""float:right""></p><p><img src=images/blank.png width =""800"" height = ""200""></p>","","","","","","","","","","","",""
"","605.4449999937788","sequential-stimulus-presentation","139","351082","0.0-29.0-1.2","SS1613098591974","trial","","40","800","1405.4449999937788","images/stimuli/spore_stims/simple_20_A_b.gif","images/stimuli/spore_stims/simple_20_B_b.gif","","","","","7","simple_similar","images/stimuli/spore_stims/simple_20_B_b.gif","left","","","","",""
"","null","html-keyboard-response","140","352008","0.0-29.0-0.3","SS1613098591974","","","null","","","","","<p><img src= images/blank.png width =""200"" height = ""200"" style = ""float:right""></p><p><img src=images/blank.png width =""800"" height = ""200""></p>","","","","","","","","","","","",""
"","440.71500000427477","sequential-stimulus-presentation","141","353260","0.0-29.0-1.3","SS1613098591974","trial","","40","800","1240.7150000042748","images/stimuli/spore_stims/simple_20_A_b.gif","images/stimuli/spore_stims/simple_20_B_b.gif","","","","","7","simple_similar","images/stimuli/spore_stims/simple_20_B_b.gif","left","","","","",""
"","null","html-keyboard-response","142","354203","0.0-29.0-0.4","SS1613098591974","","","null","","","","","<p><img src= images/blank.png width =""200"" height = ""200"" style = ""float:right""></p><p><img src=images/blank.png width =""800"" height = ""200""></p>","","","","","","","","","","","",""
"","351.62500001024455","sequential-stimulus-presentation","143","355389","0.0-29.0-1.4","SS1613098591974","trial","","40","800","1151.6250000102445","images/stimuli/spore_stims/simple_20_A_b.gif","images/stimuli/spore_stims/simple_20_B_b.gif","","","","","7","simple_similar","images/stimuli/spore_stims/simple_20_B_b.gif","left","","","","",""
"","null","html-keyboard-response","144","356486","0.0-29.0-0.5","SS1613098591974","","","null","","","","","<p><img src= images/blank.png width =""200"" height = ""200"" style = ""float:right""></p><p><img src=images/blank.png width =""800"" height = ""200""></p>","","","","","","","","","","","",""
"","42.170000000623986","sequential-stimulus-presentation","145","357347","0.0-29.0-1.5","SS1613098591974","trial","","40","800","842.170000000624","images/stimuli/spore_stims/simple_20_A_b.gif","images/stimuli/spore_stims/simple_20_B_b.gif","","","","","7","simple_similar","images/stimuli/spore_stims/simple_20_A_b.gif","middle","","","","",""
"","null","html-keyboard-response","146","358589","0.0-29.0-0.6","SS1613098591974","","","null","","","","","<p><img src= images/blank.png width =""200"" height = ""200"" style = ""float:right""></p><p><img src=images/blank.png width =""800"" height = ""200""></p>","","","","","","","","","","","",""
"","329.6099999861326","sequential-stimulus-presentation","147","359731","0.0-29.0-1.6","SS1613098591974","trial","","40","800","1129.6099999861326","images/stimuli/spore_stims/simple_20_A_b.gif","images/stimuli/spore_stims/simple_20_B_b.gif","","","","","7","simple_similar","images/stimuli/spore_stims/simple_20_B_b.gif","left","","","","",""
"","null","html-keyboard-response","148","360600","0.0-29.0-0.7","SS1613098591974","","","null","","","","","<p><img src= images/blank.png width =""200"" height = ""200"" style = ""float:right""></p><p><img src=images/blank.png width =""800"" height = ""200""></p>","","","","","","","","","","","",""
"","125.31999999191612","sequential-stimulus-presentation","149","361535","0.0-29.0-1.7","SS1613098591974","trial","","40","800","925.3199999919161","images/stimuli/spore_stims/simple_20_A_b.gif","images/stimuli/spore_stims/simple_20_B_b.gif","","","","","7","simple_similar","images/stimuli/spore_stims/simple_20_B_b.gif","left","","","","",""
"","3026.6650000121444","html-keyboard-response","150","364570","0.0-30.0","SS1613098591974","pref_question","","49","","","","","<video width ='960' height = '540' style='padding-top:8%' autoplay muted><source src='images/stimuli/wall_pref.mp4' type='video/mp4'></video>","1","left","25%","7","","","","","","","",""
"","612.4549999949522","sequential-stimulus-presentation","151","365995","0.0-31.0","SS1613098591974","pref_reveal","","40","800","1412.4549999949522","null","null","","","","","7","","","","background","","","",""
"","null","html-keyboard-response","152","367166","0.0-32.0-0.0","SS1613098591974","","","null","","","","","<p><img src= images/blank.png width =""200"" height = ""200"" style = ""float:right""></p><p><img src=images/blank.png width =""800"" height = ""200""></p>","","","","","","","","","","","",""
"","149.01500000269152","sequential-stimulus-presentation","153","368132","0.0-32.0-1.0","SS1613098591974","trial","","40","800","949.0150000026915","images/stimuli/spore_stims/complex_05_B_c.gif","images/stimuli/spore_stims/complex_10_A_b.gif","","","","","8","complex_dissimilar","images/stimuli/spore_stims/complex_10_A_b.gif","middle","","","","",""
"","null","html-keyboard-response","154","369159","0.0-32.0-0.1","SS1613098591974","","","null","","","","","<p><img src= images/blank.png width =""200"" height = ""200"" style = ""float:right""></p><p><img src=images/blank.png width =""800"" height = ""200""></p>","","","","","","","","","","","",""
"","2.3099999816622585","sequential-stimulus-presentation","155","369972","0.0-32.0-1.1","SS1613098591974","trial","","40","800","802.3099999816623","images/stimuli/spore_stims/complex_05_B_c.gif","images/stimuli/spore_stims/complex_10_A_b.gif","","","","","8","complex_dissimilar","images/stimuli/spore_stims/complex_10_A_b.gif","middle","","","","",""
"","null","html-keyboard-response","156","371075","0.0-32.0-0.2","SS1613098591974","","","null","","","","","<p><img src= images/blank.png width =""200"" height = ""200"" style = ""float:right""></p><p><img src=images/blank.png width =""800"" height = ""200""></p>","","","","","","","","","","","",""
"","91.65499999653548","sequential-stimulus-presentation","157","371983","0.0-32.0-1.2","SS1613098591974","trial","","40","800","891.6549999965355","images/stimuli/spore_stims/complex_05_B_c.gif","images/stimuli/spore_stims/complex_10_A_b.gif","","","","","8","complex_dissimilar","images/stimuli/spore_stims/complex_10_A_b.gif","middle","","","","",""
"","null","html-keyboard-response","158","373101","0.0-32.0-0.3","SS1613098591974","","","null","","","","","<p><img src= images/blank.png width =""200"" height = ""200"" style = ""float:right""></p><p><img src=images/blank.png width =""800"" height = ""200""></p>","","","","","","","","","","","",""
"","675.4149999760557","sequential-stimulus-presentation","159","374595","0.0-32.0-1.3","SS1613098591974","trial","","40","800","1475.4149999760557","images/stimuli/spore_stims/complex_05_B_c.gif","images/stimuli/spore_stims/complex_10_A_b.gif","","","","","8","complex_dissimilar","images/stimuli/spore_stims/complex_05_B_c.gif","left","","","","",""
"","null","html-keyboard-response","160","375915","0.0-32.0-0.4","SS1613098591974","","","null","","","","","<p><img src= images/blank.png width =""200"" height = ""200"" style = ""float:right""></p><p><img src=images/blank.png width =""800"" height = ""200""></p>","","","","","","","","","","","",""
"","279.31000001262873","sequential-stimulus-presentation","161","377010","0.0-32.0-1.4","SS1613098591974","trial","","40","800","1079.3100000126287","images/stimuli/spore_stims/complex_05_B_c.gif","images/stimuli/spore_stims/complex_10_A_b.gif","","","","","8","complex_dissimilar","images/stimuli/spore_stims/complex_10_A_b.gif","middle","","","","",""
"","null","html-keyboard-response","162","378015","0.0-32.0-0.5","SS1613098591974","","","null","","","","","<p><img src= images/blank.png width =""200"" height = ""200"" style = ""float:right""></p><p><img src=images/blank.png width =""800"" height = ""200""></p>","","","","","","","","","","","",""
"","316.900000005262","sequential-stimulus-presentation","163","379147","0.0-32.0-1.5","SS1613098591974","trial","","40","800","1116.900000005262","images/stimuli/spore_stims/complex_05_B_c.gif","images/stimuli/spore_stims/complex_10_A_b.gif","","","","","8","complex_dissimilar","images/stimuli/spore_stims/complex_10_A_b.gif","middle","","","","",""
"","null","html-keyboard-response","164","380084","0.0-32.0-0.6","SS1613098591974","","","null","","","","","<p><img src= images/blank.png width =""200"" height = ""200"" style = ""float:right""></p><p><img src=images/blank.png width =""800"" height = ""200""></p>","","","","","","","","","","","",""
"","203.11499998206273","sequential-stimulus-presentation","165","381103","0.0-32.0-1.6","SS1613098591974","trial","","40","800","1003.1149999820627","images/stimuli/spore_stims/complex_05_B_c.gif","images/stimuli/spore_stims/complex_10_A_b.gif","","","","","8","complex_dissimilar","images/stimuli/spore_stims/complex_10_A_b.gif","middle","","","","",""
"","null","html-keyboard-response","166","382026","0.0-32.0-0.7","SS1613098591974","","","null","","","","","<p><img src= images/blank.png width =""200"" height = ""200"" style = ""float:right""></p><p><img src=images/blank.png width =""800"" height = ""200""></p>","","","","","","","","","","","",""
"","310.34500000532717","sequential-stimulus-presentation","167","383168","0.0-32.0-1.7","SS1613098591974","trial","","40","800","1110.3450000053272","images/stimuli/spore_stims/complex_05_B_c.gif","images/stimuli/spore_stims/complex_10_A_b.gif","","","","","8","complex_dissimilar","images/stimuli/spore_stims/complex_10_A_b.gif","middle","","","","",""
"","1744.0649999771267","html-keyboard-response","168","384927","0.0-33.0","SS1613098591974","pref_question","","50","","","","","<video width ='960' height = '540' style='padding-top:8%' autoplay muted><source src='images/stimuli/wall_pref.mp4' type='video/mp4'></video>","2","middle","45%","8","","","","","","","",""
"","2394.1500000073574","sequential-stimulus-presentation","169","388137","0.0-34.0","SS1613098591974","pref_reveal","","40","800","3194.1500000073574","null","null","","","","","8","","","","background","","","",""
"","null","html-keyboard-response","170","389090","0.0-35.0-0.0","SS1613098591974","","","null","","","","","<p><img src= images/blank.png width =""200"" height = ""200"" style = ""float:right""></p><p><img src=images/blank.png width =""800"" height = ""200""></p>","","","","","","","","","","","",""
"","164.19999999925494","sequential-stimulus-presentation","171","390082","0.0-35.0-1.0","SS1613098591974","trial","","40","800","964.1999999992549","images/stimuli/spore_stims/complex_16_B_c.gif","images/stimuli/spore_stims/complex_16_A_c.gif","","","","","9","complex_similar","images/stimuli/spore_stims/complex_16_A_c.gif","right","","","","",""
"","null","html-keyboard-response","172","391253","0.0-35.0-0.1","SS1613098591974","","","null","","","","","<p><img src= images/blank.png width =""200"" height = ""200"" style = ""float:right""></p><p><img src=images/blank.png width =""800"" height = ""200""></p>","","","","","","","","","","","",""
"","8.564999996451661","sequential-stimulus-presentation","173","392094","0.0-35.0-1.1","SS1613098591974","trial","","40","800","808.5649999964517","images/stimuli/spore_stims/complex_16_B_c.gif","images/stimuli/spore_stims/complex_16_A_c.gif","","","","","9","complex_similar","images/stimuli/spore_stims/complex_16_A_c.gif","right","","","","",""
"","null","html-keyboard-response","174","393181","0.0-35.0-0.2","SS1613098591974","","","null","","","","","<p><img src= images/blank.png width =""200"" height = ""200"" style = ""float:right""></p><p><img src=images/blank.png width =""800"" height = ""200""></p>","","","","","","","","","","","",""
"","700.1849999942351","sequential-stimulus-presentation","175","394695","0.0-35.0-1.2","SS1613098591974","trial","","40","800","1500.184999994235","images/stimuli/spore_stims/complex_16_B_c.gif","images/stimuli/spore_stims/complex_16_A_c.gif","","","","","9","complex_similar","images/stimuli/spore_stims/complex_16_B_c.gif","left","","","","",""
"","null","html-keyboard-response","176","395876","0.0-35.0-0.3","SS1613098591974","","","null","","","","","<p><img src= images/blank.png width =""200"" height = ""200"" style = ""float:right""></p><p><img src=images/blank.png width =""800"" height = ""200""></p>","","","","","","","","","","","",""
"","304.25999997532926","sequential-stimulus-presentation","177","396994","0.0-35.0-1.3","SS1613098591974","trial","","40","800","1104.2599999753293","images/stimuli/spore_stims/complex_16_B_c.gif","images/stimuli/spore_stims/complex_16_A_c.gif","","","","","9","complex_similar","images/stimuli/spore_stims/complex_16_A_c.gif","right","","","","",""
"","null","html-keyboard-response","178","398137","0.0-35.0-0.4","SS1613098591974","","","null","","","","","<p><img src= images/blank.png width =""200"" height = ""200"" style = ""float:right""></p><p><img src=images/blank.png width =""800"" height = ""200""></p>","","","","","","","","","","","",""
"","724.6900000027381","sequential-stimulus-presentation","179","399676","0.0-35.0-1.4","SS1613098591974","trial","","40","800","1524.690000002738","images/stimuli/spore_stims/complex_16_B_c.gif","images/stimuli/spore_stims/complex_16_A_c.gif","","","","","9","complex_similar","images/stimuli/spore_stims/complex_16_A_c.gif","right","","","","",""
"","null","html-keyboard-response","180","400608","0.0-35.0-0.5","SS1613098591974","","","null","","","","","<p><img src= images/blank.png width =""200"" height = ""200"" style = ""float:right""></p><p><img src=images/blank.png width =""800"" height = ""200""></p>","","","","","","","","","","","",""
"","674.284999986412","sequential-stimulus-presentation","181","402099","0.0-35.0-1.5","SS1613098591974","trial","","40","800","1474.284999986412","images/stimuli/spore_stims/complex_16_B_c.gif","images/stimuli/spore_stims/complex_16_A_c.gif","","","","","9","complex_similar","images/stimuli/spore_stims/complex_16_A_c.gif","right","","","","",""
"","null","html-keyboard-response","182","403159","0.0-35.0-0.6","SS1613098591974","","","null","","","","","<p><img src= images/blank.png width =""200"" height = ""200"" style = ""float:right""></p><p><img src=images/blank.png width =""800"" height = ""200""></p>","","","","","","","","","","","",""
"","205.8450000185985","sequential-stimulus-presentation","183","404178","0.0-35.0-1.6","SS1613098591974","trial","","40","800","1005.8450000185985","images/stimuli/spore_stims/complex_16_B_c.gif","images/stimuli/spore_stims/complex_16_A_c.gif","","","","","9","complex_similar","images/stimuli/spore_stims/complex_16_A_c.gif","right","","","","",""
"","null","html-keyboard-response","184","405459","0.0-35.0-0.7","SS1613098591974","","","null","","","","","<p><img src= images/blank.png width =""200"" height = ""200"" style = ""float:right""></p><p><img src=images/blank.png width =""800"" height = ""200""></p>","","","","","","","","","","","",""
"","823.5200000053737","sequential-stimulus-presentation","185","407099","0.0-35.0-1.7","SS1613098591974","trial","","40","800","1623.5200000053737","images/stimuli/spore_stims/complex_16_B_c.gif","images/stimuli/spore_stims/complex_16_A_c.gif","","","","","9","complex_similar","images/stimuli/spore_stims/complex_16_A_c.gif","right","","","","",""
"","3294.579999987036","html-keyboard-response","186","410405","0.0-36.0","SS1613098591974","pref_question","","51","","","","","<video width ='960' height = '540' style='padding-top:8%' autoplay muted><source src='images/stimuli/wall_pref.mp4' type='video/mp4'></video>","3","right","66%","9","","","","","","","",""
"","942.5849999825004","sequential-stimulus-presentation","187","412162","0.0-37.0","SS1613098591974","pref_reveal","","40","800","1742.5849999825004","null","null","","","","","9","","","","background","","","",""
"","null","html-keyboard-response","188","413034","0.0-38.0-0.0","SS1613098591974","","","null","","","","","<p><img src= images/blank.png width =""200"" height = ""200"" style = ""float:right""></p><p><img src=images/blank.png width =""800"" height = ""200""></p>","","","","","","","","","","","",""
"","580.870000005234","sequential-stimulus-presentation","189","414430","0.0-38.0-1.0","SS1613098591974","trial","","40","800","1380.870000005234","images/stimuli/spore_stims/simple_09_A_a.gif","images/stimuli/spore_stims/simple_14_A_c.gif","","","","","10","simple_dissimilar","images/stimuli/spore_stims/simple_14_A_c.gif","right","","","","",""
"","null","html-keyboard-response","190","415378","0.0-38.0-0.1","SS1613098591974","","","null","","","","","<p><img src= images/blank.png width =""200"" height = ""200"" style = ""float:right""></p><p><img src=images/blank.png width =""800"" height = ""200""></p>","","","","","","","","","","","",""
"","942.1450000081677","sequential-stimulus-presentation","191","417139","0.0-38.0-1.1","SS1613098591974","trial","","40","800","1742.1450000081677","images/stimuli/spore_stims/simple_09_A_a.gif","images/stimuli/spore_stims/simple_14_A_c.gif","","","","","10","simple_dissimilar","images/stimuli/spore_stims/simple_14_A_c.gif","right","","","","",""
"","null","html-keyboard-response","192","418050","0.0-38.0-0.2","SS1613098591974","","","null","","","","","<p><img src= images/blank.png width =""200"" height = ""200"" style = ""float:right""></p><p><img src=images/blank.png width =""800"" height = ""200""></p>","","","","","","","","","","","",""
"","427.30999999912456","sequential-stimulus-presentation","193","419289","0.0-38.0-1.2","SS1613098591974","trial","","40","800","1227.3099999991246","images/stimuli/spore_stims/simple_09_A_a.gif","images/stimuli/spore_stims/simple_14_A_c.gif","","","","","10","simple_dissimilar","images/stimuli/spore_stims/simple_14_A_c.gif","right","","","","",""
"","null","html-keyboard-response","194","420427","0.0-38.0-0.3","SS1613098591974","","","null","","","","","<p><img src= images/blank.png width =""200"" height = ""200"" style = ""float:right""></p><p><img src=images/blank.png width =""800"" height = ""200""></p>","","","","","","","","","","","",""
"","328.8099999772385","sequential-stimulus-presentation","195","421576","0.0-38.0-1.3","SS1613098591974","trial","","40","800","1128.8099999772385","images/stimuli/spore_stims/simple_09_A_a.gif","images/stimuli/spore_stims/simple_14_A_c.gif","","","","","10","simple_dissimilar","images/stimuli/spore_stims/simple_14_A_c.gif","right","","","","",""
"","null","html-keyboard-response","196","422900","0.0-38.0-0.4","SS1613098591974","","","null","","","","","<p><img src= images/blank.png width =""200"" height = ""200"" style = ""float:right""></p><p><img src=images/blank.png width =""800"" height = ""200""></p>","","","","","","","","","","","",""
"","403.9000000047963","sequential-stimulus-presentation","197","424116","0.0-38.0-1.4","SS1613098591974","trial","","40","800","1203.9000000047963","images/stimuli/spore_stims/simple_09_A_a.gif","images/stimuli/spore_stims/simple_14_A_c.gif","","","","","10","simple_dissimilar","images/stimuli/spore_stims/simple_14_A_c.gif","right","","","","",""
"","null","html-keyboard-response","198","425343","0.0-38.0-0.5","SS1613098591974","","","null","","","","","<p><img src= images/blank.png width =""200"" height = ""200"" style = ""float:right""></p><p><img src=images/blank.png width =""800"" height = ""200""></p>","","","","","","","","","","","",""
"","684.1649999842048","sequential-stimulus-presentation","199","426843","0.0-38.0-1.5","SS1613098591974","trial","","40","800","1484.1649999842048","images/stimuli/spore_stims/simple_09_A_a.gif","images/stimuli/spore_stims/simple_14_A_c.gif","","","","","10","simple_dissimilar","images/stimuli/spore_stims/simple_14_A_c.gif","right","","","","",""
"","null","html-keyboard-response","200","427840","0.0-38.0-0.6","SS1613098591974","","","null","","","","","<p><img src= images/blank.png width =""200"" height = ""200"" style = ""float:right""></p><p><img src=images/blank.png width =""800"" height = ""200""></p>","","","","","","","","","","","",""
"","330.8250000118278","sequential-stimulus-presentation","201","428988","0.0-38.0-1.6","SS1613098591974","trial","","40","800","1130.8250000118278","images/stimuli/spore_stims/simple_09_A_a.gif","images/stimuli/spore_stims/simple_14_A_c.gif","","","","","10","simple_dissimilar","images/stimuli/spore_stims/simple_09_A_a.gif","left","","","","",""
"","null","html-keyboard-response","202","429943","0.0-38.0-0.7","SS1613098591974","","","null","","","","","<p><img src= images/blank.png width =""200"" height = ""200"" style = ""float:right""></p><p><img src=images/blank.png width =""800"" height = ""200""></p>","","","","","","","","","","","",""
"","1241.5800000017043","sequential-stimulus-presentation","203","432003","0.0-38.0-1.7","SS1613098591974","trial","","40","800","2041.5800000017043","images/stimuli/spore_stims/simple_09_A_a.gif","images/stimuli/spore_stims/simple_14_A_c.gif","","","","","10","simple_dissimilar","images/stimuli/spore_stims/simple_14_A_c.gif","right","","","","",""
"","1191.545000008773","html-keyboard-response","204","433204","0.0-39.0","SS1613098591974","pref_question","","51","","","","","<video width ='960' height = '540' style='padding-top:8%' autoplay muted><source src='images/stimuli/wall_pref.mp4' type='video/mp4'></video>","3","right","66%","10","","","","","","","",""
"","632.3350000020582","sequential-stimulus-presentation","205","434651","0.0-40.0","SS1613098591974","pref_reveal","","40","800","1432.3350000020582","null","null","","","","","10","","","","background","","","",""
"","null","html-keyboard-response","206","435516","0.0-41.0-0.0","SS1613098591974","","","null","","","","","<p><img src= images/blank.png width =""200"" height = ""200"" style = ""float:right""></p><p><img src=images/blank.png width =""800"" height = ""200""></p>","","","","","","","","","","","",""
"","532.1850000182167","sequential-stimulus-presentation","207","436866","0.0-41.0-1.0","SS1613098591974","trial","","40","800","1332.1850000182167","images/stimuli/spore_stims/complex_20_A_b.gif","images/stimuli/spore_stims/complex_01_B_c.gif","","","","","11","complex_dissimilar","images/stimuli/spore_stims/complex_01_B_c.gif","middle","","","","",""
"","null","html-keyboard-response","208","437948","0.0-41.0-0.1","SS1613098591974","","","null","","","","","<p><img src= images/blank.png width =""200"" height = ""200"" style = ""float:right""></p><p><img src=images/blank.png width =""800"" height = ""200""></p>","","","","","","","","","","","",""
"","325.71000000461936","sequential-stimulus-presentation","209","439107","0.0-41.0-1.1","SS1613098591974","trial","","40","800","1125.7100000046194","images/stimuli/spore_stims/complex_20_A_b.gif","images/stimuli/spore_stims/complex_01_B_c.gif","","","","","11","complex_dissimilar","images/stimuli/spore_stims/complex_01_B_c.gif","middle","","","","",""
"","null","html-keyboard-response","210","440157","0.0-41.0-0.2","SS1613098591974","","","null","","","","","<p><img src= images/blank.png width =""200"" height = ""200"" style = ""float:right""></p><p><img src=images/blank.png width =""800"" height = ""200""></p>","","","","","","","","","","","",""
"","92.44000000762753","sequential-stimulus-presentation","211","441065","0.0-41.0-1.2","SS1613098591974","trial","","40","800","892.4400000076275","images/stimuli/spore_stims/complex_20_A_b.gif","images/stimuli/spore_stims/complex_01_B_c.gif","","","","","11","complex_dissimilar","images/stimuli/spore_stims/complex_01_B_c.gif","middle","","","","",""
"","null","html-keyboard-response","212","442107","0.0-41.0-0.3","SS1613098591974","","","null","","","","","<p><img src= images/blank.png width =""200"" height = ""200"" style = ""float:right""></p><p><img src=images/blank.png width =""800"" height = ""200""></p>","","","","","","","","","","","",""
"","179.27500000223517","sequential-stimulus-presentation","213","443102","0.0-41.0-1.3","SS1613098591974","trial","","40","800","979.2750000022352","images/stimuli/spore_stims/complex_20_A_b.gif","images/stimuli/spore_stims/complex_01_B_c.gif","","","","","11","complex_dissimilar","images/stimuli/spore_stims/complex_20_A_b.gif","left","","","","",""
"","null","html-keyboard-response","214","444166","0.0-41.0-0.4","SS1613098591974","","","null","","","","","<p><img src= images/blank.png width =""200"" height = ""200"" style = ""float:right""></p><p><img src=images/blank.png width =""800"" height = ""200""></p>","","","","","","","","","","","",""
"","516.8750000011642","sequential-stimulus-presentation","215","445499","0.0-41.0-1.4","SS1613098591974","trial","","40","800","1316.8750000011642","images/stimuli/spore_stims/complex_20_A_b.gif","images/stimuli/spore_stims/complex_01_B_c.gif","","","","","11","complex_dissimilar","images/stimuli/spore_stims/complex_01_B_c.gif","middle","","","","",""
"","null","html-keyboard-response","216","446777","0.0-41.0-0.5","SS1613098591974","","","null","","","","","<p><img src= images/blank.png width =""200"" height = ""200"" style = ""float:right""></p><p><img src=images/blank.png width =""800"" height = ""200""></p>","","","","","","","","","","","",""
"","628.3049999910872","sequential-stimulus-presentation","217","448236","0.0-41.0-1.5","SS1613098591974","trial","","40","800","1428.3049999910872","images/stimuli/spore_stims/complex_20_A_b.gif","images/stimuli/spore_stims/complex_01_B_c.gif","","","","","11","complex_dissimilar","images/stimuli/spore_stims/complex_01_B_c.gif","middle","","","","",""
"","null","html-keyboard-response","218","449211","0.0-41.0-0.6","SS1613098591974","","","null","","","","","<p><img src= images/blank.png width =""200"" height = ""200"" style = ""float:right""></p><p><img src=images/blank.png width =""800"" height = ""200""></p>","","","","","","","","","","","",""
"","472.66500000841916","sequential-stimulus-presentation","219","450498","0.0-41.0-1.6","SS1613098591974","trial","","40","800","1272.6650000084192","images/stimuli/spore_stims/complex_20_A_b.gif","images/stimuli/spore_stims/complex_01_B_c.gif","","","","","11","complex_dissimilar","images/stimuli/spore_stims/complex_01_B_c.gif","middle","","","","",""
"","null","html-keyboard-response","220","451399","0.0-41.0-0.7","SS1613098591974","","","null","","","","","<p><img src= images/blank.png width =""200"" height = ""200"" style = ""float:right""></p><p><img src=images/blank.png width =""800"" height = ""200""></p>","","","","","","","","","","","",""
"","519.0350000048056","sequential-stimulus-presentation","221","452737","0.0-41.0-1.7","SS1613098591974","trial","","40","800","1319.0350000048056","images/stimuli/spore_stims/complex_20_A_b.gif","images/stimuli/spore_stims/complex_01_B_c.gif","","","","","11","complex_dissimilar","images/stimuli/spore_stims/complex_01_B_c.gif","middle","","","","",""
"","2433.0100000079256","html-keyboard-response","222","455180","0.0-42.0","SS1613098591974","pref_question","","50","","","","","<video width ='960' height = '540' style='padding-top:8%' autoplay muted><source src='images/stimuli/wall_pref.mp4' type='video/mp4'></video>","2","middle","45%","11","","","","","","","",""
"","622.5550000090152","sequential-stimulus-presentation","223","456641","0.0-43.0","SS1613098591974","pref_reveal","","40","800","1422.5550000090152","null","null","","","","","11","","","","background","","","",""
"","null","html-keyboard-response","224","457637","0.0-44.0-0.0","SS1613098591974","","","null","","","","","<p><img src= images/blank.png width =""200"" height = ""200"" style = ""float:right""></p><p><img src=images/blank.png width =""800"" height = ""200""></p>","","","","","","","","","","","",""
"","61.95500001194887","sequential-stimulus-presentation","225","458514","0.0-44.0-1.0","SS1613098591974","trial","","40","800","861.9550000119489","images/stimuli/spore_stims/simple_17_A_c.gif","images/stimuli/spore_stims/simple_17_B_c.gif","","","","","12","simple_similar","images/stimuli/spore_stims/simple_17_B_c.gif","middle","","","","",""
"","null","html-keyboard-response","226","459624","0.0-44.0-0.1","SS1613098591974","","","null","","","","","<p><img src= images/blank.png width =""200"" height = ""200"" style = ""float:right""></p><p><img src=images/blank.png width =""800"" height = ""200""></p>","","","","","","","","","","","",""
"","349.3749999906868","sequential-stimulus-presentation","227","460803","0.0-44.0-1.1","SS1613098591974","trial","","40","800","1149.3749999906868","images/stimuli/spore_stims/simple_17_A_c.gif","images/stimuli/spore_stims/simple_17_B_c.gif","","","","","12","simple_similar","images/stimuli/spore_stims/simple_17_B_c.gif","middle","","","","",""
"","null","html-keyboard-response","228","461933","0.0-44.0-0.2","SS1613098591974","","","null","","","","","<p><img src= images/blank.png width =""200"" height = ""200"" style = ""float:right""></p><p><img src=images/blank.png width =""800"" height = ""200""></p>","","","","","","","","","","","",""
"","503.67000000551343","sequential-stimulus-presentation","229","463299","0.0-44.0-1.2","SS1613098591974","trial","","40","800","1303.6700000055134","images/stimuli/spore_stims/simple_17_A_c.gif","images/stimuli/spore_stims/simple_17_B_c.gif","","","","","12","simple_similar","images/stimuli/spore_stims/simple_17_B_c.gif","middle","","","","",""
"","null","html-keyboard-response","230","464485","0.0-44.0-0.3","SS1613098591974","","","null","","","","","<p><img src= images/blank.png width =""200"" height = ""200"" style = ""float:right""></p><p><img src=images/blank.png width =""800"" height = ""200""></p>","","","","","","","","","","","",""
"","876.6849999956321","sequential-stimulus-presentation","231","466175","0.0-44.0-1.3","SS1613098591974","trial","","40","800","1676.684999995632","images/stimuli/spore_stims/simple_17_A_c.gif","images/stimuli/spore_stims/simple_17_B_c.gif","","","","","12","simple_similar","images/stimuli/spore_stims/simple_17_B_c.gif","middle","","","","",""
"","null","html-keyboard-response","232","467148","0.0-44.0-0.4","SS1613098591974","","","null","","","","","<p><img src= images/blank.png width =""200"" height = ""200"" style = ""float:right""></p><p><img src=images/blank.png width =""800"" height = ""200""></p>","","","","","","","","","","","",""
"","357.71999999997206","sequential-stimulus-presentation","233","468322","0.0-44.0-1.4","SS1613098591974","trial","","40","800","1157.719999999972","images/stimuli/spore_stims/simple_17_A_c.gif","images/stimuli/spore_stims/simple_17_B_c.gif","","","","","12","simple_similar","images/stimuli/spore_stims/simple_17_B_c.gif","middle","","","","",""
"","null","html-keyboard-response","234","469383","0.0-44.0-0.5","SS1613098591974","","","null","","","","","<p><img src= images/blank.png width =""200"" height = ""200"" style = ""float:right""></p><p><img src=images/blank.png width =""800"" height = ""200""></p>","","","","","","","","","","","",""
"","1670.1499999908265","sequential-stimulus-presentation","235","471866","0.0-44.0-1.5","SS1613098591974","trial","","40","800","2470.1499999908265","images/stimuli/spore_stims/simple_17_A_c.gif","images/stimuli/spore_stims/simple_17_B_c.gif","","","","","12","simple_similar","images/stimuli/spore_stims/simple_17_B_c.gif","middle","","","","",""
"","null","html-keyboard-response","236","472726","0.0-44.0-0.6","SS1613098591974","","","null","","","","","<p><img src= images/blank.png width =""200"" height = ""200"" style = ""float:right""></p><p><img src=images/blank.png width =""800"" height = ""200""></p>","","","","","","","","","","","",""
"","1264.3800000078045","sequential-stimulus-presentation","237","474808","0.0-44.0-1.6","SS1613098591974","trial","","40","800","2064.3800000078045","images/stimuli/spore_stims/simple_17_A_c.gif","images/stimuli/spore_stims/simple_17_B_c.gif","","","","","12","simple_similar","images/stimuli/spore_stims/simple_17_A_c.gif","right","","","","",""
"","null","html-keyboard-response","238","475803","0.0-44.0-0.7","SS1613098591974","","","null","","","","","<p><img src= images/blank.png width =""200"" height = ""200"" style = ""float:right""></p><p><img src=images/blank.png width =""800"" height = ""200""></p>","","","","","","","","","","","",""
"","323.7749999971129","sequential-stimulus-presentation","239","476949","0.0-44.0-1.7","SS1613098591974","trial","","40","800","1123.774999997113","images/stimuli/spore_stims/simple_17_A_c.gif","images/stimuli/spore_stims/simple_17_B_c.gif","","","","","12","simple_similar","images/stimuli/spore_stims/simple_17_B_c.gif","middle","","","","",""
"","970.2949999773409","html-keyboard-response","240","477931","0.0-45.0","SS1613098591974","pref_question","","50","","","","","<video width ='960' height = '540' style='padding-top:8%' autoplay muted><source src='images/stimuli/wall_pref.mp4' type='video/mp4'></video>","2","middle","45%","12","","","","","","","",""
"","394.33499998995103","sequential-stimulus-presentation","241","479160","0.0-46.0","SS1613098591974","pref_reveal","","40","800","1194.334999989951","null","null","","","","","12","","","","background","","","",""
"","null","html-keyboard-response","242","479985","0.0-47.0-0.0","SS1613098591974","","","null","","","","","<p><img src= images/blank.png width =""200"" height = ""200"" style = ""float:right""></p><p><img src=images/blank.png width =""800"" height = ""200""></p>","","","","","","","","","","","",""
"","2152.074999990873","sequential-stimulus-presentation","243","482949","0.0-47.0-1.0","SS1613098591974","trial","","40","800","2952.074999990873","images/stimuli/spore_stims/complex_09_A_a.gif","images/stimuli/spore_stims/complex_09_B_a.gif","","","","","13","complex_similar","images/stimuli/spore_stims/complex_09_B_a.gif","right","","","","",""
"","null","html-keyboard-response","244","483886","0.0-47.0-0.1","SS1613098591974","","","null","","","","","<p><img src= images/blank.png width =""200"" height = ""200"" style = ""float:right""></p><p><img src=images/blank.png width =""800"" height = ""200""></p>","","","","","","","","","","","",""
"","24.329999985639006","sequential-stimulus-presentation","245","484723","0.0-47.0-1.1","SS1613098591974","trial","","40","800","824.329999985639","images/stimuli/spore_stims/complex_09_A_a.gif","images/stimuli/spore_stims/complex_09_B_a.gif","","","","","13","complex_similar","images/stimuli/spore_stims/complex_09_B_a.gif","right","","","","",""
"","null","html-keyboard-response","246","485934","0.0-47.0-0.2","SS1613098591974","","","null","","","","","<p><img src= images/blank.png width =""200"" height = ""200"" style = ""float:right""></p><p><img src=images/blank.png width =""800"" height = ""200""></p>","","","","","","","","","","","",""
"","775.1249999855645","sequential-stimulus-presentation","247","487530","0.0-47.0-1.2","SS1613098591974","trial","","40","800","1575.1249999855645","images/stimuli/spore_stims/complex_09_A_a.gif","images/stimuli/spore_stims/complex_09_B_a.gif","","","","","13","complex_similar","images/stimuli/spore_stims/complex_09_B_a.gif","right","","","","",""
"","null","html-keyboard-response","248","488719","0.0-47.0-0.3","SS1613098591974","","","null","","","","","<p><img src= images/blank.png width =""200"" height = ""200"" style = ""float:right""></p><p><img src=images/blank.png width =""800"" height = ""200""></p>","","","","","","","","","","","",""
"","766.925000003539","sequential-stimulus-presentation","249","490302","0.0-47.0-1.3","SS1613098591974","trial","","40","800","1566.925000003539","images/stimuli/spore_stims/complex_09_A_a.gif","images/stimuli/spore_stims/complex_09_B_a.gif","","","","","13","complex_similar","images/stimuli/spore_stims/complex_09_B_a.gif","right","","","","",""
"","null","html-keyboard-response","250","491368","0.0-47.0-0.4","SS1613098591974","","","null","","","","","<p><img src= images/blank.png width =""200"" height = ""200"" style = ""float:right""></p><p><img src=images/blank.png width =""800"" height = ""200""></p>","","","","","","","","","","","",""
"","93.48499999032356","sequential-stimulus-presentation","251","492274","0.0-47.0-1.4","SS1613098591974","trial","","40","800","893.4849999903236","images/stimuli/spore_stims/complex_09_A_a.gif","images/stimuli/spore_stims/complex_09_B_a.gif","","","","","13","complex_similar","images/stimuli/spore_stims/complex_09_B_a.gif","right","","","","",""
"","null","html-keyboard-response","252","493232","0.0-47.0-0.5","SS1613098591974","","","null","","","","","<p><img src= images/blank.png width =""200"" height = ""200"" style = ""float:right""></p><p><img src=images/blank.png width =""800"" height = ""200""></p>","","","","","","","","","","","",""
"","27.839999995194376","sequential-stimulus-presentation","253","494081","0.0-47.0-1.5","SS1613098591974","trial","","40","800","827.8399999951944","images/stimuli/spore_stims/complex_09_A_a.gif","images/stimuli/spore_stims/complex_09_B_a.gif","","","","","13","complex_similar","images/stimuli/spore_stims/complex_09_B_a.gif","right","","","","",""
"","null","html-keyboard-response","254","495312","0.0-47.0-0.6","SS1613098591974","","","null","","","","","<p><img src= images/blank.png width =""200"" height = ""200"" style = ""float:right""></p><p><img src=images/blank.png width =""800"" height = ""200""></p>","","","","","","","","","","","",""
"","600.0599999970291","sequential-stimulus-presentation","255","496732","0.0-47.0-1.6","SS1613098591974","trial","","40","800","1400.059999997029","images/stimuli/spore_stims/complex_09_A_a.gif","images/stimuli/spore_stims/complex_09_B_a.gif","","","","","13","complex_similar","images/stimuli/spore_stims/complex_09_B_a.gif","right","","","","",""
"","null","html-keyboard-response","256","497803","0.0-47.0-0.7","SS1613098591974","","","null","","","","","<p><img src= images/blank.png width =""200"" height = ""200"" style = ""float:right""></p><p><img src=images/blank.png width =""800"" height = ""200""></p>","","","","","","","","","","","",""
"","158.88999999151565","sequential-stimulus-presentation","257","498780","0.0-47.0-1.7","SS1613098591974","trial","","40","800","958.8899999915157","images/stimuli/spore_stims/complex_09_A_a.gif","images/stimuli/spore_stims/complex_09_B_a.gif","","","","","13","complex_similar","images/stimuli/spore_stims/complex_09_A_a.gif","left","","","","",""
"","1156.380000000354","html-keyboard-response","258","499949","0.0-48.0","SS1613098591974","pref_question","","49","","","","","<video width ='960' height = '540' style='padding-top:8%' autoplay muted><source src='images/stimuli/wall_pref.mp4' type='video/mp4'></video>","1","left","25%","13","","","","","","","",""
"","1218.1149999960326","sequential-stimulus-presentation","259","501982","0.0-49.0","SS1613098591974","pref_reveal","","40","800","2018.1149999960326","null","null","","","","","13","","","","deviant","","","",""
"","null","html-keyboard-response","260","502979","0.0-50.0-0.0","SS1613098591974","","","null","","","","","<p><img src= images/blank.png width =""200"" height = ""200"" style = ""float:right""></p><p><img src=images/blank.png width =""800"" height = ""200""></p>","","","","","","","","","","","",""
"","302.4999999906868","sequential-stimulus-presentation","261","504107","0.0-50.0-1.0","SS1613098591974","trial","","40","800","1102.4999999906868","images/stimuli/spore_stims/complex_02_A_a.gif","images/stimuli/spore_stims/complex_18_A_c.gif","","","","","14","complex_dissimilar","images/stimuli/spore_stims/complex_18_A_c.gif","right","","","","",""
"","null","html-keyboard-response","262","504984","0.0-50.0-0.1","SS1613098591974","","","null","","","","","<p><img src= images/blank.png width =""200"" height = ""200"" style = ""float:right""></p><p><img src=images/blank.png width =""800"" height = ""200""></p>","","","","","","","","","","","",""
"","196.8650000053458","sequential-stimulus-presentation","263","505994","0.0-50.0-1.1","SS1613098591974","trial","","40","800","996.8650000053458","images/stimuli/spore_stims/complex_02_A_a.gif","images/stimuli/spore_stims/complex_18_A_c.gif","","","","","14","complex_dissimilar","images/stimuli/spore_stims/complex_18_A_c.gif","right","","","","",""
"","null","html-keyboard-response","264","507137","0.0-50.0-0.2","SS1613098591974","","","null","","","","","<p><img src= images/blank.png width =""200"" height = ""200"" style = ""float:right""></p><p><img src=images/blank.png width =""800"" height = ""200""></p>","","","","","","","","","","","",""
"","1325.1599999784958","sequential-stimulus-presentation","265","509276","0.0-50.0-1.2","SS1613098591974","trial","","40","800","2125.1599999784958","images/stimuli/spore_stims/complex_02_A_a.gif","images/stimuli/spore_stims/complex_18_A_c.gif","","","","","14","complex_dissimilar","images/stimuli/spore_stims/complex_02_A_a.gif","left","","","","",""
"","null","html-keyboard-response","266","510391","0.0-50.0-0.3","SS1613098591974","","","null","","","","","<p><img src= images/blank.png width =""200"" height = ""200"" style = ""float:right""></p><p><img src=images/blank.png width =""800"" height = ""200""></p>","","","","","","","","","","","",""
"","697.6100000028964","sequential-stimulus-presentation","267","511938","0.0-50.0-1.3","SS1613098591974","trial","","40","800","1497.6100000028964","images/stimuli/spore_stims/complex_02_A_a.gif","images/stimuli/spore_stims/complex_18_A_c.gif","","","","","14","complex_dissimilar","images/stimuli/spore_stims/complex_18_A_c.gif","right","","","","",""
"","null","html-keyboard-response","268","512950","0.0-50.0-0.4","SS1613098591974","","","null","","","","","<p><img src= images/blank.png width =""200"" height = ""200"" style = ""float:right""></p><p><img src=images/blank.png width =""800"" height = ""200""></p>","","","","","","","","","","","",""
"","317.125000001397","sequential-stimulus-presentation","269","514099","0.0-50.0-1.4","SS1613098591974","trial","","40","800","1117.125000001397","images/stimuli/spore_stims/complex_02_A_a.gif","images/stimuli/spore_stims/complex_18_A_c.gif","","","","","14","complex_dissimilar","images/stimuli/spore_stims/complex_18_A_c.gif","right","","","","",""
"","null","html-keyboard-response","270","515110","0.0-50.0-0.5","SS1613098591974","","","null","","","","","<p><img src= images/blank.png width =""200"" height = ""200"" style = ""float:right""></p><p><img src=images/blank.png width =""800"" height = ""200""></p>","","","","","","","","","","","",""
"","114.84500000369735","sequential-stimulus-presentation","271","516037","0.0-50.0-1.5","SS1613098591974","trial","","40","800","914.8450000036974","images/stimuli/spore_stims/complex_02_A_a.gif","images/stimuli/spore_stims/complex_18_A_c.gif","","","","","14","complex_dissimilar","images/stimuli/spore_stims/complex_18_A_c.gif","right","","","","",""
"","null","html-keyboard-response","272","517215","0.0-50.0-0.6","SS1613098591974","","","null","","","","","<p><img src= images/blank.png width =""200"" height = ""200"" style = ""float:right""></p><p><img src=images/blank.png width =""800"" height = ""200""></p>","","","","","","","","","","","",""
"","667.3550000123214","sequential-stimulus-presentation","273","518700","0.0-50.0-1.6","SS1613098591974","trial","","40","800","1467.3550000123214","images/stimuli/spore_stims/complex_02_A_a.gif","images/stimuli/spore_stims/complex_18_A_c.gif","","","","","14","complex_dissimilar","images/stimuli/spore_stims/complex_18_A_c.gif","right","","","","",""
"","null","html-keyboard-response","274","519833","0.0-50.0-0.7","SS1613098591974","","","null","","","","","<p><img src= images/blank.png width =""200"" height = ""200"" style = ""float:right""></p><p><img src=images/blank.png width =""800"" height = ""200""></p>","","","","","","","","","","","",""
"","305.9450000000652","sequential-stimulus-presentation","275","520956","0.0-50.0-1.7","SS1613098591974","trial","","40","800","1105.9450000000652","images/stimuli/spore_stims/complex_02_A_a.gif","images/stimuli/spore_stims/complex_18_A_c.gif","","","","","14","complex_dissimilar","images/stimuli/spore_stims/complex_18_A_c.gif","right","","","","",""
"","1103.2199999899603","html-keyboard-response","276","522071","0.0-51.0","SS1613098591974","pref_question","","51","","","","","<video width ='960' height = '540' style='padding-top:8%' autoplay muted><source src='images/stimuli/wall_pref.mp4' type='video/mp4'></video>","3","right","66%","14","","","","","","","",""
"","423.064999980852","sequential-stimulus-presentation","277","523312","0.0-52.0","SS1613098591974","pref_reveal","","40","800","1223.064999980852","null","null","","","","","14","","","","background","","","",""
"","null","html-keyboard-response","278","524341","0.0-53.0-0.0","SS1613098591974","","","null","","","","","<p><img src= images/blank.png width =""200"" height = ""200"" style = ""float:right""></p><p><img src=images/blank.png width =""800"" height = ""200""></p>","","","","","","","","","","","",""
"","197.1299999859184","sequential-stimulus-presentation","279","525445","0.0-53.0-1.0","SS1613098591974","trial","","40","800","997.1299999859184","images/stimuli/spore_stims/simple_18_A_a.gif","images/stimuli/spore_stims/simple_18_B_a.gif","","","","","15","simple_similar","images/stimuli/spore_stims/simple_18_B_a.gif","middle","","","","",""
"","null","html-keyboard-response","280","526258","0.0-53.0-0.1","SS1613098591974","","","null","","","","","<p><img src= images/blank.png width =""200"" height = ""200"" style = ""float:right""></p><p><img src=images/blank.png width =""800"" height = ""200""></p>","","","","","","","","","","","",""
"","80.92499998747371","sequential-stimulus-presentation","281","527157","0.0-53.0-1.1","SS1613098591974","trial","","40","800","880.9249999874737","images/stimuli/spore_stims/simple_18_A_a.gif","images/stimuli/spore_stims/simple_18_B_a.gif","","","","","15","simple_similar","images/stimuli/spore_stims/simple_18_B_a.gif","middle","","","","",""
"","null","html-keyboard-response","282","528183","0.0-53.0-0.2","SS1613098591974","","","null","","","","","<p><img src= images/blank.png width =""200"" height = ""200"" style = ""float:right""></p><p><img src=images/blank.png width =""800"" height = ""200""></p>","","","","","","","","","","","",""
"","599.8600000166334","sequential-stimulus-presentation","283","529598","0.0-53.0-1.2","SS1613098591974","trial","","40","800","1399.8600000166334","images/stimuli/spore_stims/simple_18_A_a.gif","images/stimuli/spore_stims/simple_18_B_a.gif","","","","","15","simple_similar","images/stimuli/spore_stims/simple_18_B_a.gif","middle","","","","",""
"","null","html-keyboard-response","284","530463","0.0-53.0-0.3","SS1613098591974","","","null","","","","","<p><img src= images/blank.png width =""200"" height = ""200"" style = ""float:right""></p><p><img src=images/blank.png width =""800"" height = ""200""></p>","","","","","","","","","","","",""
"","139.7350000042934","sequential-stimulus-presentation","285","531425","0.0-53.0-1.3","SS1613098591974","trial","","40","800","939.7350000042934","images/stimuli/spore_stims/simple_18_A_a.gif","images/stimuli/spore_stims/simple_18_B_a.gif","","","","","15","simple_similar","images/stimuli/spore_stims/simple_18_B_a.gif","middle","","","","",""
"","null","html-keyboard-response","286","532552","0.0-53.0-0.4","SS1613098591974","","","null","","","","","<p><img src= images/blank.png width =""200"" height = ""200"" style = ""float:right""></p><p><img src=images/blank.png width =""800"" height = ""200""></p>","","","","","","","","","","","",""
"","712.4100000073668","sequential-stimulus-presentation","287","534079","0.0-53.0-1.4","SS1613098591974","trial","","40","800","1512.4100000073668","images/stimuli/spore_stims/simple_18_A_a.gif","images/stimuli/spore_stims/simple_18_B_a.gif","","","","","15","simple_similar","images/stimuli/spore_stims/simple_18_B_a.gif","middle","","","","",""
"","null","html-keyboard-response","288","535056","0.0-53.0-0.5","SS1613098591974","","","null","","","","","<p><img src= images/blank.png width =""200"" height = ""200"" style = ""float:right""></p><p><img src=images/blank.png width =""800"" height = ""200""></p>","","","","","","","","","","","",""
"","330.27500001480803","sequential-stimulus-presentation","289","536203","0.0-53.0-1.5","SS1613098591974","trial","","40","800","1130.275000014808","images/stimuli/spore_stims/simple_18_A_a.gif","images/stimuli/spore_stims/simple_18_B_a.gif","","","","","15","simple_similar","images/stimuli/spore_stims/simple_18_B_a.gif","middle","","","","",""
"","null","html-keyboard-response","290","537201","0.0-53.0-0.6","SS1613098591974","","","null","","","","","<p><img src= images/blank.png width =""200"" height = ""200"" style = ""float:right""></p><p><img src=images/blank.png width =""800"" height = ""200""></p>","","","","","","","","","","","",""
"","319.26000001840293","sequential-stimulus-presentation","291","538339","0.0-53.0-1.6","SS1613098591974","trial","","40","800","1119.260000018403","images/stimuli/spore_stims/simple_18_A_a.gif","images/stimuli/spore_stims/simple_18_B_a.gif","","","","","15","simple_similar","images/stimuli/spore_stims/simple_18_B_a.gif","middle","","","","",""
"","null","html-keyboard-response","292","539485","0.0-53.0-0.7","SS1613098591974","","","null","","","","","<p><img src= images/blank.png width =""200"" height = ""200"" style = ""float:right""></p><p><img src=images/blank.png width =""800"" height = ""200""></p>","","","","","","","","","","","",""
"","308.97000001277775","sequential-stimulus-presentation","293","540625","0.0-53.0-1.7","SS1613098591974","trial","","40","800","1108.9700000127777","images/stimuli/spore_stims/simple_18_A_a.gif","images/stimuli/spore_stims/simple_18_B_a.gif","","","","","15","simple_similar","images/stimuli/spore_stims/simple_18_A_a.gif","left","","","","",""
"","1980.2049999998417","html-keyboard-response","294","542616","0.0-54.0","SS1613098591974","pref_question","","49","","","","","<video width ='960' height = '540' style='padding-top:8%' autoplay muted><source src='images/stimuli/wall_pref.mp4' type='video/mp4'></video>","1","left","25%","15","","","","","","","",""
"","3660.2100000018254","sequential-stimulus-presentation","295","547090","0.0-55.0","SS1613098591974","pref_reveal","","40","800","4460.210000001825","null","null","","","","","15","","","","deviant","","","",""
"","null","html-keyboard-response","296","548184","0.0-56.0-0.0","SS1613098591974","","","null","","","","","<p><img src= images/blank.png width =""200"" height = ""200"" style = ""float:right""></p><p><img src=images/blank.png width =""800"" height = ""200""></p>","","","","","","","","","","","",""
"","147.09000001312234","sequential-stimulus-presentation","297","549187","0.0-56.0-1.0","SS1613098591974","trial","","40","800","947.0900000131223","images/stimuli/spore_stims/simple_02_A_a.gif","images/stimuli/spore_stims/simple_10_A_d.gif","","","","","16","simple_dissimilar","images/stimuli/spore_stims/simple_10_A_d.gif","right","","","","",""
"","null","html-keyboard-response","298","550092","0.0-56.0-0.1","SS1613098591974","","","null","","","","","<p><img src= images/blank.png width =""200"" height = ""200"" style = ""float:right""></p><p><img src=images/blank.png width =""800"" height = ""200""></p>","","","","","","","","","","","",""
"","463.755000004312","sequential-stimulus-presentation","299","551370","0.0-56.0-1.1","SS1613098591974","trial","","40","800","1263.755000004312","images/stimuli/spore_stims/simple_02_A_a.gif","images/stimuli/spore_stims/simple_10_A_d.gif","","","","","16","simple_dissimilar","images/stimuli/spore_stims/simple_10_A_d.gif","right","","","","",""
"","null","html-keyboard-response","300","552681","0.0-56.0-0.2","SS1613098591974","","","null","","","","","<p><img src= images/blank.png width =""200"" height = ""200"" style = ""float:right""></p><p><img src=images/blank.png width =""800"" height = ""200""></p>","","","","","","","","","","","",""
"","7.670000020880252","sequential-stimulus-presentation","301","553503","0.0-56.0-1.2","SS1613098591974","trial","","40","800","807.6700000208803","images/stimuli/spore_stims/simple_02_A_a.gif","images/stimuli/spore_stims/simple_10_A_d.gif","","","","","16","simple_dissimilar","images/stimuli/spore_stims/simple_10_A_d.gif","right","","","","",""
"","null","html-keyboard-response","302","554771","0.0-56.0-0.3","SS1613098591974","","","null","","","","","<p><img src= images/blank.png width =""200"" height = ""200"" style = ""float:right""></p><p><img src=images/blank.png width =""800"" height = ""200""></p>","","","","","","","","","","","",""
"","136.69000001391396","sequential-stimulus-presentation","303","555727","0.0-56.0-1.3","SS1613098591974","trial","","40","800","936.690000013914","images/stimuli/spore_stims/simple_02_A_a.gif","images/stimuli/spore_stims/simple_10_A_d.gif","","","","","16","simple_dissimilar","images/stimuli/spore_stims/simple_10_A_d.gif","right","","","","",""
"","null","html-keyboard-response","304","556615","0.0-56.0-0.4","SS1613098591974","","","null","","","","","<p><img src= images/blank.png width =""200"" height = ""200"" style = ""float:right""></p><p><img src=images/blank.png width =""800"" height = ""200""></p>","","","","","","","","","","","",""
"","656.1799999908544","sequential-stimulus-presentation","305","558115","0.0-56.0-1.4","SS1613098591974","trial","","40","800","1456.1799999908544","images/stimuli/spore_stims/simple_02_A_a.gif","images/stimuli/spore_stims/simple_10_A_d.gif","","","","","16","simple_dissimilar","images/stimuli/spore_stims/simple_10_A_d.gif","right","","","","",""
"","null","html-keyboard-response","306","559121","0.0-56.0-0.5","SS1613098591974","","","null","","","","","<p><img src= images/blank.png width =""200"" height = ""200"" style = ""float:right""></p><p><img src=images/blank.png width =""800"" height = ""200""></p>","","","","","","","","","","","",""
"","387.814999994589","sequential-stimulus-presentation","307","561094","0.0-56.0-1.5","SS1613098591974","trial","","40","800","1187.814999994589","images/stimuli/spore_stims/simple_02_A_a.gif","images/stimuli/spore_stims/simple_10_A_d.gif","","","","","16","simple_dissimilar","images/stimuli/spore_stims/simple_02_A_a.gif","left","","","","",""
"","null","html-keyboard-response","308","562019","0.0-56.0-0.6","SS1613098591974","","","null","","","","","<p><img src= images/blank.png width =""200"" height = ""200"" style = ""float:right""></p><p><img src=images/blank.png width =""800"" height = ""200""></p>","","","","","","","","","","","",""
"","216.16499999072403","sequential-stimulus-presentation","309","563051","0.0-56.0-1.6","SS1613098591974","trial","","40","800","1016.164999990724","images/stimuli/spore_stims/simple_02_A_a.gif","images/stimuli/spore_stims/simple_10_A_d.gif","","","","","16","simple_dissimilar","images/stimuli/spore_stims/simple_10_A_d.gif","right","","","","",""
"","null","html-keyboard-response","310","563982","0.0-56.0-0.7","SS1613098591974","","","null","","","","","<p><img src= images/blank.png width =""200"" height = ""200"" style = ""float:right""></p><p><img src=images/blank.png width =""800"" height = ""200""></p>","","","","","","","","","","","",""
"","561.8649999960326","sequential-stimulus-presentation","311","565360","0.0-56.0-1.7","SS1613098591974","trial","","40","800","1361.8649999960326","images/stimuli/spore_stims/simple_02_A_a.gif","images/stimuli/spore_stims/simple_10_A_d.gif","","","","","16","simple_dissimilar","images/stimuli/spore_stims/simple_10_A_d.gif","right","","","","",""
