"view_history","rt","trial_type","trial_index","time_elapsed","internal_node_id","subject","stimulus_type","trial_stimulus","key_press","minimum_viewing_duration","trial_looking_time","block_deviant","block_background","stimulus","wall_pref","location","location_percent","block_number","block_type","stimulus_displayed","position_displayed","stim_type_selected","responses","question_order","stimulus_left","stimulus_right"
"[{""page_index"":0,""viewing_time"":4332.055000006221}]","4334.739999991143","instructions","0","4340","0.0-0.0","SS1613102264134","","","","","","","","","","","","","","","","","","","",""
"[{""page_index"":0,""viewing_time"":2461.525000020629},{""page_index"":1,""viewing_time"":19424.154999986058}]","21886.495000013383","instructions","1","28234","0.0-1.0","SS1613102264134","instructions","","","","","","","","","","","","","","","","","","",""
"","6591.459999996005","sequential-stimulus-presentation","2","35641","0.0-2.0","SS1613102264134","","","40","800","7391.459999996005","null","null","","","","","","","","","","","","",""
"","2452.17999999295","sequential-stimulus-presentation","3","38904","0.0-3.0","SS1613102264134","","","40","800","3252.17999999295","null","null","","","","","","","","","","","","",""
"[{""page_index"":0,""viewing_time"":2814.8550000041723}]","2815.470000001369","instructions","4","41721","0.0-4.0","SS1613102264134","instructions","","","","","","","","","","","","","","","","","","",""
"","11398.905000009108","html-keyboard-response","5","53127","0.0-5.0","SS1613102264134","instructions","","51","","","","","<video width ='960' height = '540' autoplay muted><source src='images/stimuli/wall_pref.mp4' type='video/mp4'></video>","3","right","66%","","","","","","","","",""
"","24390.264999994542","sequential-stimulus-presentation","6","78330","0.0-6.0","SS1613102264134","pref_reveal","","40","800","25190.264999994542","null","null","","","","","","","","","","","","",""
"[{""page_index"":0,""viewing_time"":2585.930000001099},{""page_index"":1,""viewing_time"":19126.765000022715},{""page_index"":2,""viewing_time"":12704.689999984112},{""page_index"":3,""viewing_time"":12471.745000017108}]","46889.870000013616","instructions","7","125223","0.0-7.0","SS1613102264134","instructions","","","","","","","","","","","","","","","","","","",""
"","null","html-keyboard-response","8","126283","0.0-8.0-0.0","SS1613102264134","","","null","","","","","<p><img src= images/blank.png width =""200"" height = ""200"" style = ""float:right""></p><p><img src=images/blank.png width =""800"" height = ""200""></p>","","","","","","","","","","","",""
"","8866.709999972954","sequential-stimulus-presentation","9","135966","0.0-8.0-1.0","SS1613102264134","trial","","40","800","9666.709999972954","images/stimuli/spore_stims/complex_14_A_d.gif","images/stimuli/spore_stims/complex_11_B_a.gif","","","","","0","complex_dissimilar","images/stimuli/spore_stims/complex_11_B_a.gif","left","","","","",""
"","null","html-keyboard-response","10","137229","0.0-8.0-0.1","SS1613102264134","","","null","","","","","<p><img src= images/blank.png width =""200"" height = ""200"" style = ""float:right""></p><p><img src=images/blank.png width =""800"" height = ""200""></p>","","","","","","","","","","","",""
"","2125.2049999893643","sequential-stimulus-presentation","11","140170","0.0-8.0-1.1","SS1613102264134","trial","","40","800","2925.2049999893643","images/stimuli/spore_stims/complex_14_A_d.gif","images/stimuli/spore_stims/complex_11_B_a.gif","","","","","0","complex_dissimilar","images/stimuli/spore_stims/complex_11_B_a.gif","left","","","","",""
"","null","html-keyboard-response","12","141050","0.0-8.0-0.2","SS1613102264134","","","null","","","","","<p><img src= images/blank.png width =""200"" height = ""200"" style = ""float:right""></p><p><img src=images/blank.png width =""800"" height = ""200""></p>","","","","","","","","","","","",""
"","18362.90999999619","sequential-stimulus-presentation","13","160221","0.0-8.0-1.2","SS1613102264134","trial","","40","800","19162.90999999619","images/stimuli/spore_stims/complex_14_A_d.gif","images/stimuli/spore_stims/complex_11_B_a.gif","","","","","0","complex_dissimilar","images/stimuli/spore_stims/complex_11_B_a.gif","left","","","","",""
"","null","html-keyboard-response","14","161048","0.0-8.0-0.3","SS1613102264134","","","null","","","","","<p><img src= images/blank.png width =""200"" height = ""200"" style = ""float:right""></p><p><img src=images/blank.png width =""800"" height = ""200""></p>","","","","","","","","","","","",""
"","83631.81500000064","sequential-stimulus-presentation","15","245495","0.0-8.0-1.3","SS1613102264134","trial","","40","800","84431.81500000064","images/stimuli/spore_stims/complex_14_A_d.gif","images/stimuli/spore_stims/complex_11_B_a.gif","","","","","0","complex_dissimilar","images/stimuli/spore_stims/complex_11_B_a.gif","left","","","","",""
"","null","html-keyboard-response","16","246699","0.0-8.0-0.4","SS1613102264134","","","null","","","","","<p><img src= images/blank.png width =""200"" height = ""200"" style = ""float:right""></p><p><img src=images/blank.png width =""800"" height = ""200""></p>","","","","","","","","","","","",""
"","4078.9850000001024","sequential-stimulus-presentation","17","251592","0.0-8.0-1.4","SS1613102264134","trial","","40","800","4878.985000000102","images/stimuli/spore_stims/complex_14_A_d.gif","images/stimuli/spore_stims/complex_11_B_a.gif","","","","","0","complex_dissimilar","images/stimuli/spore_stims/complex_11_B_a.gif","left","","","","",""
"","null","html-keyboard-response","18","252440","0.0-8.0-0.5","SS1613102264134","","","null","","","","","<p><img src= images/blank.png width =""200"" height = ""200"" style = ""float:right""></p><p><img src=images/blank.png width =""800"" height = ""200""></p>","","","","","","","","","","","",""
"","302.3749999993015","sequential-stimulus-presentation","19","253556","0.0-8.0-1.5","SS1613102264134","trial","","40","800","1102.3749999993015","images/stimuli/spore_stims/complex_14_A_d.gif","images/stimuli/spore_stims/complex_11_B_a.gif","","","","","0","complex_dissimilar","images/stimuli/spore_stims/complex_11_B_a.gif","left","","","","",""
"","null","html-keyboard-response","20","254777","0.0-8.0-0.6","SS1613102264134","","","null","","","","","<p><img src= images/blank.png width =""200"" height = ""200"" style = ""float:right""></p><p><img src=images/blank.png width =""800"" height = ""200""></p>","","","","","","","","","","","",""
"","138.7150000082329","sequential-stimulus-presentation","21","255726","0.0-8.0-1.6","SS1613102264134","trial","","40","800","938.7150000082329","images/stimuli/spore_stims/complex_14_A_d.gif","images/stimuli/spore_stims/complex_11_B_a.gif","","","","","0","complex_dissimilar","images/stimuli/spore_stims/complex_14_A_d.gif","right","","","","",""
"","null","html-keyboard-response","22","256609","0.0-8.0-0.7","SS1613102264134","","","null","","","","","<p><img src= images/blank.png width =""200"" height = ""200"" style = ""float:right""></p><p><img src=images/blank.png width =""800"" height = ""200""></p>","","","","","","","","","","","",""
"","437.99499998567626","sequential-stimulus-presentation","23","257855","0.0-8.0-1.7","SS1613102264134","trial","","40","800","1237.9949999856763","images/stimuli/spore_stims/complex_14_A_d.gif","images/stimuli/spore_stims/complex_11_B_a.gif","","","","","0","complex_dissimilar","images/stimuli/spore_stims/complex_11_B_a.gif","left","","","","",""
"","6551.825000002282","html-keyboard-response","24","264414","0.0-9.0","SS1613102264134","pref_question","","51","","","","","<video width ='960' height = '540' style='padding-top:8%' autoplay muted><source src='images/stimuli/wall_pref.mp4' type='video/mp4'></video>","3","right","66%","0","","","","","","","",""
"","5540.955000004033","sequential-stimulus-presentation","25","270767","0.0-10.0","SS1613102264134","pref_reveal","","40","800","6340.955000004033","null","null","","","","","0","","","","deviant","","","",""
"","null","html-keyboard-response","26","271875","0.0-11.0-0.0","SS1613102264134","","","null","","","","","<p><img src= images/blank.png width =""200"" height = ""200"" style = ""float:right""></p><p><img src=images/blank.png width =""800"" height = ""200""></p>","","","","","","","","","","","",""
"","2172.9400000185706","sequential-stimulus-presentation","27","274860","0.0-11.0-1.0","SS1613102264134","trial","","40","800","2972.9400000185706","images/stimuli/spore_stims/simple_08_A_a.gif","images/stimuli/spore_stims/simple_05_A_b.gif","","","","","1","simple_dissimilar","images/stimuli/spore_stims/simple_05_A_b.gif","left","","","","",""
"","null","html-keyboard-response","28","276153","0.0-11.0-0.1","SS1613102264134","","","null","","","","","<p><img src= images/blank.png width =""200"" height = ""200"" style = ""float:right""></p><p><img src=images/blank.png width =""800"" height = ""200""></p>","","","","","","","","","","","",""
"","454.33999999659136","sequential-stimulus-presentation","29","277420","0.0-11.0-1.1","SS1613102264134","trial","","40","800","1254.3399999965914","images/stimuli/spore_stims/simple_08_A_a.gif","images/stimuli/spore_stims/simple_05_A_b.gif","","","","","1","simple_dissimilar","images/stimuli/spore_stims/simple_05_A_b.gif","left","","","","",""
"","null","html-keyboard-response","30","278708","0.0-11.0-0.2","SS1613102264134","","","null","","","","","<p><img src= images/blank.png width =""200"" height = ""200"" style = ""float:right""></p><p><img src=images/blank.png width =""800"" height = ""200""></p>","","","","","","","","","","","",""
"","106.70000000391155","sequential-stimulus-presentation","31","279625","0.0-11.0-1.2","SS1613102264134","trial","","40","800","906.7000000039116","images/stimuli/spore_stims/simple_08_A_a.gif","images/stimuli/spore_stims/simple_05_A_b.gif","","","","","1","simple_dissimilar","images/stimuli/spore_stims/simple_05_A_b.gif","left","","","","",""
"","null","html-keyboard-response","32","280782","0.0-11.0-0.3","SS1613102264134","","","null","","","","","<p><img src= images/blank.png width =""200"" height = ""200"" style = ""float:right""></p><p><img src=images/blank.png width =""800"" height = ""200""></p>","","","","","","","","","","","",""
"","699.7550000087358","sequential-stimulus-presentation","33","282291","0.0-11.0-1.3","SS1613102264134","trial","","40","800","1499.7550000087358","images/stimuli/spore_stims/simple_08_A_a.gif","images/stimuli/spore_stims/simple_05_A_b.gif","","","","","1","simple_dissimilar","images/stimuli/spore_stims/simple_08_A_a.gif","middle","","","","",""
"","null","html-keyboard-response","34","283319","0.0-11.0-0.4","SS1613102264134","","","null","","","","","<p><img src= images/blank.png width =""200"" height = ""200"" style = ""float:right""></p><p><img src=images/blank.png width =""800"" height = ""200""></p>","","","","","","","","","","","",""
"","599.3199999793433","sequential-stimulus-presentation","35","284727","0.0-11.0-1.4","SS1613102264134","trial","","40","800","1399.3199999793433","images/stimuli/spore_stims/simple_08_A_a.gif","images/stimuli/spore_stims/simple_05_A_b.gif","","","","","1","simple_dissimilar","images/stimuli/spore_stims/simple_05_A_b.gif","left","","","","",""
"","null","html-keyboard-response","36","285916","0.0-11.0-0.5","SS1613102264134","","","null","","","","","<p><img src= images/blank.png width =""200"" height = ""200"" style = ""float:right""></p><p><img src=images/blank.png width =""800"" height = ""200""></p>","","","","","","","","","","","",""
"","355.344999989029","sequential-stimulus-presentation","37","287082","0.0-11.0-1.5","SS1613102264134","trial","","40","800","1155.344999989029","images/stimuli/spore_stims/simple_08_A_a.gif","images/stimuli/spore_stims/simple_05_A_b.gif","","","","","1","simple_dissimilar","images/stimuli/spore_stims/simple_05_A_b.gif","left","","","","",""
"","null","html-keyboard-response","38","288095","0.0-11.0-0.6","SS1613102264134","","","null","","","","","<p><img src= images/blank.png width =""200"" height = ""200"" style = ""float:right""></p><p><img src=images/blank.png width =""800"" height = ""200""></p>","","","","","","","","","","","",""
"","672.7550000068732","sequential-stimulus-presentation","39","289583","0.0-11.0-1.6","SS1613102264134","trial","","40","800","1472.7550000068732","images/stimuli/spore_stims/simple_08_A_a.gif","images/stimuli/spore_stims/simple_05_A_b.gif","","","","","1","simple_dissimilar","images/stimuli/spore_stims/simple_05_A_b.gif","left","","","","",""
"","null","html-keyboard-response","40","290820","0.0-11.0-0.7","SS1613102264134","","","null","","","","","<p><img src= images/blank.png width =""200"" height = ""200"" style = ""float:right""></p><p><img src=images/blank.png width =""800"" height = ""200""></p>","","","","","","","","","","","",""
"","544.4699999934528","sequential-stimulus-presentation","41","292178","0.0-11.0-1.7","SS1613102264134","trial","","40","800","1344.4699999934528","images/stimuli/spore_stims/simple_08_A_a.gif","images/stimuli/spore_stims/simple_05_A_b.gif","","","","","1","simple_dissimilar","images/stimuli/spore_stims/simple_05_A_b.gif","left","","","","",""
"","6824.219999980414","html-keyboard-response","42","299006","0.0-12.0","SS1613102264134","pref_question","","51","","","","","<video width ='960' height = '540' style='padding-top:8%' autoplay muted><source src='images/stimuli/wall_pref.mp4' type='video/mp4'></video>","3","right","66%","1","","","","","","","",""
"","2117.264999978943","sequential-stimulus-presentation","43","301930","0.0-13.0","SS1613102264134","pref_reveal","","40","800","2917.264999978943","null","null","","","","","1","","","","novel","","","",""
"","null","html-keyboard-response","44","303124","0.0-14.0-0.0","SS1613102264134","","","null","","","","","<p><img src= images/blank.png width =""200"" height = ""200"" style = ""float:right""></p><p><img src=images/blank.png width =""800"" height = ""200""></p>","","","","","","","","","","","",""
"","433.4099999978207","sequential-stimulus-presentation","45","304368","0.0-14.0-1.0","SS1613102264134","trial","","40","800","1233.4099999978207","images/stimuli/spore_stims/complex_13_B_c.gif","images/stimuli/spore_stims/complex_13_A_c.gif","","","","","2","complex_similar","images/stimuli/spore_stims/complex_13_A_c.gif","left","","","","",""
"","null","html-keyboard-response","46","305384","0.0-14.0-0.1","SS1613102264134","","","null","","","","","<p><img src= images/blank.png width =""200"" height = ""200"" style = ""float:right""></p><p><img src=images/blank.png width =""800"" height = ""200""></p>","","","","","","","","","","","",""
"","219.8400000052061","sequential-stimulus-presentation","47","306420","0.0-14.0-1.1","SS1613102264134","trial","","40","800","1019.8400000052061","images/stimuli/spore_stims/complex_13_B_c.gif","images/stimuli/spore_stims/complex_13_A_c.gif","","","","","2","complex_similar","images/stimuli/spore_stims/complex_13_A_c.gif","left","","","","",""
"","null","html-keyboard-response","48","307496","0.0-14.0-0.2","SS1613102264134","","","null","","","","","<p><img src= images/blank.png width =""200"" height = ""200"" style = ""float:right""></p><p><img src=images/blank.png width =""800"" height = ""200""></p>","","","","","","","","","","","",""
"","661.3700000161771","sequential-stimulus-presentation","49","308964","0.0-14.0-1.2","SS1613102264134","trial","","40","800","1461.370000016177","images/stimuli/spore_stims/complex_13_B_c.gif","images/stimuli/spore_stims/complex_13_A_c.gif","","","","","2","complex_similar","images/stimuli/spore_stims/complex_13_A_c.gif","left","","","","",""
"","null","html-keyboard-response","50","310177","0.0-14.0-0.3","SS1613102264134","","","null","","","","","<p><img src= images/blank.png width =""200"" height = ""200"" style = ""float:right""></p><p><img src=images/blank.png width =""800"" height = ""200""></p>","","","","","","","","","","","",""
"","1547.4799999792594","sequential-stimulus-presentation","51","312539","0.0-14.0-1.3","SS1613102264134","trial","","40","800","2347.4799999792594","images/stimuli/spore_stims/complex_13_B_c.gif","images/stimuli/spore_stims/complex_13_A_c.gif","","","","","2","complex_similar","images/stimuli/spore_stims/complex_13_A_c.gif","left","","","","",""
"","null","html-keyboard-response","52","313819","0.0-14.0-0.4","SS1613102264134","","","null","","","","","<p><img src= images/blank.png width =""200"" height = ""200"" style = ""float:right""></p><p><img src=images/blank.png width =""800"" height = ""200""></p>","","","","","","","","","","","",""
"","514.1050000092946","sequential-stimulus-presentation","53","315145","0.0-14.0-1.4","SS1613102264134","trial","","40","800","1314.1050000092946","images/stimuli/spore_stims/complex_13_B_c.gif","images/stimuli/spore_stims/complex_13_A_c.gif","","","","","2","complex_similar","images/stimuli/spore_stims/complex_13_A_c.gif","left","","","","",""
"","null","html-keyboard-response","54","316320","0.0-14.0-0.5","SS1613102264134","","","null","","","","","<p><img src= images/blank.png width =""200"" height = ""200"" style = ""float:right""></p><p><img src=images/blank.png width =""800"" height = ""200""></p>","","","","","","","","","","","",""
"","549.830000003567","sequential-stimulus-presentation","55","317682","0.0-14.0-1.5","SS1613102264134","trial","","40","800","1349.830000003567","images/stimuli/spore_stims/complex_13_B_c.gif","images/stimuli/spore_stims/complex_13_A_c.gif","","","","","2","complex_similar","images/stimuli/spore_stims/complex_13_A_c.gif","left","","","","",""
"","null","html-keyboard-response","56","318509","0.0-14.0-0.6","SS1613102264134","","","null","","","","","<p><img src= images/blank.png width =""200"" height = ""200"" style = ""float:right""></p><p><img src=images/blank.png width =""800"" height = ""200""></p>","","","","","","","","","","","",""
"","231.40499999863096","sequential-stimulus-presentation","57","319557","0.0-14.0-1.6","SS1613102264134","trial","","40","800","1031.404999998631","images/stimuli/spore_stims/complex_13_B_c.gif","images/stimuli/spore_stims/complex_13_A_c.gif","","","","","2","complex_similar","images/stimuli/spore_stims/complex_13_A_c.gif","left","","","","",""
"","null","html-keyboard-response","58","320532","0.0-14.0-0.7","SS1613102264134","","","null","","","","","<p><img src= images/blank.png width =""200"" height = ""200"" style = ""float:right""></p><p><img src=images/blank.png width =""800"" height = ""200""></p>","","","","","","","","","","","",""
"","676.2150000140537","sequential-stimulus-presentation","59","322019","0.0-14.0-1.7","SS1613102264134","trial","","40","800","1476.2150000140537","images/stimuli/spore_stims/complex_13_B_c.gif","images/stimuli/spore_stims/complex_13_A_c.gif","","","","","2","complex_similar","images/stimuli/spore_stims/complex_13_B_c.gif","middle","","","","",""
"","4331.720000016503","html-keyboard-response","60","326354","0.0-15.0","SS1613102264134","pref_question","","98","","","","","<video width ='960' height = '540' style='padding-top:8%' autoplay muted><source src='images/stimuli/wall_pref.mp4' type='video/mp4'></video>","2","middle","45%","2","","","","","","","",""
"","1527.765000006184","sequential-stimulus-presentation","61","328706","0.0-16.0","SS1613102264134","pref_reveal","","40","800","2327.765000006184","null","null","","","","","2","","","","deviant","","","",""
"","null","html-keyboard-response","62","329717","0.0-17.0-0.0","SS1613102264134","","","null","","","","","<p><img src= images/blank.png width =""200"" height = ""200"" style = ""float:right""></p><p><img src=images/blank.png width =""800"" height = ""200""></p>","","","","","","","","","","","",""
"","369.78500001714565","sequential-stimulus-presentation","63","330898","0.0-17.0-1.0","SS1613102264134","trial","","40","800","1169.7850000171456","images/stimuli/spore_stims/simple_01_B_d.gif","images/stimuli/spore_stims/simple_11_A_d.gif","","","","","3","simple_dissimilar","images/stimuli/spore_stims/simple_11_A_d.gif","left","","","","",""
"","null","html-keyboard-response","64","332151","0.0-17.0-0.1","SS1613102264134","","","null","","","","","<p><img src= images/blank.png width =""200"" height = ""200"" style = ""float:right""></p><p><img src=images/blank.png width =""800"" height = ""200""></p>","","","","","","","","","","","",""
"","1621.0949999804143","sequential-stimulus-presentation","65","334594","0.0-17.0-1.1","SS1613102264134","trial","","40","800","2421.0949999804143","images/stimuli/spore_stims/simple_01_B_d.gif","images/stimuli/spore_stims/simple_11_A_d.gif","","","","","3","simple_dissimilar","images/stimuli/spore_stims/simple_11_A_d.gif","left","","","","",""
"","null","html-keyboard-response","66","335504","0.0-17.0-0.2","SS1613102264134","","","null","","","","","<p><img src= images/blank.png width =""200"" height = ""200"" style = ""float:right""></p><p><img src=images/blank.png width =""800"" height = ""200""></p>","","","","","","","","","","","",""
"","2175.534999987576","sequential-stimulus-presentation","67","338490","0.0-17.0-1.2","SS1613102264134","trial","","40","800","2975.534999987576","images/stimuli/spore_stims/simple_01_B_d.gif","images/stimuli/spore_stims/simple_11_A_d.gif","","","","","3","simple_dissimilar","images/stimuli/spore_stims/simple_11_A_d.gif","left","","","","",""
"","null","html-keyboard-response","68","339775","0.0-17.0-0.3","SS1613102264134","","","null","","","","","<p><img src= images/blank.png width =""200"" height = ""200"" style = ""float:right""></p><p><img src=images/blank.png width =""800"" height = ""200""></p>","","","","","","","","","","","",""
"","547.2650000010617","sequential-stimulus-presentation","69","341138","0.0-17.0-1.3","SS1613102264134","trial","","40","800","1347.2650000010617","images/stimuli/spore_stims/simple_01_B_d.gif","images/stimuli/spore_stims/simple_11_A_d.gif","","","","","3","simple_dissimilar","images/stimuli/spore_stims/simple_01_B_d.gif","middle","","","","",""
"","null","html-keyboard-response","70","342103","0.0-17.0-0.4","SS1613102264134","","","null","","","","","<p><img src= images/blank.png width =""200"" height = ""200"" style = ""float:right""></p><p><img src=images/blank.png width =""800"" height = ""200""></p>","","","","","","","","","","","",""
"","598.3049999922514","sequential-stimulus-presentation","71","343516","0.0-17.0-1.4","SS1613102264134","trial","","40","800","1398.3049999922514","images/stimuli/spore_stims/simple_01_B_d.gif","images/stimuli/spore_stims/simple_11_A_d.gif","","","","","3","simple_dissimilar","images/stimuli/spore_stims/simple_11_A_d.gif","left","","","","",""
"","null","html-keyboard-response","72","344505","0.0-17.0-0.5","SS1613102264134","","","null","","","","","<p><img src= images/blank.png width =""200"" height = ""200"" style = ""float:right""></p><p><img src=images/blank.png width =""800"" height = ""200""></p>","","","","","","","","","","","",""
"","460.01999999862164","sequential-stimulus-presentation","73","345778","0.0-17.0-1.5","SS1613102264134","trial","","40","800","1260.0199999986216","images/stimuli/spore_stims/simple_01_B_d.gif","images/stimuli/spore_stims/simple_11_A_d.gif","","","","","3","simple_dissimilar","images/stimuli/spore_stims/simple_11_A_d.gif","left","","","","",""
"","null","html-keyboard-response","74","347027","0.0-17.0-0.6","SS1613102264134","","","null","","","","","<p><img src= images/blank.png width =""200"" height = ""200"" style = ""float:right""></p><p><img src=images/blank.png width =""800"" height = ""200""></p>","","","","","","","","","","","",""
"","501.4249999949243","sequential-stimulus-presentation","75","348347","0.0-17.0-1.6","SS1613102264134","trial","","40","800","1301.4249999949243","images/stimuli/spore_stims/simple_01_B_d.gif","images/stimuli/spore_stims/simple_11_A_d.gif","","","","","3","simple_dissimilar","images/stimuli/spore_stims/simple_11_A_d.gif","left","","","","",""
"","null","html-keyboard-response","76","349521","0.0-17.0-0.7","SS1613102264134","","","null","","","","","<p><img src= images/blank.png width =""200"" height = ""200"" style = ""float:right""></p><p><img src=images/blank.png width =""800"" height = ""200""></p>","","","","","","","","","","","",""
"","514.3499999830965","sequential-stimulus-presentation","77","350850","0.0-17.0-1.7","SS1613102264134","trial","","40","800","1314.3499999830965","images/stimuli/spore_stims/simple_01_B_d.gif","images/stimuli/spore_stims/simple_11_A_d.gif","","","","","3","simple_dissimilar","images/stimuli/spore_stims/simple_11_A_d.gif","left","","","","",""
"","3801.980000018375","html-keyboard-response","78","354660","0.0-18.0","SS1613102264134","pref_question","","98","","","","","<video width ='960' height = '540' style='padding-top:8%' autoplay muted><source src='images/stimuli/wall_pref.mp4' type='video/mp4'></video>","2","middle","45%","3","","","","","","","",""
"","1306.7799999844283","sequential-stimulus-presentation","79","356777","0.0-19.0","SS1613102264134","pref_reveal","","40","800","2106.7799999844283","null","null","","","","","3","","","","deviant","","","",""
"","null","html-keyboard-response","80","357828","0.0-20.0-0.0","SS1613102264134","","","null","","","","","<p><img src= images/blank.png width =""200"" height = ""200"" style = ""float:right""></p><p><img src=images/blank.png width =""800"" height = ""200""></p>","","","","","","","","","","","",""
"","560.6749999860767","sequential-stimulus-presentation","81","359201","0.0-20.0-1.0","SS1613102264134","trial","","40","800","1360.6749999860767","images/stimuli/spore_stims/simple_07_A_c.gif","images/stimuli/spore_stims/simple_07_B_c.gif","","","","","4","simple_similar","images/stimuli/spore_stims/simple_07_B_c.gif","right","","","","",""
"","null","html-keyboard-response","82","360405","0.0-20.0-0.1","SS1613102264134","","","null","","","","","<p><img src= images/blank.png width =""200"" height = ""200"" style = ""float:right""></p><p><img src=images/blank.png width =""800"" height = ""200""></p>","","","","","","","","","","","",""
"","584.3199999944773","sequential-stimulus-presentation","83","361802","0.0-20.0-1.1","SS1613102264134","trial","","40","800","1384.3199999944773","images/stimuli/spore_stims/simple_07_A_c.gif","images/stimuli/spore_stims/simple_07_B_c.gif","","","","","4","simple_similar","images/stimuli/spore_stims/simple_07_B_c.gif","right","","","","",""
"","null","html-keyboard-response","84","363073","0.0-20.0-0.2","SS1613102264134","","","null","","","","","<p><img src= images/blank.png width =""200"" height = ""200"" style = ""float:right""></p><p><img src=images/blank.png width =""800"" height = ""200""></p>","","","","","","","","","","","",""
"","47.98499998287298","sequential-stimulus-presentation","85","363937","0.0-20.0-1.2","SS1613102264134","trial","","40","800","847.984999982873","images/stimuli/spore_stims/simple_07_A_c.gif","images/stimuli/spore_stims/simple_07_B_c.gif","","","","","4","simple_similar","images/stimuli/spore_stims/simple_07_B_c.gif","right","","","","",""
"","null","html-keyboard-response","86","365175","0.0-20.0-0.3","SS1613102264134","","","null","","","","","<p><img src= images/blank.png width =""200"" height = ""200"" style = ""float:right""></p><p><img src=images/blank.png width =""800"" height = ""200""></p>","","","","","","","","","","","",""
"","21.490000013727695","sequential-stimulus-presentation","87","366009","0.0-20.0-1.3","SS1613102264134","trial","","40","800","821.4900000137277","images/stimuli/spore_stims/simple_07_A_c.gif","images/stimuli/spore_stims/simple_07_B_c.gif","","","","","4","simple_similar","images/stimuli/spore_stims/simple_07_B_c.gif","right","","","","",""
"","null","html-keyboard-response","88","367138","0.0-20.0-0.4","SS1613102264134","","","null","","","","","<p><img src= images/blank.png width =""200"" height = ""200"" style = ""float:right""></p><p><img src=images/blank.png width =""800"" height = ""200""></p>","","","","","","","","","","","",""
"","868.5399999958463","sequential-stimulus-presentation","89","368818","0.0-20.0-1.4","SS1613102264134","trial","","40","800","1668.5399999958463","images/stimuli/spore_stims/simple_07_A_c.gif","images/stimuli/spore_stims/simple_07_B_c.gif","","","","","4","simple_similar","images/stimuli/spore_stims/simple_07_B_c.gif","right","","","","",""
"","null","html-keyboard-response","90","369755","0.0-20.0-0.5","SS1613102264134","","","null","","","","","<p><img src= images/blank.png width =""200"" height = ""200"" style = ""float:right""></p><p><img src=images/blank.png width =""800"" height = ""200""></p>","","","","","","","","","","","",""
"","872.4449999863282","sequential-stimulus-presentation","91","371466","0.0-20.0-1.5","SS1613102264134","trial","","40","800","1672.4449999863282","images/stimuli/spore_stims/simple_07_A_c.gif","images/stimuli/spore_stims/simple_07_B_c.gif","","","","","4","simple_similar","images/stimuli/spore_stims/simple_07_A_c.gif","middle","","","","",""
"","null","html-keyboard-response","92","372443","0.0-20.0-0.6","SS1613102264134","","","null","","","","","<p><img src= images/blank.png width =""200"" height = ""200"" style = ""float:right""></p><p><img src=images/blank.png width =""800"" height = ""200""></p>","","","","","","","","","","","",""
"","347.2649999894202","sequential-stimulus-presentation","93","373602","0.0-20.0-1.6","SS1613102264134","trial","","40","800","1147.2649999894202","images/stimuli/spore_stims/simple_07_A_c.gif","images/stimuli/spore_stims/simple_07_B_c.gif","","","","","4","simple_similar","images/stimuli/spore_stims/simple_07_B_c.gif","right","","","","",""
"","null","html-keyboard-response","94","374818","0.0-20.0-0.7","SS1613102264134","","","null","","","","","<p><img src= images/blank.png width =""200"" height = ""200"" style = ""float:right""></p><p><img src=images/blank.png width =""800"" height = ""200""></p>","","","","","","","","","","","",""
"","74.58000001497567","sequential-stimulus-presentation","95","375705","0.0-20.0-1.7","SS1613102264134","trial","","40","800","874.5800000149757","images/stimuli/spore_stims/simple_07_A_c.gif","images/stimuli/spore_stims/simple_07_B_c.gif","","","","","4","simple_similar","images/stimuli/spore_stims/simple_07_B_c.gif","right","","","","",""
"","2323.869999992894","html-keyboard-response","96","378033","0.0-21.0","SS1613102264134","pref_question","","99","","","","","<video width ='960' height = '540' style='padding-top:8%' autoplay muted><source src='images/stimuli/wall_pref.mp4' type='video/mp4'></video>","3","right","66%","4","","","","","","","",""
"","848.3299999788869","sequential-stimulus-presentation","97","379689","0.0-22.0","SS1613102264134","pref_reveal","","40","800","1648.329999978887","null","null","","","","","4","","","","background","","","",""
"","null","html-keyboard-response","98","380780","0.0-23.0-0.0","SS1613102264134","","","null","","","","","<p><img src= images/blank.png width =""200"" height = ""200"" style = ""float:right""></p><p><img src=images/blank.png width =""800"" height = ""200""></p>","","","","","","","","","","","",""
"","60.64999999944121","sequential-stimulus-presentation","99","381657","0.0-23.0-1.0","SS1613102264134","trial","","40","800","860.6499999994412","images/stimuli/spore_stims/complex_01_B_d.gif","images/stimuli/spore_stims/complex_15_A_c.gif","","","","","5","complex_dissimilar","images/stimuli/spore_stims/complex_15_A_c.gif","middle","","","","",""
"","null","html-keyboard-response","100","382928","0.0-23.0-0.1","SS1613102264134","","","null","","","","","<p><img src= images/blank.png width =""200"" height = ""200"" style = ""float:right""></p><p><img src=images/blank.png width =""800"" height = ""200""></p>","","","","","","","","","","","",""
"","119.01500000385568","sequential-stimulus-presentation","101","383858","0.0-23.0-1.1","SS1613102264134","trial","","40","800","919.0150000038557","images/stimuli/spore_stims/complex_01_B_d.gif","images/stimuli/spore_stims/complex_15_A_c.gif","","","","","5","complex_dissimilar","images/stimuli/spore_stims/complex_15_A_c.gif","middle","","","","",""
"","null","html-keyboard-response","102","385131","0.0-23.0-0.2","SS1613102264134","","","null","","","","","<p><img src= images/blank.png width =""200"" height = ""200"" style = ""float:right""></p><p><img src=images/blank.png width =""800"" height = ""200""></p>","","","","","","","","","","","",""
"","69.74999999511056","sequential-stimulus-presentation","103","386017","0.0-23.0-1.2","SS1613102264134","trial","","40","800","869.7499999951106","images/stimuli/spore_stims/complex_01_B_d.gif","images/stimuli/spore_stims/complex_15_A_c.gif","","","","","5","complex_dissimilar","images/stimuli/spore_stims/complex_15_A_c.gif","middle","","","","",""
"","null","html-keyboard-response","104","386978","0.0-23.0-0.3","SS1613102264134","","","null","","","","","<p><img src= images/blank.png width =""200"" height = ""200"" style = ""float:right""></p><p><img src=images/blank.png width =""800"" height = ""200""></p>","","","","","","","","","","","",""
"","353.12499999417923","sequential-stimulus-presentation","105","388144","0.0-23.0-1.3","SS1613102264134","trial","","40","800","1153.1249999941792","images/stimuli/spore_stims/complex_01_B_d.gif","images/stimuli/spore_stims/complex_15_A_c.gif","","","","","5","complex_dissimilar","images/stimuli/spore_stims/complex_15_A_c.gif","middle","","","","",""
"","null","html-keyboard-response","106","389018","0.0-23.0-0.4","SS1613102264134","","","null","","","","","<p><img src= images/blank.png width =""200"" height = ""200"" style = ""float:right""></p><p><img src=images/blank.png width =""800"" height = ""200""></p>","","","","","","","","","","","",""
"","378.9049999904819","sequential-stimulus-presentation","107","390202","0.0-23.0-1.4","SS1613102264134","trial","","40","800","1178.9049999904819","images/stimuli/spore_stims/complex_01_B_d.gif","images/stimuli/spore_stims/complex_15_A_c.gif","","","","","5","complex_dissimilar","images/stimuli/spore_stims/complex_15_A_c.gif","middle","","","","",""
"","null","html-keyboard-response","108","391265","0.0-23.0-0.5","SS1613102264134","","","null","","","","","<p><img src= images/blank.png width =""200"" height = ""200"" style = ""float:right""></p><p><img src=images/blank.png width =""800"" height = ""200""></p>","","","","","","","","","","","",""
"","635.0300000049174","sequential-stimulus-presentation","109","392713","0.0-23.0-1.5","SS1613102264134","trial","","40","800","1435.0300000049174","images/stimuli/spore_stims/complex_01_B_d.gif","images/stimuli/spore_stims/complex_15_A_c.gif","","","","","5","complex_dissimilar","images/stimuli/spore_stims/complex_15_A_c.gif","middle","","","","",""
"","null","html-keyboard-response","110","393621","0.0-23.0-0.6","SS1613102264134","","","null","","","","","<p><img src= images/blank.png width =""200"" height = ""200"" style = ""float:right""></p><p><img src=images/blank.png width =""800"" height = ""200""></p>","","","","","","","","","","","",""
"","51.899999991292134","sequential-stimulus-presentation","111","394489","0.0-23.0-1.6","SS1613102264134","trial","","40","800","851.8999999912921","images/stimuli/spore_stims/complex_01_B_d.gif","images/stimuli/spore_stims/complex_15_A_c.gif","","","","","5","complex_dissimilar","images/stimuli/spore_stims/complex_01_B_d.gif","left","","","","",""
"","null","html-keyboard-response","112","395737","0.0-23.0-0.7","SS1613102264134","","","null","","","","","<p><img src= images/blank.png width =""200"" height = ""200"" style = ""float:right""></p><p><img src=images/blank.png width =""800"" height = ""200""></p>","","","","","","","","","","","",""
"","225.60500001418404","sequential-stimulus-presentation","113","396775","0.0-23.0-1.7","SS1613102264134","trial","","40","800","1025.605000014184","images/stimuli/spore_stims/complex_01_B_d.gif","images/stimuli/spore_stims/complex_15_A_c.gif","","","","","5","complex_dissimilar","images/stimuli/spore_stims/complex_15_A_c.gif","middle","","","","",""
"","2689.9849999754224","html-keyboard-response","114","399472","0.0-24.0","SS1613102264134","pref_question","","98","","","","","<video width ='960' height = '540' style='padding-top:8%' autoplay muted><source src='images/stimuli/wall_pref.mp4' type='video/mp4'></video>","2","middle","45%","5","","","","","","","",""
"","3955.06999999634","sequential-stimulus-presentation","115","404232","0.0-25.0","SS1613102264134","pref_reveal","","40","800","4755.06999999634","null","null","","","","","5","","","","background","","","",""
"","null","html-keyboard-response","116","405262","0.0-26.0-0.0","SS1613102264134","","","null","","","","","<p><img src= images/blank.png width =""200"" height = ""200"" style = ""float:right""></p><p><img src=images/blank.png width =""800"" height = ""200""></p>","","","","","","","","","","","",""
"","977.0799999823794","sequential-stimulus-presentation","117","407057","0.0-26.0-1.0","SS1613102264134","trial","","40","800","1777.0799999823794","images/stimuli/spore_stims/complex_16_A_d.gif","images/stimuli/spore_stims/complex_16_B_d.gif","","","","","6","complex_similar","images/stimuli/spore_stims/complex_16_B_d.gif","middle","","","","",""
"","null","html-keyboard-response","118","408310","0.0-26.0-0.1","SS1613102264134","","","null","","","","","<p><img src= images/blank.png width =""200"" height = ""200"" style = ""float:right""></p><p><img src=images/blank.png width =""800"" height = ""200""></p>","","","","","","","","","","","",""
"","432.7399999892805","sequential-stimulus-presentation","119","409560","0.0-26.0-1.1","SS1613102264134","trial","","40","800","1232.7399999892805","images/stimuli/spore_stims/complex_16_A_d.gif","images/stimuli/spore_stims/complex_16_B_d.gif","","","","","6","complex_similar","images/stimuli/spore_stims/complex_16_B_d.gif","middle","","","","",""
"","null","html-keyboard-response","120","410478","0.0-26.0-0.2","SS1613102264134","","","null","","","","","<p><img src= images/blank.png width =""200"" height = ""200"" style = ""float:right""></p><p><img src=images/blank.png width =""800"" height = ""200""></p>","","","","","","","","","","","",""
"","137.20999998622574","sequential-stimulus-presentation","121","411432","0.0-26.0-1.2","SS1613102264134","trial","","40","800","937.2099999862257","images/stimuli/spore_stims/complex_16_A_d.gif","images/stimuli/spore_stims/complex_16_B_d.gif","","","","","6","complex_similar","images/stimuli/spore_stims/complex_16_B_d.gif","middle","","","","",""
"","null","html-keyboard-response","122","412333","0.0-26.0-0.3","SS1613102264134","","","null","","","","","<p><img src= images/blank.png width =""200"" height = ""200"" style = ""float:right""></p><p><img src=images/blank.png width =""800"" height = ""200""></p>","","","","","","","","","","","",""
"","545.9200000041164","sequential-stimulus-presentation","123","413688","0.0-26.0-1.3","SS1613102264134","trial","","40","800","1345.9200000041164","images/stimuli/spore_stims/complex_16_A_d.gif","images/stimuli/spore_stims/complex_16_B_d.gif","","","","","6","complex_similar","images/stimuli/spore_stims/complex_16_B_d.gif","middle","","","","",""
"","null","html-keyboard-response","124","414950","0.0-26.0-0.4","SS1613102264134","","","null","","","","","<p><img src= images/blank.png width =""200"" height = ""200"" style = ""float:right""></p><p><img src=images/blank.png width =""800"" height = ""200""></p>","","","","","","","","","","","",""
"","695.5049999814946","sequential-stimulus-presentation","125","416458","0.0-26.0-1.4","SS1613102264134","trial","","40","800","1495.5049999814946","images/stimuli/spore_stims/complex_16_A_d.gif","images/stimuli/spore_stims/complex_16_B_d.gif","","","","","6","complex_similar","images/stimuli/spore_stims/complex_16_B_d.gif","middle","","","","",""
"","null","html-keyboard-response","126","417287","0.0-26.0-0.5","SS1613102264134","","","null","","","","","<p><img src= images/blank.png width =""200"" height = ""200"" style = ""float:right""></p><p><img src=images/blank.png width =""800"" height = ""200""></p>","","","","","","","","","","","",""
"","529.4400000129826","sequential-stimulus-presentation","127","418640","0.0-26.0-1.5","SS1613102264134","trial","","40","800","1329.4400000129826","images/stimuli/spore_stims/complex_16_A_d.gif","images/stimuli/spore_stims/complex_16_B_d.gif","","","","","6","complex_similar","images/stimuli/spore_stims/complex_16_A_d.gif","right","","","","",""
"","null","html-keyboard-response","128","419915","0.0-26.0-0.6","SS1613102264134","","","null","","","","","<p><img src= images/blank.png width =""200"" height = ""200"" style = ""float:right""></p><p><img src=images/blank.png width =""800"" height = ""200""></p>","","","","","","","","","","","",""
"","855.7349999900907","sequential-stimulus-presentation","129","421577","0.0-26.0-1.6","SS1613102264134","trial","","40","800","1655.7349999900907","images/stimuli/spore_stims/complex_16_A_d.gif","images/stimuli/spore_stims/complex_16_B_d.gif","","","","","6","complex_similar","images/stimuli/spore_stims/complex_16_B_d.gif","middle","","","","",""
"","null","html-keyboard-response","130","422828","0.0-26.0-0.7","SS1613102264134","","","null","","","","","<p><img src= images/blank.png width =""200"" height = ""200"" style = ""float:right""></p><p><img src=images/blank.png width =""800"" height = ""200""></p>","","","","","","","","","","","",""
"","94.59999998216517","sequential-stimulus-presentation","131","423736","0.0-26.0-1.7","SS1613102264134","trial","","40","800","894.5999999821652","images/stimuli/spore_stims/complex_16_A_d.gif","images/stimuli/spore_stims/complex_16_B_d.gif","","","","","6","complex_similar","images/stimuli/spore_stims/complex_16_B_d.gif","middle","","","","",""
"","2263.9499999932013","html-keyboard-response","132","426008","0.0-27.0","SS1613102264134","pref_question","","98","","","","","<video width ='960' height = '540' style='padding-top:8%' autoplay muted><source src='images/stimuli/wall_pref.mp4' type='video/mp4'></video>","2","middle","45%","6","","","","","","","",""
"","306.4349999767728","sequential-stimulus-presentation","133","427120","0.0-28.0","SS1613102264134","pref_reveal","","40","800","1106.4349999767728","null","null","","","","","6","","","","background","","","",""
"","null","html-keyboard-response","134","428135","0.0-29.0-0.0","SS1613102264134","","","null","","","","","<p><img src= images/blank.png width =""200"" height = ""200"" style = ""float:right""></p><p><img src=images/blank.png width =""800"" height = ""200""></p>","","","","","","","","","","","",""
"","153.7300000200048","sequential-stimulus-presentation","135","429105","0.0-29.0-1.0","SS1613102264134","trial","","40","800","953.7300000200048","images/stimuli/spore_stims/simple_16_A_d.gif","images/stimuli/spore_stims/simple_16_B_d.gif","","","","","7","simple_similar","images/stimuli/spore_stims/simple_16_B_d.gif","right","","","","",""
"","null","html-keyboard-response","136","430157","0.0-29.0-0.1","SS1613102264134","","","null","","","","","<p><img src= images/blank.png width =""200"" height = ""200"" style = ""float:right""></p><p><img src=images/blank.png width =""800"" height = ""200""></p>","","","","","","","","","","","",""
"","92.90499999769963","sequential-stimulus-presentation","137","431058","0.0-29.0-1.1","SS1613102264134","trial","","40","800","892.9049999976996","images/stimuli/spore_stims/simple_16_A_d.gif","images/stimuli/spore_stims/simple_16_B_d.gif","","","","","7","simple_similar","images/stimuli/spore_stims/simple_16_B_d.gif","right","","","","",""
"","null","html-keyboard-response","138","431906","0.0-29.0-0.2","SS1613102264134","","","null","","","","","<p><img src= images/blank.png width =""200"" height = ""200"" style = ""float:right""></p><p><img src=images/blank.png width =""800"" height = ""200""></p>","","","","","","","","","","","",""
"","374.30999998468906","sequential-stimulus-presentation","139","433089","0.0-29.0-1.2","SS1613102264134","trial","","40","800","1174.309999984689","images/stimuli/spore_stims/simple_16_A_d.gif","images/stimuli/spore_stims/simple_16_B_d.gif","","","","","7","simple_similar","images/stimuli/spore_stims/simple_16_B_d.gif","right","","","","",""
"","null","html-keyboard-response","140","434386","0.0-29.0-0.3","SS1613102264134","","","null","","","","","<p><img src= images/blank.png width =""200"" height = ""200"" style = ""float:right""></p><p><img src=images/blank.png width =""800"" height = ""200""></p>","","","","","","","","","","","",""
"","713.160000013886","sequential-stimulus-presentation","141","435912","0.0-29.0-1.3","SS1613102264134","trial","","40","800","1513.160000013886","images/stimuli/spore_stims/simple_16_A_d.gif","images/stimuli/spore_stims/simple_16_B_d.gif","","","","","7","simple_similar","images/stimuli/spore_stims/simple_16_B_d.gif","right","","","","",""
"","null","html-keyboard-response","142","436874","0.0-29.0-0.4","SS1613102264134","","","null","","","","","<p><img src= images/blank.png width =""200"" height = ""200"" style = ""float:right""></p><p><img src=images/blank.png width =""800"" height = ""200""></p>","","","","","","","","","","","",""
"","535.4349999979604","sequential-stimulus-presentation","143","438225","0.0-29.0-1.4","SS1613102264134","trial","","40","800","1335.4349999979604","images/stimuli/spore_stims/simple_16_A_d.gif","images/stimuli/spore_stims/simple_16_B_d.gif","","","","","7","simple_similar","images/stimuli/spore_stims/simple_16_A_d.gif","left","","","","",""
"","null","html-keyboard-response","144","439333","0.0-29.0-0.5","SS1613102264134","","","null","","","","","<p><img src= images/blank.png width =""200"" height = ""200"" style = ""float:right""></p><p><img src=images/blank.png width =""800"" height = ""200""></p>","","","","","","","","","","","",""
"","957.204999984242","sequential-stimulus-presentation","145","441105","0.0-29.0-1.5","SS1613102264134","trial","","40","800","1757.204999984242","images/stimuli/spore_stims/simple_16_A_d.gif","images/stimuli/spore_stims/simple_16_B_d.gif","","","","","7","simple_similar","images/stimuli/spore_stims/simple_16_B_d.gif","right","","","","",""
"","null","html-keyboard-response","146","441934","0.0-29.0-0.6","SS1613102264134","","","null","","","","","<p><img src= images/blank.png width =""200"" height = ""200"" style = ""float:right""></p><p><img src=images/blank.png width =""800"" height = ""200""></p>","","","","","","","","","","","",""
"","1780.060000019148","sequential-stimulus-presentation","147","444530","0.0-29.0-1.6","SS1613102264134","trial","","40","800","2580.060000019148","images/stimuli/spore_stims/simple_16_A_d.gif","images/stimuli/spore_stims/simple_16_B_d.gif","","","","","7","simple_similar","images/stimuli/spore_stims/simple_16_B_d.gif","right","","","","",""
"","null","html-keyboard-response","148","445792","0.0-29.0-0.7","SS1613102264134","","","null","","","","","<p><img src= images/blank.png width =""200"" height = ""200"" style = ""float:right""></p><p><img src=images/blank.png width =""800"" height = ""200""></p>","","","","","","","","","","","",""
"","531.025000003865","sequential-stimulus-presentation","149","447144","0.0-29.0-1.7","SS1613102264134","trial","","40","800","1331.025000003865","images/stimuli/spore_stims/simple_16_A_d.gif","images/stimuli/spore_stims/simple_16_B_d.gif","","","","","7","simple_similar","images/stimuli/spore_stims/simple_16_B_d.gif","right","","","","",""
"","4444.224999984726","html-keyboard-response","150","451593","0.0-30.0","SS1613102264134","pref_question","","99","","","","","<video width ='960' height = '540' style='padding-top:8%' autoplay muted><source src='images/stimuli/wall_pref.mp4' type='video/mp4'></video>","3","right","66%","7","","","","","","","",""
"","526.8700000015087","sequential-stimulus-presentation","151","452936","0.0-31.0","SS1613102264134","pref_reveal","","40","800","1326.8700000015087","null","null","","","","","7","","","","background","","","",""
"","null","html-keyboard-response","152","453954","0.0-32.0-0.0","SS1613102264134","","","null","","","","","<p><img src= images/blank.png width =""200"" height = ""200"" style = ""float:right""></p><p><img src=images/blank.png width =""800"" height = ""200""></p>","","","","","","","","","","","",""
"","78.2550000003539","sequential-stimulus-presentation","153","454841","0.0-32.0-1.0","SS1613102264134","trial","","40","800","878.2550000003539","images/stimuli/spore_stims/complex_17_B_a.gif","images/stimuli/spore_stims/complex_17_A_a.gif","","","","","8","complex_similar","images/stimuli/spore_stims/complex_17_A_a.gif","right","","","","",""
"","null","html-keyboard-response","154","456084","0.0-32.0-0.1","SS1613102264134","","","null","","","","","<p><img src= images/blank.png width =""200"" height = ""200"" style = ""float:right""></p><p><img src=images/blank.png width =""800"" height = ""200""></p>","","","","","","","","","","","",""
"","448.3649999892805","sequential-stimulus-presentation","155","457344","0.0-32.0-1.1","SS1613102264134","trial","","40","800","1248.3649999892805","images/stimuli/spore_stims/complex_17_B_a.gif","images/stimuli/spore_stims/complex_17_A_a.gif","","","","","8","complex_similar","images/stimuli/spore_stims/complex_17_A_a.gif","right","","","","",""
"","null","html-keyboard-response","156","458636","0.0-32.0-0.2","SS1613102264134","","","null","","","","","<p><img src= images/blank.png width =""200"" height = ""200"" style = ""float:right""></p><p><img src=images/blank.png width =""800"" height = ""200""></p>","","","","","","","","","","","",""
"","138.31999999820255","sequential-stimulus-presentation","157","459589","0.0-32.0-1.2","SS1613102264134","trial","","40","800","938.3199999982025","images/stimuli/spore_stims/complex_17_B_a.gif","images/stimuli/spore_stims/complex_17_A_a.gif","","","","","8","complex_similar","images/stimuli/spore_stims/complex_17_A_a.gif","right","","","","",""
"","null","html-keyboard-response","158","460450","0.0-32.0-0.3","SS1613102264134","","","null","","","","","<p><img src= images/blank.png width =""200"" height = ""200"" style = ""float:right""></p><p><img src=images/blank.png width =""800"" height = ""200""></p>","","","","","","","","","","","",""
"","646.4649999979883","sequential-stimulus-presentation","159","461929","0.0-32.0-1.3","SS1613102264134","trial","","40","800","1446.4649999979883","images/stimuli/spore_stims/complex_17_B_a.gif","images/stimuli/spore_stims/complex_17_A_a.gif","","","","","8","complex_similar","images/stimuli/spore_stims/complex_17_A_a.gif","right","","","","",""
"","null","html-keyboard-response","160","462774","0.0-32.0-0.4","SS1613102264134","","","null","","","","","<p><img src= images/blank.png width =""200"" height = ""200"" style = ""float:right""></p><p><img src=images/blank.png width =""800"" height = ""200""></p>","","","","","","","","","","","",""
"","1287.784999993164","sequential-stimulus-presentation","161","464880","0.0-32.0-1.4","SS1613102264134","trial","","40","800","2087.784999993164","images/stimuli/spore_stims/complex_17_B_a.gif","images/stimuli/spore_stims/complex_17_A_a.gif","","","","","8","complex_similar","images/stimuli/spore_stims/complex_17_B_a.gif","middle","","","","",""
"","null","html-keyboard-response","162","465735","0.0-32.0-0.5","SS1613102264134","","","null","","","","","<p><img src= images/blank.png width =""200"" height = ""200"" style = ""float:right""></p><p><img src=images/blank.png width =""800"" height = ""200""></p>","","","","","","","","","","","",""
"","32.910000008996576","sequential-stimulus-presentation","163","466585","0.0-32.0-1.5","SS1613102264134","trial","","40","800","832.9100000089966","images/stimuli/spore_stims/complex_17_B_a.gif","images/stimuli/spore_stims/complex_17_A_a.gif","","","","","8","complex_similar","images/stimuli/spore_stims/complex_17_A_a.gif","right","","","","",""
"","null","html-keyboard-response","164","467723","0.0-32.0-0.6","SS1613102264134","","","null","","","","","<p><img src= images/blank.png width =""200"" height = ""200"" style = ""float:right""></p><p><img src=images/blank.png width =""800"" height = ""200""></p>","","","","","","","","","","","",""
"","486.6150000016205","sequential-stimulus-presentation","165","469024","0.0-32.0-1.6","SS1613102264134","trial","","40","800","1286.6150000016205","images/stimuli/spore_stims/complex_17_B_a.gif","images/stimuli/spore_stims/complex_17_A_a.gif","","","","","8","complex_similar","images/stimuli/spore_stims/complex_17_A_a.gif","right","","","","",""
"","null","html-keyboard-response","166","470295","0.0-32.0-0.7","SS1613102264134","","","null","","","","","<p><img src= images/blank.png width =""200"" height = ""200"" style = ""float:right""></p><p><img src=images/blank.png width =""800"" height = ""200""></p>","","","","","","","","","","","",""
"","1.289999985601753","sequential-stimulus-presentation","167","471114","0.0-32.0-1.7","SS1613102264134","trial","","40","800","801.2899999856018","images/stimuli/spore_stims/complex_17_B_a.gif","images/stimuli/spore_stims/complex_17_A_a.gif","","","","","8","complex_similar","images/stimuli/spore_stims/complex_17_A_a.gif","right","","","","",""
"","1509.1900000115857","html-keyboard-response","168","472633","0.0-33.0","SS1613102264134","pref_question","","99","","","","","<video width ='960' height = '540' style='padding-top:8%' autoplay muted><source src='images/stimuli/wall_pref.mp4' type='video/mp4'></video>","3","right","66%","8","","","","","","","",""
"","225.52999999606982","sequential-stimulus-presentation","169","473696","0.0-34.0","SS1613102264134","pref_reveal","","40","800","1025.5299999960698","null","null","","","","","8","","","","background","","","",""
"","null","html-keyboard-response","170","474882","0.0-35.0-0.0","SS1613102264134","","","null","","","","","<p><img src= images/blank.png width =""200"" height = ""200"" style = ""float:right""></p><p><img src=images/blank.png width =""800"" height = ""200""></p>","","","","","","","","","","","",""
"","34.379999997327104","sequential-stimulus-presentation","171","475736","0.0-35.0-1.0","SS1613102264134","trial","","40","800","834.3799999973271","images/stimuli/spore_stims/simple_13_A_a.gif","images/stimuli/spore_stims/simple_13_B_a.gif","","","","","9","simple_similar","images/stimuli/spore_stims/simple_13_B_a.gif","left","","","","",""
"","null","html-keyboard-response","172","476816","0.0-35.0-0.1","SS1613102264134","","","null","","","","","<p><img src= images/blank.png width =""200"" height = ""200"" style = ""float:right""></p><p><img src=images/blank.png width =""800"" height = ""200""></p>","","","","","","","","","","","",""
"","592.3349999939092","sequential-stimulus-presentation","173","478224","0.0-35.0-1.1","SS1613102264134","trial","","40","800","1392.3349999939092","images/stimuli/spore_stims/simple_13_A_a.gif","images/stimuli/spore_stims/simple_13_B_a.gif","","","","","9","simple_similar","images/stimuli/spore_stims/simple_13_B_a.gif","left","","","","",""
"","null","html-keyboard-response","174","479082","0.0-35.0-0.2","SS1613102264134","","","null","","","","","<p><img src= images/blank.png width =""200"" height = ""200"" style = ""float:right""></p><p><img src=images/blank.png width =""800"" height = ""200""></p>","","","","","","","","","","","",""
"","575.2500000235159","sequential-stimulus-presentation","175","480474","0.0-35.0-1.2","SS1613102264134","trial","","40","800","1375.250000023516","images/stimuli/spore_stims/simple_13_A_a.gif","images/stimuli/spore_stims/simple_13_B_a.gif","","","","","9","simple_similar","images/stimuli/spore_stims/simple_13_B_a.gif","left","","","","",""
"","null","html-keyboard-response","176","481670","0.0-35.0-0.3","SS1613102264134","","","null","","","","","<p><img src= images/blank.png width =""200"" height = ""200"" style = ""float:right""></p><p><img src=images/blank.png width =""800"" height = ""200""></p>","","","","","","","","","","","",""
"","6.534999993164092","sequential-stimulus-presentation","177","482496","0.0-35.0-1.3","SS1613102264134","trial","","40","800","806.5349999931641","images/stimuli/spore_stims/simple_13_A_a.gif","images/stimuli/spore_stims/simple_13_B_a.gif","","","","","9","simple_similar","images/stimuli/spore_stims/simple_13_B_a.gif","left","","","","",""
"","null","html-keyboard-response","178","483321","0.0-35.0-0.4","SS1613102264134","","","null","","","","","<p><img src= images/blank.png width =""200"" height = ""200"" style = ""float:right""></p><p><img src=images/blank.png width =""800"" height = ""200""></p>","","","","","","","","","","","",""
"","20.674999977927655","sequential-stimulus-presentation","179","484151","0.0-35.0-1.4","SS1613102264134","trial","","40","800","820.6749999779277","images/stimuli/spore_stims/simple_13_A_a.gif","images/stimuli/spore_stims/simple_13_B_a.gif","","","","","9","simple_similar","images/stimuli/spore_stims/simple_13_B_a.gif","left","","","","",""
"","null","html-keyboard-response","180","485153","0.0-35.0-0.5","SS1613102264134","","","null","","","","","<p><img src= images/blank.png width =""200"" height = ""200"" style = ""float:right""></p><p><img src=images/blank.png width =""800"" height = ""200""></p>","","","","","","","","","","","",""
"","102.66499998397194","sequential-stimulus-presentation","181","486071","0.0-35.0-1.5","SS1613102264134","trial","","40","800","902.6649999839719","images/stimuli/spore_stims/simple_13_A_a.gif","images/stimuli/spore_stims/simple_13_B_a.gif","","","","","9","simple_similar","images/stimuli/spore_stims/simple_13_B_a.gif","left","","","","",""
"","null","html-keyboard-response","182","487001","0.0-35.0-0.6","SS1613102264134","","","null","","","","","<p><img src= images/blank.png width =""200"" height = ""200"" style = ""float:right""></p><p><img src=images/blank.png width =""800"" height = ""200""></p>","","","","","","","","","","","",""
"","2144.6100000175647","sequential-stimulus-presentation","183","489952","0.0-35.0-1.6","SS1613102264134","trial","","40","800","2944.6100000175647","images/stimuli/spore_stims/simple_13_A_a.gif","images/stimuli/spore_stims/simple_13_B_a.gif","","","","","9","simple_similar","images/stimuli/spore_stims/simple_13_A_a.gif","middle","","","","",""
"","null","html-keyboard-response","184","491215","0.0-35.0-0.7","SS1613102264134","","","null","","","","","<p><img src= images/blank.png width =""200"" height = ""200"" style = ""float:right""></p><p><img src=images/blank.png width =""800"" height = ""200""></p>","","","","","","","","","","","",""
"","483.86499998741783","sequential-stimulus-presentation","185","492551","0.0-35.0-1.7","SS1613102264134","trial","","40","800","1283.8649999874178","images/stimuli/spore_stims/simple_13_A_a.gif","images/stimuli/spore_stims/simple_13_B_a.gif","","","","","9","simple_similar","images/stimuli/spore_stims/simple_13_B_a.gif","left","","","","",""
"","2273.8200000021607","html-keyboard-response","186","494833","0.0-36.0","SS1613102264134","pref_question","","97","","","","","<video width ='960' height = '540' style='padding-top:8%' autoplay muted><source src='images/stimuli/wall_pref.mp4' type='video/mp4'></video>","1","left","25%","9","","","","","","","",""
"","303.27000000397675","sequential-stimulus-presentation","187","495951","0.0-37.0","SS1613102264134","pref_reveal","","40","800","1103.2700000039767","null","null","","","","","9","","","","background","","","",""
"","null","html-keyboard-response","188","497254","0.0-38.0-0.0","SS1613102264134","","","null","","","","","<p><img src= images/blank.png width =""200"" height = ""200"" style = ""float:right""></p><p><img src=images/blank.png width =""800"" height = ""200""></p>","","","","","","","","","","","",""
"","343.4449999767821","sequential-stimulus-presentation","189","498416","0.0-38.0-1.0","SS1613102264134","trial","","40","800","1143.4449999767821","images/stimuli/spore_stims/simple_12_A_a.gif","images/stimuli/spore_stims/simple_02_A_a.gif","","","","","10","simple_dissimilar","images/stimuli/spore_stims/simple_02_A_a.gif","left","","","","",""
"","null","html-keyboard-response","190","499585","0.0-38.0-0.1","SS1613102264134","","","null","","","","","<p><img src= images/blank.png width =""200"" height = ""200"" style = ""float:right""></p><p><img src=images/blank.png width =""800"" height = ""200""></p>","","","","","","","","","","","",""
"","596.3449999981094","sequential-stimulus-presentation","191","501000","0.0-38.0-1.1","SS1613102264134","trial","","40","800","1396.3449999981094","images/stimuli/spore_stims/simple_12_A_a.gif","images/stimuli/spore_stims/simple_02_A_a.gif","","","","","10","simple_dissimilar","images/stimuli/spore_stims/simple_02_A_a.gif","left","","","","",""
"","null","html-keyboard-response","192","502243","0.0-38.0-0.2","SS1613102264134","","","null","","","","","<p><img src= images/blank.png width =""200"" height = ""200"" style = ""float:right""></p><p><img src=images/blank.png width =""800"" height = ""200""></p>","","","","","","","","","","","",""
"","126.17000000318512","sequential-stimulus-presentation","193","503177","0.0-38.0-1.2","SS1613102264134","trial","","40","800","926.1700000031851","images/stimuli/spore_stims/simple_12_A_a.gif","images/stimuli/spore_stims/simple_02_A_a.gif","","","","","10","simple_dissimilar","images/stimuli/spore_stims/simple_02_A_a.gif","left","","","","",""
"","null","html-keyboard-response","194","504122","0.0-38.0-0.3","SS1613102264134","","","null","","","","","<p><img src= images/blank.png width =""200"" height = ""200"" style = ""float:right""></p><p><img src=images/blank.png width =""800"" height = ""200""></p>","","","","","","","","","","","",""
"","71.47500000428408","sequential-stimulus-presentation","195","505016","0.0-38.0-1.3","SS1613102264134","trial","","40","800","871.4750000042841","images/stimuli/spore_stims/simple_12_A_a.gif","images/stimuli/spore_stims/simple_02_A_a.gif","","","","","10","simple_dissimilar","images/stimuli/spore_stims/simple_02_A_a.gif","left","","","","",""
"","null","html-keyboard-response","196","506321","0.0-38.0-0.4","SS1613102264134","","","null","","","","","<p><img src= images/blank.png width =""200"" height = ""200"" style = ""float:right""></p><p><img src=images/blank.png width =""800"" height = ""200""></p>","","","","","","","","","","","",""
"","10721.014999988256","sequential-stimulus-presentation","197","517864","0.0-38.0-1.4","SS1613102264134","trial","","40","800","11521.014999988256","images/stimuli/spore_stims/simple_12_A_a.gif","images/stimuli/spore_stims/simple_02_A_a.gif","","","","","10","simple_dissimilar","images/stimuli/spore_stims/simple_12_A_a.gif","right","","","","",""
"","null","html-keyboard-response","198","518779","0.0-38.0-0.5","SS1613102264134","","","null","","","","","<p><img src= images/blank.png width =""200"" height = ""200"" style = ""float:right""></p><p><img src=images/blank.png width =""800"" height = ""200""></p>","","","","","","","","","","","",""
"","7058.270000008633","sequential-stimulus-presentation","199","526658","0.0-38.0-1.5","SS1613102264134","trial","","40","800","7858.270000008633","images/stimuli/spore_stims/simple_12_A_a.gif","images/stimuli/spore_stims/simple_02_A_a.gif","","","","","10","simple_dissimilar","images/stimuli/spore_stims/simple_02_A_a.gif","left","","","","",""
"","null","html-keyboard-response","200","527815","0.0-38.0-0.6","SS1613102264134","","","null","","","","","<p><img src= images/blank.png width =""200"" height = ""200"" style = ""float:right""></p><p><img src=images/blank.png width =""800"" height = ""200""></p>","","","","","","","","","","","",""
"","45743.860000016866","sequential-stimulus-presentation","201","574377","0.0-38.0-1.6","SS1613102264134","trial","","40","800","46543.860000016866","images/stimuli/spore_stims/simple_12_A_a.gif","images/stimuli/spore_stims/simple_02_A_a.gif","","","","","10","simple_dissimilar","images/stimuli/spore_stims/simple_02_A_a.gif","left","","","","",""
"","null","html-keyboard-response","202","575305","0.0-38.0-0.7","SS1613102264134","","","null","","","","","<p><img src= images/blank.png width =""200"" height = ""200"" style = ""float:right""></p><p><img src=images/blank.png width =""800"" height = ""200""></p>","","","","","","","","","","","",""
"","1142.8599999926519","sequential-stimulus-presentation","203","577257","0.0-38.0-1.7","SS1613102264134","trial","","40","800","1942.8599999926519","images/stimuli/spore_stims/simple_12_A_a.gif","images/stimuli/spore_stims/simple_02_A_a.gif","","","","","10","simple_dissimilar","images/stimuli/spore_stims/simple_02_A_a.gif","left","","","","",""
"","3684.2150000156835","html-keyboard-response","204","580961","0.0-39.0","SS1613102264134","pref_question","","97","","","","","<video width ='960' height = '540' style='padding-top:8%' autoplay muted><source src='images/stimuli/wall_pref.mp4' type='video/mp4'></video>","1","left","25%","10","","","","","","","",""
"","305.8500000042841","sequential-stimulus-presentation","205","582087","0.0-40.0","SS1613102264134","pref_reveal","","40","800","1105.850000004284","null","null","","","","","10","","","","background","","","",""
"","null","html-keyboard-response","206","583096","0.0-41.0-0.0","SS1613102264134","","","null","","","","","<p><img src= images/blank.png width =""200"" height = ""200"" style = ""float:right""></p><p><img src=images/blank.png width =""800"" height = ""200""></p>","","","","","","","","","","","",""
"","71.24499999918044","sequential-stimulus-presentation","207","583984","0.0-41.0-1.0","SS1613102264134","trial","","40","800","871.2449999991804","images/stimuli/spore_stims/complex_20_B_c.gif","images/stimuli/spore_stims/complex_05_B_d.gif","","","","","11","complex_dissimilar","images/stimuli/spore_stims/complex_05_B_d.gif","middle","","","","",""
"","null","html-keyboard-response","208","585020","0.0-41.0-0.1","SS1613102264134","","","null","","","","","<p><img src= images/blank.png width =""200"" height = ""200"" style = ""float:right""></p><p><img src=images/blank.png width =""800"" height = ""200""></p>","","","","","","","","","","","",""
"","74.20999999158084","sequential-stimulus-presentation","209","585904","0.0-41.0-1.1","SS1613102264134","trial","","40","800","874.2099999915808","images/stimuli/spore_stims/complex_20_B_c.gif","images/stimuli/spore_stims/complex_05_B_d.gif","","","","","11","complex_dissimilar","images/stimuli/spore_stims/complex_05_B_d.gif","middle","","","","",""
"","null","html-keyboard-response","210","586777","0.0-41.0-0.2","SS1613102264134","","","null","","","","","<p><img src= images/blank.png width =""200"" height = ""200"" style = ""float:right""></p><p><img src=images/blank.png width =""800"" height = ""200""></p>","","","","","","","","","","","",""
"","108.53999998653308","sequential-stimulus-presentation","211","587703","0.0-41.0-1.2","SS1613102264134","trial","","40","800","908.5399999865331","images/stimuli/spore_stims/complex_20_B_c.gif","images/stimuli/spore_stims/complex_05_B_d.gif","","","","","11","complex_dissimilar","images/stimuli/spore_stims/complex_05_B_d.gif","middle","","","","",""
"","null","html-keyboard-response","212","588826","0.0-41.0-0.3","SS1613102264134","","","null","","","","","<p><img src= images/blank.png width =""200"" height = ""200"" style = ""float:right""></p><p><img src=images/blank.png width =""800"" height = ""200""></p>","","","","","","","","","","","",""
"","434.3900000094436","sequential-stimulus-presentation","213","590080","0.0-41.0-1.3","SS1613102264134","trial","","40","800","1234.3900000094436","images/stimuli/spore_stims/complex_20_B_c.gif","images/stimuli/spore_stims/complex_05_B_d.gif","","","","","11","complex_dissimilar","images/stimuli/spore_stims/complex_20_B_c.gif","left","","","","",""
"","null","html-keyboard-response","214","591139","0.0-41.0-0.4","SS1613102264134","","","null","","","","","<p><img src= images/blank.png width =""200"" height = ""200"" style = ""float:right""></p><p><img src=images/blank.png width =""800"" height = ""200""></p>","","","","","","","","","","","",""
"","187.67000001389533","sequential-stimulus-presentation","215","592143","0.0-41.0-1.4","SS1613102264134","trial","","40","800","987.6700000138953","images/stimuli/spore_stims/complex_20_B_c.gif","images/stimuli/spore_stims/complex_05_B_d.gif","","","","","11","complex_dissimilar","images/stimuli/spore_stims/complex_05_B_d.gif","middle","","","","",""
"","null","html-keyboard-response","216","593014","0.0-41.0-0.5","SS1613102264134","","","null","","","","","<p><img src= images/blank.png width =""200"" height = ""200"" style = ""float:right""></p><p><img src=images/blank.png width =""800"" height = ""200""></p>","","","","","","","","","","","",""
"","88.15500000491738","sequential-stimulus-presentation","217","593919","0.0-41.0-1.5","SS1613102264134","trial","","40","800","888.1550000049174","images/stimuli/spore_stims/complex_20_B_c.gif","images/stimuli/spore_stims/complex_05_B_d.gif","","","","","11","complex_dissimilar","images/stimuli/spore_stims/complex_05_B_d.gif","middle","","","","",""
"","null","html-keyboard-response","218","594789","0.0-41.0-0.6","SS1613102264134","","","null","","","","","<p><img src= images/blank.png width =""200"" height = ""200"" style = ""float:right""></p><p><img src=images/blank.png width =""800"" height = ""200""></p>","","","","","","","","","","","",""
"","91.39000001596287","sequential-stimulus-presentation","219","595727","0.0-41.0-1.6","SS1613102264134","trial","","40","800","891.3900000159629","images/stimuli/spore_stims/complex_20_B_c.gif","images/stimuli/spore_stims/complex_05_B_d.gif","","","","","11","complex_dissimilar","images/stimuli/spore_stims/complex_05_B_d.gif","middle","","","","",""
"","null","html-keyboard-response","220","596674","0.0-41.0-0.7","SS1613102264134","","","null","","","","","<p><img src= images/blank.png width =""200"" height = ""200"" style = ""float:right""></p><p><img src=images/blank.png width =""800"" height = ""200""></p>","","","","","","","","","","","",""
"","159.61000000243075","sequential-stimulus-presentation","221","597655","0.0-41.0-1.7","SS1613102264134","trial","","40","800","959.6100000024308","images/stimuli/spore_stims/complex_20_B_c.gif","images/stimuli/spore_stims/complex_05_B_d.gif","","","","","11","complex_dissimilar","images/stimuli/spore_stims/complex_05_B_d.gif","middle","","","","",""
"","1671.0049999819603","html-keyboard-response","222","599335","0.0-42.0","SS1613102264134","pref_question","","98","","","","","<video width ='960' height = '540' style='padding-top:8%' autoplay muted><source src='images/stimuli/wall_pref.mp4' type='video/mp4'></video>","2","middle","45%","11","","","","","","","",""
"","207.26999998441897","sequential-stimulus-presentation","223","600359","0.0-43.0","SS1613102264134","pref_reveal","","40","800","1007.269999984419","null","null","","","","","11","","","","background","","","",""
"","null","html-keyboard-response","224","601247","0.0-44.0-0.0","SS1613102264134","","","null","","","","","<p><img src= images/blank.png width =""200"" height = ""200"" style = ""float:right""></p><p><img src=images/blank.png width =""800"" height = ""200""></p>","","","","","","","","","","","",""
"","93.50499999709427","sequential-stimulus-presentation","225","602159","0.0-44.0-1.0","SS1613102264134","trial","","40","800","893.5049999970943","images/stimuli/spore_stims/complex_14_B_b.gif","images/stimuli/spore_stims/complex_07_B_b.gif","","","","","12","complex_dissimilar","images/stimuli/spore_stims/complex_07_B_b.gif","left","","","","",""
"","null","html-keyboard-response","226","603095","0.0-44.0-0.1","SS1613102264134","","","null","","","","","<p><img src= images/blank.png width =""200"" height = ""200"" style = ""float:right""></p><p><img src=images/blank.png width =""800"" height = ""200""></p>","","","","","","","","","","","",""
"","429.51000001630746","sequential-stimulus-presentation","227","604343","0.0-44.0-1.1","SS1613102264134","trial","","40","800","1229.5100000163075","images/stimuli/spore_stims/complex_14_B_b.gif","images/stimuli/spore_stims/complex_07_B_b.gif","","","","","12","complex_dissimilar","images/stimuli/spore_stims/complex_07_B_b.gif","left","","","","",""
"","null","html-keyboard-response","228","605622","0.0-44.0-0.2","SS1613102264134","","","null","","","","","<p><img src= images/blank.png width =""200"" height = ""200"" style = ""float:right""></p><p><img src=images/blank.png width =""800"" height = ""200""></p>","","","","","","","","","","","",""
"","99.06999999657273","sequential-stimulus-presentation","229","606536","0.0-44.0-1.2","SS1613102264134","trial","","40","800","899.0699999965727","images/stimuli/spore_stims/complex_14_B_b.gif","images/stimuli/spore_stims/complex_07_B_b.gif","","","","","12","complex_dissimilar","images/stimuli/spore_stims/complex_07_B_b.gif","left","","","","",""
"","null","html-keyboard-response","230","607780","0.0-44.0-0.3","SS1613102264134","","","null","","","","","<p><img src= images/blank.png width =""200"" height = ""200"" style = ""float:right""></p><p><img src=images/blank.png width =""800"" height = ""200""></p>","","","","","","","","","","","",""
"","163.79500000039116","sequential-stimulus-presentation","231","608759","0.0-44.0-1.3","SS1613102264134","trial","","40","800","963.7950000003912","images/stimuli/spore_stims/complex_14_B_b.gif","images/stimuli/spore_stims/complex_07_B_b.gif","","","","","12","complex_dissimilar","images/stimuli/spore_stims/complex_14_B_b.gif","right","","","","",""
"","null","html-keyboard-response","232","609642","0.0-44.0-0.4","SS1613102264134","","","null","","","","","<p><img src= images/blank.png width =""200"" height = ""200"" style = ""float:right""></p><p><img src=images/blank.png width =""800"" height = ""200""></p>","","","","","","","","","","","",""
"","60.48499999451451","sequential-stimulus-presentation","233","610519","0.0-44.0-1.4","SS1613102264134","trial","","40","800","860.4849999945145","images/stimuli/spore_stims/complex_14_B_b.gif","images/stimuli/spore_stims/complex_07_B_b.gif","","","","","12","complex_dissimilar","images/stimuli/spore_stims/complex_07_B_b.gif","left","","","","",""
"","null","html-keyboard-response","234","611825","0.0-44.0-0.5","SS1613102264134","","","null","","","","","<p><img src= images/blank.png width =""200"" height = ""200"" style = ""float:right""></p><p><img src=images/blank.png width =""800"" height = ""200""></p>","","","","","","","","","","","",""
"","83.14999999129213","sequential-stimulus-presentation","235","612754","0.0-44.0-1.5","SS1613102264134","trial","","40","800","883.1499999912921","images/stimuli/spore_stims/complex_14_B_b.gif","images/stimuli/spore_stims/complex_07_B_b.gif","","","","","12","complex_dissimilar","images/stimuli/spore_stims/complex_07_B_b.gif","left","","","","",""
"","null","html-keyboard-response","236","613758","0.0-44.0-0.6","SS1613102264134","","","null","","","","","<p><img src= images/blank.png width =""200"" height = ""200"" style = ""float:right""></p><p><img src=images/blank.png width =""800"" height = ""200""></p>","","","","","","","","","","","",""
"","163.67999999783933","sequential-stimulus-presentation","237","614735","0.0-44.0-1.6","SS1613102264134","trial","","40","800","963.6799999978393","images/stimuli/spore_stims/complex_14_B_b.gif","images/stimuli/spore_stims/complex_07_B_b.gif","","","","","12","complex_dissimilar","images/stimuli/spore_stims/complex_07_B_b.gif","left","","","","",""
"","null","html-keyboard-response","238","615834","0.0-44.0-0.7","SS1613102264134","","","null","","","","","<p><img src= images/blank.png width =""200"" height = ""200"" style = ""float:right""></p><p><img src=images/blank.png width =""800"" height = ""200""></p>","","","","","","","","","","","",""
"","146.40999998664483","sequential-stimulus-presentation","239","616800","0.0-44.0-1.7","SS1613102264134","trial","","40","800","946.4099999866448","images/stimuli/spore_stims/complex_14_B_b.gif","images/stimuli/spore_stims/complex_07_B_b.gif","","","","","12","complex_dissimilar","images/stimuli/spore_stims/complex_07_B_b.gif","left","","","","",""
"","5272.599999996601","html-keyboard-response","240","622081","0.0-45.0","SS1613102264134","pref_question","","97","","","","","<video width ='960' height = '540' style='padding-top:8%' autoplay muted><source src='images/stimuli/wall_pref.mp4' type='video/mp4'></video>","1","left","25%","12","","","","","","","",""
"","127.91500001912937","sequential-stimulus-presentation","241","623031","0.0-46.0","SS1613102264134","pref_reveal","","40","800","927.9150000191294","null","null","","","","","12","","","","background","","","",""
"","null","html-keyboard-response","242","624067","0.0-47.0-0.0","SS1613102264134","","","null","","","","","<p><img src= images/blank.png width =""200"" height = ""200"" style = ""float:right""></p><p><img src=images/blank.png width =""800"" height = ""200""></p>","","","","","","","","","","","",""
"","39.42000001552515","sequential-stimulus-presentation","243","624927","0.0-47.0-1.0","SS1613102264134","trial","","40","800","839.4200000155251","images/stimuli/spore_stims/simple_17_A_c.gif","images/stimuli/spore_stims/simple_17_B_c.gif","","","","","13","simple_similar","images/stimuli/spore_stims/simple_17_B_c.gif","right","","","","",""
"","null","html-keyboard-response","244","625770","0.0-47.0-0.1","SS1613102264134","","","null","","","","","<p><img src= images/blank.png width =""200"" height = ""200"" style = ""float:right""></p><p><img src=images/blank.png width =""800"" height = ""200""></p>","","","","","","","","","","","",""
"","114.4849999982398","sequential-stimulus-presentation","245","626704","0.0-47.0-1.1","SS1613102264134","trial","","40","800","914.4849999982398","images/stimuli/spore_stims/simple_17_A_c.gif","images/stimuli/spore_stims/simple_17_B_c.gif","","","","","13","simple_similar","images/stimuli/spore_stims/simple_17_B_c.gif","right","","","","",""
"","null","html-keyboard-response","246","627550","0.0-47.0-0.2","SS1613102264134","","","null","","","","","<p><img src= images/blank.png width =""200"" height = ""200"" style = ""float:right""></p><p><img src=images/blank.png width =""800"" height = ""200""></p>","","","","","","","","","","","",""
"","6.7900000140070915","sequential-stimulus-presentation","247","628376","0.0-47.0-1.2","SS1613102264134","trial","","40","800","806.7900000140071","images/stimuli/spore_stims/simple_17_A_c.gif","images/stimuli/spore_stims/simple_17_B_c.gif","","","","","13","simple_similar","images/stimuli/spore_stims/simple_17_B_c.gif","right","","","","",""
"","null","html-keyboard-response","248","629546","0.0-47.0-0.3","SS1613102264134","","","null","","","","","<p><img src= images/blank.png width =""200"" height = ""200"" style = ""float:right""></p><p><img src=images/blank.png width =""800"" height = ""200""></p>","","","","","","","","","","","",""
"","48.29000000609085","sequential-stimulus-presentation","249","630418","0.0-47.0-1.3","SS1613102264134","trial","","40","800","848.2900000060908","images/stimuli/spore_stims/simple_17_A_c.gif","images/stimuli/spore_stims/simple_17_B_c.gif","","","","","13","simple_similar","images/stimuli/spore_stims/simple_17_B_c.gif","right","","","","",""
"","null","html-keyboard-response","250","631661","0.0-47.0-0.4","SS1613102264134","","","null","","","","","<p><img src= images/blank.png width =""200"" height = ""200"" style = ""float:right""></p><p><img src=images/blank.png width =""800"" height = ""200""></p>","","","","","","","","","","","",""
"","22.864999977173284","sequential-stimulus-presentation","251","632506","0.0-47.0-1.4","SS1613102264134","trial","","40","800","822.8649999771733","images/stimuli/spore_stims/simple_17_A_c.gif","images/stimuli/spore_stims/simple_17_B_c.gif","","","","","13","simple_similar","images/stimuli/spore_stims/simple_17_B_c.gif","right","","","","",""
"","null","html-keyboard-response","252","633573","0.0-47.0-0.5","SS1613102264134","","","null","","","","","<p><img src= images/blank.png width =""200"" height = ""200"" style = ""float:right""></p><p><img src=images/blank.png width =""800"" height = ""200""></p>","","","","","","","","","","","",""
"","105.16000000643544","sequential-stimulus-presentation","253","634498","0.0-47.0-1.5","SS1613102264134","trial","","40","800","905.1600000064354","images/stimuli/spore_stims/simple_17_A_c.gif","images/stimuli/spore_stims/simple_17_B_c.gif","","","","","13","simple_similar","images/stimuli/spore_stims/simple_17_A_c.gif","middle","","","","",""
"","null","html-keyboard-response","254","635350","0.0-47.0-0.6","SS1613102264134","","","null","","","","","<p><img src= images/blank.png width =""200"" height = ""200"" style = ""float:right""></p><p><img src=images/blank.png width =""800"" height = ""200""></p>","","","","","","","","","","","",""
"","42.23999998066574","sequential-stimulus-presentation","255","636227","0.0-47.0-1.6","SS1613102264134","trial","","40","800","842.2399999806657","images/stimuli/spore_stims/simple_17_A_c.gif","images/stimuli/spore_stims/simple_17_B_c.gif","","","","","13","simple_similar","images/stimuli/spore_stims/simple_17_B_c.gif","right","","","","",""
"","null","html-keyboard-response","256","637361","0.0-47.0-0.7","SS1613102264134","","","null","","","","","<p><img src= images/blank.png width =""200"" height = ""200"" style = ""float:right""></p><p><img src=images/blank.png width =""800"" height = ""200""></p>","","","","","","","","","","","",""
"","13.964999991003424","sequential-stimulus-presentation","257","638191","0.0-47.0-1.7","SS1613102264134","trial","","40","800","813.9649999910034","images/stimuli/spore_stims/simple_17_A_c.gif","images/stimuli/spore_stims/simple_17_B_c.gif","","","","","13","simple_similar","images/stimuli/spore_stims/simple_17_B_c.gif","right","","","","",""
"","1694.0649999887682","html-keyboard-response","258","639896","0.0-48.0","SS1613102264134","pref_question","","98","","","","","<video width ='960' height = '540' style='padding-top:8%' autoplay muted><source src='images/stimuli/wall_pref.mp4' type='video/mp4'></video>","2","middle","45%","13","","","","","","","",""
"","112.48499999055639","sequential-stimulus-presentation","259","640827","0.0-49.0","SS1613102264134","pref_reveal","","40","800","912.4849999905564","null","null","","","","","13","","","","deviant","","","",""
"","null","html-keyboard-response","260","642077","0.0-50.0-0.0","SS1613102264134","","","null","","","","","<p><img src= images/blank.png width =""200"" height = ""200"" style = ""float:right""></p><p><img src=images/blank.png width =""800"" height = ""200""></p>","","","","","","","","","","","",""
"","172.37500002374873","sequential-stimulus-presentation","261","643071","0.0-50.0-1.0","SS1613102264134","trial","","40","800","972.3750000237487","images/stimuli/spore_stims/complex_12_B_c.gif","images/stimuli/spore_stims/complex_12_A_c.gif","","","","","14","complex_similar","images/stimuli/spore_stims/complex_12_A_c.gif","right","","","","",""
"","null","html-keyboard-response","262","644298","0.0-50.0-0.1","SS1613102264134","","","null","","","","","<p><img src= images/blank.png width =""200"" height = ""200"" style = ""float:right""></p><p><img src=images/blank.png width =""800"" height = ""200""></p>","","","","","","","","","","","",""
"","150.48000001115724","sequential-stimulus-presentation","263","645257","0.0-50.0-1.1","SS1613102264134","trial","","40","800","950.4800000111572","images/stimuli/spore_stims/complex_12_B_c.gif","images/stimuli/spore_stims/complex_12_A_c.gif","","","","","14","complex_similar","images/stimuli/spore_stims/complex_12_A_c.gif","right","","","","",""
"","null","html-keyboard-response","264","646530","0.0-50.0-0.2","SS1613102264134","","","null","","","","","<p><img src= images/blank.png width =""200"" height = ""200"" style = ""float:right""></p><p><img src=images/blank.png width =""800"" height = ""200""></p>","","","","","","","","","","","",""
"","141.30000001750886","sequential-stimulus-presentation","265","647495","0.0-50.0-1.2","SS1613102264134","trial","","40","800","941.3000000175089","images/stimuli/spore_stims/complex_12_B_c.gif","images/stimuli/spore_stims/complex_12_A_c.gif","","","","","14","complex_similar","images/stimuli/spore_stims/complex_12_A_c.gif","right","","","","",""
"","null","html-keyboard-response","266","648735","0.0-50.0-0.3","SS1613102264134","","","null","","","","","<p><img src= images/blank.png width =""200"" height = ""200"" style = ""float:right""></p><p><img src=images/blank.png width =""800"" height = ""200""></p>","","","","","","","","","","","",""
"","166.27000001608394","sequential-stimulus-presentation","267","649722","0.0-50.0-1.3","SS1613102264134","trial","","40","800","966.2700000160839","images/stimuli/spore_stims/complex_12_B_c.gif","images/stimuli/spore_stims/complex_12_A_c.gif","","","","","14","complex_similar","images/stimuli/spore_stims/complex_12_A_c.gif","right","","","","",""
"","null","html-keyboard-response","268","651010","0.0-50.0-0.4","SS1613102264134","","","null","","","","","<p><img src= images/blank.png width =""200"" height = ""200"" style = ""float:right""></p><p><img src=images/blank.png width =""800"" height = ""200""></p>","","","","","","","","","","","",""
"","99.23500000149943","sequential-stimulus-presentation","269","651928","0.0-50.0-1.4","SS1613102264134","trial","","40","800","899.2350000014994","images/stimuli/spore_stims/complex_12_B_c.gif","images/stimuli/spore_stims/complex_12_A_c.gif","","","","","14","complex_similar","images/stimuli/spore_stims/complex_12_A_c.gif","right","","","","",""
"","null","html-keyboard-response","270","652952","0.0-50.0-0.5","SS1613102264134","","","null","","","","","<p><img src= images/blank.png width =""200"" height = ""200"" style = ""float:right""></p><p><img src=images/blank.png width =""800"" height = ""200""></p>","","","","","","","","","","","",""
"","150.7450000208337","sequential-stimulus-presentation","271","653919","0.0-50.0-1.5","SS1613102264134","trial","","40","800","950.7450000208337","images/stimuli/spore_stims/complex_12_B_c.gif","images/stimuli/spore_stims/complex_12_A_c.gif","","","","","14","complex_similar","images/stimuli/spore_stims/complex_12_A_c.gif","right","","","","",""
"","null","html-keyboard-response","272","655136","0.0-50.0-0.6","SS1613102264134","","","null","","","","","<p><img src= images/blank.png width =""200"" height = ""200"" style = ""float:right""></p><p><img src=images/blank.png width =""800"" height = ""200""></p>","","","","","","","","","","","",""
"","426.8150000134483","sequential-stimulus-presentation","273","656383","0.0-50.0-1.6","SS1613102264134","trial","","40","800","1226.8150000134483","images/stimuli/spore_stims/complex_12_B_c.gif","images/stimuli/spore_stims/complex_12_A_c.gif","","","","","14","complex_similar","images/stimuli/spore_stims/complex_12_B_c.gif","left","","","","",""
"","null","html-keyboard-response","274","657281","0.0-50.0-0.7","SS1613102264134","","","null","","","","","<p><img src= images/blank.png width =""200"" height = ""200"" style = ""float:right""></p><p><img src=images/blank.png width =""800"" height = ""200""></p>","","","","","","","","","","","",""
"","266.54000001144595","sequential-stimulus-presentation","275","658375","0.0-50.0-1.7","SS1613102264134","trial","","40","800","1066.540000011446","images/stimuli/spore_stims/complex_12_B_c.gif","images/stimuli/spore_stims/complex_12_A_c.gif","","","","","14","complex_similar","images/stimuli/spore_stims/complex_12_A_c.gif","right","","","","",""
"","1513.7099999992643","html-keyboard-response","276","659895","0.0-51.0","SS1613102264134","pref_question","","97","","","","","<video width ='960' height = '540' style='padding-top:8%' autoplay muted><source src='images/stimuli/wall_pref.mp4' type='video/mp4'></video>","1","left","25%","14","","","","","","","",""
"","57.57999999332242","sequential-stimulus-presentation","277","660760","0.0-52.0","SS1613102264134","pref_reveal","","40","800","857.5799999933224","null","null","","","","","14","","","","deviant","","","",""
"","null","html-keyboard-response","278","661893","0.0-53.0-0.0","SS1613102264134","","","null","","","","","<p><img src= images/blank.png width =""200"" height = ""200"" style = ""float:right""></p><p><img src=images/blank.png width =""800"" height = ""200""></p>","","","","","","","","","","","",""
"","68.30500002251938","sequential-stimulus-presentation","279","662783","0.0-53.0-1.0","SS1613102264134","trial","","40","800","868.3050000225194","images/stimuli/spore_stims/complex_09_A_c.gif","images/stimuli/spore_stims/complex_09_B_c.gif","","","","","15","complex_similar","images/stimuli/spore_stims/complex_09_B_c.gif","right","","","","",""
"","null","html-keyboard-response","280","663714","0.0-53.0-0.1","SS1613102264134","","","null","","","","","<p><img src= images/blank.png width =""200"" height = ""200"" style = ""float:right""></p><p><img src=images/blank.png width =""800"" height = ""200""></p>","","","","","","","","","","","",""
"","137.7900000079535","sequential-stimulus-presentation","281","664695","0.0-53.0-1.1","SS1613102264134","trial","","40","800","937.7900000079535","images/stimuli/spore_stims/complex_09_A_c.gif","images/stimuli/spore_stims/complex_09_B_c.gif","","","","","15","complex_similar","images/stimuli/spore_stims/complex_09_B_c.gif","right","","","","",""
"","null","html-keyboard-response","282","665710","0.0-53.0-0.2","SS1613102264134","","","null","","","","","<p><img src= images/blank.png width =""200"" height = ""200"" style = ""float:right""></p><p><img src=images/blank.png width =""800"" height = ""200""></p>","","","","","","","","","","","",""
"","372.4849999998696","sequential-stimulus-presentation","283","666896","0.0-53.0-1.2","SS1613102264134","trial","","40","800","1172.4849999998696","images/stimuli/spore_stims/complex_09_A_c.gif","images/stimuli/spore_stims/complex_09_B_c.gif","","","","","15","complex_similar","images/stimuli/spore_stims/complex_09_A_c.gif","middle","","","","",""
"","null","html-keyboard-response","284","667812","0.0-53.0-0.3","SS1613102264134","","","null","","","","","<p><img src= images/blank.png width =""200"" height = ""200"" style = ""float:right""></p><p><img src=images/blank.png width =""800"" height = ""200""></p>","","","","","","","","","","","",""
"","19.195000000763685","sequential-stimulus-presentation","285","668655","0.0-53.0-1.3","SS1613102264134","trial","","40","800","819.1950000007637","images/stimuli/spore_stims/complex_09_A_c.gif","images/stimuli/spore_stims/complex_09_B_c.gif","","","","","15","complex_similar","images/stimuli/spore_stims/complex_09_B_c.gif","right","","","","",""
"","null","html-keyboard-response","286","669739","0.0-53.0-0.4","SS1613102264134","","","null","","","","","<p><img src= images/blank.png width =""200"" height = ""200"" style = ""float:right""></p><p><img src=images/blank.png width =""800"" height = ""200""></p>","","","","","","","","","","","",""
"","148.56000000145286","sequential-stimulus-presentation","287","670711","0.0-53.0-1.4","SS1613102264134","trial","","40","800","948.5600000014529","images/stimuli/spore_stims/complex_09_A_c.gif","images/stimuli/spore_stims/complex_09_B_c.gif","","","","","15","complex_similar","images/stimuli/spore_stims/complex_09_B_c.gif","right","","","","",""
"","null","html-keyboard-response","288","671846","0.0-53.0-0.5","SS1613102264134","","","null","","","","","<p><img src= images/blank.png width =""200"" height = ""200"" style = ""float:right""></p><p><img src=images/blank.png width =""800"" height = ""200""></p>","","","","","","","","","","","",""
"","78.51500000106171","sequential-stimulus-presentation","289","672751","0.0-53.0-1.5","SS1613102264134","trial","","40","800","878.5150000010617","images/stimuli/spore_stims/complex_09_A_c.gif","images/stimuli/spore_stims/complex_09_B_c.gif","","","","","15","complex_similar","images/stimuli/spore_stims/complex_09_B_c.gif","right","","","","",""
"","null","html-keyboard-response","290","673745","0.0-53.0-0.6","SS1613102264134","","","null","","","","","<p><img src= images/blank.png width =""200"" height = ""200"" style = ""float:right""></p><p><img src=images/blank.png width =""800"" height = ""200""></p>","","","","","","","","","","","",""
"","65.44000000576489","sequential-stimulus-presentation","291","674622","0.0-53.0-1.6","SS1613102264134","trial","","40","800","865.4400000057649","images/stimuli/spore_stims/complex_09_A_c.gif","images/stimuli/spore_stims/complex_09_B_c.gif","","","","","15","complex_similar","images/stimuli/spore_stims/complex_09_B_c.gif","right","","","","",""
"","null","html-keyboard-response","292","675571","0.0-53.0-0.7","SS1613102264134","","","null","","","","","<p><img src= images/blank.png width =""200"" height = ""200"" style = ""float:right""></p><p><img src=images/blank.png width =""800"" height = ""200""></p>","","","","","","","","","","","",""
"","53.85500000556931","sequential-stimulus-presentation","293","676432","0.0-53.0-1.7","SS1613102264134","trial","","40","800","853.8550000055693","images/stimuli/spore_stims/complex_09_A_c.gif","images/stimuli/spore_stims/complex_09_B_c.gif","","","","","15","complex_similar","images/stimuli/spore_stims/complex_09_B_c.gif","right","","","","",""
"","1542.474999994738","html-keyboard-response","294","677982","0.0-54.0","SS1613102264134","pref_question","","99","","","","","<video width ='960' height = '540' style='padding-top:8%' autoplay muted><source src='images/stimuli/wall_pref.mp4' type='video/mp4'></video>","3","right","66%","15","","","","","","","",""
"","25.770000007469207","sequential-stimulus-presentation","295","678816","0.0-55.0","SS1613102264134","pref_reveal","","40","800","825.7700000074692","null","null","","","","","15","","","","background","","","",""
"","null","html-keyboard-response","296","679995","0.0-56.0-0.0","SS1613102264134","","","null","","","","","<p><img src= images/blank.png width =""200"" height = ""200"" style = ""float:right""></p><p><img src=images/blank.png width =""800"" height = ""200""></p>","","","","","","","","","","","",""
"","41.425000003073364","sequential-stimulus-presentation","297","680855","0.0-56.0-1.0","SS1613102264134","trial","","40","800","841.4250000030734","images/stimuli/spore_stims/complex_09_A_a.gif","images/stimuli/spore_stims/complex_18_B_b.gif","","","","","16","complex_dissimilar","images/stimuli/spore_stims/complex_18_B_b.gif","right","","","","",""
"","null","html-keyboard-response","298","681866","0.0-56.0-0.1","SS1613102264134","","","null","","","","","<p><img src= images/blank.png width =""200"" height = ""200"" style = ""float:right""></p><p><img src=images/blank.png width =""800"" height = ""200""></p>","","","","","","","","","","","",""
"","342.66000002389774","sequential-stimulus-presentation","299","683030","0.0-56.0-1.1","SS1613102264134","trial","","40","800","1142.6600000238977","images/stimuli/spore_stims/complex_09_A_a.gif","images/stimuli/spore_stims/complex_18_B_b.gif","","","","","16","complex_dissimilar","images/stimuli/spore_stims/complex_18_B_b.gif","right","","","","",""
"","null","html-keyboard-response","300","683999","0.0-56.0-0.2","SS1613102264134","","","null","","","","","<p><img src= images/blank.png width =""200"" height = ""200"" style = ""float:right""></p><p><img src=images/blank.png width =""800"" height = ""200""></p>","","","","","","","","","","","",""
"","18.084999988786876","sequential-stimulus-presentation","301","684840","0.0-56.0-1.2","SS1613102264134","trial","","40","800","818.0849999887869","images/stimuli/spore_stims/complex_09_A_a.gif","images/stimuli/spore_stims/complex_18_B_b.gif","","","","","16","complex_dissimilar","images/stimuli/spore_stims/complex_09_A_a.gif","left","","","","",""
"","null","html-keyboard-response","302","685686","0.0-56.0-0.3","SS1613102264134","","","null","","","","","<p><img src= images/blank.png width =""200"" height = ""200"" style = ""float:right""></p><p><img src=images/blank.png width =""800"" height = ""200""></p>","","","","","","","","","","","",""
"","157.11500000907108","sequential-stimulus-presentation","303","686662","0.0-56.0-1.3","SS1613102264134","trial","","40","800","957.1150000090711","images/stimuli/spore_stims/complex_09_A_a.gif","images/stimuli/spore_stims/complex_18_B_b.gif","","","","","16","complex_dissimilar","images/stimuli/spore_stims/complex_18_B_b.gif","right","","","","",""
"","null","html-keyboard-response","304","687517","0.0-56.0-0.4","SS1613102264134","","","null","","","","","<p><img src= images/blank.png width =""200"" height = ""200"" style = ""float:right""></p><p><img src=images/blank.png width =""800"" height = ""200""></p>","","","","","","","","","","","",""
"","134.4200000166893","sequential-stimulus-presentation","305","688490","0.0-56.0-1.4","SS1613102264134","trial","","40","800","934.4200000166893","images/stimuli/spore_stims/complex_09_A_a.gif","images/stimuli/spore_stims/complex_18_B_b.gif","","","","","16","complex_dissimilar","images/stimuli/spore_stims/complex_18_B_b.gif","right","","","","",""
"","null","html-keyboard-response","306","689651","0.0-56.0-0.5","SS1613102264134","","","null","","","","","<p><img src= images/blank.png width =""200"" height = ""200"" style = ""float:right""></p><p><img src=images/blank.png width =""800"" height = ""200""></p>","","","","","","","","","","","",""
"","21.425000013550743","sequential-stimulus-presentation","307","690494","0.0-56.0-1.5","SS1613102264134","trial","","40","800","821.4250000135507","images/stimuli/spore_stims/complex_09_A_a.gif","images/stimuli/spore_stims/complex_18_B_b.gif","","","","","16","complex_dissimilar","images/stimuli/spore_stims/complex_18_B_b.gif","right","","","","",""
"","null","html-keyboard-response","308","691545","0.0-56.0-0.6","SS1613102264134","","","null","","","","","<p><img src= images/blank.png width =""200"" height = ""200"" style = ""float:right""></p><p><img src=images/blank.png width =""800"" height = ""200""></p>","","","","","","","","","","","",""
"","147.49500001198612","sequential-stimulus-presentation","309","692510","0.0-56.0-1.6","SS1613102264134","trial","","40","800","947.4950000119861","images/stimuli/spore_stims/complex_09_A_a.gif","images/stimuli/spore_stims/complex_18_B_b.gif","","","","","16","complex_dissimilar","images/stimuli/spore_stims/complex_18_B_b.gif","right","","","","",""
"","null","html-keyboard-response","310","693431","0.0-56.0-0.7","SS1613102264134","","","null","","","","","<p><img src= images/blank.png width =""200"" height = ""200"" style = ""float:right""></p><p><img src=images/blank.png width =""800"" height = ""200""></p>","","","","","","","","","","","",""
"","108.36999997263774","sequential-stimulus-presentation","311","694358","0.0-56.0-1.7","SS1613102264134","trial","","40","800","908.3699999726377","images/stimuli/spore_stims/complex_09_A_a.gif","images/stimuli/spore_stims/complex_18_B_b.gif","","","","","16","complex_dissimilar","images/stimuli/spore_stims/complex_18_B_b.gif","right","","","","",""
"","1998.2949999975972","html-keyboard-response","312","696367","0.0-57.0","SS1613102264134","pref_question","","97","","","","","<video width ='960' height = '540' style='padding-top:8%' autoplay muted><source src='images/stimuli/wall_pref.mp4' type='video/mp4'></video>","1","left","25%","16","","","","","","","",""