"view_history","rt","trial_type","trial_index","time_elapsed","internal_node_id","subject","stimulus_type","trial_stimulus","key_press","minimum_viewing_duration","trial_looking_time","block_deviant","block_background","stimulus","wall_pref","location","location_percent","block_number","block_type","stimulus_displayed","position_displayed","stim_type_selected","responses","question_order","stimulus_left","stimulus_right"
"[{""page_index"":0,""viewing_time"":45358.42000000412}]","45359.35000000609","instructions","0","45361","0.0-0.0","SS1613098617597","","","","","","","","","","","","","","","","","","","",""
"[{""page_index"":0,""viewing_time"":1789.0950000000885},{""page_index"":1,""viewing_time"":4407.830000003742}]","6197.205000004033","instructions","1","53969","0.0-1.0","SS1613098617597","instructions","","","","","","","","","","","","","","","","","","",""
"","29710.17999999458","sequential-stimulus-presentation","2","84486","0.0-2.0","SS1613098617597","","","40","800","30510.17999999458","null","null","","","","","","","","","","","","",""
"","3165.609999996377","sequential-stimulus-presentation","3","88455","0.0-3.0","SS1613098617597","","","40","800","3965.609999996377","null","null","","","","","","","","","","","","",""
"[{""page_index"":0,""viewing_time"":1127.6199999992969}]","1127.9300000023795","instructions","4","89584","0.0-4.0","SS1613098617597","instructions","","","","","","","","","","","","","","","","","","",""
"","3097.66999999556","html-keyboard-response","5","92685","0.0-5.0","SS1613098617597","instructions","","97","","","","","<video width ='960' height = '540' autoplay muted><source src='images/stimuli/wall_pref.mp4' type='video/mp4'></video>","1","left","25%","","","","","","","","",""
"","5475.599999997939","sequential-stimulus-presentation","6","98965","0.0-6.0","SS1613098617597","pref_reveal","","40","800","6275.599999997939","null","null","","","","","","","","","","","","",""
"[{""page_index"":0,""viewing_time"":1361.8100000021514},{""page_index"":1,""viewing_time"":56030.09500000189},{""page_index"":2,""viewing_time"":1423.9899999956833},{""page_index"":3,""viewing_time"":1191.9049999996787}]","60008.0850000013","instructions","7","158976","0.0-7.0","SS1613098617597","instructions","","","","","","","","","","","","","","","","","","",""
"","null","html-keyboard-response","8","160113","0.0-8.0-0.0","SS1613098617597","","","null","","","","","<p><img src= images/blank.png width =""200"" height = ""200"" style = ""float:right""></p><p><img src=images/blank.png width =""800"" height = ""200""></p>","","","","","","","","","","","",""
"","1229.4000000038068","sequential-stimulus-presentation","9","162149","0.0-8.0-1.0","SS1613098617597","trial","","40","800","2029.4000000038068","images/stimuli/spore_stims/simple_08_B_c.gif","images/stimuli/spore_stims/simple_08_A_c.gif","","","","","0","simple_similar","images/stimuli/spore_stims/simple_08_A_c.gif","right","","","","",""
"","null","html-keyboard-response","10","163030","0.0-8.0-0.1","SS1613098617597","","","null","","","","","<p><img src= images/blank.png width =""200"" height = ""200"" style = ""float:right""></p><p><img src=images/blank.png width =""800"" height = ""200""></p>","","","","","","","","","","","",""
"","633.6249999949359","sequential-stimulus-presentation","11","164469","0.0-8.0-1.1","SS1613098617597","trial","","40","800","1433.624999994936","images/stimuli/spore_stims/simple_08_B_c.gif","images/stimuli/spore_stims/simple_08_A_c.gif","","","","","0","simple_similar","images/stimuli/spore_stims/simple_08_A_c.gif","right","","","","",""
"","null","html-keyboard-response","12","165394","0.0-8.0-0.2","SS1613098617597","","","null","","","","","<p><img src= images/blank.png width =""200"" height = ""200"" style = ""float:right""></p><p><img src=images/blank.png width =""800"" height = ""200""></p>","","","","","","","","","","","",""
"","143.31499999389052","sequential-stimulus-presentation","13","166342","0.0-8.0-1.2","SS1613098617597","trial","","40","800","943.3149999938905","images/stimuli/spore_stims/simple_08_B_c.gif","images/stimuli/spore_stims/simple_08_A_c.gif","","","","","0","simple_similar","images/stimuli/spore_stims/simple_08_A_c.gif","right","","","","",""
"","null","html-keyboard-response","14","167183","0.0-8.0-0.3","SS1613098617597","","","null","","","","","<p><img src= images/blank.png width =""200"" height = ""200"" style = ""float:right""></p><p><img src=images/blank.png width =""800"" height = ""200""></p>","","","","","","","","","","","",""
"","145.3750000000582","sequential-stimulus-presentation","15","168134","0.0-8.0-1.3","SS1613098617597","trial","","40","800","945.3750000000582","images/stimuli/spore_stims/simple_08_B_c.gif","images/stimuli/spore_stims/simple_08_A_c.gif","","","","","0","simple_similar","images/stimuli/spore_stims/simple_08_A_c.gif","right","","","","",""
"","null","html-keyboard-response","16","169146","0.0-8.0-0.4","SS1613098617597","","","null","","","","","<p><img src= images/blank.png width =""200"" height = ""200"" style = ""float:right""></p><p><img src=images/blank.png width =""800"" height = ""200""></p>","","","","","","","","","","","",""
"","278.8550000041141","sequential-stimulus-presentation","17","170230","0.0-8.0-1.4","SS1613098617597","trial","","40","800","1078.8550000041141","images/stimuli/spore_stims/simple_08_B_c.gif","images/stimuli/spore_stims/simple_08_A_c.gif","","","","","0","simple_similar","images/stimuli/spore_stims/simple_08_A_c.gif","right","","","","",""
"","null","html-keyboard-response","18","171439","0.0-8.0-0.5","SS1613098617597","","","null","","","","","<p><img src= images/blank.png width =""200"" height = ""200"" style = ""float:right""></p><p><img src=images/blank.png width =""800"" height = ""200""></p>","","","","","","","","","","","",""
"","16.719999999622814","sequential-stimulus-presentation","19","172261","0.0-8.0-1.5","SS1613098617597","trial","","40","800","816.7199999996228","images/stimuli/spore_stims/simple_08_B_c.gif","images/stimuli/spore_stims/simple_08_A_c.gif","","","","","0","simple_similar","images/stimuli/spore_stims/simple_08_A_c.gif","right","","","","",""
"","null","html-keyboard-response","20","173320","0.0-8.0-0.6","SS1613098617597","","","null","","","","","<p><img src= images/blank.png width =""200"" height = ""200"" style = ""float:right""></p><p><img src=images/blank.png width =""800"" height = ""200""></p>","","","","","","","","","","","",""
"","59077.66999999876","sequential-stimulus-presentation","21","233204","0.0-8.0-1.6","SS1613098617597","trial","","40","800","59877.66999999876","images/stimuli/spore_stims/simple_08_B_c.gif","images/stimuli/spore_stims/simple_08_A_c.gif","","","","","0","simple_similar","images/stimuli/spore_stims/simple_08_B_c.gif","middle","","","","",""
"","null","html-keyboard-response","22","234461","0.0-8.0-0.7","SS1613098617597","","","null","","","","","<p><img src= images/blank.png width =""200"" height = ""200"" style = ""float:right""></p><p><img src=images/blank.png width =""800"" height = ""200""></p>","","","","","","","","","","","",""
"","829.8699999941164","sequential-stimulus-presentation","23","236100","0.0-8.0-1.7","SS1613098617597","trial","","40","800","1629.8699999941164","images/stimuli/spore_stims/simple_08_B_c.gif","images/stimuli/spore_stims/simple_08_A_c.gif","","","","","0","simple_similar","images/stimuli/spore_stims/simple_08_A_c.gif","right","","","","",""
"","4349.535000001197","html-keyboard-response","24","240452","0.0-9.0","SS1613098617597","pref_question","","97","","","","","<video width ='960' height = '540' style='padding-top:8%' autoplay muted><source src='images/stimuli/wall_pref.mp4' type='video/mp4'></video>","1","left","25%","0","","","","","","","",""
"","2284.104999998817","sequential-stimulus-presentation","25","243540","0.0-10.0","SS1613098617597","pref_reveal","","40","800","3084.104999998817","null","null","","","","","0","","","","novel","","","",""
"","null","html-keyboard-response","26","244569","0.0-11.0-0.0","SS1613098617597","","","null","","","","","<p><img src= images/blank.png width =""200"" height = ""200"" style = ""float:right""></p><p><img src=images/blank.png width =""800"" height = ""200""></p>","","","","","","","","","","","",""
"","581.4450000034412","sequential-stimulus-presentation","27","245956","0.0-11.0-1.0","SS1613098617597","trial","","40","800","1381.4450000034412","images/stimuli/spore_stims/simple_07_B_c.gif","images/stimuli/spore_stims/simple_07_A_c.gif","","","","","1","simple_similar","images/stimuli/spore_stims/simple_07_A_c.gif","middle","","","","",""
"","null","html-keyboard-response","28","247050","0.0-11.0-0.1","SS1613098617597","","","null","","","","","<p><img src= images/blank.png width =""200"" height = ""200"" style = ""float:right""></p><p><img src=images/blank.png width =""800"" height = ""200""></p>","","","","","","","","","","","",""
"","2174.025000000256","sequential-stimulus-presentation","29","250030","0.0-11.0-1.1","SS1613098617597","trial","","40","800","2974.025000000256","images/stimuli/spore_stims/simple_07_B_c.gif","images/stimuli/spore_stims/simple_07_A_c.gif","","","","","1","simple_similar","images/stimuli/spore_stims/simple_07_A_c.gif","middle","","","","",""
"","null","html-keyboard-response","30","250926","0.0-11.0-0.2","SS1613098617597","","","null","","","","","<p><img src= images/blank.png width =""200"" height = ""200"" style = ""float:right""></p><p><img src=images/blank.png width =""800"" height = ""200""></p>","","","","","","","","","","","",""
"","130.25000000197906","sequential-stimulus-presentation","31","251861","0.0-11.0-1.2","SS1613098617597","trial","","40","800","930.2500000019791","images/stimuli/spore_stims/simple_07_B_c.gif","images/stimuli/spore_stims/simple_07_A_c.gif","","","","","1","simple_similar","images/stimuli/spore_stims/simple_07_A_c.gif","middle","","","","",""
"","null","html-keyboard-response","32","253002","0.0-11.0-0.3","SS1613098617597","","","null","","","","","<p><img src= images/blank.png width =""200"" height = ""200"" style = ""float:right""></p><p><img src=images/blank.png width =""800"" height = ""200""></p>","","","","","","","","","","","",""
"","1452.369999999064","sequential-stimulus-presentation","33","255259","0.0-11.0-1.3","SS1613098617597","trial","","40","800","2252.369999999064","images/stimuli/spore_stims/simple_07_B_c.gif","images/stimuli/spore_stims/simple_07_A_c.gif","","","","","1","simple_similar","images/stimuli/spore_stims/simple_07_A_c.gif","middle","","","","",""
"","null","html-keyboard-response","34","256299","0.0-11.0-0.4","SS1613098617597","","","null","","","","","<p><img src= images/blank.png width =""200"" height = ""200"" style = ""float:right""></p><p><img src=images/blank.png width =""800"" height = ""200""></p>","","","","","","","","","","","",""
"","164.89500000170665","sequential-stimulus-presentation","35","257269","0.0-11.0-1.4","SS1613098617597","trial","","40","800","964.8950000017066","images/stimuli/spore_stims/simple_07_B_c.gif","images/stimuli/spore_stims/simple_07_A_c.gif","","","","","1","simple_similar","images/stimuli/spore_stims/simple_07_B_c.gif","left","","","","",""
"","null","html-keyboard-response","36","258237","0.0-11.0-0.5","SS1613098617597","","","null","","","","","<p><img src= images/blank.png width =""200"" height = ""200"" style = ""float:right""></p><p><img src=images/blank.png width =""800"" height = ""200""></p>","","","","","","","","","","","",""
"","2066.159999994852","sequential-stimulus-presentation","37","261107","0.0-11.0-1.5","SS1613098617597","trial","","40","800","2866.159999994852","images/stimuli/spore_stims/simple_07_B_c.gif","images/stimuli/spore_stims/simple_07_A_c.gif","","","","","1","simple_similar","images/stimuli/spore_stims/simple_07_A_c.gif","middle","","","","",""
"","null","html-keyboard-response","38","262140","0.0-11.0-0.6","SS1613098617597","","","null","","","","","<p><img src= images/blank.png width =""200"" height = ""200"" style = ""float:right""></p><p><img src=images/blank.png width =""800"" height = ""200""></p>","","","","","","","","","","","",""
"","11.875000003783498","sequential-stimulus-presentation","39","262955","0.0-11.0-1.6","SS1613098617597","trial","","40","800","811.8750000037835","images/stimuli/spore_stims/simple_07_B_c.gif","images/stimuli/spore_stims/simple_07_A_c.gif","","","","","1","simple_similar","images/stimuli/spore_stims/simple_07_A_c.gif","middle","","","","",""
"","null","html-keyboard-response","40","264170","0.0-11.0-0.7","SS1613098617597","","","null","","","","","<p><img src= images/blank.png width =""200"" height = ""200"" style = ""float:right""></p><p><img src=images/blank.png width =""800"" height = ""200""></p>","","","","","","","","","","","",""
"","537.0250000050873","sequential-stimulus-presentation","41","265525","0.0-11.0-1.7","SS1613098617597","trial","","40","800","1337.0250000050873","images/stimuli/spore_stims/simple_07_B_c.gif","images/stimuli/spore_stims/simple_07_A_c.gif","","","","","1","simple_similar","images/stimuli/spore_stims/simple_07_A_c.gif","middle","","","","",""
"","1306.5549999955692","html-keyboard-response","42","266835","0.0-12.0","SS1613098617597","pref_question","","97","","","","","<video width ='960' height = '540' style='padding-top:8%' autoplay muted><source src='images/stimuli/wall_pref.mp4' type='video/mp4'></video>","1","left","25%","1","","","","","","","",""
"","668.6500000068918","sequential-stimulus-presentation","43","268307","0.0-13.0","SS1613098617597","pref_reveal","","40","800","1468.6500000068918","null","null","","","","","1","","","","deviant","","","",""
"","null","html-keyboard-response","44","269520","0.0-14.0-0.0","SS1613098617597","","","null","","","","","<p><img src= images/blank.png width =""200"" height = ""200"" style = ""float:right""></p><p><img src=images/blank.png width =""800"" height = ""200""></p>","","","","","","","","","","","",""
"","308.0150000023423","sequential-stimulus-presentation","45","270635","0.0-14.0-1.0","SS1613098617597","trial","","40","800","1108.0150000023423","images/stimuli/spore_stims/complex_12_A_d.gif","images/stimuli/spore_stims/complex_12_B_d.gif","","","","","2","complex_similar","images/stimuli/spore_stims/complex_12_B_d.gif","middle","","","","",""
"","null","html-keyboard-response","46","271894","0.0-14.0-0.1","SS1613098617597","","","null","","","","","<p><img src= images/blank.png width =""200"" height = ""200"" style = ""float:right""></p><p><img src=images/blank.png width =""800"" height = ""200""></p>","","","","","","","","","","","",""
"","412.9099999991013","sequential-stimulus-presentation","47","273115","0.0-14.0-1.1","SS1613098617597","trial","","40","800","1212.9099999991013","images/stimuli/spore_stims/complex_12_A_d.gif","images/stimuli/spore_stims/complex_12_B_d.gif","","","","","2","complex_similar","images/stimuli/spore_stims/complex_12_B_d.gif","middle","","","","",""
"","null","html-keyboard-response","48","274273","0.0-14.0-0.2","SS1613098617597","","","null","","","","","<p><img src= images/blank.png width =""200"" height = ""200"" style = ""float:right""></p><p><img src=images/blank.png width =""800"" height = ""200""></p>","","","","","","","","","","","",""
"","465.0899999978719","sequential-stimulus-presentation","49","275546","0.0-14.0-1.2","SS1613098617597","trial","","40","800","1265.089999997872","images/stimuli/spore_stims/complex_12_A_d.gif","images/stimuli/spore_stims/complex_12_B_d.gif","","","","","2","complex_similar","images/stimuli/spore_stims/complex_12_A_d.gif","right","","","","",""
"","null","html-keyboard-response","50","276845","0.0-14.0-0.3","SS1613098617597","","","null","","","","","<p><img src= images/blank.png width =""200"" height = ""200"" style = ""float:right""></p><p><img src=images/blank.png width =""800"" height = ""200""></p>","","","","","","","","","","","",""
"","354.7099999996135","sequential-stimulus-presentation","51","278005","0.0-14.0-1.3","SS1613098617597","trial","","40","800","1154.7099999996135","images/stimuli/spore_stims/complex_12_A_d.gif","images/stimuli/spore_stims/complex_12_B_d.gif","","","","","2","complex_similar","images/stimuli/spore_stims/complex_12_B_d.gif","middle","","","","",""
"","null","html-keyboard-response","52","279223","0.0-14.0-0.4","SS1613098617597","","","null","","","","","<p><img src= images/blank.png width =""200"" height = ""200"" style = ""float:right""></p><p><img src=images/blank.png width =""800"" height = ""200""></p>","","","","","","","","","","","",""
"","368.2200000039302","sequential-stimulus-presentation","53","280396","0.0-14.0-1.4","SS1613098617597","trial","","40","800","1168.2200000039302","images/stimuli/spore_stims/complex_12_A_d.gif","images/stimuli/spore_stims/complex_12_B_d.gif","","","","","2","complex_similar","images/stimuli/spore_stims/complex_12_B_d.gif","middle","","","","",""
"","null","html-keyboard-response","54","281530","0.0-14.0-0.5","SS1613098617597","","","null","","","","","<p><img src= images/blank.png width =""200"" height = ""200"" style = ""float:right""></p><p><img src=images/blank.png width =""800"" height = ""200""></p>","","","","","","","","","","","",""
"","420.65499999444","sequential-stimulus-presentation","55","282756","0.0-14.0-1.5","SS1613098617597","trial","","40","800","1220.65499999444","images/stimuli/spore_stims/complex_12_A_d.gif","images/stimuli/spore_stims/complex_12_B_d.gif","","","","","2","complex_similar","images/stimuli/spore_stims/complex_12_B_d.gif","middle","","","","",""
"","null","html-keyboard-response","56","284042","0.0-14.0-0.6","SS1613098617597","","","null","","","","","<p><img src= images/blank.png width =""200"" height = ""200"" style = ""float:right""></p><p><img src=images/blank.png width =""800"" height = ""200""></p>","","","","","","","","","","","",""
"","372.80500000633765","sequential-stimulus-presentation","57","285231","0.0-14.0-1.6","SS1613098617597","trial","","40","800","1172.8050000063377","images/stimuli/spore_stims/complex_12_A_d.gif","images/stimuli/spore_stims/complex_12_B_d.gif","","","","","2","complex_similar","images/stimuli/spore_stims/complex_12_B_d.gif","middle","","","","",""
"","null","html-keyboard-response","58","286407","0.0-14.0-0.7","SS1613098617597","","","null","","","","","<p><img src= images/blank.png width =""200"" height = ""200"" style = ""float:right""></p><p><img src=images/blank.png width =""800"" height = ""200""></p>","","","","","","","","","","","",""
"","336.37499999895226","sequential-stimulus-presentation","59","287548","0.0-14.0-1.7","SS1613098617597","trial","","40","800","1136.3749999989523","images/stimuli/spore_stims/complex_12_A_d.gif","images/stimuli/spore_stims/complex_12_B_d.gif","","","","","2","complex_similar","images/stimuli/spore_stims/complex_12_B_d.gif","middle","","","","",""
"","1315.470000001369","html-keyboard-response","60","288868","0.0-15.0","SS1613098617597","pref_question","","99","","","","","<video width ='960' height = '540' style='padding-top:8%' autoplay muted><source src='images/stimuli/wall_pref.mp4' type='video/mp4'></video>","3","right","66%","2","","","","","","","",""
"","691.1749999999302","sequential-stimulus-presentation","61","290364","0.0-16.0","SS1613098617597","pref_reveal","","40","800","1491.1749999999302","null","null","","","","","2","","","","deviant","","","",""
"","null","html-keyboard-response","62","291175","0.0-17.0-0.0","SS1613098617597","","","null","","","","","<p><img src= images/blank.png width =""200"" height = ""200"" style = ""float:right""></p><p><img src=images/blank.png width =""800"" height = ""200""></p>","","","","","","","","","","","",""
"","639.7199999992154","sequential-stimulus-presentation","63","292620","0.0-17.0-1.0","SS1613098617597","trial","","40","800","1439.7199999992154","images/stimuli/spore_stims/simple_06_B_b.gif","images/stimuli/spore_stims/simple_03_B_c.gif","","","","","3","simple_dissimilar","images/stimuli/spore_stims/simple_03_B_c.gif","middle","","","","",""
"","null","html-keyboard-response","64","293458","0.0-17.0-0.1","SS1613098617597","","","null","","","","","<p><img src= images/blank.png width =""200"" height = ""200"" style = ""float:right""></p><p><img src=images/blank.png width =""800"" height = ""200""></p>","","","","","","","","","","","",""
"","308.1450000026962","sequential-stimulus-presentation","65","294572","0.0-17.0-1.1","SS1613098617597","trial","","40","800","1108.1450000026962","images/stimuli/spore_stims/simple_06_B_b.gif","images/stimuli/spore_stims/simple_03_B_c.gif","","","","","3","simple_dissimilar","images/stimuli/spore_stims/simple_03_B_c.gif","middle","","","","",""
"","null","html-keyboard-response","66","295852","0.0-17.0-0.2","SS1613098617597","","","null","","","","","<p><img src= images/blank.png width =""200"" height = ""200"" style = ""float:right""></p><p><img src=images/blank.png width =""800"" height = ""200""></p>","","","","","","","","","","","",""
"","376.7699999953038","sequential-stimulus-presentation","67","297051","0.0-17.0-1.2","SS1613098617597","trial","","40","800","1176.7699999953038","images/stimuli/spore_stims/simple_06_B_b.gif","images/stimuli/spore_stims/simple_03_B_c.gif","","","","","3","simple_dissimilar","images/stimuli/spore_stims/simple_03_B_c.gif","middle","","","","",""
"","null","html-keyboard-response","68","297960","0.0-17.0-0.3","SS1613098617597","","","null","","","","","<p><img src= images/blank.png width =""200"" height = ""200"" style = ""float:right""></p><p><img src=images/blank.png width =""800"" height = ""200""></p>","","","","","","","","","","","",""
"","359.04000000300584","sequential-stimulus-presentation","69","299126","0.0-17.0-1.3","SS1613098617597","trial","","40","800","1159.0400000030058","images/stimuli/spore_stims/simple_06_B_b.gif","images/stimuli/spore_stims/simple_03_B_c.gif","","","","","3","simple_dissimilar","images/stimuli/spore_stims/simple_03_B_c.gif","middle","","","","",""
"","null","html-keyboard-response","70","300368","0.0-17.0-0.4","SS1613098617597","","","null","","","","","<p><img src= images/blank.png width =""200"" height = ""200"" style = ""float:right""></p><p><img src=images/blank.png width =""800"" height = ""200""></p>","","","","","","","","","","","",""
"","510.45000000158325","sequential-stimulus-presentation","71","301683","0.0-17.0-1.4","SS1613098617597","trial","","40","800","1310.4500000015832","images/stimuli/spore_stims/simple_06_B_b.gif","images/stimuli/spore_stims/simple_03_B_c.gif","","","","","3","simple_dissimilar","images/stimuli/spore_stims/simple_06_B_b.gif","right","","","","",""
"","null","html-keyboard-response","72","302670","0.0-17.0-0.5","SS1613098617597","","","null","","","","","<p><img src= images/blank.png width =""200"" height = ""200"" style = ""float:right""></p><p><img src=images/blank.png width =""800"" height = ""200""></p>","","","","","","","","","","","",""
"","287.21000000223285","sequential-stimulus-presentation","73","303763","0.0-17.0-1.5","SS1613098617597","trial","","40","800","1087.2100000022328","images/stimuli/spore_stims/simple_06_B_b.gif","images/stimuli/spore_stims/simple_03_B_c.gif","","","","","3","simple_dissimilar","images/stimuli/spore_stims/simple_03_B_c.gif","middle","","","","",""
"","null","html-keyboard-response","74","304839","0.0-17.0-0.6","SS1613098617597","","","null","","","","","<p><img src= images/blank.png width =""200"" height = ""200"" style = ""float:right""></p><p><img src=images/blank.png width =""800"" height = ""200""></p>","","","","","","","","","","","",""
"","295.45499999949243","sequential-stimulus-presentation","75","305948","0.0-17.0-1.6","SS1613098617597","trial","","40","800","1095.4549999994924","images/stimuli/spore_stims/simple_06_B_b.gif","images/stimuli/spore_stims/simple_03_B_c.gif","","","","","3","simple_dissimilar","images/stimuli/spore_stims/simple_03_B_c.gif","middle","","","","",""
"","null","html-keyboard-response","76","307015","0.0-17.0-0.7","SS1613098617597","","","null","","","","","<p><img src= images/blank.png width =""200"" height = ""200"" style = ""float:right""></p><p><img src=images/blank.png width =""800"" height = ""200""></p>","","","","","","","","","","","",""
"","347.13499999634223","sequential-stimulus-presentation","77","308167","0.0-17.0-1.7","SS1613098617597","trial","","40","800","1147.1349999963422","images/stimuli/spore_stims/simple_06_B_b.gif","images/stimuli/spore_stims/simple_03_B_c.gif","","","","","3","simple_dissimilar","images/stimuli/spore_stims/simple_03_B_c.gif","middle","","","","",""
"","1374.0249999973457","html-keyboard-response","78","309548","0.0-18.0","SS1613098617597","pref_question","","98","","","","","<video width ='960' height = '540' style='padding-top:8%' autoplay muted><source src='images/stimuli/wall_pref.mp4' type='video/mp4'></video>","2","middle","45%","3","","","","","","","",""
"","728.5199999969336","sequential-stimulus-presentation","79","311083","0.0-19.0","SS1613098617597","pref_reveal","","40","800","1528.5199999969336","null","null","","","","","3","","","","background","","","",""
"","null","html-keyboard-response","80","312029","0.0-20.0-0.0","SS1613098617597","","","null","","","","","<p><img src= images/blank.png width =""200"" height = ""200"" style = ""float:right""></p><p><img src=images/blank.png width =""800"" height = ""200""></p>","","","","","","","","","","","",""
"","292.9050000020652","sequential-stimulus-presentation","81","313131","0.0-20.0-1.0","SS1613098617597","trial","","40","800","1092.9050000020652","images/stimuli/spore_stims/complex_13_A_a.gif","images/stimuli/spore_stims/complex_13_B_a.gif","","","","","4","complex_similar","images/stimuli/spore_stims/complex_13_B_a.gif","left","","","","",""
"","null","html-keyboard-response","82","314173","0.0-20.0-0.1","SS1613098617597","","","null","","","","","<p><img src= images/blank.png width =""200"" height = ""200"" style = ""float:right""></p><p><img src=images/blank.png width =""800"" height = ""200""></p>","","","","","","","","","","","",""
"","1071.7100000038045","sequential-stimulus-presentation","83","316051","0.0-20.0-1.1","SS1613098617597","trial","","40","800","1871.7100000038045","images/stimuli/spore_stims/complex_13_A_a.gif","images/stimuli/spore_stims/complex_13_B_a.gif","","","","","4","complex_similar","images/stimuli/spore_stims/complex_13_B_a.gif","left","","","","",""
"","null","html-keyboard-response","84","316933","0.0-20.0-0.2","SS1613098617597","","","null","","","","","<p><img src= images/blank.png width =""200"" height = ""200"" style = ""float:right""></p><p><img src=images/blank.png width =""800"" height = ""200""></p>","","","","","","","","","","","",""
"","3048.2950000005076","sequential-stimulus-presentation","85","320786","0.0-20.0-1.2","SS1613098617597","trial","","40","800","3848.2950000005076","images/stimuli/spore_stims/complex_13_A_a.gif","images/stimuli/spore_stims/complex_13_B_a.gif","","","","","4","complex_similar","images/stimuli/spore_stims/complex_13_A_a.gif","right","","","","",""
"","null","html-keyboard-response","86","321847","0.0-20.0-0.3","SS1613098617597","","","null","","","","","<p><img src= images/blank.png width =""200"" height = ""200"" style = ""float:right""></p><p><img src=images/blank.png width =""800"" height = ""200""></p>","","","","","","","","","","","",""
"","516.9500000047265","sequential-stimulus-presentation","87","323171","0.0-20.0-1.3","SS1613098617597","trial","","40","800","1316.9500000047265","images/stimuli/spore_stims/complex_13_A_a.gif","images/stimuli/spore_stims/complex_13_B_a.gif","","","","","4","complex_similar","images/stimuli/spore_stims/complex_13_B_a.gif","left","","","","",""
"","null","html-keyboard-response","88","324017","0.0-20.0-0.4","SS1613098617597","","","null","","","","","<p><img src= images/blank.png width =""200"" height = ""200"" style = ""float:right""></p><p><img src=images/blank.png width =""800"" height = ""200""></p>","","","","","","","","","","","",""
"","420.8650000000489","sequential-stimulus-presentation","89","325242","0.0-20.0-1.4","SS1613098617597","trial","","40","800","1220.865000000049","images/stimuli/spore_stims/complex_13_A_a.gif","images/stimuli/spore_stims/complex_13_B_a.gif","","","","","4","complex_similar","images/stimuli/spore_stims/complex_13_B_a.gif","left","","","","",""
"","null","html-keyboard-response","90","326489","0.0-20.0-0.5","SS1613098617597","","","null","","","","","<p><img src= images/blank.png width =""200"" height = ""200"" style = ""float:right""></p><p><img src=images/blank.png width =""800"" height = ""200""></p>","","","","","","","","","","","",""
"","124.54499999876134","sequential-stimulus-presentation","91","327418","0.0-20.0-1.5","SS1613098617597","trial","","40","800","924.5449999987613","images/stimuli/spore_stims/complex_13_A_a.gif","images/stimuli/spore_stims/complex_13_B_a.gif","","","","","4","complex_similar","images/stimuli/spore_stims/complex_13_B_a.gif","left","","","","",""
"","null","html-keyboard-response","92","328712","0.0-20.0-0.6","SS1613098617597","","","null","","","","","<p><img src= images/blank.png width =""200"" height = ""200"" style = ""float:right""></p><p><img src=images/blank.png width =""800"" height = ""200""></p>","","","","","","","","","","","",""
"","978.6949999979697","sequential-stimulus-presentation","93","330498","0.0-20.0-1.6","SS1613098617597","trial","","40","800","1778.6949999979697","images/stimuli/spore_stims/complex_13_A_a.gif","images/stimuli/spore_stims/complex_13_B_a.gif","","","","","4","complex_similar","images/stimuli/spore_stims/complex_13_B_a.gif","left","","","","",""
"","null","html-keyboard-response","94","331334","0.0-20.0-0.7","SS1613098617597","","","null","","","","","<p><img src= images/blank.png width =""200"" height = ""200"" style = ""float:right""></p><p><img src=images/blank.png width =""800"" height = ""200""></p>","","","","","","","","","","","",""
"","543.4400000012829","sequential-stimulus-presentation","95","332682","0.0-20.0-1.7","SS1613098617597","trial","","40","800","1343.440000001283","images/stimuli/spore_stims/complex_13_A_a.gif","images/stimuli/spore_stims/complex_13_B_a.gif","","","","","4","complex_similar","images/stimuli/spore_stims/complex_13_B_a.gif","left","","","","",""
"","1284.8999999987427","html-keyboard-response","96","333970","0.0-21.0","SS1613098617597","pref_question","","97","","","","","<video width ='960' height = '540' style='padding-top:8%' autoplay muted><source src='images/stimuli/wall_pref.mp4' type='video/mp4'></video>","1","left","25%","4","","","","","","","",""
"","330.2849999963655","sequential-stimulus-presentation","97","335106","0.0-22.0","SS1613098617597","pref_reveal","","40","800","1130.2849999963655","null","null","","","","","4","","","","background","","","",""
"","null","html-keyboard-response","98","336163","0.0-23.0-0.0","SS1613098617597","","","null","","","","","<p><img src= images/blank.png width =""200"" height = ""200"" style = ""float:right""></p><p><img src=images/blank.png width =""800"" height = ""200""></p>","","","","","","","","","","","",""
"","353.2000000050175","sequential-stimulus-presentation","99","337323","0.0-23.0-1.0","SS1613098617597","trial","","40","800","1153.2000000050175","images/stimuli/spore_stims/complex_11_B_b.gif","images/stimuli/spore_stims/complex_11_A_b.gif","","","","","5","complex_similar","images/stimuli/spore_stims/complex_11_A_b.gif","middle","","","","",""
"","null","html-keyboard-response","100","338195","0.0-23.0-0.1","SS1613098617597","","","null","","","","","<p><img src= images/blank.png width =""200"" height = ""200"" style = ""float:right""></p><p><img src=images/blank.png width =""800"" height = ""200""></p>","","","","","","","","","","","",""
"","451.65999999881024","sequential-stimulus-presentation","101","339452","0.0-23.0-1.1","SS1613098617597","trial","","40","800","1251.6599999988102","images/stimuli/spore_stims/complex_11_B_b.gif","images/stimuli/spore_stims/complex_11_A_b.gif","","","","","5","complex_similar","images/stimuli/spore_stims/complex_11_A_b.gif","middle","","","","",""
"","null","html-keyboard-response","102","340610","0.0-23.0-0.2","SS1613098617597","","","null","","","","","<p><img src= images/blank.png width =""200"" height = ""200"" style = ""float:right""></p><p><img src=images/blank.png width =""800"" height = ""200""></p>","","","","","","","","","","","",""
"","682.9799999977695","sequential-stimulus-presentation","103","342099","0.0-23.0-1.2","SS1613098617597","trial","","40","800","1482.9799999977695","images/stimuli/spore_stims/complex_11_B_b.gif","images/stimuli/spore_stims/complex_11_A_b.gif","","","","","5","complex_similar","images/stimuli/spore_stims/complex_11_B_b.gif","left","","","","",""
"","null","html-keyboard-response","104","343245","0.0-23.0-0.3","SS1613098617597","","","null","","","","","<p><img src= images/blank.png width =""200"" height = ""200"" style = ""float:right""></p><p><img src=images/blank.png width =""800"" height = ""200""></p>","","","","","","","","","","","",""
"","992.6149999955669","sequential-stimulus-presentation","105","345057","0.0-23.0-1.3","SS1613098617597","trial","","40","800","1792.614999995567","images/stimuli/spore_stims/complex_11_B_b.gif","images/stimuli/spore_stims/complex_11_A_b.gif","","","","","5","complex_similar","images/stimuli/spore_stims/complex_11_A_b.gif","middle","","","","",""
"","null","html-keyboard-response","106","345871","0.0-23.0-0.4","SS1613098617597","","","null","","","","","<p><img src= images/blank.png width =""200"" height = ""200"" style = ""float:right""></p><p><img src=images/blank.png width =""800"" height = ""200""></p>","","","","","","","","","","","",""
"","369.9350000024424","sequential-stimulus-presentation","107","347061","0.0-23.0-1.4","SS1613098617597","trial","","40","800","1169.9350000024424","images/stimuli/spore_stims/complex_11_B_b.gif","images/stimuli/spore_stims/complex_11_A_b.gif","","","","","5","complex_similar","images/stimuli/spore_stims/complex_11_A_b.gif","middle","","","","",""
"","null","html-keyboard-response","108","348180","0.0-23.0-0.5","SS1613098617597","","","null","","","","","<p><img src= images/blank.png width =""200"" height = ""200"" style = ""float:right""></p><p><img src=images/blank.png width =""800"" height = ""200""></p>","","","","","","","","","","","",""
"","305.8699999965029","sequential-stimulus-presentation","109","349291","0.0-23.0-1.5","SS1613098617597","trial","","40","800","1105.8699999965029","images/stimuli/spore_stims/complex_11_B_b.gif","images/stimuli/spore_stims/complex_11_A_b.gif","","","","","5","complex_similar","images/stimuli/spore_stims/complex_11_A_b.gif","middle","","","","",""
"","null","html-keyboard-response","110","350106","0.0-23.0-0.6","SS1613098617597","","","null","","","","","<p><img src= images/blank.png width =""200"" height = ""200"" style = ""float:right""></p><p><img src=images/blank.png width =""800"" height = ""200""></p>","","","","","","","","","","","",""
"","296.5849999964121","sequential-stimulus-presentation","111","351211","0.0-23.0-1.6","SS1613098617597","trial","","40","800","1096.584999996412","images/stimuli/spore_stims/complex_11_B_b.gif","images/stimuli/spore_stims/complex_11_A_b.gif","","","","","5","complex_similar","images/stimuli/spore_stims/complex_11_A_b.gif","middle","","","","",""
"","null","html-keyboard-response","112","352214","0.0-23.0-0.7","SS1613098617597","","","null","","","","","<p><img src= images/blank.png width =""200"" height = ""200"" style = ""float:right""></p><p><img src=images/blank.png width =""800"" height = ""200""></p>","","","","","","","","","","","",""
"","321.11499999882653","sequential-stimulus-presentation","113","353341","0.0-23.0-1.7","SS1613098617597","trial","","40","800","1121.1149999988265","images/stimuli/spore_stims/complex_11_B_b.gif","images/stimuli/spore_stims/complex_11_A_b.gif","","","","","5","complex_similar","images/stimuli/spore_stims/complex_11_A_b.gif","middle","","","","",""
"","1241.2499999991269","html-keyboard-response","114","354587","0.0-24.0","SS1613098617597","pref_question","","97","","","","","<video width ='960' height = '540' style='padding-top:8%' autoplay muted><source src='images/stimuli/wall_pref.mp4' type='video/mp4'></video>","1","left","25%","5","","","","","","","",""
"","1065.9899999955087","sequential-stimulus-presentation","115","356459","0.0-25.0","SS1613098617597","pref_reveal","","40","800","1865.9899999955087","null","null","","","","","5","","","","deviant","","","",""
"","null","html-keyboard-response","116","357512","0.0-26.0-0.0","SS1613098617597","","","null","","","","","<p><img src= images/blank.png width =""200"" height = ""200"" style = ""float:right""></p><p><img src=images/blank.png width =""800"" height = ""200""></p>","","","","","","","","","","","",""
"","865.3899999990244","sequential-stimulus-presentation","117","359183","0.0-26.0-1.0","SS1613098617597","trial","","40","800","1665.3899999990244","images/stimuli/spore_stims/complex_06_B_c.gif","images/stimuli/spore_stims/complex_08_A_b.gif","","","","","6","complex_dissimilar","images/stimuli/spore_stims/complex_08_A_b.gif","middle","","","","",""
"","null","html-keyboard-response","118","360062","0.0-26.0-0.1","SS1613098617597","","","null","","","","","<p><img src= images/blank.png width =""200"" height = ""200"" style = ""float:right""></p><p><img src=images/blank.png width =""800"" height = ""200""></p>","","","","","","","","","","","",""
"","530.9899999992922","sequential-stimulus-presentation","119","361405","0.0-26.0-1.1","SS1613098617597","trial","","40","800","1330.9899999992922","images/stimuli/spore_stims/complex_06_B_c.gif","images/stimuli/spore_stims/complex_08_A_b.gif","","","","","6","complex_dissimilar","images/stimuli/spore_stims/complex_08_A_b.gif","middle","","","","",""
"","null","html-keyboard-response","120","362474","0.0-26.0-0.2","SS1613098617597","","","null","","","","","<p><img src= images/blank.png width =""200"" height = ""200"" style = ""float:right""></p><p><img src=images/blank.png width =""800"" height = ""200""></p>","","","","","","","","","","","",""
"","346.929999999702","sequential-stimulus-presentation","121","363627","0.0-26.0-1.2","SS1613098617597","trial","","40","800","1146.929999999702","images/stimuli/spore_stims/complex_06_B_c.gif","images/stimuli/spore_stims/complex_08_A_b.gif","","","","","6","complex_dissimilar","images/stimuli/spore_stims/complex_08_A_b.gif","middle","","","","",""
"","null","html-keyboard-response","122","364544","0.0-26.0-0.3","SS1613098617597","","","null","","","","","<p><img src= images/blank.png width =""200"" height = ""200"" style = ""float:right""></p><p><img src=images/blank.png width =""800"" height = ""200""></p>","","","","","","","","","","","",""
"","794.7849999982282","sequential-stimulus-presentation","123","366147","0.0-26.0-1.3","SS1613098617597","trial","","40","800","1594.7849999982282","images/stimuli/spore_stims/complex_06_B_c.gif","images/stimuli/spore_stims/complex_08_A_b.gif","","","","","6","complex_dissimilar","images/stimuli/spore_stims/complex_08_A_b.gif","middle","","","","",""
"","null","html-keyboard-response","124","367329","0.0-26.0-0.4","SS1613098617597","","","null","","","","","<p><img src= images/blank.png width =""200"" height = ""200"" style = ""float:right""></p><p><img src=images/blank.png width =""800"" height = ""200""></p>","","","","","","","","","","","",""
"","413.87000000395346","sequential-stimulus-presentation","125","368548","0.0-26.0-1.4","SS1613098617597","trial","","40","800","1213.8700000039535","images/stimuli/spore_stims/complex_06_B_c.gif","images/stimuli/spore_stims/complex_08_A_b.gif","","","","","6","complex_dissimilar","images/stimuli/spore_stims/complex_08_A_b.gif","middle","","","","",""
"","null","html-keyboard-response","126","369391","0.0-26.0-0.5","SS1613098617597","","","null","","","","","<p><img src= images/blank.png width =""200"" height = ""200"" style = ""float:right""></p><p><img src=images/blank.png width =""800"" height = ""200""></p>","","","","","","","","","","","",""
"","989.1050000005635","sequential-stimulus-presentation","127","371188","0.0-26.0-1.5","SS1613098617597","trial","","40","800","1789.1050000005635","images/stimuli/spore_stims/complex_06_B_c.gif","images/stimuli/spore_stims/complex_08_A_b.gif","","","","","6","complex_dissimilar","images/stimuli/spore_stims/complex_08_A_b.gif","middle","","","","",""
"","null","html-keyboard-response","128","372361","0.0-26.0-0.6","SS1613098617597","","","null","","","","","<p><img src= images/blank.png width =""200"" height = ""200"" style = ""float:right""></p><p><img src=images/blank.png width =""800"" height = ""200""></p>","","","","","","","","","","","",""
"","676.8250000022817","sequential-stimulus-presentation","129","373842","0.0-26.0-1.6","SS1613098617597","trial","","40","800","1476.8250000022817","images/stimuli/spore_stims/complex_06_B_c.gif","images/stimuli/spore_stims/complex_08_A_b.gif","","","","","6","complex_dissimilar","images/stimuli/spore_stims/complex_06_B_c.gif","right","","","","",""
"","null","html-keyboard-response","130","374990","0.0-26.0-0.7","SS1613098617597","","","null","","","","","<p><img src= images/blank.png width =""200"" height = ""200"" style = ""float:right""></p><p><img src=images/blank.png width =""800"" height = ""200""></p>","","","","","","","","","","","",""
"","269.5700000040233","sequential-stimulus-presentation","131","376066","0.0-26.0-1.7","SS1613098617597","trial","","40","800","1069.5700000040233","images/stimuli/spore_stims/complex_06_B_c.gif","images/stimuli/spore_stims/complex_08_A_b.gif","","","","","6","complex_dissimilar","images/stimuli/spore_stims/complex_08_A_b.gif","middle","","","","",""
"","1489.9700000023586","html-keyboard-response","132","377562","0.0-27.0","SS1613098617597","pref_question","","97","","","","","<video width ='960' height = '540' style='padding-top:8%' autoplay muted><source src='images/stimuli/wall_pref.mp4' type='video/mp4'></video>","1","left","25%","6","","","","","","","",""
"","563.2750000004307","sequential-stimulus-presentation","133","378930","0.0-28.0","SS1613098617597","pref_reveal","","40","800","1363.2750000004307","null","null","","","","","6","","","","novel","","","",""
"","null","html-keyboard-response","134","379950","0.0-29.0-0.0","SS1613098617597","","","null","","","","","<p><img src= images/blank.png width =""200"" height = ""200"" style = ""float:right""></p><p><img src=images/blank.png width =""800"" height = ""200""></p>","","","","","","","","","","","",""
"","167.330000003858","sequential-stimulus-presentation","135","380954","0.0-29.0-1.0","SS1613098617597","trial","","40","800","967.330000003858","images/stimuli/spore_stims/simple_12_A_a.gif","images/stimuli/spore_stims/simple_12_B_a.gif","","","","","7","simple_similar","images/stimuli/spore_stims/simple_12_B_a.gif","left","","","","",""
"","null","html-keyboard-response","136","382120","0.0-29.0-0.1","SS1613098617597","","","null","","","","","<p><img src= images/blank.png width =""200"" height = ""200"" style = ""float:right""></p><p><img src=images/blank.png width =""800"" height = ""200""></p>","","","","","","","","","","","",""
"","226.82999999960884","sequential-stimulus-presentation","137","383154","0.0-29.0-1.1","SS1613098617597","trial","","40","800","1026.8299999996088","images/stimuli/spore_stims/simple_12_A_a.gif","images/stimuli/spore_stims/simple_12_B_a.gif","","","","","7","simple_similar","images/stimuli/spore_stims/simple_12_B_a.gif","left","","","","",""
"","null","html-keyboard-response","138","384213","0.0-29.0-0.2","SS1613098617597","","","null","","","","","<p><img src= images/blank.png width =""200"" height = ""200"" style = ""float:right""></p><p><img src=images/blank.png width =""800"" height = ""200""></p>","","","","","","","","","","","",""
"","303.3450000002631","sequential-stimulus-presentation","139","385322","0.0-29.0-1.2","SS1613098617597","trial","","40","800","1103.345000000263","images/stimuli/spore_stims/simple_12_A_a.gif","images/stimuli/spore_stims/simple_12_B_a.gif","","","","","7","simple_similar","images/stimuli/spore_stims/simple_12_B_a.gif","left","","","","",""
"","null","html-keyboard-response","140","386434","0.0-29.0-0.3","SS1613098617597","","","null","","","","","<p><img src= images/blank.png width =""200"" height = ""200"" style = ""float:right""></p><p><img src=images/blank.png width =""800"" height = ""200""></p>","","","","","","","","","","","",""
"","314.94499999826076","sequential-stimulus-presentation","141","387554","0.0-29.0-1.3","SS1613098617597","trial","","40","800","1114.9449999982608","images/stimuli/spore_stims/simple_12_A_a.gif","images/stimuli/spore_stims/simple_12_B_a.gif","","","","","7","simple_similar","images/stimuli/spore_stims/simple_12_B_a.gif","left","","","","",""
"","null","html-keyboard-response","142","388750","0.0-29.0-0.4","SS1613098617597","","","null","","","","","<p><img src= images/blank.png width =""200"" height = ""200"" style = ""float:right""></p><p><img src=images/blank.png width =""800"" height = ""200""></p>","","","","","","","","","","","",""
"","267.90500000061","sequential-stimulus-presentation","143","389826","0.0-29.0-1.4","SS1613098617597","trial","","40","800","1067.90500000061","images/stimuli/spore_stims/simple_12_A_a.gif","images/stimuli/spore_stims/simple_12_B_a.gif","","","","","7","simple_similar","images/stimuli/spore_stims/simple_12_B_a.gif","left","","","","",""
"","null","html-keyboard-response","144","390688","0.0-29.0-0.5","SS1613098617597","","","null","","","","","<p><img src= images/blank.png width =""200"" height = ""200"" style = ""float:right""></p><p><img src=images/blank.png width =""800"" height = ""200""></p>","","","","","","","","","","","",""
"","42.72000000491971","sequential-stimulus-presentation","145","391538","0.0-29.0-1.5","SS1613098617597","trial","","40","800","842.7200000049197","images/stimuli/spore_stims/simple_12_A_a.gif","images/stimuli/spore_stims/simple_12_B_a.gif","","","","","7","simple_similar","images/stimuli/spore_stims/simple_12_A_a.gif","middle","","","","",""
"","null","html-keyboard-response","146","392403","0.0-29.0-0.6","SS1613098617597","","","null","","","","","<p><img src= images/blank.png width =""200"" height = ""200"" style = ""float:right""></p><p><img src=images/blank.png width =""800"" height = ""200""></p>","","","","","","","","","","","",""
"","366.47500000253785","sequential-stimulus-presentation","147","393578","0.0-29.0-1.6","SS1613098617597","trial","","40","800","1166.4750000025379","images/stimuli/spore_stims/simple_12_A_a.gif","images/stimuli/spore_stims/simple_12_B_a.gif","","","","","7","simple_similar","images/stimuli/spore_stims/simple_12_B_a.gif","left","","","","",""
"","null","html-keyboard-response","148","394527","0.0-29.0-0.7","SS1613098617597","","","null","","","","","<p><img src= images/blank.png width =""200"" height = ""200"" style = ""float:right""></p><p><img src=images/blank.png width =""800"" height = ""200""></p>","","","","","","","","","","","",""
"","341.39999999752035","sequential-stimulus-presentation","149","395674","0.0-29.0-1.7","SS1613098617597","trial","","40","800","1141.3999999975204","images/stimuli/spore_stims/simple_12_A_a.gif","images/stimuli/spore_stims/simple_12_B_a.gif","","","","","7","simple_similar","images/stimuli/spore_stims/simple_12_B_a.gif","left","","","","",""
"","1349.114999997255","html-keyboard-response","150","397043","0.0-30.0","SS1613098617597","pref_question","","98","","","","","<video width ='960' height = '540' style='padding-top:8%' autoplay muted><source src='images/stimuli/wall_pref.mp4' type='video/mp4'></video>","2","middle","45%","7","","","","","","","",""
"","1110.144999998738","sequential-stimulus-presentation","151","398959","0.0-31.0","SS1613098617597","pref_reveal","","40","800","1910.144999998738","null","null","","","","","7","","","","deviant","","","",""
"","null","html-keyboard-response","152","399783","0.0-32.0-0.0","SS1613098617597","","","null","","","","","<p><img src= images/blank.png width =""200"" height = ""200"" style = ""float:right""></p><p><img src=images/blank.png width =""800"" height = ""200""></p>","","","","","","","","","","","",""
"","880.075000000943","sequential-stimulus-presentation","153","401475","0.0-32.0-1.0","SS1613098617597","trial","","40","800","1680.075000000943","images/stimuli/spore_stims/simple_20_B_c.gif","images/stimuli/spore_stims/simple_15_B_b.gif","","","","","8","simple_dissimilar","images/stimuli/spore_stims/simple_15_B_b.gif","middle","","","","",""
"","null","html-keyboard-response","154","402375","0.0-32.0-0.1","SS1613098617597","","","null","","","","","<p><img src= images/blank.png width =""200"" height = ""200"" style = ""float:right""></p><p><img src=images/blank.png width =""800"" height = ""200""></p>","","","","","","","","","","","",""
"","1461.2600000036764","sequential-stimulus-presentation","155","404643","0.0-32.0-1.1","SS1613098617597","trial","","40","800","2261.2600000036764","images/stimuli/spore_stims/simple_20_B_c.gif","images/stimuli/spore_stims/simple_15_B_b.gif","","","","","8","simple_dissimilar","images/stimuli/spore_stims/simple_15_B_b.gif","middle","","","","",""
"","null","html-keyboard-response","156","405927","0.0-32.0-0.2","SS1613098617597","","","null","","","","","<p><img src= images/blank.png width =""200"" height = ""200"" style = ""float:right""></p><p><img src=images/blank.png width =""800"" height = ""200""></p>","","","","","","","","","","","",""
"","316.39500000164844","sequential-stimulus-presentation","157","407059","0.0-32.0-1.2","SS1613098617597","trial","","40","800","1116.3950000016484","images/stimuli/spore_stims/simple_20_B_c.gif","images/stimuli/spore_stims/simple_15_B_b.gif","","","","","8","simple_dissimilar","images/stimuli/spore_stims/simple_15_B_b.gif","middle","","","","",""
"","null","html-keyboard-response","158","408139","0.0-32.0-0.3","SS1613098617597","","","null","","","","","<p><img src= images/blank.png width =""200"" height = ""200"" style = ""float:right""></p><p><img src=images/blank.png width =""800"" height = ""200""></p>","","","","","","","","","","","",""
"","105.49999999784632","sequential-stimulus-presentation","159","409050","0.0-32.0-1.3","SS1613098617597","trial","","40","800","905.4999999978463","images/stimuli/spore_stims/simple_20_B_c.gif","images/stimuli/spore_stims/simple_15_B_b.gif","","","","","8","simple_dissimilar","images/stimuli/spore_stims/simple_20_B_c.gif","right","","","","",""
"","null","html-keyboard-response","160","410326","0.0-32.0-0.4","SS1613098617597","","","null","","","","","<p><img src= images/blank.png width =""200"" height = ""200"" style = ""float:right""></p><p><img src=images/blank.png width =""800"" height = ""200""></p>","","","","","","","","","","","",""
"","256.6900000019814","sequential-stimulus-presentation","161","411395","0.0-32.0-1.4","SS1613098617597","trial","","40","800","1056.6900000019814","images/stimuli/spore_stims/simple_20_B_c.gif","images/stimuli/spore_stims/simple_15_B_b.gif","","","","","8","simple_dissimilar","images/stimuli/spore_stims/simple_15_B_b.gif","middle","","","","",""
"","null","html-keyboard-response","162","412272","0.0-32.0-0.5","SS1613098617597","","","null","","","","","<p><img src= images/blank.png width =""200"" height = ""200"" style = ""float:right""></p><p><img src=images/blank.png width =""800"" height = ""200""></p>","","","","","","","","","","","",""
"","278.05500000249594","sequential-stimulus-presentation","163","413357","0.0-32.0-1.5","SS1613098617597","trial","","40","800","1078.055000002496","images/stimuli/spore_stims/simple_20_B_c.gif","images/stimuli/spore_stims/simple_15_B_b.gif","","","","","8","simple_dissimilar","images/stimuli/spore_stims/simple_15_B_b.gif","middle","","","","",""
"","null","html-keyboard-response","164","414295","0.0-32.0-0.6","SS1613098617597","","","null","","","","","<p><img src= images/blank.png width =""200"" height = ""200"" style = ""float:right""></p><p><img src=images/blank.png width =""800"" height = ""200""></p>","","","","","","","","","","","",""
"","318.24000000051456","sequential-stimulus-presentation","165","415419","0.0-32.0-1.6","SS1613098617597","trial","","40","800","1118.2400000005146","images/stimuli/spore_stims/simple_20_B_c.gif","images/stimuli/spore_stims/simple_15_B_b.gif","","","","","8","simple_dissimilar","images/stimuli/spore_stims/simple_15_B_b.gif","middle","","","","",""
"","null","html-keyboard-response","166","416484","0.0-32.0-0.7","SS1613098617597","","","null","","","","","<p><img src= images/blank.png width =""200"" height = ""200"" style = ""float:right""></p><p><img src=images/blank.png width =""800"" height = ""200""></p>","","","","","","","","","","","",""
"","793.294999995851","sequential-stimulus-presentation","167","418083","0.0-32.0-1.7","SS1613098617597","trial","","40","800","1593.294999995851","images/stimuli/spore_stims/simple_20_B_c.gif","images/stimuli/spore_stims/simple_15_B_b.gif","","","","","8","simple_dissimilar","images/stimuli/spore_stims/simple_15_B_b.gif","middle","","","","",""
"","5216.755000001285","html-keyboard-response","168","423306","0.0-33.0","SS1613098617597","pref_question","","98","","","","","<video width ='960' height = '540' style='padding-top:8%' autoplay muted><source src='images/stimuli/wall_pref.mp4' type='video/mp4'></video>","2","middle","45%","8","","","","","","","",""
"","345.8299999983865","sequential-stimulus-presentation","169","424458","0.0-34.0","SS1613098617597","pref_reveal","","40","800","1145.8299999983865","null","null","","","","","8","","","","background","","","",""
"","null","html-keyboard-response","170","425589","0.0-35.0-0.0","SS1613098617597","","","null","","","","","<p><img src= images/blank.png width =""200"" height = ""200"" style = ""float:right""></p><p><img src=images/blank.png width =""800"" height = ""200""></p>","","","","","","","","","","","",""
"","461.32999999827007","sequential-stimulus-presentation","171","426858","0.0-35.0-1.0","SS1613098617597","trial","","40","800","1261.32999999827","images/stimuli/spore_stims/complex_20_B_a.gif","images/stimuli/spore_stims/complex_02_A_a.gif","","","","","9","complex_dissimilar","images/stimuli/spore_stims/complex_02_A_a.gif","left","","","","",""
"","null","html-keyboard-response","172","427935","0.0-35.0-0.1","SS1613098617597","","","null","","","","","<p><img src= images/blank.png width =""200"" height = ""200"" style = ""float:right""></p><p><img src=images/blank.png width =""800"" height = ""200""></p>","","","","","","","","","","","",""
"","244.12000000302214","sequential-stimulus-presentation","173","428986","0.0-35.0-1.1","SS1613098617597","trial","","40","800","1044.1200000030221","images/stimuli/spore_stims/complex_20_B_a.gif","images/stimuli/spore_stims/complex_02_A_a.gif","","","","","9","complex_dissimilar","images/stimuli/spore_stims/complex_02_A_a.gif","left","","","","",""
"","null","html-keyboard-response","174","430128","0.0-35.0-0.2","SS1613098617597","","","null","","","","","<p><img src= images/blank.png width =""200"" height = ""200"" style = ""float:right""></p><p><img src=images/blank.png width =""800"" height = ""200""></p>","","","","","","","","","","","",""
"","464.5699999964563","sequential-stimulus-presentation","175","431410","0.0-35.0-1.2","SS1613098617597","trial","","40","800","1264.5699999964563","images/stimuli/spore_stims/complex_20_B_a.gif","images/stimuli/spore_stims/complex_02_A_a.gif","","","","","9","complex_dissimilar","images/stimuli/spore_stims/complex_02_A_a.gif","left","","","","",""
"","null","html-keyboard-response","176","432431","0.0-35.0-0.3","SS1613098617597","","","null","","","","","<p><img src= images/blank.png width =""200"" height = ""200"" style = ""float:right""></p><p><img src=images/blank.png width =""800"" height = ""200""></p>","","","","","","","","","","","",""
"","5372.989999996207","sequential-stimulus-presentation","177","438610","0.0-35.0-1.3","SS1613098617597","trial","","40","800","6172.989999996207","images/stimuli/spore_stims/complex_20_B_a.gif","images/stimuli/spore_stims/complex_02_A_a.gif","","","","","9","complex_dissimilar","images/stimuli/spore_stims/complex_20_B_a.gif","middle","","","","",""
"","null","html-keyboard-response","178","439479","0.0-35.0-0.4","SS1613098617597","","","null","","","","","<p><img src= images/blank.png width =""200"" height = ""200"" style = ""float:right""></p><p><img src=images/blank.png width =""800"" height = ""200""></p>","","","","","","","","","","","",""
"","131.32999999652384","sequential-stimulus-presentation","179","440418","0.0-35.0-1.4","SS1613098617597","trial","","40","800","931.3299999965238","images/stimuli/spore_stims/complex_20_B_a.gif","images/stimuli/spore_stims/complex_02_A_a.gif","","","","","9","complex_dissimilar","images/stimuli/spore_stims/complex_02_A_a.gif","left","","","","",""
"","null","html-keyboard-response","180","441572","0.0-35.0-0.5","SS1613098617597","","","null","","","","","<p><img src= images/blank.png width =""200"" height = ""200"" style = ""float:right""></p><p><img src=images/blank.png width =""800"" height = ""200""></p>","","","","","","","","","","","",""
"","358.43000000022585","sequential-stimulus-presentation","181","442737","0.0-35.0-1.5","SS1613098617597","trial","","40","800","1158.4300000002258","images/stimuli/spore_stims/complex_20_B_a.gif","images/stimuli/spore_stims/complex_02_A_a.gif","","","","","9","complex_dissimilar","images/stimuli/spore_stims/complex_02_A_a.gif","left","","","","",""
"","null","html-keyboard-response","182","444001","0.0-35.0-0.6","SS1613098617597","","","null","","","","","<p><img src= images/blank.png width =""200"" height = ""200"" style = ""float:right""></p><p><img src=images/blank.png width =""800"" height = ""200""></p>","","","","","","","","","","","",""
"","53.40000000433065","sequential-stimulus-presentation","183","444861","0.0-35.0-1.6","SS1613098617597","trial","","40","800","853.4000000043306","images/stimuli/spore_stims/complex_20_B_a.gif","images/stimuli/spore_stims/complex_02_A_a.gif","","","","","9","complex_dissimilar","images/stimuli/spore_stims/complex_02_A_a.gif","left","","","","",""
"","null","html-keyboard-response","184","446067","0.0-35.0-0.7","SS1613098617597","","","null","","","","","<p><img src= images/blank.png width =""200"" height = ""200"" style = ""float:right""></p><p><img src=images/blank.png width =""800"" height = ""200""></p>","","","","","","","","","","","",""
"","255.38000000233296","sequential-stimulus-presentation","185","447138","0.0-35.0-1.7","SS1613098617597","trial","","40","800","1055.380000002333","images/stimuli/spore_stims/complex_20_B_a.gif","images/stimuli/spore_stims/complex_02_A_a.gif","","","","","9","complex_dissimilar","images/stimuli/spore_stims/complex_02_A_a.gif","left","","","","",""
"","1640.3950000021723","html-keyboard-response","186","448785","0.0-36.0","SS1613098617597","pref_question","","98","","","","","<video width ='960' height = '540' style='padding-top:8%' autoplay muted><source src='images/stimuli/wall_pref.mp4' type='video/mp4'></video>","2","middle","45%","9","","","","","","","",""
"","467.76500000123633","sequential-stimulus-presentation","187","450059","0.0-37.0","SS1613098617597","pref_reveal","","40","800","1267.7650000012363","null","null","","","","","9","","","","deviant","","","",""
"","null","html-keyboard-response","188","450883","0.0-38.0-0.0","SS1613098617597","","","null","","","","","<p><img src= images/blank.png width =""200"" height = ""200"" style = ""float:right""></p><p><img src=images/blank.png width =""800"" height = ""200""></p>","","","","","","","","","","","",""
"","60.84499999997206","sequential-stimulus-presentation","189","451761","0.0-38.0-1.0","SS1613098617597","trial","","40","800","860.8449999999721","images/stimuli/spore_stims/complex_04_B_a.gif","images/stimuli/spore_stims/complex_13_A_c.gif","","","","","10","complex_dissimilar","images/stimuli/spore_stims/complex_13_A_c.gif","middle","","","","",""
"","null","html-keyboard-response","190","452634","0.0-38.0-0.1","SS1613098617597","","","null","","","","","<p><img src= images/blank.png width =""200"" height = ""200"" style = ""float:right""></p><p><img src=images/blank.png width =""800"" height = ""200""></p>","","","","","","","","","","","",""
"","327.08999999891967","sequential-stimulus-presentation","191","453771","0.0-38.0-1.1","SS1613098617597","trial","","40","800","1127.0899999989197","images/stimuli/spore_stims/complex_04_B_a.gif","images/stimuli/spore_stims/complex_13_A_c.gif","","","","","10","complex_dissimilar","images/stimuli/spore_stims/complex_13_A_c.gif","middle","","","","",""
"","null","html-keyboard-response","192","455065","0.0-38.0-0.2","SS1613098617597","","","null","","","","","<p><img src= images/blank.png width =""200"" height = ""200"" style = ""float:right""></p><p><img src=images/blank.png width =""800"" height = ""200""></p>","","","","","","","","","","","",""
"","287.320000003092","sequential-stimulus-presentation","193","456161","0.0-38.0-1.2","SS1613098617597","trial","","40","800","1087.320000003092","images/stimuli/spore_stims/complex_04_B_a.gif","images/stimuli/spore_stims/complex_13_A_c.gif","","","","","10","complex_dissimilar","images/stimuli/spore_stims/complex_13_A_c.gif","middle","","","","",""
"","null","html-keyboard-response","194","457183","0.0-38.0-0.3","SS1613098617597","","","null","","","","","<p><img src= images/blank.png width =""200"" height = ""200"" style = ""float:right""></p><p><img src=images/blank.png width =""800"" height = ""200""></p>","","","","","","","","","","","",""
"","43.67500000086147","sequential-stimulus-presentation","195","458044","0.0-38.0-1.3","SS1613098617597","trial","","40","800","843.6750000008615","images/stimuli/spore_stims/complex_04_B_a.gif","images/stimuli/spore_stims/complex_13_A_c.gif","","","","","10","complex_dissimilar","images/stimuli/spore_stims/complex_13_A_c.gif","middle","","","","",""
"","null","html-keyboard-response","196","459181","0.0-38.0-0.4","SS1613098617597","","","null","","","","","<p><img src= images/blank.png width =""200"" height = ""200"" style = ""float:right""></p><p><img src=images/blank.png width =""800"" height = ""200""></p>","","","","","","","","","","","",""
"","149.72000000136904","sequential-stimulus-presentation","197","460139","0.0-38.0-1.4","SS1613098617597","trial","","40","800","949.720000001369","images/stimuli/spore_stims/complex_04_B_a.gif","images/stimuli/spore_stims/complex_13_A_c.gif","","","","","10","complex_dissimilar","images/stimuli/spore_stims/complex_04_B_a.gif","left","","","","",""
"","null","html-keyboard-response","198","461325","0.0-38.0-0.5","SS1613098617597","","","null","","","","","<p><img src= images/blank.png width =""200"" height = ""200"" style = ""float:right""></p><p><img src=images/blank.png width =""800"" height = ""200""></p>","","","","","","","","","","","",""
"","10362.945000000764","sequential-stimulus-presentation","199","472499","0.0-38.0-1.5","SS1613098617597","trial","","40","800","11162.945000000764","images/stimuli/spore_stims/complex_04_B_a.gif","images/stimuli/spore_stims/complex_13_A_c.gif","","","","","10","complex_dissimilar","images/stimuli/spore_stims/complex_13_A_c.gif","middle","","","","",""
"","null","html-keyboard-response","200","473697","0.0-38.0-0.6","SS1613098617597","","","null","","","","","<p><img src= images/blank.png width =""200"" height = ""200"" style = ""float:right""></p><p><img src=images/blank.png width =""800"" height = ""200""></p>","","","","","","","","","","","",""
"","2138.245000001858","sequential-stimulus-presentation","201","476643","0.0-38.0-1.6","SS1613098617597","trial","","40","800","2938.245000001858","images/stimuli/spore_stims/complex_04_B_a.gif","images/stimuli/spore_stims/complex_13_A_c.gif","","","","","10","complex_dissimilar","images/stimuli/spore_stims/complex_13_A_c.gif","middle","","","","",""
"","null","html-keyboard-response","202","477921","0.0-38.0-0.7","SS1613098617597","","","null","","","","","<p><img src= images/blank.png width =""200"" height = ""200"" style = ""float:right""></p><p><img src=images/blank.png width =""800"" height = ""200""></p>","","","","","","","","","","","",""
"","442.080000000773","sequential-stimulus-presentation","203","479171","0.0-38.0-1.7","SS1613098617597","trial","","40","800","1242.080000000773","images/stimuli/spore_stims/complex_04_B_a.gif","images/stimuli/spore_stims/complex_13_A_c.gif","","","","","10","complex_dissimilar","images/stimuli/spore_stims/complex_13_A_c.gif","middle","","","","",""
"","1281.9799999997485","html-keyboard-response","204","480459","0.0-39.0","SS1613098617597","pref_question","","97","","","","","<video width ='960' height = '540' style='padding-top:8%' autoplay muted><source src='images/stimuli/wall_pref.mp4' type='video/mp4'></video>","1","left","25%","10","","","","","","","",""
"","382.14500000316184","sequential-stimulus-presentation","205","481650","0.0-40.0","SS1613098617597","pref_reveal","","40","800","1182.1450000031618","null","null","","","","","10","","","","deviant","","","",""
"","null","html-keyboard-response","206","482632","0.0-41.0-0.0","SS1613098617597","","","null","","","","","<p><img src= images/blank.png width =""200"" height = ""200"" style = ""float:right""></p><p><img src=images/blank.png width =""800"" height = ""200""></p>","","","","","","","","","","","",""
"","49.805000002263114","sequential-stimulus-presentation","207","483490","0.0-41.0-1.0","SS1613098617597","trial","","40","800","849.8050000022631","images/stimuli/spore_stims/complex_18_B_b.gif","images/stimuli/spore_stims/complex_16_A_c.gif","","","","","11","complex_dissimilar","images/stimuli/spore_stims/complex_16_A_c.gif","left","","","","",""
"","null","html-keyboard-response","208","484415","0.0-41.0-0.1","SS1613098617597","","","null","","","","","<p><img src= images/blank.png width =""200"" height = ""200"" style = ""float:right""></p><p><img src=images/blank.png width =""800"" height = ""200""></p>","","","","","","","","","","","",""
"","308.60999999998603","sequential-stimulus-presentation","209","485530","0.0-41.0-1.1","SS1613098617597","trial","","40","800","1108.609999999986","images/stimuli/spore_stims/complex_18_B_b.gif","images/stimuli/spore_stims/complex_16_A_c.gif","","","","","11","complex_dissimilar","images/stimuli/spore_stims/complex_16_A_c.gif","left","","","","",""
"","null","html-keyboard-response","210","486550","0.0-41.0-0.2","SS1613098617597","","","null","","","","","<p><img src= images/blank.png width =""200"" height = ""200"" style = ""float:right""></p><p><img src=images/blank.png width =""800"" height = ""200""></p>","","","","","","","","","","","",""
"","406.53000000014435","sequential-stimulus-presentation","211","487762","0.0-41.0-1.2","SS1613098617597","trial","","40","800","1206.5300000001444","images/stimuli/spore_stims/complex_18_B_b.gif","images/stimuli/spore_stims/complex_16_A_c.gif","","","","","11","complex_dissimilar","images/stimuli/spore_stims/complex_16_A_c.gif","left","","","","",""
"","null","html-keyboard-response","212","489031","0.0-41.0-0.3","SS1613098617597","","","null","","","","","<p><img src= images/blank.png width =""200"" height = ""200"" style = ""float:right""></p><p><img src=images/blank.png width =""800"" height = ""200""></p>","","","","","","","","","","","",""
"","274.1100000058068","sequential-stimulus-presentation","213","490114","0.0-41.0-1.3","SS1613098617597","trial","","40","800","1074.1100000058068","images/stimuli/spore_stims/complex_18_B_b.gif","images/stimuli/spore_stims/complex_16_A_c.gif","","","","","11","complex_dissimilar","images/stimuli/spore_stims/complex_16_A_c.gif","left","","","","",""
"","null","html-keyboard-response","214","491150","0.0-41.0-0.4","SS1613098617597","","","null","","","","","<p><img src= images/blank.png width =""200"" height = ""200"" style = ""float:right""></p><p><img src=images/blank.png width =""800"" height = ""200""></p>","","","","","","","","","","","",""
"","301.1950000000652","sequential-stimulus-presentation","215","492258","0.0-41.0-1.4","SS1613098617597","trial","","40","800","1101.1950000000652","images/stimuli/spore_stims/complex_18_B_b.gif","images/stimuli/spore_stims/complex_16_A_c.gif","","","","","11","complex_dissimilar","images/stimuli/spore_stims/complex_16_A_c.gif","left","","","","",""
"","null","html-keyboard-response","216","493363","0.0-41.0-0.5","SS1613098617597","","","null","","","","","<p><img src= images/blank.png width =""200"" height = ""200"" style = ""float:right""></p><p><img src=images/blank.png width =""800"" height = ""200""></p>","","","","","","","","","","","",""
"","440.0699999970384","sequential-stimulus-presentation","217","494610","0.0-41.0-1.5","SS1613098617597","trial","","40","800","1240.0699999970384","images/stimuli/spore_stims/complex_18_B_b.gif","images/stimuli/spore_stims/complex_16_A_c.gif","","","","","11","complex_dissimilar","images/stimuli/spore_stims/complex_18_B_b.gif","right","","","","",""
"","null","html-keyboard-response","218","495490","0.0-41.0-0.6","SS1613098617597","","","null","","","","","<p><img src= images/blank.png width =""200"" height = ""200"" style = ""float:right""></p><p><img src=images/blank.png width =""800"" height = ""200""></p>","","","","","","","","","","","",""
"","280.9849999976577","sequential-stimulus-presentation","219","496578","0.0-41.0-1.6","SS1613098617597","trial","","40","800","1080.9849999976577","images/stimuli/spore_stims/complex_18_B_b.gif","images/stimuli/spore_stims/complex_16_A_c.gif","","","","","11","complex_dissimilar","images/stimuli/spore_stims/complex_16_A_c.gif","left","","","","",""
"","null","html-keyboard-response","220","497420","0.0-41.0-0.7","SS1613098617597","","","null","","","","","<p><img src= images/blank.png width =""200"" height = ""200"" style = ""float:right""></p><p><img src=images/blank.png width =""800"" height = ""200""></p>","","","","","","","","","","","",""
"","271.76999999932013","sequential-stimulus-presentation","221","498498","0.0-41.0-1.7","SS1613098617597","trial","","40","800","1071.7699999993201","images/stimuli/spore_stims/complex_18_B_b.gif","images/stimuli/spore_stims/complex_16_A_c.gif","","","","","11","complex_dissimilar","images/stimuli/spore_stims/complex_16_A_c.gif","left","","","","",""
"","1200.2800000045681","html-keyboard-response","222","499706","0.0-42.0","SS1613098617597","pref_question","","99","","","","","<video width ='960' height = '540' style='padding-top:8%' autoplay muted><source src='images/stimuli/wall_pref.mp4' type='video/mp4'></video>","3","right","66%","11","","","","","","","",""
"","440.5750000004191","sequential-stimulus-presentation","223","500954","0.0-43.0","SS1613098617597","pref_reveal","","40","800","1240.575000000419","null","null","","","","","11","","","","deviant","","","",""
"","null","html-keyboard-response","224","502088","0.0-44.0-0.0","SS1613098617597","","","null","","","","","<p><img src= images/blank.png width =""200"" height = ""200"" style = ""float:right""></p><p><img src=images/blank.png width =""800"" height = ""200""></p>","","","","","","","","","","","",""
"","67.23500000219792","sequential-stimulus-presentation","225","502963","0.0-44.0-1.0","SS1613098617597","trial","","40","800","867.2350000021979","images/stimuli/spore_stims/simple_19_B_d.gif","images/stimuli/spore_stims/simple_06_A_a.gif","","","","","12","simple_dissimilar","images/stimuli/spore_stims/simple_06_A_a.gif","left","","","","",""
"","null","html-keyboard-response","226","503953","0.0-44.0-0.1","SS1613098617597","","","null","","","","","<p><img src= images/blank.png width =""200"" height = ""200"" style = ""float:right""></p><p><img src=images/blank.png width =""800"" height = ""200""></p>","","","","","","","","","","","",""
"","288.28499999514315","sequential-stimulus-presentation","227","505058","0.0-44.0-1.1","SS1613098617597","trial","","40","800","1088.2849999951432","images/stimuli/spore_stims/simple_19_B_d.gif","images/stimuli/spore_stims/simple_06_A_a.gif","","","","","12","simple_dissimilar","images/stimuli/spore_stims/simple_06_A_a.gif","left","","","","",""
"","null","html-keyboard-response","228","505885","0.0-44.0-0.2","SS1613098617597","","","null","","","","","<p><img src= images/blank.png width =""200"" height = ""200"" style = ""float:right""></p><p><img src=images/blank.png width =""800"" height = ""200""></p>","","","","","","","","","","","",""
"","363.165000002482","sequential-stimulus-presentation","229","507057","0.0-44.0-1.2","SS1613098617597","trial","","40","800","1163.165000002482","images/stimuli/spore_stims/simple_19_B_d.gif","images/stimuli/spore_stims/simple_06_A_a.gif","","","","","12","simple_dissimilar","images/stimuli/spore_stims/simple_06_A_a.gif","left","","","","",""
"","null","html-keyboard-response","230","508119","0.0-44.0-0.3","SS1613098617597","","","null","","","","","<p><img src= images/blank.png width =""200"" height = ""200"" style = ""float:right""></p><p><img src=images/blank.png width =""800"" height = ""200""></p>","","","","","","","","","","","",""
"","284.0550000037765","sequential-stimulus-presentation","231","509209","0.0-44.0-1.3","SS1613098617597","trial","","40","800","1084.0550000037765","images/stimuli/spore_stims/simple_19_B_d.gif","images/stimuli/spore_stims/simple_06_A_a.gif","","","","","12","simple_dissimilar","images/stimuli/spore_stims/simple_06_A_a.gif","left","","","","",""
"","null","html-keyboard-response","232","510082","0.0-44.0-0.4","SS1613098617597","","","null","","","","","<p><img src= images/blank.png width =""200"" height = ""200"" style = ""float:right""></p><p><img src=images/blank.png width =""800"" height = ""200""></p>","","","","","","","","","","","",""
"","523.9599999985658","sequential-stimulus-presentation","233","511417","0.0-44.0-1.4","SS1613098617597","trial","","40","800","1323.9599999985658","images/stimuli/spore_stims/simple_19_B_d.gif","images/stimuli/spore_stims/simple_06_A_a.gif","","","","","12","simple_dissimilar","images/stimuli/spore_stims/simple_06_A_a.gif","left","","","","",""
"","null","html-keyboard-response","234","512652","0.0-44.0-0.5","SS1613098617597","","","null","","","","","<p><img src= images/blank.png width =""200"" height = ""200"" style = ""float:right""></p><p><img src=images/blank.png width =""800"" height = ""200""></p>","","","","","","","","","","","",""
"","230.6449999959441","sequential-stimulus-presentation","235","513697","0.0-44.0-1.5","SS1613098617597","trial","","40","800","1030.644999995944","images/stimuli/spore_stims/simple_19_B_d.gif","images/stimuli/spore_stims/simple_06_A_a.gif","","","","","12","simple_dissimilar","images/stimuli/spore_stims/simple_06_A_a.gif","left","","","","",""
"","null","html-keyboard-response","236","514979","0.0-44.0-0.6","SS1613098617597","","","null","","","","","<p><img src= images/blank.png width =""200"" height = ""200"" style = ""float:right""></p><p><img src=images/blank.png width =""800"" height = ""200""></p>","","","","","","","","","","","",""
"","1687.5599999985425","sequential-stimulus-presentation","237","517474","0.0-44.0-1.6","SS1613098617597","trial","","40","800","2487.5599999985425","images/stimuli/spore_stims/simple_19_B_d.gif","images/stimuli/spore_stims/simple_06_A_a.gif","","","","","12","simple_dissimilar","images/stimuli/spore_stims/simple_19_B_d.gif","right","","","","",""
"","null","html-keyboard-response","238","518394","0.0-44.0-0.7","SS1613098617597","","","null","","","","","<p><img src= images/blank.png width =""200"" height = ""200"" style = ""float:right""></p><p><img src=images/blank.png width =""800"" height = ""200""></p>","","","","","","","","","","","",""
"","255.5050000010524","sequential-stimulus-presentation","239","519458","0.0-44.0-1.7","SS1613098617597","trial","","40","800","1055.5050000010524","images/stimuli/spore_stims/simple_19_B_d.gif","images/stimuli/spore_stims/simple_06_A_a.gif","","","","","12","simple_dissimilar","images/stimuli/spore_stims/simple_06_A_a.gif","left","","","","",""
"","23775.049999996554","html-keyboard-response","240","543241","0.0-45.0","SS1613098617597","pref_question","","97","","","","","<video width ='960' height = '540' style='padding-top:8%' autoplay muted><source src='images/stimuli/wall_pref.mp4' type='video/mp4'></video>","1","left","25%","12","","","","","","","",""
"","823.8350000028731","sequential-stimulus-presentation","241","544873","0.0-46.0","SS1613098617597","pref_reveal","","40","800","1623.8350000028731","null","null","","","","","12","","","","background","","","",""
"","null","html-keyboard-response","242","546911","0.0-47.0-0.0","SS1613098617597","","","null","","","","","<p><img src= images/blank.png width =""200"" height = ""200"" style = ""float:right""></p><p><img src=images/blank.png width =""800"" height = ""200""></p>","","","","","","","","","","","",""
"","3290.3000000005122","sequential-stimulus-presentation","243","551202","0.0-47.0-1.0","SS1613098617597","trial","","40","800","4090.3000000005122","images/stimuli/spore_stims/simple_20_A_a.gif","images/stimuli/spore_stims/simple_09_B_c.gif","","","","","13","simple_dissimilar","images/stimuli/spore_stims/simple_09_B_c.gif","middle","","","","",""
"","null","html-keyboard-response","244","552243","0.0-47.0-0.1","SS1613098617597","","","null","","","","","<p><img src= images/blank.png width =""200"" height = ""200"" style = ""float:right""></p><p><img src=images/blank.png width =""800"" height = ""200""></p>","","","","","","","","","","","",""
"","989.3400000000838","sequential-stimulus-presentation","245","554043","0.0-47.0-1.1","SS1613098617597","trial","","40","800","1789.3400000000838","images/stimuli/spore_stims/simple_20_A_a.gif","images/stimuli/spore_stims/simple_09_B_c.gif","","","","","13","simple_dissimilar","images/stimuli/spore_stims/simple_09_B_c.gif","middle","","","","",""
"","null","html-keyboard-response","246","555142","0.0-47.0-0.2","SS1613098617597","","","null","","","","","<p><img src= images/blank.png width =""200"" height = ""200"" style = ""float:right""></p><p><img src=images/blank.png width =""800"" height = ""200""></p>","","","","","","","","","","","",""
"","572.1549999943236","sequential-stimulus-presentation","247","556522","0.0-47.0-1.2","SS1613098617597","trial","","40","800","1372.1549999943236","images/stimuli/spore_stims/simple_20_A_a.gif","images/stimuli/spore_stims/simple_09_B_c.gif","","","","","13","simple_dissimilar","images/stimuli/spore_stims/simple_09_B_c.gif","middle","","","","",""
"","null","html-keyboard-response","248","557420","0.0-47.0-0.3","SS1613098617597","","","null","","","","","<p><img src= images/blank.png width =""200"" height = ""200"" style = ""float:right""></p><p><img src=images/blank.png width =""800"" height = ""200""></p>","","","","","","","","","","","",""
"","638.010000002454","sequential-stimulus-presentation","249","558865","0.0-47.0-1.3","SS1613098617597","trial","","40","800","1438.010000002454","images/stimuli/spore_stims/simple_20_A_a.gif","images/stimuli/spore_stims/simple_09_B_c.gif","","","","","13","simple_dissimilar","images/stimuli/spore_stims/simple_09_B_c.gif","middle","","","","",""
"","null","html-keyboard-response","250","559944","0.0-47.0-0.4","SS1613098617597","","","null","","","","","<p><img src= images/blank.png width =""200"" height = ""200"" style = ""float:right""></p><p><img src=images/blank.png width =""800"" height = ""200""></p>","","","","","","","","","","","",""
"","393.21499999647494","sequential-stimulus-presentation","251","561146","0.0-47.0-1.4","SS1613098617597","trial","","40","800","1193.214999996475","images/stimuli/spore_stims/simple_20_A_a.gif","images/stimuli/spore_stims/simple_09_B_c.gif","","","","","13","simple_dissimilar","images/stimuli/spore_stims/simple_09_B_c.gif","middle","","","","",""
"","null","html-keyboard-response","252","561981","0.0-47.0-0.5","SS1613098617597","","","null","","","","","<p><img src= images/blank.png width =""200"" height = ""200"" style = ""float:right""></p><p><img src=images/blank.png width =""800"" height = ""200""></p>","","","","","","","","","","","",""
"","281.68000000016764","sequential-stimulus-presentation","253","563081","0.0-47.0-1.5","SS1613098617597","trial","","40","800","1081.6800000001676","images/stimuli/spore_stims/simple_20_A_a.gif","images/stimuli/spore_stims/simple_09_B_c.gif","","","","","13","simple_dissimilar","images/stimuli/spore_stims/simple_09_B_c.gif","middle","","","","",""
"","null","html-keyboard-response","254","564328","0.0-47.0-0.6","SS1613098617597","","","null","","","","","<p><img src= images/blank.png width =""200"" height = ""200"" style = ""float:right""></p><p><img src=images/blank.png width =""800"" height = ""200""></p>","","","","","","","","","","","",""
"","298.08999999659136","sequential-stimulus-presentation","255","565433","0.0-47.0-1.6","SS1613098617597","trial","","40","800","1098.0899999965914","images/stimuli/spore_stims/simple_20_A_a.gif","images/stimuli/spore_stims/simple_09_B_c.gif","","","","","13","simple_dissimilar","images/stimuli/spore_stims/simple_20_A_a.gif","right","","","","",""
"","null","html-keyboard-response","256","566264","0.0-47.0-0.7","SS1613098617597","","","null","","","","","<p><img src= images/blank.png width =""200"" height = ""200"" style = ""float:right""></p><p><img src=images/blank.png width =""800"" height = ""200""></p>","","","","","","","","","","","",""
"","298.39999999967404","sequential-stimulus-presentation","257","567369","0.0-47.0-1.7","SS1613098617597","trial","","40","800","1098.399999999674","images/stimuli/spore_stims/simple_20_A_a.gif","images/stimuli/spore_stims/simple_09_B_c.gif","","","","","13","simple_dissimilar","images/stimuli/spore_stims/simple_09_B_c.gif","middle","","","","",""
"","1615.8199999991339","html-keyboard-response","258","568993","0.0-48.0","SS1613098617597","pref_question","","97","","","","","<video width ='960' height = '540' style='padding-top:8%' autoplay muted><source src='images/stimuli/wall_pref.mp4' type='video/mp4'></video>","1","left","25%","13","","","","","","","",""
"","380.78999999561347","sequential-stimulus-presentation","259","570184","0.0-49.0","SS1613098617597","pref_reveal","","40","800","1180.7899999956135","null","null","","","","","13","","","","novel","","","",""
"","null","html-keyboard-response","260","571112","0.0-50.0-0.0","SS1613098617597","","","null","","","","","<p><img src= images/blank.png width =""200"" height = ""200"" style = ""float:right""></p><p><img src=images/blank.png width =""800"" height = ""200""></p>","","","","","","","","","","","",""
"","184.1500000009546","sequential-stimulus-presentation","261","572104","0.0-50.0-1.0","SS1613098617597","trial","","40","800","984.1500000009546","images/stimuli/spore_stims/complex_01_A_b.gif","images/stimuli/spore_stims/complex_01_B_b.gif","","","","","14","complex_similar","images/stimuli/spore_stims/complex_01_B_b.gif","middle","","","","",""
"","null","html-keyboard-response","262","573223","0.0-50.0-0.1","SS1613098617597","","","null","","","","","<p><img src= images/blank.png width =""200"" height = ""200"" style = ""float:right""></p><p><img src=images/blank.png width =""800"" height = ""200""></p>","","","","","","","","","","","",""
"","168.65499999397434","sequential-stimulus-presentation","263","574216","0.0-50.0-1.1","SS1613098617597","trial","","40","800","968.6549999939743","images/stimuli/spore_stims/complex_01_A_b.gif","images/stimuli/spore_stims/complex_01_B_b.gif","","","","","14","complex_similar","images/stimuli/spore_stims/complex_01_B_b.gif","middle","","","","",""
"","null","html-keyboard-response","264","575099","0.0-50.0-0.2","SS1613098617597","","","null","","","","","<p><img src= images/blank.png width =""200"" height = ""200"" style = ""float:right""></p><p><img src=images/blank.png width =""800"" height = ""200""></p>","","","","","","","","","","","",""
"","352.36499999882653","sequential-stimulus-presentation","265","576266","0.0-50.0-1.2","SS1613098617597","trial","","40","800","1152.3649999988265","images/stimuli/spore_stims/complex_01_A_b.gif","images/stimuli/spore_stims/complex_01_B_b.gif","","","","","14","complex_similar","images/stimuli/spore_stims/complex_01_B_b.gif","middle","","","","",""
"","null","html-keyboard-response","266","577305","0.0-50.0-0.3","SS1613098617597","","","null","","","","","<p><img src= images/blank.png width =""200"" height = ""200"" style = ""float:right""></p><p><img src=images/blank.png width =""800"" height = ""200""></p>","","","","","","","","","","","",""
"","336.63000000524335","sequential-stimulus-presentation","267","578450","0.0-50.0-1.3","SS1613098617597","trial","","40","800","1136.6300000052433","images/stimuli/spore_stims/complex_01_A_b.gif","images/stimuli/spore_stims/complex_01_B_b.gif","","","","","14","complex_similar","images/stimuli/spore_stims/complex_01_B_b.gif","middle","","","","",""
"","null","html-keyboard-response","268","579491","0.0-50.0-0.4","SS1613098617597","","","null","","","","","<p><img src= images/blank.png width =""200"" height = ""200"" style = ""float:right""></p><p><img src=images/blank.png width =""800"" height = ""200""></p>","","","","","","","","","","","",""
"","271.63499999721535","sequential-stimulus-presentation","269","580570","0.0-50.0-1.4","SS1613098617597","trial","","40","800","1071.6349999972153","images/stimuli/spore_stims/complex_01_A_b.gif","images/stimuli/spore_stims/complex_01_B_b.gif","","","","","14","complex_similar","images/stimuli/spore_stims/complex_01_B_b.gif","middle","","","","",""
"","null","html-keyboard-response","270","581737","0.0-50.0-0.5","SS1613098617597","","","null","","","","","<p><img src= images/blank.png width =""200"" height = ""200"" style = ""float:right""></p><p><img src=images/blank.png width =""800"" height = ""200""></p>","","","","","","","","","","","",""
"","265.34499999985565","sequential-stimulus-presentation","271","582810","0.0-50.0-1.5","SS1613098617597","trial","","40","800","1065.3449999998556","images/stimuli/spore_stims/complex_01_A_b.gif","images/stimuli/spore_stims/complex_01_B_b.gif","","","","","14","complex_similar","images/stimuli/spore_stims/complex_01_B_b.gif","middle","","","","",""
"","null","html-keyboard-response","272","583854","0.0-50.0-0.6","SS1613098617597","","","null","","","","","<p><img src= images/blank.png width =""200"" height = ""200"" style = ""float:right""></p><p><img src=images/blank.png width =""800"" height = ""200""></p>","","","","","","","","","","","",""
"","225.21500000590459","sequential-stimulus-presentation","273","584891","0.0-50.0-1.6","SS1613098617597","trial","","40","800","1025.2150000059046","images/stimuli/spore_stims/complex_01_A_b.gif","images/stimuli/spore_stims/complex_01_B_b.gif","","","","","14","complex_similar","images/stimuli/spore_stims/complex_01_A_b.gif","right","","","","",""
"","null","html-keyboard-response","274","586002","0.0-50.0-0.7","SS1613098617597","","","null","","","","","<p><img src= images/blank.png width =""200"" height = ""200"" style = ""float:right""></p><p><img src=images/blank.png width =""800"" height = ""200""></p>","","","","","","","","","","","",""
"","272.0100000005914","sequential-stimulus-presentation","275","587082","0.0-50.0-1.7","SS1613098617597","trial","","40","800","1072.0100000005914","images/stimuli/spore_stims/complex_01_A_b.gif","images/stimuli/spore_stims/complex_01_B_b.gif","","","","","14","complex_similar","images/stimuli/spore_stims/complex_01_B_b.gif","middle","","","","",""
"","1150.6250000020955","html-keyboard-response","276","588242","0.0-51.0","SS1613098617597","pref_question","","98","","","","","<video width ='960' height = '540' style='padding-top:8%' autoplay muted><source src='images/stimuli/wall_pref.mp4' type='video/mp4'></video>","2","middle","45%","14","","","","","","","",""
"","217.09000000543892","sequential-stimulus-presentation","277","589266","0.0-52.0","SS1613098617597","pref_reveal","","40","800","1017.0900000054389","null","null","","","","","14","","","","background","","","",""
"","null","html-keyboard-response","278","590495","0.0-53.0-0.0","SS1613098617597","","","null","","","","","<p><img src= images/blank.png width =""200"" height = ""200"" style = ""float:right""></p><p><img src=images/blank.png width =""800"" height = ""200""></p>","","","","","","","","","","","",""
"","318.29999999911524","sequential-stimulus-presentation","279","591642","0.0-53.0-1.0","SS1613098617597","trial","","40","800","1118.2999999991152","images/stimuli/spore_stims/simple_13_A_c.gif","images/stimuli/spore_stims/simple_13_B_c.gif","","","","","15","simple_similar","images/stimuli/spore_stims/simple_13_B_c.gif","middle","","","","",""
"","null","html-keyboard-response","280","592691","0.0-53.0-0.1","SS1613098617597","","","null","","","","","<p><img src= images/blank.png width =""200"" height = ""200"" style = ""float:right""></p><p><img src=images/blank.png width =""800"" height = ""200""></p>","","","","","","","","","","","",""
"","125.24999999743886","sequential-stimulus-presentation","281","593626","0.0-53.0-1.1","SS1613098617597","trial","","40","800","925.2499999974389","images/stimuli/spore_stims/simple_13_A_c.gif","images/stimuli/spore_stims/simple_13_B_c.gif","","","","","15","simple_similar","images/stimuli/spore_stims/simple_13_B_c.gif","middle","","","","",""
"","null","html-keyboard-response","282","594634","0.0-53.0-0.2","SS1613098617597","","","null","","","","","<p><img src= images/blank.png width =""200"" height = ""200"" style = ""float:right""></p><p><img src=images/blank.png width =""800"" height = ""200""></p>","","","","","","","","","","","",""
"","41.11000000545755","sequential-stimulus-presentation","283","595482","0.0-53.0-1.2","SS1613098617597","trial","","40","800","841.1100000054576","images/stimuli/spore_stims/simple_13_A_c.gif","images/stimuli/spore_stims/simple_13_B_c.gif","","","","","15","simple_similar","images/stimuli/spore_stims/simple_13_B_c.gif","middle","","","","",""
"","null","html-keyboard-response","284","596627","0.0-53.0-0.3","SS1613098617597","","","null","","","","","<p><img src= images/blank.png width =""200"" height = ""200"" style = ""float:right""></p><p><img src=images/blank.png width =""800"" height = ""200""></p>","","","","","","","","","","","",""
"","311.4750000021886","sequential-stimulus-presentation","285","597746","0.0-53.0-1.3","SS1613098617597","trial","","40","800","1111.4750000021886","images/stimuli/spore_stims/simple_13_A_c.gif","images/stimuli/spore_stims/simple_13_B_c.gif","","","","","15","simple_similar","images/stimuli/spore_stims/simple_13_B_c.gif","middle","","","","",""
"","null","html-keyboard-response","286","598853","0.0-53.0-0.4","SS1613098617597","","","null","","","","","<p><img src= images/blank.png width =""200"" height = ""200"" style = ""float:right""></p><p><img src=images/blank.png width =""800"" height = ""200""></p>","","","","","","","","","","","",""
"","37.09499999973923","sequential-stimulus-presentation","287","599716","0.0-53.0-1.4","SS1613098617597","trial","","40","800","837.0949999997392","images/stimuli/spore_stims/simple_13_A_c.gif","images/stimuli/spore_stims/simple_13_B_c.gif","","","","","15","simple_similar","images/stimuli/spore_stims/simple_13_B_c.gif","middle","","","","",""
"","null","html-keyboard-response","288","601023","0.0-53.0-0.5","SS1613098617597","","","null","","","","","<p><img src= images/blank.png width =""200"" height = ""200"" style = ""float:right""></p><p><img src=images/blank.png width =""800"" height = ""200""></p>","","","","","","","","","","","",""
"","51.329999994835816","sequential-stimulus-presentation","289","601883","0.0-53.0-1.5","SS1613098617597","trial","","40","800","851.3299999948358","images/stimuli/spore_stims/simple_13_A_c.gif","images/stimuli/spore_stims/simple_13_B_c.gif","","","","","15","simple_similar","images/stimuli/spore_stims/simple_13_A_c.gif","right","","","","",""
"","null","html-keyboard-response","290","603109","0.0-53.0-0.6","SS1613098617597","","","null","","","","","<p><img src= images/blank.png width =""200"" height = ""200"" style = ""float:right""></p><p><img src=images/blank.png width =""800"" height = ""200""></p>","","","","","","","","","","","",""
"","236.80500000040047","sequential-stimulus-presentation","291","604153","0.0-53.0-1.6","SS1613098617597","trial","","40","800","1036.8050000004005","images/stimuli/spore_stims/simple_13_A_c.gif","images/stimuli/spore_stims/simple_13_B_c.gif","","","","","15","simple_similar","images/stimuli/spore_stims/simple_13_B_c.gif","middle","","","","",""
"","null","html-keyboard-response","292","605444","0.0-53.0-0.7","SS1613098617597","","","null","","","","","<p><img src= images/blank.png width =""200"" height = ""200"" style = ""float:right""></p><p><img src=images/blank.png width =""800"" height = ""200""></p>","","","","","","","","","","","",""
"","318.8250000020489","sequential-stimulus-presentation","293","606569","0.0-53.0-1.7","SS1613098617597","trial","","40","800","1118.825000002049","images/stimuli/spore_stims/simple_13_A_c.gif","images/stimuli/spore_stims/simple_13_B_c.gif","","","","","15","simple_similar","images/stimuli/spore_stims/simple_13_B_c.gif","middle","","","","",""
"","1201.4300000008661","html-keyboard-response","294","607793","0.0-54.0","SS1613098617597","pref_question","","97","","","","","<video width ='960' height = '540' style='padding-top:8%' autoplay muted><source src='images/stimuli/wall_pref.mp4' type='video/mp4'></video>","1","left","25%","15","","","","","","","",""
"","328.80000000295695","sequential-stimulus-presentation","295","608929","0.0-55.0","SS1613098617597","pref_reveal","","40","800","1128.800000002957","null","null","","","","","15","","","","novel","","","",""
"","null","html-keyboard-response","296","609836","0.0-56.0-0.0","SS1613098617597","","","null","","","","","<p><img src= images/blank.png width =""200"" height = ""200"" style = ""float:right""></p><p><img src=images/blank.png width =""800"" height = ""200""></p>","","","","","","","","","","","",""
"","275.92499999445863","sequential-stimulus-presentation","297","610921","0.0-56.0-1.0","SS1613098617597","trial","","40","800","1075.9249999944586","images/stimuli/spore_stims/complex_14_B_b.gif","images/stimuli/spore_stims/complex_14_A_b.gif","","","","","16","complex_similar","images/stimuli/spore_stims/complex_14_A_b.gif","left","","","","",""
"","null","html-keyboard-response","298","611832","0.0-56.0-0.1","SS1613098617597","","","null","","","","","<p><img src= images/blank.png width =""200"" height = ""200"" style = ""float:right""></p><p><img src=images/blank.png width =""800"" height = ""200""></p>","","","","","","","","","","","",""
"","417.3450000016019","sequential-stimulus-presentation","299","613057","0.0-56.0-1.1","SS1613098617597","trial","","40","800","1217.3450000016019","images/stimuli/spore_stims/complex_14_B_b.gif","images/stimuli/spore_stims/complex_14_A_b.gif","","","","","16","complex_similar","images/stimuli/spore_stims/complex_14_A_b.gif","left","","","","",""
"","null","html-keyboard-response","300","614123","0.0-56.0-0.2","SS1613098617597","","","null","","","","","<p><img src= images/blank.png width =""200"" height = ""200"" style = ""float:right""></p><p><img src=images/blank.png width =""800"" height = ""200""></p>","","","","","","","","","","","",""
"","1212.2850000013132","sequential-stimulus-presentation","301","616145","0.0-56.0-1.2","SS1613098617597","trial","","40","800","2012.2850000013132","images/stimuli/spore_stims/complex_14_B_b.gif","images/stimuli/spore_stims/complex_14_A_b.gif","","","","","16","complex_similar","images/stimuli/spore_stims/complex_14_A_b.gif","left","","","","",""
"","null","html-keyboard-response","302","617242","0.0-56.0-0.3","SS1613098617597","","","null","","","","","<p><img src= images/blank.png width =""200"" height = ""200"" style = ""float:right""></p><p><img src=images/blank.png width =""800"" height = ""200""></p>","","","","","","","","","","","",""
"","200.51999999862164","sequential-stimulus-presentation","303","618249","0.0-56.0-1.3","SS1613098617597","trial","","40","800","1000.5199999986216","images/stimuli/spore_stims/complex_14_B_b.gif","images/stimuli/spore_stims/complex_14_A_b.gif","","","","","16","complex_similar","images/stimuli/spore_stims/complex_14_A_b.gif","left","","","","",""
"","null","html-keyboard-response","304","619207","0.0-56.0-0.4","SS1613098617597","","","null","","","","","<p><img src= images/blank.png width =""200"" height = ""200"" style = ""float:right""></p><p><img src=images/blank.png width =""800"" height = ""200""></p>","","","","","","","","","","","",""
"","207.50500000582542","sequential-stimulus-presentation","305","620225","0.0-56.0-1.4","SS1613098617597","trial","","40","800","1007.5050000058254","images/stimuli/spore_stims/complex_14_B_b.gif","images/stimuli/spore_stims/complex_14_A_b.gif","","","","","16","complex_similar","images/stimuli/spore_stims/complex_14_A_b.gif","left","","","","",""
"","null","html-keyboard-response","306","621287","0.0-56.0-0.5","SS1613098617597","","","null","","","","","<p><img src= images/blank.png width =""200"" height = ""200"" style = ""float:right""></p><p><img src=images/blank.png width =""800"" height = ""200""></p>","","","","","","","","","","","",""
"","145.55500000272878","sequential-stimulus-presentation","307","622241","0.0-56.0-1.5","SS1613098617597","trial","","40","800","945.5550000027288","images/stimuli/spore_stims/complex_14_B_b.gif","images/stimuli/spore_stims/complex_14_A_b.gif","","","","","16","complex_similar","images/stimuli/spore_stims/complex_14_A_b.gif","left","","","","",""
"","null","html-keyboard-response","308","623289","0.0-56.0-0.6","SS1613098617597","","","null","","","","","<p><img src= images/blank.png width =""200"" height = ""200"" style = ""float:right""></p><p><img src=images/blank.png width =""800"" height = ""200""></p>","","","","","","","","","","","",""
"","191.6549999951385","sequential-stimulus-presentation","309","624289","0.0-56.0-1.6","SS1613098617597","trial","","40","800","991.6549999951385","images/stimuli/spore_stims/complex_14_B_b.gif","images/stimuli/spore_stims/complex_14_A_b.gif","","","","","16","complex_similar","images/stimuli/spore_stims/complex_14_B_b.gif","right","","","","",""
"","null","html-keyboard-response","310","625417","0.0-56.0-0.7","SS1613098617597","","","null","","","","","<p><img src= images/blank.png width =""200"" height = ""200"" style = ""float:right""></p><p><img src=images/blank.png width =""800"" height = ""200""></p>","","","","","","","","","","","",""
"","153.50000000034925","sequential-stimulus-presentation","311","626384","0.0-56.0-1.7","SS1613098617597","trial","","40","800","953.5000000003492","images/stimuli/spore_stims/complex_14_B_b.gif","images/stimuli/spore_stims/complex_14_A_b.gif","","","","","16","complex_similar","images/stimuli/spore_stims/complex_14_A_b.gif","left","","","","",""
