"view_history","rt","trial_type","trial_index","time_elapsed","internal_node_id","subject","stimulus_type","trial_stimulus","key_press","minimum_viewing_duration","trial_looking_time","block_deviant","block_background","stimulus","wall_pref","location","location_percent","block_number","block_type","stimulus_displayed","position_displayed","stim_type_selected","responses","question_order","stimulus_left","stimulus_right"
"[{""page_index"":0,""viewing_time"":91854.29499996826}]","91855.5499999784","instructions","0","91858","0.0-0.0","SS1613139054263","","","","","","","","","","","","","","","","","","","",""
"[{""page_index"":0,""viewing_time"":8123.105000006035},{""page_index"":1,""viewing_time"":8415.62999994494}]","16539.27000006661","instructions","1","110402","0.0-1.0","SS1613139054263","instructions","","","","","","","","","","","","","","","","","","",""
"","7272.054999833927","sequential-stimulus-presentation","2","118487","0.0-2.0","SS1613139054263","","","40","800","8072.054999833927","null","null","","","","","","","","","","","","",""
"","4192.975000012666","sequential-stimulus-presentation","3","123486","0.0-3.0","SS1613139054263","","","40","800","4992.975000012666","null","null","","","","","","","","","","","","",""
"[{""page_index"":0,""viewing_time"":8625.40499982424}]","8625.735000008717","instructions","4","132113","0.0-4.0","SS1613139054263","instructions","","","","","","","","","","","","","","","","","","",""
"","24780.079999938607","html-keyboard-response","5","156897","0.0-5.0","SS1613139054263","instructions","","97","","","","","<video width ='960' height = '540' autoplay muted><source src='images/stimuli/wall_pref.mp4' type='video/mp4'></video>","1","left","25%","","","","","","","","",""
"","1530.3450000938028","sequential-stimulus-presentation","6","159238","0.0-6.0","SS1613139054263","pref_reveal","","40","800","2330.345000093803","null","null","","","","","","","","","","","","",""
"[{""page_index"":0,""viewing_time"":11270.424999995157},{""page_index"":1,""viewing_time"":4422.800000058487},{""page_index"":2,""viewing_time"":1886.5799999330193},{""page_index"":3,""viewing_time"":1583.2299999892712}]","19163.494999986142","instructions","7","178403","0.0-7.0","SS1613139054263","instructions","","","","","","","","","","","","","","","","","","",""
"","null","html-keyboard-response","8","179529","0.0-8.0-0.0","SS1613139054263","","","null","","","","","<p><img src= images/blank.png width =""200"" height = ""200"" style = ""float:right""></p><p><img src=images/blank.png width =""800"" height = ""200""></p>","","","","","","","","","","","",""
"","4031.510000117123","sequential-stimulus-presentation","9","184369","0.0-8.0-1.0","SS1613139054263","trial","","40","800","4831.510000117123","images/stimuli/spore_stims/simple_17_A_d.gif","images/stimuli/spore_stims/simple_17_B_d.gif","","","","","0","simple_similar","images/stimuli/spore_stims/simple_17_B_d.gif","right","","","","",""
"","null","html-keyboard-response","10","185562","0.0-8.0-0.1","SS1613139054263","","","null","","","","","<p><img src= images/blank.png width =""200"" height = ""200"" style = ""float:right""></p><p><img src=images/blank.png width =""800"" height = ""200""></p>","","","","","","","","","","","",""
"","2441.910000052303","sequential-stimulus-presentation","11","188809","0.0-8.0-1.1","SS1613139054263","trial","","40","800","3241.910000052303","images/stimuli/spore_stims/simple_17_A_d.gif","images/stimuli/spore_stims/simple_17_B_d.gif","","","","","0","simple_similar","images/stimuli/spore_stims/simple_17_B_d.gif","right","","","","",""
"","null","html-keyboard-response","12","190010","0.0-8.0-0.2","SS1613139054263","","","null","","","","","<p><img src= images/blank.png width =""200"" height = ""200"" style = ""float:right""></p><p><img src=images/blank.png width =""800"" height = ""200""></p>","","","","","","","","","","","",""
"","2247.3400000017136","sequential-stimulus-presentation","13","193064","0.0-8.0-1.2","SS1613139054263","trial","","40","800","3047.3400000017136","images/stimuli/spore_stims/simple_17_A_d.gif","images/stimuli/spore_stims/simple_17_B_d.gif","","","","","0","simple_similar","images/stimuli/spore_stims/simple_17_B_d.gif","right","","","","",""
"","null","html-keyboard-response","14","194247","0.0-8.0-0.3","SS1613139054263","","","null","","","","","<p><img src= images/blank.png width =""200"" height = ""200"" style = ""float:right""></p><p><img src=images/blank.png width =""800"" height = ""200""></p>","","","","","","","","","","","",""
"","1818.8100000843406","sequential-stimulus-presentation","15","196876","0.0-8.0-1.3","SS1613139054263","trial","","40","800","2618.8100000843406","images/stimuli/spore_stims/simple_17_A_d.gif","images/stimuli/spore_stims/simple_17_B_d.gif","","","","","0","simple_similar","images/stimuli/spore_stims/simple_17_B_d.gif","right","","","","",""
"","null","html-keyboard-response","16","197971","0.0-8.0-0.4","SS1613139054263","","","null","","","","","<p><img src= images/blank.png width =""200"" height = ""200"" style = ""float:right""></p><p><img src=images/blank.png width =""800"" height = ""200""></p>","","","","","","","","","","","",""
"","1824.1600000765175","sequential-stimulus-presentation","17","200600","0.0-8.0-1.4","SS1613139054263","trial","","40","800","2624.1600000765175","images/stimuli/spore_stims/simple_17_A_d.gif","images/stimuli/spore_stims/simple_17_B_d.gif","","","","","0","simple_similar","images/stimuli/spore_stims/simple_17_B_d.gif","right","","","","",""
"","null","html-keyboard-response","18","201863","0.0-8.0-0.5","SS1613139054263","","","null","","","","","<p><img src= images/blank.png width =""200"" height = ""200"" style = ""float:right""></p><p><img src=images/blank.png width =""800"" height = ""200""></p>","","","","","","","","","","","",""
"","1233.6799998302013","sequential-stimulus-presentation","19","203905","0.0-8.0-1.5","SS1613139054263","trial","","40","800","2033.6799998302013","images/stimuli/spore_stims/simple_17_A_d.gif","images/stimuli/spore_stims/simple_17_B_d.gif","","","","","0","simple_similar","images/stimuli/spore_stims/simple_17_B_d.gif","right","","","","",""
"","null","html-keyboard-response","20","204808","0.0-8.0-0.6","SS1613139054263","","","null","","","","","<p><img src= images/blank.png width =""200"" height = ""200"" style = ""float:right""></p><p><img src=images/blank.png width =""800"" height = ""200""></p>","","","","","","","","","","","",""
"","2218.6150001361966","sequential-stimulus-presentation","21","207836","0.0-8.0-1.6","SS1613139054263","trial","","40","800","3018.6150001361966","images/stimuli/spore_stims/simple_17_A_d.gif","images/stimuli/spore_stims/simple_17_B_d.gif","","","","","0","simple_similar","images/stimuli/spore_stims/simple_17_B_d.gif","right","","","","",""
"","null","html-keyboard-response","22","209051","0.0-8.0-0.7","SS1613139054263","","","null","","","","","<p><img src= images/blank.png width =""200"" height = ""200"" style = ""float:right""></p><p><img src=images/blank.png width =""800"" height = ""200""></p>","","","","","","","","","","","",""
"","2575.334999943152","sequential-stimulus-presentation","23","212436","0.0-8.0-1.7","SS1613139054263","trial","","40","800","3375.334999943152","images/stimuli/spore_stims/simple_17_A_d.gif","images/stimuli/spore_stims/simple_17_B_d.gif","","","","","0","simple_similar","images/stimuli/spore_stims/simple_17_A_d.gif","left","","","","",""
"","27548.155000200495","html-keyboard-response","24","239991","0.0-9.0","SS1613139054263","pref_question","","98","","","","","<video width ='960' height = '540' style='padding-top:8%' autoplay muted><source src='images/stimuli/wall_pref.mp4' type='video/mp4'></video>","2","middle","45%","0","","","","","","","",""
"","2775.8949999697506","sequential-stimulus-presentation","25","243599","0.0-10.0","SS1613139054263","pref_reveal","","40","800","3575.8949999697506","null","null","","","","","0","","","","novel","","","",""
"","null","html-keyboard-response","26","244846","0.0-11.0-0.0","SS1613139054263","","","null","","","","","<p><img src= images/blank.png width =""200"" height = ""200"" style = ""float:right""></p><p><img src=images/blank.png width =""800"" height = ""200""></p>","","","","","","","","","","","",""
"","3050.9000001475215","sequential-stimulus-presentation","27","248706","0.0-11.0-1.0","SS1613139054263","trial","","40","800","3850.9000001475215","images/stimuli/spore_stims/complex_05_A_a.gif","images/stimuli/spore_stims/complex_07_B_a.gif","","","","","1","complex_dissimilar","images/stimuli/spore_stims/complex_07_B_a.gif","middle","","","","",""
"","null","html-keyboard-response","28","249749","0.0-11.0-0.1","SS1613139054263","","","null","","","","","<p><img src= images/blank.png width =""200"" height = ""200"" style = ""float:right""></p><p><img src=images/blank.png width =""800"" height = ""200""></p>","","","","","","","","","","","",""
"","1737.3600001446903","sequential-stimulus-presentation","29","252301","0.0-11.0-1.1","SS1613139054263","trial","","40","800","2537.3600001446903","images/stimuli/spore_stims/complex_05_A_a.gif","images/stimuli/spore_stims/complex_07_B_a.gif","","","","","1","complex_dissimilar","images/stimuli/spore_stims/complex_07_B_a.gif","middle","","","","",""
"","null","html-keyboard-response","30","253502","0.0-11.0-0.2","SS1613139054263","","","null","","","","","<p><img src= images/blank.png width =""200"" height = ""200"" style = ""float:right""></p><p><img src=images/blank.png width =""800"" height = ""200""></p>","","","","","","","","","","","",""
"","1937.2849999926984","sequential-stimulus-presentation","31","256261","0.0-11.0-1.2","SS1613139054263","trial","","40","800","2737.2849999926984","images/stimuli/spore_stims/complex_05_A_a.gif","images/stimuli/spore_stims/complex_07_B_a.gif","","","","","1","complex_dissimilar","images/stimuli/spore_stims/complex_07_B_a.gif","middle","","","","",""
"","null","html-keyboard-response","32","257551","0.0-11.0-0.3","SS1613139054263","","","null","","","","","<p><img src= images/blank.png width =""200"" height = ""200"" style = ""float:right""></p><p><img src=images/blank.png width =""800"" height = ""200""></p>","","","","","","","","","","","",""
"","1521.964999847114","sequential-stimulus-presentation","33","259882","0.0-11.0-1.3","SS1613139054263","trial","","40","800","2321.964999847114","images/stimuli/spore_stims/complex_05_A_a.gif","images/stimuli/spore_stims/complex_07_B_a.gif","","","","","1","complex_dissimilar","images/stimuli/spore_stims/complex_07_B_a.gif","middle","","","","",""
"","null","html-keyboard-response","34","260705","0.0-11.0-0.4","SS1613139054263","","","null","","","","","<p><img src= images/blank.png width =""200"" height = ""200"" style = ""float:right""></p><p><img src=images/blank.png width =""800"" height = ""200""></p>","","","","","","","","","","","",""
"","1448.9400000311434","sequential-stimulus-presentation","35","262966","0.0-11.0-1.4","SS1613139054263","trial","","40","800","2248.9400000311434","images/stimuli/spore_stims/complex_05_A_a.gif","images/stimuli/spore_stims/complex_07_B_a.gif","","","","","1","complex_dissimilar","images/stimuli/spore_stims/complex_07_B_a.gif","middle","","","","",""
"","null","html-keyboard-response","36","263910","0.0-11.0-0.5","SS1613139054263","","","null","","","","","<p><img src= images/blank.png width =""200"" height = ""200"" style = ""float:right""></p><p><img src=images/blank.png width =""800"" height = ""200""></p>","","","","","","","","","","","",""
"","2254.474999848753","sequential-stimulus-presentation","37","266971","0.0-11.0-1.5","SS1613139054263","trial","","40","800","3054.474999848753","images/stimuli/spore_stims/complex_05_A_a.gif","images/stimuli/spore_stims/complex_07_B_a.gif","","","","","1","complex_dissimilar","images/stimuli/spore_stims/complex_07_B_a.gif","middle","","","","",""
"","null","html-keyboard-response","38","267937","0.0-11.0-0.6","SS1613139054263","","","null","","","","","<p><img src= images/blank.png width =""200"" height = ""200"" style = ""float:right""></p><p><img src=images/blank.png width =""800"" height = ""200""></p>","","","","","","","","","","","",""
"","2188.5699999984354","sequential-stimulus-presentation","39","270932","0.0-11.0-1.6","SS1613139054263","trial","","40","800","2988.5699999984354","images/stimuli/spore_stims/complex_05_A_a.gif","images/stimuli/spore_stims/complex_07_B_a.gif","","","","","1","complex_dissimilar","images/stimuli/spore_stims/complex_05_A_a.gif","right","","","","",""
"","null","html-keyboard-response","40","271881","0.0-11.0-0.7","SS1613139054263","","","null","","","","","<p><img src= images/blank.png width =""200"" height = ""200"" style = ""float:right""></p><p><img src=images/blank.png width =""800"" height = ""200""></p>","","","","","","","","","","","",""
"","2001.7450000159442","sequential-stimulus-presentation","41","274691","0.0-11.0-1.7","SS1613139054263","trial","","40","800","2801.7450000159442","images/stimuli/spore_stims/complex_05_A_a.gif","images/stimuli/spore_stims/complex_07_B_a.gif","","","","","1","complex_dissimilar","images/stimuli/spore_stims/complex_07_B_a.gif","middle","","","","",""
"","5266.560000134632","html-keyboard-response","42","279963","0.0-12.0","SS1613139054263","pref_question","","98","","","","","<video width ='960' height = '540' style='padding-top:8%' autoplay muted><source src='images/stimuli/wall_pref.mp4' type='video/mp4'></video>","2","middle","45%","1","","","","","","","",""
"","1722.6050000172108","sequential-stimulus-presentation","43","282492","0.0-13.0","SS1613139054263","pref_reveal","","40","800","2522.605000017211","null","null","","","","","1","","","","background","","","",""
"","null","html-keyboard-response","44","283600","0.0-14.0-0.0","SS1613139054263","","","null","","","","","<p><img src= images/blank.png width =""200"" height = ""200"" style = ""float:right""></p><p><img src=images/blank.png width =""800"" height = ""200""></p>","","","","","","","","","","","",""
"","1197.4799998570234","sequential-stimulus-presentation","45","285613","0.0-14.0-1.0","SS1613139054263","trial","","40","800","1997.4799998570234","images/stimuli/spore_stims/simple_02_A_b.gif","images/stimuli/spore_stims/simple_02_B_b.gif","","","","","2","simple_similar","images/stimuli/spore_stims/simple_02_B_b.gif","right","","","","",""
"","null","html-keyboard-response","46","286664","0.0-14.0-0.1","SS1613139054263","","","null","","","","","<p><img src= images/blank.png width =""200"" height = ""200"" style = ""float:right""></p><p><img src=images/blank.png width =""800"" height = ""200""></p>","","","","","","","","","","","",""
"","2067.8700001444668","sequential-stimulus-presentation","47","289539","0.0-14.0-1.1","SS1613139054263","trial","","40","800","2867.8700001444668","images/stimuli/spore_stims/simple_02_A_b.gif","images/stimuli/spore_stims/simple_02_B_b.gif","","","","","2","simple_similar","images/stimuli/spore_stims/simple_02_B_b.gif","right","","","","",""
"","null","html-keyboard-response","48","290439","0.0-14.0-0.2","SS1613139054263","","","null","","","","","<p><img src= images/blank.png width =""200"" height = ""200"" style = ""float:right""></p><p><img src=images/blank.png width =""800"" height = ""200""></p>","","","","","","","","","","","",""
"","1351.960000116378","sequential-stimulus-presentation","49","292605","0.0-14.0-1.2","SS1613139054263","trial","","40","800","2151.960000116378","images/stimuli/spore_stims/simple_02_A_b.gif","images/stimuli/spore_stims/simple_02_B_b.gif","","","","","2","simple_similar","images/stimuli/spore_stims/simple_02_B_b.gif","right","","","","",""
"","null","html-keyboard-response","50","293635","0.0-14.0-0.3","SS1613139054263","","","null","","","","","<p><img src= images/blank.png width =""200"" height = ""200"" style = ""float:right""></p><p><img src=images/blank.png width =""800"" height = ""200""></p>","","","","","","","","","","","",""
"","2564.2649999354035","sequential-stimulus-presentation","51","297008","0.0-14.0-1.3","SS1613139054263","trial","","40","800","3364.2649999354035","images/stimuli/spore_stims/simple_02_A_b.gif","images/stimuli/spore_stims/simple_02_B_b.gif","","","","","2","simple_similar","images/stimuli/spore_stims/simple_02_A_b.gif","middle","","","","",""
"","null","html-keyboard-response","52","298282","0.0-14.0-0.4","SS1613139054263","","","null","","","","","<p><img src= images/blank.png width =""200"" height = ""200"" style = ""float:right""></p><p><img src=images/blank.png width =""800"" height = ""200""></p>","","","","","","","","","","","",""
"","139.2949998844415","sequential-stimulus-presentation","53","299248","0.0-14.0-1.4","SS1613139054263","trial","","40","800","939.2949998844415","images/stimuli/spore_stims/simple_02_A_b.gif","images/stimuli/spore_stims/simple_02_B_b.gif","","","","","2","simple_similar","images/stimuli/spore_stims/simple_02_B_b.gif","right","","","","",""
"","null","html-keyboard-response","54","300114","0.0-14.0-0.5","SS1613139054263","","","null","","","","","<p><img src= images/blank.png width =""200"" height = ""200"" style = ""float:right""></p><p><img src=images/blank.png width =""800"" height = ""200""></p>","","","","","","","","","","","",""
"","1739.6200001239777","sequential-stimulus-presentation","55","302660","0.0-14.0-1.5","SS1613139054263","trial","","40","800","2539.6200001239777","images/stimuli/spore_stims/simple_02_A_b.gif","images/stimuli/spore_stims/simple_02_B_b.gif","","","","","2","simple_similar","images/stimuli/spore_stims/simple_02_B_b.gif","right","","","","",""
"","null","html-keyboard-response","56","303924","0.0-14.0-0.6","SS1613139054263","","","null","","","","","<p><img src= images/blank.png width =""200"" height = ""200"" style = ""float:right""></p><p><img src=images/blank.png width =""800"" height = ""200""></p>","","","","","","","","","","","",""
"","298.8199999090284","sequential-stimulus-presentation","57","305030","0.0-14.0-1.6","SS1613139054263","trial","","40","800","1098.8199999090284","images/stimuli/spore_stims/simple_02_A_b.gif","images/stimuli/spore_stims/simple_02_B_b.gif","","","","","2","simple_similar","images/stimuli/spore_stims/simple_02_B_b.gif","right","","","","",""
"","null","html-keyboard-response","58","306025","0.0-14.0-0.7","SS1613139054263","","","null","","","","","<p><img src= images/blank.png width =""200"" height = ""200"" style = ""float:right""></p><p><img src=images/blank.png width =""800"" height = ""200""></p>","","","","","","","","","","","",""
"","1296.9850001391023","sequential-stimulus-presentation","59","308126","0.0-14.0-1.7","SS1613139054263","trial","","40","800","2096.9850001391023","images/stimuli/spore_stims/simple_02_A_b.gif","images/stimuli/spore_stims/simple_02_B_b.gif","","","","","2","simple_similar","images/stimuli/spore_stims/simple_02_B_b.gif","right","","","","",""
"","5105.949999997392","html-keyboard-response","60","313236","0.0-15.0","SS1613139054263","pref_question","","99","","","","","<video width ='960' height = '540' style='padding-top:8%' autoplay muted><source src='images/stimuli/wall_pref.mp4' type='video/mp4'></video>","3","right","66%","2","","","","","","","",""
"","1527.6650001760572","sequential-stimulus-presentation","61","315581","0.0-16.0","SS1613139054263","pref_reveal","","40","800","2327.665000176057","null","null","","","","","2","","","","background","","","",""
"","null","html-keyboard-response","62","316739","0.0-17.0-0.0","SS1613139054263","","","null","","","","","<p><img src= images/blank.png width =""200"" height = ""200"" style = ""float:right""></p><p><img src=images/blank.png width =""800"" height = ""200""></p>","","","","","","","","","","","",""
"","4308.134999824688","sequential-stimulus-presentation","63","321854","0.0-17.0-1.0","SS1613139054263","trial","","40","800","5108.134999824688","images/stimuli/spore_stims/complex_12_A_d.gif","images/stimuli/spore_stims/complex_11_B_b.gif","","","","","3","complex_dissimilar","images/stimuli/spore_stims/complex_11_B_b.gif","left","","","","",""
"","null","html-keyboard-response","64","323082","0.0-17.0-0.1","SS1613139054263","","","null","","","","","<p><img src= images/blank.png width =""200"" height = ""200"" style = ""float:right""></p><p><img src=images/blank.png width =""800"" height = ""200""></p>","","","","","","","","","","","",""
"","2560.3499999269843","sequential-stimulus-presentation","65","326455","0.0-17.0-1.1","SS1613139054263","trial","","40","800","3360.3499999269843","images/stimuli/spore_stims/complex_12_A_d.gif","images/stimuli/spore_stims/complex_11_B_b.gif","","","","","3","complex_dissimilar","images/stimuli/spore_stims/complex_11_B_b.gif","left","","","","",""
"","null","html-keyboard-response","66","327677","0.0-17.0-0.2","SS1613139054263","","","null","","","","","<p><img src= images/blank.png width =""200"" height = ""200"" style = ""float:right""></p><p><img src=images/blank.png width =""800"" height = ""200""></p>","","","","","","","","","","","",""
"","1541.6149999946356","sequential-stimulus-presentation","67","330030","0.0-17.0-1.2","SS1613139054263","trial","","40","800","2341.6149999946356","images/stimuli/spore_stims/complex_12_A_d.gif","images/stimuli/spore_stims/complex_11_B_b.gif","","","","","3","complex_dissimilar","images/stimuli/spore_stims/complex_11_B_b.gif","left","","","","",""
"","null","html-keyboard-response","68","331296","0.0-17.0-0.3","SS1613139054263","","","null","","","","","<p><img src= images/blank.png width =""200"" height = ""200"" style = ""float:right""></p><p><img src=images/blank.png width =""800"" height = ""200""></p>","","","","","","","","","","","",""
"","836.814999813214","sequential-stimulus-presentation","69","332944","0.0-17.0-1.3","SS1613139054263","trial","","40","800","1636.814999813214","images/stimuli/spore_stims/complex_12_A_d.gif","images/stimuli/spore_stims/complex_11_B_b.gif","","","","","3","complex_dissimilar","images/stimuli/spore_stims/complex_11_B_b.gif","left","","","","",""
"","null","html-keyboard-response","70","333878","0.0-17.0-0.4","SS1613139054263","","","null","","","","","<p><img src= images/blank.png width =""200"" height = ""200"" style = ""float:right""></p><p><img src=images/blank.png width =""800"" height = ""200""></p>","","","","","","","","","","","",""
"","1022.3000000696629","sequential-stimulus-presentation","71","335708","0.0-17.0-1.4","SS1613139054263","trial","","40","800","1822.300000069663","images/stimuli/spore_stims/complex_12_A_d.gif","images/stimuli/spore_stims/complex_11_B_b.gif","","","","","3","complex_dissimilar","images/stimuli/spore_stims/complex_12_A_d.gif","middle","","","","",""
"","null","html-keyboard-response","72","336998","0.0-17.0-0.5","SS1613139054263","","","null","","","","","<p><img src= images/blank.png width =""200"" height = ""200"" style = ""float:right""></p><p><img src=images/blank.png width =""800"" height = ""200""></p>","","","","","","","","","","","",""
"","1002.4900001008064","sequential-stimulus-presentation","73","338837","0.0-17.0-1.5","SS1613139054263","trial","","40","800","1802.4900001008064","images/stimuli/spore_stims/complex_12_A_d.gif","images/stimuli/spore_stims/complex_11_B_b.gif","","","","","3","complex_dissimilar","images/stimuli/spore_stims/complex_11_B_b.gif","left","","","","",""
"","null","html-keyboard-response","74","339842","0.0-17.0-0.6","SS1613139054263","","","null","","","","","<p><img src= images/blank.png width =""200"" height = ""200"" style = ""float:right""></p><p><img src=images/blank.png width =""800"" height = ""200""></p>","","","","","","","","","","","",""
"","1678.1649999320507","sequential-stimulus-presentation","75","342332","0.0-17.0-1.6","SS1613139054263","trial","","40","800","2478.1649999320507","images/stimuli/spore_stims/complex_12_A_d.gif","images/stimuli/spore_stims/complex_11_B_b.gif","","","","","3","complex_dissimilar","images/stimuli/spore_stims/complex_11_B_b.gif","left","","","","",""
"","null","html-keyboard-response","76","343248","0.0-17.0-0.7","SS1613139054263","","","null","","","","","<p><img src= images/blank.png width =""200"" height = ""200"" style = ""float:right""></p><p><img src=images/blank.png width =""800"" height = ""200""></p>","","","","","","","","","","","",""
"","2411.5949999541044","sequential-stimulus-presentation","77","346472","0.0-17.0-1.7","SS1613139054263","trial","","40","800","3211.5949999541044","images/stimuli/spore_stims/complex_12_A_d.gif","images/stimuli/spore_stims/complex_11_B_b.gif","","","","","3","complex_dissimilar","images/stimuli/spore_stims/complex_11_B_b.gif","left","","","","",""
"","4660.935000050813","html-keyboard-response","78","351141","0.0-18.0","SS1613139054263","pref_question","","99","","","","","<video width ='960' height = '540' style='padding-top:8%' autoplay muted><source src='images/stimuli/wall_pref.mp4' type='video/mp4'></video>","3","right","66%","3","","","","","","","",""
"","961.0999999567866","sequential-stimulus-presentation","79","352909","0.0-19.0","SS1613139054263","pref_reveal","","40","800","1761.0999999567866","null","null","","","","","3","","","","novel","","","",""
"","null","html-keyboard-response","80","354050","0.0-20.0-0.0","SS1613139054263","","","null","","","","","<p><img src= images/blank.png width =""200"" height = ""200"" style = ""float:right""></p><p><img src=images/blank.png width =""800"" height = ""200""></p>","","","","","","","","","","","",""
"","2108.795000007376","sequential-stimulus-presentation","81","356967","0.0-20.0-1.0","SS1613139054263","trial","","40","800","2908.795000007376","images/stimuli/spore_stims/simple_10_B_d.gif","images/stimuli/spore_stims/simple_04_B_d.gif","","","","","4","simple_dissimilar","images/stimuli/spore_stims/simple_04_B_d.gif","left","","","","",""
"","null","html-keyboard-response","82","357951","0.0-20.0-0.1","SS1613139054263","","","null","","","","","<p><img src= images/blank.png width =""200"" height = ""200"" style = ""float:right""></p><p><img src=images/blank.png width =""800"" height = ""200""></p>","","","","","","","","","","","",""
"","974.5249999687076","sequential-stimulus-presentation","83","359734","0.0-20.0-1.1","SS1613139054263","trial","","40","800","1774.5249999687076","images/stimuli/spore_stims/simple_10_B_d.gif","images/stimuli/spore_stims/simple_04_B_d.gif","","","","","4","simple_dissimilar","images/stimuli/spore_stims/simple_04_B_d.gif","left","","","","",""
"","null","html-keyboard-response","84","360630","0.0-20.0-0.2","SS1613139054263","","","null","","","","","<p><img src= images/blank.png width =""200"" height = ""200"" style = ""float:right""></p><p><img src=images/blank.png width =""800"" height = ""200""></p>","","","","","","","","","","","",""
"","1247.220000019297","sequential-stimulus-presentation","85","362686","0.0-20.0-1.2","SS1613139054263","trial","","40","800","2047.220000019297","images/stimuli/spore_stims/simple_10_B_d.gif","images/stimuli/spore_stims/simple_04_B_d.gif","","","","","4","simple_dissimilar","images/stimuli/spore_stims/simple_04_B_d.gif","left","","","","",""
"","null","html-keyboard-response","86","363755","0.0-20.0-0.3","SS1613139054263","","","null","","","","","<p><img src= images/blank.png width =""200"" height = ""200"" style = ""float:right""></p><p><img src=images/blank.png width =""800"" height = ""200""></p>","","","","","","","","","","","",""
"","1287.4499999452382","sequential-stimulus-presentation","87","365848","0.0-20.0-1.3","SS1613139054263","trial","","40","800","2087.4499999452382","images/stimuli/spore_stims/simple_10_B_d.gif","images/stimuli/spore_stims/simple_04_B_d.gif","","","","","4","simple_dissimilar","images/stimuli/spore_stims/simple_10_B_d.gif","right","","","","",""
"","null","html-keyboard-response","88","366861","0.0-20.0-0.4","SS1613139054263","","","null","","","","","<p><img src= images/blank.png width =""200"" height = ""200"" style = ""float:right""></p><p><img src=images/blank.png width =""800"" height = ""200""></p>","","","","","","","","","","","",""
"","1339.1249999403954","sequential-stimulus-presentation","89","369010","0.0-20.0-1.4","SS1613139054263","trial","","40","800","2139.1249999403954","images/stimuli/spore_stims/simple_10_B_d.gif","images/stimuli/spore_stims/simple_04_B_d.gif","","","","","4","simple_dissimilar","images/stimuli/spore_stims/simple_04_B_d.gif","left","","","","",""
"","null","html-keyboard-response","90","370052","0.0-20.0-0.5","SS1613139054263","","","null","","","","","<p><img src= images/blank.png width =""200"" height = ""200"" style = ""float:right""></p><p><img src=images/blank.png width =""800"" height = ""200""></p>","","","","","","","","","","","",""
"","883.7200000416487","sequential-stimulus-presentation","91","371751","0.0-20.0-1.5","SS1613139054263","trial","","40","800","1683.7200000416487","images/stimuli/spore_stims/simple_10_B_d.gif","images/stimuli/spore_stims/simple_04_B_d.gif","","","","","4","simple_dissimilar","images/stimuli/spore_stims/simple_04_B_d.gif","left","","","","",""
"","null","html-keyboard-response","92","372790","0.0-20.0-0.6","SS1613139054263","","","null","","","","","<p><img src= images/blank.png width =""200"" height = ""200"" style = ""float:right""></p><p><img src=images/blank.png width =""800"" height = ""200""></p>","","","","","","","","","","","",""
"","1184.6149999182671","sequential-stimulus-presentation","93","374783","0.0-20.0-1.6","SS1613139054263","trial","","40","800","1984.6149999182671","images/stimuli/spore_stims/simple_10_B_d.gif","images/stimuli/spore_stims/simple_04_B_d.gif","","","","","4","simple_dissimilar","images/stimuli/spore_stims/simple_04_B_d.gif","left","","","","",""
"","null","html-keyboard-response","94","375919","0.0-20.0-0.7","SS1613139054263","","","null","","","","","<p><img src= images/blank.png width =""200"" height = ""200"" style = ""float:right""></p><p><img src=images/blank.png width =""800"" height = ""200""></p>","","","","","","","","","","","",""
"","1219.7100000921637","sequential-stimulus-presentation","95","377951","0.0-20.0-1.7","SS1613139054263","trial","","40","800","2019.7100000921637","images/stimuli/spore_stims/simple_10_B_d.gif","images/stimuli/spore_stims/simple_04_B_d.gif","","","","","4","simple_dissimilar","images/stimuli/spore_stims/simple_04_B_d.gif","left","","","","",""
"","4481.290000025183","html-keyboard-response","96","382439","0.0-21.0","SS1613139054263","pref_question","","98","","","","","<video width ='960' height = '540' style='padding-top:8%' autoplay muted><source src='images/stimuli/wall_pref.mp4' type='video/mp4'></video>","2","middle","45%","4","","","","","","","",""
"","2505.614999914542","sequential-stimulus-presentation","97","385751","0.0-22.0","SS1613139054263","pref_reveal","","40","800","3305.614999914542","null","null","","","","","4","","","","novel","","","",""
"","null","html-keyboard-response","98","386972","0.0-23.0-0.0","SS1613139054263","","","null","","","","","<p><img src= images/blank.png width =""200"" height = ""200"" style = ""float:right""></p><p><img src=images/blank.png width =""800"" height = ""200""></p>","","","","","","","","","","","",""
"","1905.449999962002","sequential-stimulus-presentation","99","389703","0.0-23.0-1.0","SS1613139054263","trial","","40","800","2705.449999962002","images/stimuli/spore_stims/simple_16_B_a.gif","images/stimuli/spore_stims/simple_03_A_b.gif","","","","","5","simple_dissimilar","images/stimuli/spore_stims/simple_03_A_b.gif","right","","","","",""
"","null","html-keyboard-response","100","390656","0.0-23.0-0.1","SS1613139054263","","","null","","","","","<p><img src= images/blank.png width =""200"" height = ""200"" style = ""float:right""></p><p><img src=images/blank.png width =""800"" height = ""200""></p>","","","","","","","","","","","",""
"","1707.3399999644607","sequential-stimulus-presentation","101","393170","0.0-23.0-1.1","SS1613139054263","trial","","40","800","2507.3399999644607","images/stimuli/spore_stims/simple_16_B_a.gif","images/stimuli/spore_stims/simple_03_A_b.gif","","","","","5","simple_dissimilar","images/stimuli/spore_stims/simple_03_A_b.gif","right","","","","",""
"","null","html-keyboard-response","102","394320","0.0-23.0-0.2","SS1613139054263","","","null","","","","","<p><img src= images/blank.png width =""200"" height = ""200"" style = ""float:right""></p><p><img src=images/blank.png width =""800"" height = ""200""></p>","","","","","","","","","","","",""
"","3524.4849999435246","sequential-stimulus-presentation","103","398651","0.0-23.0-1.2","SS1613139054263","trial","","40","800","4324.484999943525","images/stimuli/spore_stims/simple_16_B_a.gif","images/stimuli/spore_stims/simple_03_A_b.gif","","","","","5","simple_dissimilar","images/stimuli/spore_stims/simple_16_B_a.gif","left","","","","",""
"","null","html-keyboard-response","104","399550","0.0-23.0-0.3","SS1613139054263","","","null","","","","","<p><img src= images/blank.png width =""200"" height = ""200"" style = ""float:right""></p><p><img src=images/blank.png width =""800"" height = ""200""></p>","","","","","","","","","","","",""
"","2243.4950000606477","sequential-stimulus-presentation","105","402600","0.0-23.0-1.3","SS1613139054263","trial","","40","800","3043.4950000606477","images/stimuli/spore_stims/simple_16_B_a.gif","images/stimuli/spore_stims/simple_03_A_b.gif","","","","","5","simple_dissimilar","images/stimuli/spore_stims/simple_03_A_b.gif","right","","","","",""
"","null","html-keyboard-response","106","403461","0.0-23.0-0.4","SS1613139054263","","","null","","","","","<p><img src= images/blank.png width =""200"" height = ""200"" style = ""float:right""></p><p><img src=images/blank.png width =""800"" height = ""200""></p>","","","","","","","","","","","",""
"","1534.6699999645352","sequential-stimulus-presentation","107","405805","0.0-23.0-1.4","SS1613139054263","trial","","40","800","2334.6699999645352","images/stimuli/spore_stims/simple_16_B_a.gif","images/stimuli/spore_stims/simple_03_A_b.gif","","","","","5","simple_dissimilar","images/stimuli/spore_stims/simple_03_A_b.gif","right","","","","",""
"","null","html-keyboard-response","108","407046","0.0-23.0-0.5","SS1613139054263","","","null","","","","","<p><img src= images/blank.png width =""200"" height = ""200"" style = ""float:right""></p><p><img src=images/blank.png width =""800"" height = ""200""></p>","","","","","","","","","","","",""
"","1594.8050001170486","sequential-stimulus-presentation","109","409452","0.0-23.0-1.5","SS1613139054263","trial","","40","800","2394.8050001170486","images/stimuli/spore_stims/simple_16_B_a.gif","images/stimuli/spore_stims/simple_03_A_b.gif","","","","","5","simple_dissimilar","images/stimuli/spore_stims/simple_03_A_b.gif","right","","","","",""
"","null","html-keyboard-response","110","410637","0.0-23.0-0.6","SS1613139054263","","","null","","","","","<p><img src= images/blank.png width =""200"" height = ""200"" style = ""float:right""></p><p><img src=images/blank.png width =""800"" height = ""200""></p>","","","","","","","","","","","",""
"","1387.604999821633","sequential-stimulus-presentation","111","412833","0.0-23.0-1.6","SS1613139054263","trial","","40","800","2187.604999821633","images/stimuli/spore_stims/simple_16_B_a.gif","images/stimuli/spore_stims/simple_03_A_b.gif","","","","","5","simple_dissimilar","images/stimuli/spore_stims/simple_03_A_b.gif","right","","","","",""
"","null","html-keyboard-response","112","413895","0.0-23.0-0.7","SS1613139054263","","","null","","","","","<p><img src= images/blank.png width =""200"" height = ""200"" style = ""float:right""></p><p><img src=images/blank.png width =""800"" height = ""200""></p>","","","","","","","","","","","",""
"","632.85499997437","sequential-stimulus-presentation","113","415336","0.0-23.0-1.7","SS1613139054263","trial","","40","800","1432.85499997437","images/stimuli/spore_stims/simple_16_B_a.gif","images/stimuli/spore_stims/simple_03_A_b.gif","","","","","5","simple_dissimilar","images/stimuli/spore_stims/simple_03_A_b.gif","right","","","","",""
"","7385.73500001803","html-keyboard-response","114","422728","0.0-24.0","SS1613139054263","pref_question","","98","","","","","<video width ='960' height = '540' style='padding-top:8%' autoplay muted><source src='images/stimuli/wall_pref.mp4' type='video/mp4'></video>","2","middle","45%","5","","","","","","","",""
"","1630.9699998237193","sequential-stimulus-presentation","115","425169","0.0-25.0","SS1613139054263","pref_reveal","","40","800","2430.9699998237193","null","null","","","","","5","","","","novel","","","",""
"","null","html-keyboard-response","116","425989","0.0-26.0-0.0","SS1613139054263","","","null","","","","","<p><img src= images/blank.png width =""200"" height = ""200"" style = ""float:right""></p><p><img src=images/blank.png width =""800"" height = ""200""></p>","","","","","","","","","","","",""
"","1342.285000020638","sequential-stimulus-presentation","117","428177","0.0-26.0-1.0","SS1613139054263","trial","","40","800","2142.285000020638","images/stimuli/spore_stims/complex_16_B_a.gif","images/stimuli/spore_stims/complex_19_B_a.gif","","","","","6","complex_dissimilar","images/stimuli/spore_stims/complex_19_B_a.gif","right","","","","",""
"","null","html-keyboard-response","118","429482","0.0-26.0-0.1","SS1613139054263","","","null","","","","","<p><img src= images/blank.png width =""200"" height = ""200"" style = ""float:right""></p><p><img src=images/blank.png width =""800"" height = ""200""></p>","","","","","","","","","","","",""
"","1229.9999999813735","sequential-stimulus-presentation","119","431521","0.0-26.0-1.1","SS1613139054263","trial","","40","800","2029.9999999813735","images/stimuli/spore_stims/complex_16_B_a.gif","images/stimuli/spore_stims/complex_19_B_a.gif","","","","","6","complex_dissimilar","images/stimuli/spore_stims/complex_19_B_a.gif","right","","","","",""
"","null","html-keyboard-response","120","432718","0.0-26.0-0.2","SS1613139054263","","","null","","","","","<p><img src= images/blank.png width =""200"" height = ""200"" style = ""float:right""></p><p><img src=images/blank.png width =""800"" height = ""200""></p>","","","","","","","","","","","",""
"","1313.7050000950694","sequential-stimulus-presentation","121","434841","0.0-26.0-1.2","SS1613139054263","trial","","40","800","2113.7050000950694","images/stimuli/spore_stims/complex_16_B_a.gif","images/stimuli/spore_stims/complex_19_B_a.gif","","","","","6","complex_dissimilar","images/stimuli/spore_stims/complex_19_B_a.gif","right","","","","",""
"","null","html-keyboard-response","122","435797","0.0-26.0-0.3","SS1613139054263","","","null","","","","","<p><img src= images/blank.png width =""200"" height = ""200"" style = ""float:right""></p><p><img src=images/blank.png width =""800"" height = ""200""></p>","","","","","","","","","","","",""
"","1773.8250000402331","sequential-stimulus-presentation","123","438377","0.0-26.0-1.3","SS1613139054263","trial","","40","800","2573.825000040233","images/stimuli/spore_stims/complex_16_B_a.gif","images/stimuli/spore_stims/complex_19_B_a.gif","","","","","6","complex_dissimilar","images/stimuli/spore_stims/complex_16_B_a.gif","left","","","","",""
"","null","html-keyboard-response","124","439598","0.0-26.0-0.4","SS1613139054263","","","null","","","","","<p><img src= images/blank.png width =""200"" height = ""200"" style = ""float:right""></p><p><img src=images/blank.png width =""800"" height = ""200""></p>","","","","","","","","","","","",""
"","1137.2399998363107","sequential-stimulus-presentation","125","441546","0.0-26.0-1.4","SS1613139054263","trial","","40","800","1937.2399998363107","images/stimuli/spore_stims/complex_16_B_a.gif","images/stimuli/spore_stims/complex_19_B_a.gif","","","","","6","complex_dissimilar","images/stimuli/spore_stims/complex_19_B_a.gif","right","","","","",""
"","null","html-keyboard-response","126","442586","0.0-26.0-0.5","SS1613139054263","","","null","","","","","<p><img src= images/blank.png width =""200"" height = ""200"" style = ""float:right""></p><p><img src=images/blank.png width =""800"" height = ""200""></p>","","","","","","","","","","","",""
"","1828.4350000321865","sequential-stimulus-presentation","127","445226","0.0-26.0-1.5","SS1613139054263","trial","","40","800","2628.4350000321865","images/stimuli/spore_stims/complex_16_B_a.gif","images/stimuli/spore_stims/complex_19_B_a.gif","","","","","6","complex_dissimilar","images/stimuli/spore_stims/complex_19_B_a.gif","right","","","","",""
"","null","html-keyboard-response","128","446514","0.0-26.0-0.6","SS1613139054263","","","null","","","","","<p><img src= images/blank.png width =""200"" height = ""200"" style = ""float:right""></p><p><img src=images/blank.png width =""800"" height = ""200""></p>","","","","","","","","","","","",""
"","773.0949998367578","sequential-stimulus-presentation","129","448097","0.0-26.0-1.6","SS1613139054263","trial","","40","800","1573.0949998367578","images/stimuli/spore_stims/complex_16_B_a.gif","images/stimuli/spore_stims/complex_19_B_a.gif","","","","","6","complex_dissimilar","images/stimuli/spore_stims/complex_19_B_a.gif","right","","","","",""
"","null","html-keyboard-response","130","448918","0.0-26.0-0.7","SS1613139054263","","","null","","","","","<p><img src= images/blank.png width =""200"" height = ""200"" style = ""float:right""></p><p><img src=images/blank.png width =""800"" height = ""200""></p>","","","","","","","","","","","",""
"","1523.4850000124425","sequential-stimulus-presentation","131","451249","0.0-26.0-1.7","SS1613139054263","trial","","40","800","2323.4850000124425","images/stimuli/spore_stims/complex_16_B_a.gif","images/stimuli/spore_stims/complex_19_B_a.gif","","","","","6","complex_dissimilar","images/stimuli/spore_stims/complex_19_B_a.gif","right","","","","",""
"","4317.695000208914","html-keyboard-response","132","455578","0.0-27.0","SS1613139054263","pref_question","","98","","","","","<video width ='960' height = '540' style='padding-top:8%' autoplay muted><source src='images/stimuli/wall_pref.mp4' type='video/mp4'></video>","2","middle","45%","6","","","","","","","",""
"","2299.2499999236315","sequential-stimulus-presentation","133","458690","0.0-28.0","SS1613139054263","pref_reveal","","40","800","3099.2499999236315","null","null","","","","","6","","","","novel","","","",""
"","null","html-keyboard-response","134","459984","0.0-29.0-0.0","SS1613139054263","","","null","","","","","<p><img src= images/blank.png width =""200"" height = ""200"" style = ""float:right""></p><p><img src=images/blank.png width =""800"" height = ""200""></p>","","","","","","","","","","","",""
"","3094.8600000701845","sequential-stimulus-presentation","135","463893","0.0-29.0-1.0","SS1613139054263","trial","","40","800","3894.8600000701845","images/stimuli/spore_stims/simple_19_A_b.gif","images/stimuli/spore_stims/simple_19_B_b.gif","","","","","7","simple_similar","images/stimuli/spore_stims/simple_19_B_b.gif","middle","","","","",""
"","null","html-keyboard-response","136","465159","0.0-29.0-0.1","SS1613139054263","","","null","","","","","<p><img src= images/blank.png width =""200"" height = ""200"" style = ""float:right""></p><p><img src=images/blank.png width =""800"" height = ""200""></p>","","","","","","","","","","","",""
"","3724.940000101924","sequential-stimulus-presentation","137","469692","0.0-29.0-1.1","SS1613139054263","trial","","40","800","4524.940000101924","images/stimuli/spore_stims/simple_19_A_b.gif","images/stimuli/spore_stims/simple_19_B_b.gif","","","","","7","simple_similar","images/stimuli/spore_stims/simple_19_B_b.gif","middle","","","","",""
"","null","html-keyboard-response","138","470777","0.0-29.0-0.2","SS1613139054263","","","null","","","","","<p><img src= images/blank.png width =""200"" height = ""200"" style = ""float:right""></p><p><img src=images/blank.png width =""800"" height = ""200""></p>","","","","","","","","","","","",""
"","2022.6650000549853","sequential-stimulus-presentation","139","473610","0.0-29.0-1.2","SS1613139054263","trial","","40","800","2822.6650000549853","images/stimuli/spore_stims/simple_19_A_b.gif","images/stimuli/spore_stims/simple_19_B_b.gif","","","","","7","simple_similar","images/stimuli/spore_stims/simple_19_B_b.gif","middle","","","","",""
"","null","html-keyboard-response","140","474894","0.0-29.0-0.3","SS1613139054263","","","null","","","","","<p><img src= images/blank.png width =""200"" height = ""200"" style = ""float:right""></p><p><img src=images/blank.png width =""800"" height = ""200""></p>","","","","","","","","","","","",""
"","1363.3200000040233","sequential-stimulus-presentation","141","477067","0.0-29.0-1.3","SS1613139054263","trial","","40","800","2163.3200000040233","images/stimuli/spore_stims/simple_19_A_b.gif","images/stimuli/spore_stims/simple_19_B_b.gif","","","","","7","simple_similar","images/stimuli/spore_stims/simple_19_A_b.gif","right","","","","",""
"","null","html-keyboard-response","142","478294","0.0-29.0-0.4","SS1613139054263","","","null","","","","","<p><img src= images/blank.png width =""200"" height = ""200"" style = ""float:right""></p><p><img src=images/blank.png width =""800"" height = ""200""></p>","","","","","","","","","","","",""
"","1150.4249998833984","sequential-stimulus-presentation","143","480259","0.0-29.0-1.4","SS1613139054263","trial","","40","800","1950.4249998833984","images/stimuli/spore_stims/simple_19_A_b.gif","images/stimuli/spore_stims/simple_19_B_b.gif","","","","","7","simple_similar","images/stimuli/spore_stims/simple_19_B_b.gif","middle","","","","",""
"","null","html-keyboard-response","144","481356","0.0-29.0-0.5","SS1613139054263","","","null","","","","","<p><img src= images/blank.png width =""200"" height = ""200"" style = ""float:right""></p><p><img src=images/blank.png width =""800"" height = ""200""></p>","","","","","","","","","","","",""
"","988.0550000816584","sequential-stimulus-presentation","145","483155","0.0-29.0-1.5","SS1613139054263","trial","","40","800","1788.0550000816584","images/stimuli/spore_stims/simple_19_A_b.gif","images/stimuli/spore_stims/simple_19_B_b.gif","","","","","7","simple_similar","images/stimuli/spore_stims/simple_19_B_b.gif","middle","","","","",""
"","null","html-keyboard-response","146","484416","0.0-29.0-0.6","SS1613139054263","","","null","","","","","<p><img src= images/blank.png width =""200"" height = ""200"" style = ""float:right""></p><p><img src=images/blank.png width =""800"" height = ""200""></p>","","","","","","","","","","","",""
"","862.3899999074638","sequential-stimulus-presentation","147","486090","0.0-29.0-1.6","SS1613139054263","trial","","40","800","1662.3899999074638","images/stimuli/spore_stims/simple_19_A_b.gif","images/stimuli/spore_stims/simple_19_B_b.gif","","","","","7","simple_similar","images/stimuli/spore_stims/simple_19_B_b.gif","middle","","","","",""
"","null","html-keyboard-response","148","487302","0.0-29.0-0.7","SS1613139054263","","","null","","","","","<p><img src= images/blank.png width =""200"" height = ""200"" style = ""float:right""></p><p><img src=images/blank.png width =""800"" height = ""200""></p>","","","","","","","","","","","",""
"","896.3999999687076","sequential-stimulus-presentation","149","489035","0.0-29.0-1.7","SS1613139054263","trial","","40","800","1696.3999999687076","images/stimuli/spore_stims/simple_19_A_b.gif","images/stimuli/spore_stims/simple_19_B_b.gif","","","","","7","simple_similar","images/stimuli/spore_stims/simple_19_B_b.gif","middle","","","","",""
"","5095.830000005662","html-keyboard-response","150","494139","0.0-30.0","SS1613139054263","pref_question","","98","","","","","<video width ='960' height = '540' style='padding-top:8%' autoplay muted><source src='images/stimuli/wall_pref.mp4' type='video/mp4'></video>","2","middle","45%","7","","","","","","","",""
"","988.4649999439716","sequential-stimulus-presentation","151","495940","0.0-31.0","SS1613139054263","pref_reveal","","40","800","1788.4649999439716","null","null","","","","","7","","","","background","","","",""
"","null","html-keyboard-response","152","496755","0.0-32.0-0.0","SS1613139054263","","","null","","","","","<p><img src= images/blank.png width =""200"" height = ""200"" style = ""float:right""></p><p><img src=images/blank.png width =""800"" height = ""200""></p>","","","","","","","","","","","",""
"","1634.539999999106","sequential-stimulus-presentation","153","499196","0.0-32.0-1.0","SS1613139054263","trial","","40","800","2434.539999999106","images/stimuli/spore_stims/complex_13_A_d.gif","images/stimuli/spore_stims/complex_13_B_d.gif","","","","","8","complex_similar","images/stimuli/spore_stims/complex_13_B_d.gif","middle","","","","",""
"","null","html-keyboard-response","154","500414","0.0-32.0-0.1","SS1613139054263","","","null","","","","","<p><img src= images/blank.png width =""200"" height = ""200"" style = ""float:right""></p><p><img src=images/blank.png width =""800"" height = ""200""></p>","","","","","","","","","","","",""
"","2401.579999830574","sequential-stimulus-presentation","155","503636","0.0-32.0-1.1","SS1613139054263","trial","","40","800","3201.579999830574","images/stimuli/spore_stims/complex_13_A_d.gif","images/stimuli/spore_stims/complex_13_B_d.gif","","","","","8","complex_similar","images/stimuli/spore_stims/complex_13_B_d.gif","middle","","","","",""
"","null","html-keyboard-response","156","504625","0.0-32.0-0.2","SS1613139054263","","","null","","","","","<p><img src= images/blank.png width =""200"" height = ""200"" style = ""float:right""></p><p><img src=images/blank.png width =""800"" height = ""200""></p>","","","","","","","","","","","",""
"","1477.9550000093877","sequential-stimulus-presentation","157","506918","0.0-32.0-1.2","SS1613139054263","trial","","40","800","2277.9550000093877","images/stimuli/spore_stims/complex_13_A_d.gif","images/stimuli/spore_stims/complex_13_B_d.gif","","","","","8","complex_similar","images/stimuli/spore_stims/complex_13_B_d.gif","middle","","","","",""
"","null","html-keyboard-response","158","507981","0.0-32.0-0.3","SS1613139054263","","","null","","","","","<p><img src= images/blank.png width =""200"" height = ""200"" style = ""float:right""></p><p><img src=images/blank.png width =""800"" height = ""200""></p>","","","","","","","","","","","",""
"","289.4550000783056","sequential-stimulus-presentation","159","509086","0.0-32.0-1.3","SS1613139054263","trial","","40","800","1089.4550000783056","images/stimuli/spore_stims/complex_13_A_d.gif","images/stimuli/spore_stims/complex_13_B_d.gif","","","","","8","complex_similar","images/stimuli/spore_stims/complex_13_B_d.gif","middle","","","","",""
"","null","html-keyboard-response","160","510212","0.0-32.0-0.4","SS1613139054263","","","null","","","","","<p><img src= images/blank.png width =""200"" height = ""200"" style = ""float:right""></p><p><img src=images/blank.png width =""800"" height = ""200""></p>","","","","","","","","","","","",""
"","1969.7999998461455","sequential-stimulus-presentation","161","512992","0.0-32.0-1.4","SS1613139054263","trial","","40","800","2769.7999998461455","images/stimuli/spore_stims/complex_13_A_d.gif","images/stimuli/spore_stims/complex_13_B_d.gif","","","","","8","complex_similar","images/stimuli/spore_stims/complex_13_A_d.gif","right","","","","",""
"","null","html-keyboard-response","162","513843","0.0-32.0-0.5","SS1613139054263","","","null","","","","","<p><img src= images/blank.png width =""200"" height = ""200"" style = ""float:right""></p><p><img src=images/blank.png width =""800"" height = ""200""></p>","","","","","","","","","","","",""
"","1181.675000116229","sequential-stimulus-presentation","163","515835","0.0-32.0-1.5","SS1613139054263","trial","","40","800","1981.675000116229","images/stimuli/spore_stims/complex_13_A_d.gif","images/stimuli/spore_stims/complex_13_B_d.gif","","","","","8","complex_similar","images/stimuli/spore_stims/complex_13_B_d.gif","middle","","","","",""
"","null","html-keyboard-response","164","516760","0.0-32.0-0.6","SS1613139054263","","","null","","","","","<p><img src= images/blank.png width =""200"" height = ""200"" style = ""float:right""></p><p><img src=images/blank.png width =""800"" height = ""200""></p>","","","","","","","","","","","",""
"","2718.525000149384","sequential-stimulus-presentation","165","520291","0.0-32.0-1.6","SS1613139054263","trial","","40","800","3518.525000149384","images/stimuli/spore_stims/complex_13_A_d.gif","images/stimuli/spore_stims/complex_13_B_d.gif","","","","","8","complex_similar","images/stimuli/spore_stims/complex_13_B_d.gif","middle","","","","",""
"","null","html-keyboard-response","166","521409","0.0-32.0-0.7","SS1613139054263","","","null","","","","","<p><img src= images/blank.png width =""200"" height = ""200"" style = ""float:right""></p><p><img src=images/blank.png width =""800"" height = ""200""></p>","","","","","","","","","","","",""
"","943.4849999379367","sequential-stimulus-presentation","167","523173","0.0-32.0-1.7","SS1613139054263","trial","","40","800","1743.4849999379367","images/stimuli/spore_stims/complex_13_A_d.gif","images/stimuli/spore_stims/complex_13_B_d.gif","","","","","8","complex_similar","images/stimuli/spore_stims/complex_13_B_d.gif","middle","","","","",""
"","4629.290000069886","html-keyboard-response","168","527813","0.0-33.0","SS1613139054263","pref_question","","99","","","","","<video width ='960' height = '540' style='padding-top:8%' autoplay muted><source src='images/stimuli/wall_pref.mp4' type='video/mp4'></video>","3","right","66%","8","","","","","","","",""
"","1183.8149998802692","sequential-stimulus-presentation","169","529828","0.0-34.0","SS1613139054263","pref_reveal","","40","800","1983.8149998802692","null","null","","","","","8","","","","deviant","","","",""
"","null","html-keyboard-response","170","530784","0.0-35.0-0.0","SS1613139054263","","","null","","","","","<p><img src= images/blank.png width =""200"" height = ""200"" style = ""float:right""></p><p><img src=images/blank.png width =""800"" height = ""200""></p>","","","","","","","","","","","",""
"","1586.8850001133978","sequential-stimulus-presentation","171","533190","0.0-35.0-1.0","SS1613139054263","trial","","40","800","2386.885000113398","images/stimuli/spore_stims/simple_07_B_c.gif","images/stimuli/spore_stims/simple_07_A_c.gif","","","","","9","simple_similar","images/stimuli/spore_stims/simple_07_A_c.gif","middle","","","","",""
"","null","html-keyboard-response","172","534411","0.0-35.0-0.1","SS1613139054263","","","null","","","","","<p><img src= images/blank.png width =""200"" height = ""200"" style = ""float:right""></p><p><img src=images/blank.png width =""800"" height = ""200""></p>","","","","","","","","","","","",""
"","1239.799999864772","sequential-stimulus-presentation","173","536468","0.0-35.0-1.1","SS1613139054263","trial","","40","800","2039.799999864772","images/stimuli/spore_stims/simple_07_B_c.gif","images/stimuli/spore_stims/simple_07_A_c.gif","","","","","9","simple_similar","images/stimuli/spore_stims/simple_07_A_c.gif","middle","","","","",""
"","null","html-keyboard-response","174","537505","0.0-35.0-0.2","SS1613139054263","","","null","","","","","<p><img src= images/blank.png width =""200"" height = ""200"" style = ""float:right""></p><p><img src=images/blank.png width =""800"" height = ""200""></p>","","","","","","","","","","","",""
"","849.4949999731034","sequential-stimulus-presentation","175","539165","0.0-35.0-1.2","SS1613139054263","trial","","40","800","1649.4949999731034","images/stimuli/spore_stims/simple_07_B_c.gif","images/stimuli/spore_stims/simple_07_A_c.gif","","","","","9","simple_similar","images/stimuli/spore_stims/simple_07_A_c.gif","middle","","","","",""
"","null","html-keyboard-response","176","540471","0.0-35.0-0.3","SS1613139054263","","","null","","","","","<p><img src= images/blank.png width =""200"" height = ""200"" style = ""float:right""></p><p><img src=images/blank.png width =""800"" height = ""200""></p>","","","","","","","","","","","",""
"","1011.0149998217821","sequential-stimulus-presentation","177","542304","0.0-35.0-1.3","SS1613139054263","trial","","40","800","1811.014999821782","images/stimuli/spore_stims/simple_07_B_c.gif","images/stimuli/spore_stims/simple_07_A_c.gif","","","","","9","simple_similar","images/stimuli/spore_stims/simple_07_A_c.gif","middle","","","","",""
"","null","html-keyboard-response","178","543306","0.0-35.0-0.4","SS1613139054263","","","null","","","","","<p><img src= images/blank.png width =""200"" height = ""200"" style = ""float:right""></p><p><img src=images/blank.png width =""800"" height = ""200""></p>","","","","","","","","","","","",""
"","1390.8649999648333","sequential-stimulus-presentation","179","545520","0.0-35.0-1.4","SS1613139054263","trial","","40","800","2190.8649999648333","images/stimuli/spore_stims/simple_07_B_c.gif","images/stimuli/spore_stims/simple_07_A_c.gif","","","","","9","simple_similar","images/stimuli/spore_stims/simple_07_A_c.gif","middle","","","","",""
"","null","html-keyboard-response","180","546445","0.0-35.0-0.5","SS1613139054263","","","null","","","","","<p><img src= images/blank.png width =""200"" height = ""200"" style = ""float:right""></p><p><img src=images/blank.png width =""800"" height = ""200""></p>","","","","","","","","","","","",""
"","1680.255000013858","sequential-stimulus-presentation","181","548944","0.0-35.0-1.5","SS1613139054263","trial","","40","800","2480.255000013858","images/stimuli/spore_stims/simple_07_B_c.gif","images/stimuli/spore_stims/simple_07_A_c.gif","","","","","9","simple_similar","images/stimuli/spore_stims/simple_07_B_c.gif","left","","","","",""
"","null","html-keyboard-response","182","550113","0.0-35.0-0.6","SS1613139054263","","","null","","","","","<p><img src= images/blank.png width =""200"" height = ""200"" style = ""float:right""></p><p><img src=images/blank.png width =""800"" height = ""200""></p>","","","","","","","","","","","",""
"","756.9300001487136","sequential-stimulus-presentation","183","551687","0.0-35.0-1.6","SS1613139054263","trial","","40","800","1556.9300001487136","images/stimuli/spore_stims/simple_07_B_c.gif","images/stimuli/spore_stims/simple_07_A_c.gif","","","","","9","simple_similar","images/stimuli/spore_stims/simple_07_A_c.gif","middle","","","","",""
"","null","html-keyboard-response","184","552795","0.0-35.0-0.7","SS1613139054263","","","null","","","","","<p><img src= images/blank.png width =""200"" height = ""200"" style = ""float:right""></p><p><img src=images/blank.png width =""800"" height = ""200""></p>","","","","","","","","","","","",""
"","2061.075000092387","sequential-stimulus-presentation","185","555704","0.0-35.0-1.7","SS1613139054263","trial","","40","800","2861.075000092387","images/stimuli/spore_stims/simple_07_B_c.gif","images/stimuli/spore_stims/simple_07_A_c.gif","","","","","9","simple_similar","images/stimuli/spore_stims/simple_07_A_c.gif","middle","","","","",""
"","4228.090000106022","html-keyboard-response","186","559949","0.0-36.0","SS1613139054263","pref_question","","98","","","","","<video width ='960' height = '540' style='padding-top:8%' autoplay muted><source src='images/stimuli/wall_pref.mp4' type='video/mp4'></video>","2","middle","45%","9","","","","","","","",""
"","1407.3400001507252","sequential-stimulus-presentation","187","562167","0.0-37.0","SS1613139054263","pref_reveal","","40","800","2207.3400001507252","null","null","","","","","9","","","","background","","","",""
"","null","html-keyboard-response","188","563461","0.0-38.0-0.0","SS1613139054263","","","null","","","","","<p><img src= images/blank.png width =""200"" height = ""200"" style = ""float:right""></p><p><img src=images/blank.png width =""800"" height = ""200""></p>","","","","","","","","","","","",""
"","1640.5450000893325","sequential-stimulus-presentation","189","565913","0.0-38.0-1.0","SS1613139054263","trial","","40","800","2440.5450000893325","images/stimuli/spore_stims/simple_20_A_b.gif","images/stimuli/spore_stims/simple_06_A_a.gif","","","","","10","simple_dissimilar","images/stimuli/spore_stims/simple_06_A_a.gif","left","","","","",""
"","null","html-keyboard-response","190","566884","0.0-38.0-0.1","SS1613139054263","","","null","","","","","<p><img src= images/blank.png width =""200"" height = ""200"" style = ""float:right""></p><p><img src=images/blank.png width =""800"" height = ""200""></p>","","","","","","","","","","","",""
"","1822.870000032708","sequential-stimulus-presentation","191","569526","0.0-38.0-1.1","SS1613139054263","trial","","40","800","2622.870000032708","images/stimuli/spore_stims/simple_20_A_b.gif","images/stimuli/spore_stims/simple_06_A_a.gif","","","","","10","simple_dissimilar","images/stimuli/spore_stims/simple_06_A_a.gif","left","","","","",""
"","null","html-keyboard-response","192","570380","0.0-38.0-0.2","SS1613139054263","","","null","","","","","<p><img src= images/blank.png width =""200"" height = ""200"" style = ""float:right""></p><p><img src=images/blank.png width =""800"" height = ""200""></p>","","","","","","","","","","","",""
"","2086.034999927506","sequential-stimulus-presentation","193","573278","0.0-38.0-1.2","SS1613139054263","trial","","40","800","2886.034999927506","images/stimuli/spore_stims/simple_20_A_b.gif","images/stimuli/spore_stims/simple_06_A_a.gif","","","","","10","simple_dissimilar","images/stimuli/spore_stims/simple_20_A_b.gif","right","","","","",""
"","null","html-keyboard-response","194","574213","0.0-38.0-0.3","SS1613139054263","","","null","","","","","<p><img src= images/blank.png width =""200"" height = ""200"" style = ""float:right""></p><p><img src=images/blank.png width =""800"" height = ""200""></p>","","","","","","","","","","","",""
"","954.9650000408292","sequential-stimulus-presentation","195","575991","0.0-38.0-1.3","SS1613139054263","trial","","40","800","1754.9650000408292","images/stimuli/spore_stims/simple_20_A_b.gif","images/stimuli/spore_stims/simple_06_A_a.gif","","","","","10","simple_dissimilar","images/stimuli/spore_stims/simple_06_A_a.gif","left","","","","",""
"","null","html-keyboard-response","196","577228","0.0-38.0-0.4","SS1613139054263","","","null","","","","","<p><img src= images/blank.png width =""200"" height = ""200"" style = ""float:right""></p><p><img src=images/blank.png width =""800"" height = ""200""></p>","","","","","","","","","","","",""
"","1203.5550000146031","sequential-stimulus-presentation","197","579255","0.0-38.0-1.4","SS1613139054263","trial","","40","800","2003.5550000146031","images/stimuli/spore_stims/simple_20_A_b.gif","images/stimuli/spore_stims/simple_06_A_a.gif","","","","","10","simple_dissimilar","images/stimuli/spore_stims/simple_06_A_a.gif","left","","","","",""
"","null","html-keyboard-response","198","580175","0.0-38.0-0.5","SS1613139054263","","","null","","","","","<p><img src= images/blank.png width =""200"" height = ""200"" style = ""float:right""></p><p><img src=images/blank.png width =""800"" height = ""200""></p>","","","","","","","","","","","",""
"","958.65000016056","sequential-stimulus-presentation","199","581942","0.0-38.0-1.5","SS1613139054263","trial","","40","800","1758.65000016056","images/stimuli/spore_stims/simple_20_A_b.gif","images/stimuli/spore_stims/simple_06_A_a.gif","","","","","10","simple_dissimilar","images/stimuli/spore_stims/simple_06_A_a.gif","left","","","","",""
"","null","html-keyboard-response","200","582835","0.0-38.0-0.6","SS1613139054263","","","null","","","","","<p><img src= images/blank.png width =""200"" height = ""200"" style = ""float:right""></p><p><img src=images/blank.png width =""800"" height = ""200""></p>","","","","","","","","","","","",""
"","892.5099999178201","sequential-stimulus-presentation","201","584538","0.0-38.0-1.6","SS1613139054263","trial","","40","800","1692.50999991782","images/stimuli/spore_stims/simple_20_A_b.gif","images/stimuli/spore_stims/simple_06_A_a.gif","","","","","10","simple_dissimilar","images/stimuli/spore_stims/simple_06_A_a.gif","left","","","","",""
"","null","html-keyboard-response","202","585787","0.0-38.0-0.7","SS1613139054263","","","null","","","","","<p><img src= images/blank.png width =""200"" height = ""200"" style = ""float:right""></p><p><img src=images/blank.png width =""800"" height = ""200""></p>","","","","","","","","","","","",""
"","1323.524999897927","sequential-stimulus-presentation","203","587928","0.0-38.0-1.7","SS1613139054263","trial","","40","800","2123.524999897927","images/stimuli/spore_stims/simple_20_A_b.gif","images/stimuli/spore_stims/simple_06_A_a.gif","","","","","10","simple_dissimilar","images/stimuli/spore_stims/simple_06_A_a.gif","left","","","","",""
"","4045.3850000631064","html-keyboard-response","204","591984","0.0-39.0","SS1613139054263","pref_question","","99","","","","","<video width ='960' height = '540' style='padding-top:8%' autoplay muted><source src='images/stimuli/wall_pref.mp4' type='video/mp4'></video>","3","right","66%","10","","","","","","","",""
"","3091.5749999694526","sequential-stimulus-presentation","205","595896","0.0-40.0","SS1613139054263","pref_reveal","","40","800","3891.5749999694526","null","null","","","","","10","","","","deviant","","","",""
"","null","html-keyboard-response","206","596759","0.0-41.0-0.0","SS1613139054263","","","null","","","","","<p><img src= images/blank.png width =""200"" height = ""200"" style = ""float:right""></p><p><img src=images/blank.png width =""800"" height = ""200""></p>","","","","","","","","","","","",""
"","1305.570000084117","sequential-stimulus-presentation","207","598904","0.0-41.0-1.0","SS1613139054263","trial","","40","800","2105.570000084117","images/stimuli/spore_stims/complex_17_A_b.gif","images/stimuli/spore_stims/complex_09_B_d.gif","","","","","11","complex_dissimilar","images/stimuli/spore_stims/complex_09_B_d.gif","left","","","","",""
"","null","html-keyboard-response","208","600194","0.0-41.0-0.1","SS1613139054263","","","null","","","","","<p><img src= images/blank.png width =""200"" height = ""200"" style = ""float:right""></p><p><img src=images/blank.png width =""800"" height = ""200""></p>","","","","","","","","","","","",""
"","981.1699998099357","sequential-stimulus-presentation","209","601991","0.0-41.0-1.1","SS1613139054263","trial","","40","800","1781.1699998099357","images/stimuli/spore_stims/complex_17_A_b.gif","images/stimuli/spore_stims/complex_09_B_d.gif","","","","","11","complex_dissimilar","images/stimuli/spore_stims/complex_09_B_d.gif","left","","","","",""
"","null","html-keyboard-response","210","602927","0.0-41.0-0.2","SS1613139054263","","","null","","","","","<p><img src= images/blank.png width =""200"" height = ""200"" style = ""float:right""></p><p><img src=images/blank.png width =""800"" height = ""200""></p>","","","","","","","","","","","",""
"","1417.030000127852","sequential-stimulus-presentation","211","605159","0.0-41.0-1.2","SS1613139054263","trial","","40","800","2217.030000127852","images/stimuli/spore_stims/complex_17_A_b.gif","images/stimuli/spore_stims/complex_09_B_d.gif","","","","","11","complex_dissimilar","images/stimuli/spore_stims/complex_17_A_b.gif","right","","","","",""
"","null","html-keyboard-response","212","606142","0.0-41.0-0.3","SS1613139054263","","","null","","","","","<p><img src= images/blank.png width =""200"" height = ""200"" style = ""float:right""></p><p><img src=images/blank.png width =""800"" height = ""200""></p>","","","","","","","","","","","",""
"","1546.5349999722093","sequential-stimulus-presentation","213","608506","0.0-41.0-1.3","SS1613139054263","trial","","40","800","2346.5349999722093","images/stimuli/spore_stims/complex_17_A_b.gif","images/stimuli/spore_stims/complex_09_B_d.gif","","","","","11","complex_dissimilar","images/stimuli/spore_stims/complex_09_B_d.gif","left","","","","",""
"","null","html-keyboard-response","214","609557","0.0-41.0-0.4","SS1613139054263","","","null","","","","","<p><img src= images/blank.png width =""200"" height = ""200"" style = ""float:right""></p><p><img src=images/blank.png width =""800"" height = ""200""></p>","","","","","","","","","","","",""
"","2058.669999940321","sequential-stimulus-presentation","215","612426","0.0-41.0-1.4","SS1613139054263","trial","","40","800","2858.669999940321","images/stimuli/spore_stims/complex_17_A_b.gif","images/stimuli/spore_stims/complex_09_B_d.gif","","","","","11","complex_dissimilar","images/stimuli/spore_stims/complex_09_B_d.gif","left","","","","",""
"","null","html-keyboard-response","216","613692","0.0-41.0-0.5","SS1613139054263","","","null","","","","","<p><img src= images/blank.png width =""200"" height = ""200"" style = ""float:right""></p><p><img src=images/blank.png width =""800"" height = ""200""></p>","","","","","","","","","","","",""
"","1089.7250000853091","sequential-stimulus-presentation","217","615591","0.0-41.0-1.5","SS1613139054263","trial","","40","800","1889.7250000853091","images/stimuli/spore_stims/complex_17_A_b.gif","images/stimuli/spore_stims/complex_09_B_d.gif","","","","","11","complex_dissimilar","images/stimuli/spore_stims/complex_09_B_d.gif","left","","","","",""
"","null","html-keyboard-response","218","616890","0.0-41.0-0.6","SS1613139054263","","","null","","","","","<p><img src= images/blank.png width =""200"" height = ""200"" style = ""float:right""></p><p><img src=images/blank.png width =""800"" height = ""200""></p>","","","","","","","","","","","",""
"","1425.5699999630451","sequential-stimulus-presentation","219","619128","0.0-41.0-1.6","SS1613139054263","trial","","40","800","2225.569999963045","images/stimuli/spore_stims/complex_17_A_b.gif","images/stimuli/spore_stims/complex_09_B_d.gif","","","","","11","complex_dissimilar","images/stimuli/spore_stims/complex_09_B_d.gif","left","","","","",""
"","null","html-keyboard-response","220","620290","0.0-41.0-0.7","SS1613139054263","","","null","","","","","<p><img src= images/blank.png width =""200"" height = ""200"" style = ""float:right""></p><p><img src=images/blank.png width =""800"" height = ""200""></p>","","","","","","","","","","","",""
"","1740.375000052154","sequential-stimulus-presentation","221","622848","0.0-41.0-1.7","SS1613139054263","trial","","40","800","2540.375000052154","images/stimuli/spore_stims/complex_17_A_b.gif","images/stimuli/spore_stims/complex_09_B_d.gif","","","","","11","complex_dissimilar","images/stimuli/spore_stims/complex_09_B_d.gif","left","","","","",""
"","5673.249999992549","html-keyboard-response","222","628529","0.0-42.0","SS1613139054263","pref_question","","98","","","","","<video width ='960' height = '540' style='padding-top:8%' autoplay muted><source src='images/stimuli/wall_pref.mp4' type='video/mp4'></video>","2","middle","45%","11","","","","","","","",""
"","2085.8050000388175","sequential-stimulus-presentation","223","631424","0.0-43.0","SS1613139054263","pref_reveal","","40","800","2885.8050000388175","null","null","","","","","11","","","","novel","","","",""
"","null","html-keyboard-response","224","632509","0.0-44.0-0.0","SS1613139054263","","","null","","","","","<p><img src= images/blank.png width =""200"" height = ""200"" style = ""float:right""></p><p><img src=images/blank.png width =""800"" height = ""200""></p>","","","","","","","","","","","",""
"","1446.7050000093877","sequential-stimulus-presentation","225","634793","0.0-44.0-1.0","SS1613139054263","trial","","40","800","2246.7050000093877","images/stimuli/spore_stims/complex_18_A_b.gif","images/stimuli/spore_stims/complex_18_B_b.gif","","","","","12","complex_similar","images/stimuli/spore_stims/complex_18_B_b.gif","left","","","","",""
"","null","html-keyboard-response","226","635960","0.0-44.0-0.1","SS1613139054263","","","null","","","","","<p><img src= images/blank.png width =""200"" height = ""200"" style = ""float:right""></p><p><img src=images/blank.png width =""800"" height = ""200""></p>","","","","","","","","","","","",""
"","897.3600000608712","sequential-stimulus-presentation","227","637673","0.0-44.0-1.1","SS1613139054263","trial","","40","800","1697.3600000608712","images/stimuli/spore_stims/complex_18_A_b.gif","images/stimuli/spore_stims/complex_18_B_b.gif","","","","","12","complex_similar","images/stimuli/spore_stims/complex_18_B_b.gif","left","","","","",""
"","null","html-keyboard-response","228","638546","0.0-44.0-0.2","SS1613139054263","","","null","","","","","<p><img src= images/blank.png width =""200"" height = ""200"" style = ""float:right""></p><p><img src=images/blank.png width =""800"" height = ""200""></p>","","","","","","","","","","","",""
"","1227.2499999962747","sequential-stimulus-presentation","229","640585","0.0-44.0-1.2","SS1613139054263","trial","","40","800","2027.2499999962747","images/stimuli/spore_stims/complex_18_A_b.gif","images/stimuli/spore_stims/complex_18_B_b.gif","","","","","12","complex_similar","images/stimuli/spore_stims/complex_18_B_b.gif","left","","","","",""
"","null","html-keyboard-response","230","641404","0.0-44.0-0.3","SS1613139054263","","","null","","","","","<p><img src= images/blank.png width =""200"" height = ""200"" style = ""float:right""></p><p><img src=images/blank.png width =""800"" height = ""200""></p>","","","","","","","","","","","",""
"","966.5149999782443","sequential-stimulus-presentation","231","643185","0.0-44.0-1.3","SS1613139054263","trial","","40","800","1766.5149999782443","images/stimuli/spore_stims/complex_18_A_b.gif","images/stimuli/spore_stims/complex_18_B_b.gif","","","","","12","complex_similar","images/stimuli/spore_stims/complex_18_B_b.gif","left","","","","",""
"","null","html-keyboard-response","232","644435","0.0-44.0-0.4","SS1613139054263","","","null","","","","","<p><img src= images/blank.png width =""200"" height = ""200"" style = ""float:right""></p><p><img src=images/blank.png width =""800"" height = ""200""></p>","","","","","","","","","","","",""
"","1683.5799999535084","sequential-stimulus-presentation","233","646931","0.0-44.0-1.4","SS1613139054263","trial","","40","800","2483.5799999535084","images/stimuli/spore_stims/complex_18_A_b.gif","images/stimuli/spore_stims/complex_18_B_b.gif","","","","","12","complex_similar","images/stimuli/spore_stims/complex_18_A_b.gif","right","","","","",""
"","null","html-keyboard-response","234","648165","0.0-44.0-0.5","SS1613139054263","","","null","","","","","<p><img src= images/blank.png width =""200"" height = ""200"" style = ""float:right""></p><p><img src=images/blank.png width =""800"" height = ""200""></p>","","","","","","","","","","","",""
"","1004.1400000918657","sequential-stimulus-presentation","235","649986","0.0-44.0-1.5","SS1613139054263","trial","","40","800","1804.1400000918657","images/stimuli/spore_stims/complex_18_A_b.gif","images/stimuli/spore_stims/complex_18_B_b.gif","","","","","12","complex_similar","images/stimuli/spore_stims/complex_18_B_b.gif","left","","","","",""
"","null","html-keyboard-response","236","651034","0.0-44.0-0.6","SS1613139054263","","","null","","","","","<p><img src= images/blank.png width =""200"" height = ""200"" style = ""float:right""></p><p><img src=images/blank.png width =""800"" height = ""200""></p>","","","","","","","","","","","",""
"","860.2449998725206","sequential-stimulus-presentation","237","652706","0.0-44.0-1.6","SS1613139054263","trial","","40","800","1660.2449998725206","images/stimuli/spore_stims/complex_18_A_b.gif","images/stimuli/spore_stims/complex_18_B_b.gif","","","","","12","complex_similar","images/stimuli/spore_stims/complex_18_B_b.gif","left","","","","",""
"","null","html-keyboard-response","238","653979","0.0-44.0-0.7","SS1613139054263","","","null","","","","","<p><img src= images/blank.png width =""200"" height = ""200"" style = ""float:right""></p><p><img src=images/blank.png width =""800"" height = ""200""></p>","","","","","","","","","","","",""
"","723.0050000362098","sequential-stimulus-presentation","239","655515","0.0-44.0-1.7","SS1613139054263","trial","","40","800","1523.0050000362098","images/stimuli/spore_stims/complex_18_A_b.gif","images/stimuli/spore_stims/complex_18_B_b.gif","","","","","12","complex_similar","images/stimuli/spore_stims/complex_18_B_b.gif","left","","","","",""
"","4192.804999882355","html-keyboard-response","240","659723","0.0-45.0","SS1613139054263","pref_question","","98","","","","","<video width ='960' height = '540' style='padding-top:8%' autoplay muted><source src='images/stimuli/wall_pref.mp4' type='video/mp4'></video>","2","middle","45%","12","","","","","","","",""
"","2399.3150000460446","sequential-stimulus-presentation","241","662943","0.0-46.0","SS1613139054263","pref_reveal","","40","800","3199.3150000460446","null","null","","","","","12","","","","novel","","","",""
"","null","html-keyboard-response","242","663945","0.0-47.0-0.0","SS1613139054263","","","null","","","","","<p><img src= images/blank.png width =""200"" height = ""200"" style = ""float:right""></p><p><img src=images/blank.png width =""800"" height = ""200""></p>","","","","","","","","","","","",""
"","1825.0549999065697","sequential-stimulus-presentation","243","666586","0.0-47.0-1.0","SS1613139054263","trial","","40","800","2625.0549999065697","images/stimuli/spore_stims/complex_05_B_a.gif","images/stimuli/spore_stims/complex_10_B_c.gif","","","","","13","complex_dissimilar","images/stimuli/spore_stims/complex_10_B_c.gif","left","","","","",""
"","null","html-keyboard-response","244","667712","0.0-47.0-0.1","SS1613139054263","","","null","","","","","<p><img src= images/blank.png width =""200"" height = ""200"" style = ""float:right""></p><p><img src=images/blank.png width =""800"" height = ""200""></p>","","","","","","","","","","","",""
"","1291.6500000283122","sequential-stimulus-presentation","245","669827","0.0-47.0-1.1","SS1613139054263","trial","","40","800","2091.650000028312","images/stimuli/spore_stims/complex_05_B_a.gif","images/stimuli/spore_stims/complex_10_B_c.gif","","","","","13","complex_dissimilar","images/stimuli/spore_stims/complex_10_B_c.gif","left","","","","",""
"","null","html-keyboard-response","246","671039","0.0-47.0-0.2","SS1613139054263","","","null","","","","","<p><img src= images/blank.png width =""200"" height = ""200"" style = ""float:right""></p><p><img src=images/blank.png width =""800"" height = ""200""></p>","","","","","","","","","","","",""
"","1569.8649999685585","sequential-stimulus-presentation","247","673442","0.0-47.0-1.2","SS1613139054263","trial","","40","800","2369.8649999685585","images/stimuli/spore_stims/complex_05_B_a.gif","images/stimuli/spore_stims/complex_10_B_c.gif","","","","","13","complex_dissimilar","images/stimuli/spore_stims/complex_10_B_c.gif","left","","","","",""
"","null","html-keyboard-response","248","674484","0.0-47.0-0.3","SS1613139054263","","","null","","","","","<p><img src= images/blank.png width =""200"" height = ""200"" style = ""float:right""></p><p><img src=images/blank.png width =""800"" height = ""200""></p>","","","","","","","","","","","",""
"","1536.3100001122802","sequential-stimulus-presentation","249","676834","0.0-47.0-1.3","SS1613139054263","trial","","40","800","2336.3100001122802","images/stimuli/spore_stims/complex_05_B_a.gif","images/stimuli/spore_stims/complex_10_B_c.gif","","","","","13","complex_dissimilar","images/stimuli/spore_stims/complex_10_B_c.gif","left","","","","",""
"","null","html-keyboard-response","250","678027","0.0-47.0-0.4","SS1613139054263","","","null","","","","","<p><img src= images/blank.png width =""200"" height = ""200"" style = ""float:right""></p><p><img src=images/blank.png width =""800"" height = ""200""></p>","","","","","","","","","","","",""
"","1820.9299999289215","sequential-stimulus-presentation","251","680677","0.0-47.0-1.4","SS1613139054263","trial","","40","800","2620.9299999289215","images/stimuli/spore_stims/complex_05_B_a.gif","images/stimuli/spore_stims/complex_10_B_c.gif","","","","","13","complex_dissimilar","images/stimuli/spore_stims/complex_05_B_a.gif","middle","","","","",""
"","null","html-keyboard-response","252","681971","0.0-47.0-0.5","SS1613139054263","","","null","","","","","<p><img src= images/blank.png width =""200"" height = ""200"" style = ""float:right""></p><p><img src=images/blank.png width =""800"" height = ""200""></p>","","","","","","","","","","","",""
"","1114.6650000009686","sequential-stimulus-presentation","253","683898","0.0-47.0-1.5","SS1613139054263","trial","","40","800","1914.6650000009686","images/stimuli/spore_stims/complex_05_B_a.gif","images/stimuli/spore_stims/complex_10_B_c.gif","","","","","13","complex_dissimilar","images/stimuli/spore_stims/complex_10_B_c.gif","left","","","","",""
"","null","html-keyboard-response","254","684741","0.0-47.0-0.6","SS1613139054263","","","null","","","","","<p><img src= images/blank.png width =""200"" height = ""200"" style = ""float:right""></p><p><img src=images/blank.png width =""800"" height = ""200""></p>","","","","","","","","","","","",""
"","1244.4899999536574","sequential-stimulus-presentation","255","686811","0.0-47.0-1.6","SS1613139054263","trial","","40","800","2044.4899999536574","images/stimuli/spore_stims/complex_05_B_a.gif","images/stimuli/spore_stims/complex_10_B_c.gif","","","","","13","complex_dissimilar","images/stimuli/spore_stims/complex_10_B_c.gif","left","","","","",""
"","null","html-keyboard-response","256","687800","0.0-47.0-0.7","SS1613139054263","","","null","","","","","<p><img src= images/blank.png width =""200"" height = ""200"" style = ""float:right""></p><p><img src=images/blank.png width =""800"" height = ""200""></p>","","","","","","","","","","","",""
"","1077.9900001361966","sequential-stimulus-presentation","257","689691","0.0-47.0-1.7","SS1613139054263","trial","","40","800","1877.9900001361966","images/stimuli/spore_stims/complex_05_B_a.gif","images/stimuli/spore_stims/complex_10_B_c.gif","","","","","13","complex_dissimilar","images/stimuli/spore_stims/complex_10_B_c.gif","left","","","","",""
"","4747.6999999489635","html-keyboard-response","258","694451","0.0-48.0","SS1613139054263","pref_question","","98","","","","","<video width ='960' height = '540' style='padding-top:8%' autoplay muted><source src='images/stimuli/wall_pref.mp4' type='video/mp4'></video>","2","middle","45%","13","","","","","","","",""
"","1126.4899999368936","sequential-stimulus-presentation","259","696394","0.0-49.0","SS1613139054263","pref_reveal","","40","800","1926.4899999368936","null","null","","","","","13","","","","deviant","","","",""
"","null","html-keyboard-response","260","697537","0.0-50.0-0.0","SS1613139054263","","","null","","","","","<p><img src= images/blank.png width =""200"" height = ""200"" style = ""float:right""></p><p><img src=images/blank.png width =""800"" height = ""200""></p>","","","","","","","","","","","",""
"","1337.3350000474602","sequential-stimulus-presentation","261","699692","0.0-50.0-1.0","SS1613139054263","trial","","40","800","2137.33500004746","images/stimuli/spore_stims/simple_18_A_a.gif","images/stimuli/spore_stims/simple_01_A_b.gif","","","","","14","simple_dissimilar","images/stimuli/spore_stims/simple_01_A_b.gif","left","","","","",""
"","null","html-keyboard-response","262","700672","0.0-50.0-0.1","SS1613139054263","","","null","","","","","<p><img src= images/blank.png width =""200"" height = ""200"" style = ""float:right""></p><p><img src=images/blank.png width =""800"" height = ""200""></p>","","","","","","","","","","","",""
"","826.4750000089407","sequential-stimulus-presentation","263","702315","0.0-50.0-1.1","SS1613139054263","trial","","40","800","1626.4750000089407","images/stimuli/spore_stims/simple_18_A_a.gif","images/stimuli/spore_stims/simple_01_A_b.gif","","","","","14","simple_dissimilar","images/stimuli/spore_stims/simple_01_A_b.gif","left","","","","",""
"","null","html-keyboard-response","264","703304","0.0-50.0-0.2","SS1613139054263","","","null","","","","","<p><img src= images/blank.png width =""200"" height = ""200"" style = ""float:right""></p><p><img src=images/blank.png width =""800"" height = ""200""></p>","","","","","","","","","","","",""
"","765.7850000541657","sequential-stimulus-presentation","265","704909","0.0-50.0-1.2","SS1613139054263","trial","","40","800","1565.7850000541657","images/stimuli/spore_stims/simple_18_A_a.gif","images/stimuli/spore_stims/simple_01_A_b.gif","","","","","14","simple_dissimilar","images/stimuli/spore_stims/simple_01_A_b.gif","left","","","","",""
"","null","html-keyboard-response","266","705776","0.0-50.0-0.3","SS1613139054263","","","null","","","","","<p><img src= images/blank.png width =""200"" height = ""200"" style = ""float:right""></p><p><img src=images/blank.png width =""800"" height = ""200""></p>","","","","","","","","","","","",""
"","973.6299999058247","sequential-stimulus-presentation","267","707563","0.0-50.0-1.3","SS1613139054263","trial","","40","800","1773.6299999058247","images/stimuli/spore_stims/simple_18_A_a.gif","images/stimuli/spore_stims/simple_01_A_b.gif","","","","","14","simple_dissimilar","images/stimuli/spore_stims/simple_01_A_b.gif","left","","","","",""
"","null","html-keyboard-response","268","708425","0.0-50.0-0.4","SS1613139054263","","","null","","","","","<p><img src= images/blank.png width =""200"" height = ""200"" style = ""float:right""></p><p><img src=images/blank.png width =""800"" height = ""200""></p>","","","","","","","","","","","",""
"","953.7549999076873","sequential-stimulus-presentation","269","710196","0.0-50.0-1.4","SS1613139054263","trial","","40","800","1753.7549999076873","images/stimuli/spore_stims/simple_18_A_a.gif","images/stimuli/spore_stims/simple_01_A_b.gif","","","","","14","simple_dissimilar","images/stimuli/spore_stims/simple_01_A_b.gif","left","","","","",""
"","null","html-keyboard-response","270","711493","0.0-50.0-0.5","SS1613139054263","","","null","","","","","<p><img src= images/blank.png width =""200"" height = ""200"" style = ""float:right""></p><p><img src=images/blank.png width =""800"" height = ""200""></p>","","","","","","","","","","","",""
"","1072.6250000298023","sequential-stimulus-presentation","271","713380","0.0-50.0-1.5","SS1613139054263","trial","","40","800","1872.6250000298023","images/stimuli/spore_stims/simple_18_A_a.gif","images/stimuli/spore_stims/simple_01_A_b.gif","","","","","14","simple_dissimilar","images/stimuli/spore_stims/simple_01_A_b.gif","left","","","","",""
"","null","html-keyboard-response","272","714602","0.0-50.0-0.6","SS1613139054263","","","null","","","","","<p><img src= images/blank.png width =""200"" height = ""200"" style = ""float:right""></p><p><img src=images/blank.png width =""800"" height = ""200""></p>","","","","","","","","","","","",""
"","1676.9300000742078","sequential-stimulus-presentation","273","717091","0.0-50.0-1.6","SS1613139054263","trial","","40","800","2476.930000074208","images/stimuli/spore_stims/simple_18_A_a.gif","images/stimuli/spore_stims/simple_01_A_b.gif","","","","","14","simple_dissimilar","images/stimuli/spore_stims/simple_18_A_a.gif","middle","","","","",""
"","null","html-keyboard-response","274","718341","0.0-50.0-0.7","SS1613139054263","","","null","","","","","<p><img src= images/blank.png width =""200"" height = ""200"" style = ""float:right""></p><p><img src=images/blank.png width =""800"" height = ""200""></p>","","","","","","","","","","","",""
"","844.4350000936538","sequential-stimulus-presentation","275","720004","0.0-50.0-1.7","SS1613139054263","trial","","40","800","1644.4350000936538","images/stimuli/spore_stims/simple_18_A_a.gif","images/stimuli/spore_stims/simple_01_A_b.gif","","","","","14","simple_dissimilar","images/stimuli/spore_stims/simple_01_A_b.gif","left","","","","",""
"","2823.0149999726564","html-keyboard-response","276","722835","0.0-51.0","SS1613139054263","pref_question","","97","","","","","<video width ='960' height = '540' style='padding-top:8%' autoplay muted><source src='images/stimuli/wall_pref.mp4' type='video/mp4'></video>","1","left","25%","14","","","","","","","",""
"","985.4300001170486","sequential-stimulus-presentation","277","724636","0.0-52.0","SS1613139054263","pref_reveal","","40","800","1785.4300001170486","null","null","","","","","14","","","","background","","","",""
"","null","html-keyboard-response","278","725847","0.0-53.0-0.0","SS1613139054263","","","null","","","","","<p><img src= images/blank.png width =""200"" height = ""200"" style = ""float:right""></p><p><img src=images/blank.png width =""800"" height = ""200""></p>","","","","","","","","","","","",""
"","1104.9349999520928","sequential-stimulus-presentation","279","727766","0.0-53.0-1.0","SS1613139054263","trial","","40","800","1904.9349999520928","images/stimuli/spore_stims/complex_15_A_a.gif","images/stimuli/spore_stims/complex_15_B_a.gif","","","","","15","complex_similar","images/stimuli/spore_stims/complex_15_B_a.gif","left","","","","",""
"","null","html-keyboard-response","280","728730","0.0-53.0-0.1","SS1613139054263","","","null","","","","","<p><img src= images/blank.png width =""200"" height = ""200"" style = ""float:right""></p><p><img src=images/blank.png width =""800"" height = ""200""></p>","","","","","","","","","","","",""
"","1306.71999999322","sequential-stimulus-presentation","281","730852","0.0-53.0-1.1","SS1613139054263","trial","","40","800","2106.71999999322","images/stimuli/spore_stims/complex_15_A_a.gif","images/stimuli/spore_stims/complex_15_B_a.gif","","","","","15","complex_similar","images/stimuli/spore_stims/complex_15_B_a.gif","left","","","","",""
"","null","html-keyboard-response","282","731980","0.0-53.0-0.2","SS1613139054263","","","null","","","","","<p><img src= images/blank.png width =""200"" height = ""200"" style = ""float:right""></p><p><img src=images/blank.png width =""800"" height = ""200""></p>","","","","","","","","","","","",""
"","1144.7399999015033","sequential-stimulus-presentation","283","733941","0.0-53.0-1.2","SS1613139054263","trial","","40","800","1944.7399999015033","images/stimuli/spore_stims/complex_15_A_a.gif","images/stimuli/spore_stims/complex_15_B_a.gif","","","","","15","complex_similar","images/stimuli/spore_stims/complex_15_B_a.gif","left","","","","",""
"","null","html-keyboard-response","284","735004","0.0-53.0-0.3","SS1613139054263","","","null","","","","","<p><img src= images/blank.png width =""200"" height = ""200"" style = ""float:right""></p><p><img src=images/blank.png width =""800"" height = ""200""></p>","","","","","","","","","","","",""
"","731.0049999505281","sequential-stimulus-presentation","285","736548","0.0-53.0-1.3","SS1613139054263","trial","","40","800","1531.0049999505281","images/stimuli/spore_stims/complex_15_A_a.gif","images/stimuli/spore_stims/complex_15_B_a.gif","","","","","15","complex_similar","images/stimuli/spore_stims/complex_15_B_a.gif","left","","","","",""
"","null","html-keyboard-response","286","737799","0.0-53.0-0.4","SS1613139054263","","","null","","","","","<p><img src= images/blank.png width =""200"" height = ""200"" style = ""float:right""></p><p><img src=images/blank.png width =""800"" height = ""200""></p>","","","","","","","","","","","",""
"","2418.08500001207","sequential-stimulus-presentation","287","741037","0.0-53.0-1.4","SS1613139054263","trial","","40","800","3218.08500001207","images/stimuli/spore_stims/complex_15_A_a.gif","images/stimuli/spore_stims/complex_15_B_a.gif","","","","","15","complex_similar","images/stimuli/spore_stims/complex_15_A_a.gif","right","","","","",""
"","null","html-keyboard-response","288","742197","0.0-53.0-0.5","SS1613139054263","","","null","","","","","<p><img src= images/blank.png width =""200"" height = ""200"" style = ""float:right""></p><p><img src=images/blank.png width =""800"" height = ""200""></p>","","","","","","","","","","","",""
"","1023.6800001002848","sequential-stimulus-presentation","289","744045","0.0-53.0-1.5","SS1613139054263","trial","","40","800","1823.6800001002848","images/stimuli/spore_stims/complex_15_A_a.gif","images/stimuli/spore_stims/complex_15_B_a.gif","","","","","15","complex_similar","images/stimuli/spore_stims/complex_15_B_a.gif","left","","","","",""
"","null","html-keyboard-response","290","745167","0.0-53.0-0.6","SS1613139054263","","","null","","","","","<p><img src= images/blank.png width =""200"" height = ""200"" style = ""float:right""></p><p><img src=images/blank.png width =""800"" height = ""200""></p>","","","","","","","","","","","",""
"","1259.1150000225753","sequential-stimulus-presentation","291","747240","0.0-53.0-1.6","SS1613139054263","trial","","40","800","2059.1150000225753","images/stimuli/spore_stims/complex_15_A_a.gif","images/stimuli/spore_stims/complex_15_B_a.gif","","","","","15","complex_similar","images/stimuli/spore_stims/complex_15_B_a.gif","left","","","","",""
"","null","html-keyboard-response","292","748538","0.0-53.0-0.7","SS1613139054263","","","null","","","","","<p><img src= images/blank.png width =""200"" height = ""200"" style = ""float:right""></p><p><img src=images/blank.png width =""800"" height = ""200""></p>","","","","","","","","","","","",""
"","1053.8700001779944","sequential-stimulus-presentation","293","750414","0.0-53.0-1.7","SS1613139054263","trial","","40","800","1853.8700001779944","images/stimuli/spore_stims/complex_15_A_a.gif","images/stimuli/spore_stims/complex_15_B_a.gif","","","","","15","complex_similar","images/stimuli/spore_stims/complex_15_B_a.gif","left","","","","",""
"","5826.884999871254","html-keyboard-response","294","756263","0.0-54.0","SS1613139054263","pref_question","","99","","","","","<video width ='960' height = '540' style='padding-top:8%' autoplay muted><source src='images/stimuli/wall_pref.mp4' type='video/mp4'></video>","3","right","66%","15","","","","","","","",""
"","5793.36000001058","sequential-stimulus-presentation","295","762878","0.0-55.0","SS1613139054263","pref_reveal","","40","800","6593.36000001058","null","null","","","","","15","","","","deviant","","","",""
"","null","html-keyboard-response","296","764060","0.0-56.0-0.0","SS1613139054263","","","null","","","","","<p><img src= images/blank.png width =""200"" height = ""200"" style = ""float:right""></p><p><img src=images/blank.png width =""800"" height = ""200""></p>","","","","","","","","","","","",""
"","2035.8700000215322","sequential-stimulus-presentation","297","766910","0.0-56.0-1.0","SS1613139054263","trial","","40","800","2835.870000021532","images/stimuli/spore_stims/complex_19_B_a.gif","images/stimuli/spore_stims/complex_19_A_a.gif","","","","","16","complex_similar","images/stimuli/spore_stims/complex_19_A_a.gif","right","","","","",""
"","null","html-keyboard-response","298","768047","0.0-56.0-0.1","SS1613139054263","","","null","","","","","<p><img src= images/blank.png width =""200"" height = ""200"" style = ""float:right""></p><p><img src=images/blank.png width =""800"" height = ""200""></p>","","","","","","","","","","","",""
"","830.274999840185","sequential-stimulus-presentation","299","769688","0.0-56.0-1.1","SS1613139054263","trial","","40","800","1630.274999840185","images/stimuli/spore_stims/complex_19_B_a.gif","images/stimuli/spore_stims/complex_19_A_a.gif","","","","","16","complex_similar","images/stimuli/spore_stims/complex_19_A_a.gif","right","","","","",""
"","null","html-keyboard-response","300","770555","0.0-56.0-0.2","SS1613139054263","","","null","","","","","<p><img src= images/blank.png width =""200"" height = ""200"" style = ""float:right""></p><p><img src=images/blank.png width =""800"" height = ""200""></p>","","","","","","","","","","","",""
"","1205.0049998797476","sequential-stimulus-presentation","301","772582","0.0-56.0-1.2","SS1613139054263","trial","","40","800","2005.0049998797476","images/stimuli/spore_stims/complex_19_B_a.gif","images/stimuli/spore_stims/complex_19_A_a.gif","","","","","16","complex_similar","images/stimuli/spore_stims/complex_19_A_a.gif","right","","","","",""
"","null","html-keyboard-response","302","773646","0.0-56.0-0.3","SS1613139054263","","","null","","","","","<p><img src= images/blank.png width =""200"" height = ""200"" style = ""float:right""></p><p><img src=images/blank.png width =""800"" height = ""200""></p>","","","","","","","","","","","",""
"","466.0450001247227","sequential-stimulus-presentation","303","774927","0.0-56.0-1.3","SS1613139054263","trial","","40","800","1266.0450001247227","images/stimuli/spore_stims/complex_19_B_a.gif","images/stimuli/spore_stims/complex_19_A_a.gif","","","","","16","complex_similar","images/stimuli/spore_stims/complex_19_A_a.gif","right","","","","",""
"","null","html-keyboard-response","304","775909","0.0-56.0-0.4","SS1613139054263","","","null","","","","","<p><img src= images/blank.png width =""200"" height = ""200"" style = ""float:right""></p><p><img src=images/blank.png width =""800"" height = ""200""></p>","","","","","","","","","","","",""
"","1242.6899999845773","sequential-stimulus-presentation","305","777969","0.0-56.0-1.4","SS1613139054263","trial","","40","800","2042.6899999845773","images/stimuli/spore_stims/complex_19_B_a.gif","images/stimuli/spore_stims/complex_19_A_a.gif","","","","","16","complex_similar","images/stimuli/spore_stims/complex_19_A_a.gif","right","","","","",""
"","null","html-keyboard-response","306","778893","0.0-56.0-0.5","SS1613139054263","","","null","","","","","<p><img src= images/blank.png width =""200"" height = ""200"" style = ""float:right""></p><p><img src=images/blank.png width =""800"" height = ""200""></p>","","","","","","","","","","","",""
"","1332.420000107959","sequential-stimulus-presentation","307","781048","0.0-56.0-1.5","SS1613139054263","trial","","40","800","2132.420000107959","images/stimuli/spore_stims/complex_19_B_a.gif","images/stimuli/spore_stims/complex_19_A_a.gif","","","","","16","complex_similar","images/stimuli/spore_stims/complex_19_A_a.gif","right","","","","",""
"","null","html-keyboard-response","308","782272","0.0-56.0-0.6","SS1613139054263","","","null","","","","","<p><img src= images/blank.png width =""200"" height = ""200"" style = ""float:right""></p><p><img src=images/blank.png width =""800"" height = ""200""></p>","","","","","","","","","","","",""
"","1146.0549999028444","sequential-stimulus-presentation","309","784257","0.0-56.0-1.6","SS1613139054263","trial","","40","800","1946.0549999028444","images/stimuli/spore_stims/complex_19_B_a.gif","images/stimuli/spore_stims/complex_19_A_a.gif","","","","","16","complex_similar","images/stimuli/spore_stims/complex_19_A_a.gif","right","","","","",""
"","null","html-keyboard-response","310","785539","0.0-56.0-0.7","SS1613139054263","","","null","","","","","<p><img src= images/blank.png width =""200"" height = ""200"" style = ""float:right""></p><p><img src=images/blank.png width =""800"" height = ""200""></p>","","","","","","","","","","","",""
"","2136.905000079423","sequential-stimulus-presentation","311","788488","0.0-56.0-1.7","SS1613139054263","trial","","40","800","2936.905000079423","images/stimuli/spore_stims/complex_19_B_a.gif","images/stimuli/spore_stims/complex_19_A_a.gif","","","","","16","complex_similar","images/stimuli/spore_stims/complex_19_B_a.gif","middle","","","","",""
