"view_history","rt","trial_type","trial_index","time_elapsed","internal_node_id","subject","stimulus_type","trial_stimulus","key_press","minimum_viewing_duration","trial_looking_time","block_deviant","block_background","stimulus","wall_pref","location","location_percent","block_number","block_type","stimulus_displayed","position_displayed","stim_type_selected","responses","question_order","stimulus_left","stimulus_right"
"[{""page_index"":0,""viewing_time"":1514.1249999942374}]","1514.549999999872","instructions","0","1516","0.0-0.0","SS1613079878836","","","","","","","","","","","","","","","","","","","",""
"[{""page_index"":0,""viewing_time"":7418.359999996028},{""page_index"":1,""viewing_time"":6523.509999999078}]","13942.074999999022","instructions","1","17461","0.0-1.0","SS1613079878836","instructions","","","","","","","","","","","","","","","","","","",""
"","39190.849999999045","sequential-stimulus-presentation","2","57455","0.0-2.0","SS1613079878836","","","40","800","39990.849999999045","null","null","","","","","","","","","","","","",""
"","3038.954999996349","sequential-stimulus-presentation","3","61296","0.0-3.0","SS1613079878836","","","40","800","3838.954999996349","null","null","","","","","","","","","","","","",""
"[{""page_index"":0,""viewing_time"":2193.6549999954877}]","2193.894999996701","instructions","4","63490","0.0-4.0","SS1613079878836","instructions","","","","","","","","","","","","","","","","","","",""
"","2627.7849999969476","html-keyboard-response","5","66120","0.0-5.0","SS1613079878836","instructions","","49","","","","","<video width ='960' height = '540' autoplay muted><source src='images/stimuli/wall_pref.mp4' type='video/mp4'></video>","1","left","25%","","","","","","","","",""
"","2917.1799999967334","sequential-stimulus-presentation","6","69840","0.0-6.0","SS1613079878836","pref_reveal","","40","800","3717.1799999967334","null","null","","","","","","","","","","","","",""
"[{""page_index"":0,""viewing_time"":1700.7450000019162},{""page_index"":1,""viewing_time"":1835.8050000024377},{""page_index"":2,""viewing_time"":1155.704999997397},{""page_index"":3,""viewing_time"":773.8099999987753}]","5466.274999998859","instructions","7","75308","0.0-7.0","SS1613079878836","instructions","","","","","","","","","","","","","","","","","","",""
"","null","html-keyboard-response","8","76392","0.0-8.0-0.0","SS1613079878836","","","null","","","","","<p><img src= images/blank.png width =""200"" height = ""200"" style = ""float:right""></p><p><img src=images/blank.png width =""800"" height = ""200""></p>","","","","","","","","","","","",""
"","6727.440000002389","sequential-stimulus-presentation","9","83921","0.0-8.0-1.0","SS1613079878836","trial","","40","800","7527.440000002389","images/stimuli/spore_stims/simple_11_A_b.gif","images/stimuli/spore_stims/simple_11_B_b.gif","","","","","0","simple_similar","images/stimuli/spore_stims/simple_11_B_b.gif","left","","","","",""
"","null","html-keyboard-response","10","84758","0.0-8.0-0.1","SS1613079878836","","","null","","","","","<p><img src= images/blank.png width =""200"" height = ""200"" style = ""float:right""></p><p><img src=images/blank.png width =""800"" height = ""200""></p>","","","","","","","","","","","",""
"","2351.989999995567","sequential-stimulus-presentation","11","87914","0.0-8.0-1.1","SS1613079878836","trial","","40","800","3151.989999995567","images/stimuli/spore_stims/simple_11_A_b.gif","images/stimuli/spore_stims/simple_11_B_b.gif","","","","","0","simple_similar","images/stimuli/spore_stims/simple_11_B_b.gif","left","","","","",""
"","null","html-keyboard-response","12","88739","0.0-8.0-0.2","SS1613079878836","","","null","","","","","<p><img src= images/blank.png width =""200"" height = ""200"" style = ""float:right""></p><p><img src=images/blank.png width =""800"" height = ""200""></p>","","","","","","","","","","","",""
"","12228.750000002037","sequential-stimulus-presentation","13","101771","0.0-8.0-1.2","SS1613079878836","trial","","40","800","13028.750000002037","images/stimuli/spore_stims/simple_11_A_b.gif","images/stimuli/spore_stims/simple_11_B_b.gif","","","","","0","simple_similar","images/stimuli/spore_stims/simple_11_B_b.gif","left","","","","",""
"","null","html-keyboard-response","14","102984","0.0-8.0-0.3","SS1613079878836","","","null","","","","","<p><img src= images/blank.png width =""200"" height = ""200"" style = ""float:right""></p><p><img src=images/blank.png width =""800"" height = ""200""></p>","","","","","","","","","","","",""
"","2553.970000000845","sequential-stimulus-presentation","15","106340","0.0-8.0-1.3","SS1613079878836","trial","","40","800","3353.970000000845","images/stimuli/spore_stims/simple_11_A_b.gif","images/stimuli/spore_stims/simple_11_B_b.gif","","","","","0","simple_similar","images/stimuli/spore_stims/simple_11_A_b.gif","middle","","","","",""
"","null","html-keyboard-response","16","107387","0.0-8.0-0.4","SS1613079878836","","","null","","","","","<p><img src= images/blank.png width =""200"" height = ""200"" style = ""float:right""></p><p><img src=images/blank.png width =""800"" height = ""200""></p>","","","","","","","","","","","",""
"","1062.595000003057","sequential-stimulus-presentation","17","109252","0.0-8.0-1.4","SS1613079878836","trial","","40","800","1862.595000003057","images/stimuli/spore_stims/simple_11_A_b.gif","images/stimuli/spore_stims/simple_11_B_b.gif","","","","","0","simple_similar","images/stimuli/spore_stims/simple_11_B_b.gif","left","","","","",""
"","null","html-keyboard-response","18","110202","0.0-8.0-0.5","SS1613079878836","","","null","","","","","<p><img src= images/blank.png width =""200"" height = ""200"" style = ""float:right""></p><p><img src=images/blank.png width =""800"" height = ""200""></p>","","","","","","","","","","","",""
"","12262.279999995371","sequential-stimulus-presentation","19","123270","0.0-8.0-1.5","SS1613079878836","trial","","40","800","13062.279999995371","images/stimuli/spore_stims/simple_11_A_b.gif","images/stimuli/spore_stims/simple_11_B_b.gif","","","","","0","simple_similar","images/stimuli/spore_stims/simple_11_B_b.gif","left","","","","",""
"","null","html-keyboard-response","20","124238","0.0-8.0-0.6","SS1613079878836","","","null","","","","","<p><img src= images/blank.png width =""200"" height = ""200"" style = ""float:right""></p><p><img src=images/blank.png width =""800"" height = ""200""></p>","","","","","","","","","","","",""
"","14791.729999997187","sequential-stimulus-presentation","21","139832","0.0-8.0-1.6","SS1613079878836","trial","","40","800","15591.729999997187","images/stimuli/spore_stims/simple_11_A_b.gif","images/stimuli/spore_stims/simple_11_B_b.gif","","","","","0","simple_similar","images/stimuli/spore_stims/simple_11_B_b.gif","left","","","","",""
"","null","html-keyboard-response","22","140777","0.0-8.0-0.7","SS1613079878836","","","null","","","","","<p><img src= images/blank.png width =""200"" height = ""200"" style = ""float:right""></p><p><img src=images/blank.png width =""800"" height = ""200""></p>","","","","","","","","","","","",""
"","8300.6849999947","sequential-stimulus-presentation","23","149880","0.0-8.0-1.7","SS1613079878836","trial","","40","800","9100.6849999947","images/stimuli/spore_stims/simple_11_A_b.gif","images/stimuli/spore_stims/simple_11_B_b.gif","","","","","0","simple_similar","images/stimuli/spore_stims/simple_11_B_b.gif","left","","","","",""
"","2830.6250000023283","html-keyboard-response","24","152713","0.0-9.0","SS1613079878836","pref_question","","51","","","","","<video width ='960' height = '540' style='padding-top:8%' autoplay muted><source src='images/stimuli/wall_pref.mp4' type='video/mp4'></video>","3","right","66%","0","","","","","","","",""
"","4629.000000000815","sequential-stimulus-presentation","25","158145","0.0-10.0","SS1613079878836","pref_reveal","","40","800","5429.000000000815","null","null","","","","","0","","","","novel","","","",""
"","null","html-keyboard-response","26","159240","0.0-11.0-0.0","SS1613079878836","","","null","","","","","<p><img src= images/blank.png width =""200"" height = ""200"" style = ""float:right""></p><p><img src=images/blank.png width =""800"" height = ""200""></p>","","","","","","","","","","","",""
"","3337.7499999987776","sequential-stimulus-presentation","27","163381","0.0-11.0-1.0","SS1613079878836","trial","","40","800","4137.749999998778","images/stimuli/spore_stims/complex_02_A_b.gif","images/stimuli/spore_stims/complex_02_B_b.gif","","","","","1","complex_similar","images/stimuli/spore_stims/complex_02_B_b.gif","right","","","","",""
"","null","html-keyboard-response","28","164578","0.0-11.0-0.1","SS1613079878836","","","null","","","","","<p><img src= images/blank.png width =""200"" height = ""200"" style = ""float:right""></p><p><img src=images/blank.png width =""800"" height = ""200""></p>","","","","","","","","","","","",""
"","7086.394999998447","sequential-stimulus-presentation","29","172468","0.0-11.0-1.1","SS1613079878836","trial","","40","800","7886.394999998447","images/stimuli/spore_stims/complex_02_A_b.gif","images/stimuli/spore_stims/complex_02_B_b.gif","","","","","1","complex_similar","images/stimuli/spore_stims/complex_02_B_b.gif","right","","","","",""
"","null","html-keyboard-response","30","173544","0.0-11.0-0.2","SS1613079878836","","","null","","","","","<p><img src= images/blank.png width =""200"" height = ""200"" style = ""float:right""></p><p><img src=images/blank.png width =""800"" height = ""200""></p>","","","","","","","","","","","",""
"","23027.53500000108","sequential-stimulus-presentation","31","197374","0.0-11.0-1.2","SS1613079878836","trial","","40","800","23827.53500000108","images/stimuli/spore_stims/complex_02_A_b.gif","images/stimuli/spore_stims/complex_02_B_b.gif","","","","","1","complex_similar","images/stimuli/spore_stims/complex_02_B_b.gif","right","","","","",""
"","null","html-keyboard-response","32","198368","0.0-11.0-0.3","SS1613079878836","","","null","","","","","<p><img src= images/blank.png width =""200"" height = ""200"" style = ""float:right""></p><p><img src=images/blank.png width =""800"" height = ""200""></p>","","","","","","","","","","","",""
"","11421.354999998584","sequential-stimulus-presentation","33","210592","0.0-11.0-1.3","SS1613079878836","trial","","40","800","12221.354999998584","images/stimuli/spore_stims/complex_02_A_b.gif","images/stimuli/spore_stims/complex_02_B_b.gif","","","","","1","complex_similar","images/stimuli/spore_stims/complex_02_A_b.gif","left","","","","",""
"","null","html-keyboard-response","34","211736","0.0-11.0-0.4","SS1613079878836","","","null","","","","","<p><img src= images/blank.png width =""200"" height = ""200"" style = ""float:right""></p><p><img src=images/blank.png width =""800"" height = ""200""></p>","","","","","","","","","","","",""
"","9285.685000002559","sequential-stimulus-presentation","35","221825","0.0-11.0-1.4","SS1613079878836","trial","","40","800","10085.685000002559","images/stimuli/spore_stims/complex_02_A_b.gif","images/stimuli/spore_stims/complex_02_B_b.gif","","","","","1","complex_similar","images/stimuli/spore_stims/complex_02_B_b.gif","right","","","","",""
"","null","html-keyboard-response","36","222993","0.0-11.0-0.5","SS1613079878836","","","null","","","","","<p><img src= images/blank.png width =""200"" height = ""200"" style = ""float:right""></p><p><img src=images/blank.png width =""800"" height = ""200""></p>","","","","","","","","","","","",""
"","9710.010000002512","sequential-stimulus-presentation","37","233506","0.0-11.0-1.5","SS1613079878836","trial","","40","800","10510.010000002512","images/stimuli/spore_stims/complex_02_A_b.gif","images/stimuli/spore_stims/complex_02_B_b.gif","","","","","1","complex_similar","images/stimuli/spore_stims/complex_02_B_b.gif","right","","","","",""
"","null","html-keyboard-response","38","234373","0.0-11.0-0.6","SS1613079878836","","","null","","","","","<p><img src= images/blank.png width =""200"" height = ""200"" style = ""float:right""></p><p><img src=images/blank.png width =""800"" height = ""200""></p>","","","","","","","","","","","",""
"","16468.389999994542","sequential-stimulus-presentation","39","251644","0.0-11.0-1.6","SS1613079878836","trial","","40","800","17268.389999994542","images/stimuli/spore_stims/complex_02_A_b.gif","images/stimuli/spore_stims/complex_02_B_b.gif","","","","","1","complex_similar","images/stimuli/spore_stims/complex_02_B_b.gif","right","","","","",""
"","null","html-keyboard-response","40","252537","0.0-11.0-0.7","SS1613079878836","","","null","","","","","<p><img src= images/blank.png width =""200"" height = ""200"" style = ""float:right""></p><p><img src=images/blank.png width =""800"" height = ""200""></p>","","","","","","","","","","","",""
"","17170.270000002347","sequential-stimulus-presentation","41","270510","0.0-11.0-1.7","SS1613079878836","trial","","40","800","17970.270000002347","images/stimuli/spore_stims/complex_02_A_b.gif","images/stimuli/spore_stims/complex_02_B_b.gif","","","","","1","complex_similar","images/stimuli/spore_stims/complex_02_B_b.gif","right","","","","",""
"","1310.764999994717","html-keyboard-response","42","271822","0.0-12.0","SS1613079878836","pref_question","","50","","","","","<video width ='960' height = '540' style='padding-top:8%' autoplay muted><source src='images/stimuli/wall_pref.mp4' type='video/mp4'></video>","2","middle","45%","1","","","","","","","",""
"","21463.995000005525","sequential-stimulus-presentation","43","294089","0.0-13.0","SS1613079878836","pref_reveal","","40","800","22263.995000005525","null","null","","","","","1","","","","novel","","","",""
"","null","html-keyboard-response","44","295150","0.0-14.0-0.0","SS1613079878836","","","null","","","","","<p><img src= images/blank.png width =""200"" height = ""200"" style = ""float:right""></p><p><img src=images/blank.png width =""800"" height = ""200""></p>","","","","","","","","","","","",""
"","8644.6849999993","sequential-stimulus-presentation","45","304598","0.0-14.0-1.0","SS1613079878836","trial","","40","800","9444.6849999993","images/stimuli/spore_stims/complex_10_A_d.gif","images/stimuli/spore_stims/complex_10_B_d.gif","","","","","2","complex_similar","images/stimuli/spore_stims/complex_10_B_d.gif","middle","","","","",""
"","null","html-keyboard-response","46","305692","0.0-14.0-0.1","SS1613079878836","","","null","","","","","<p><img src= images/blank.png width =""200"" height = ""200"" style = ""float:right""></p><p><img src=images/blank.png width =""800"" height = ""200""></p>","","","","","","","","","","","",""
"","13677.025000004505","sequential-stimulus-presentation","47","320171","0.0-14.0-1.1","SS1613079878836","trial","","40","800","14477.025000004505","images/stimuli/spore_stims/complex_10_A_d.gif","images/stimuli/spore_stims/complex_10_B_d.gif","","","","","2","complex_similar","images/stimuli/spore_stims/complex_10_B_d.gif","middle","","","","",""
"","null","html-keyboard-response","48","321085","0.0-14.0-0.2","SS1613079878836","","","null","","","","","<p><img src= images/blank.png width =""200"" height = ""200"" style = ""float:right""></p><p><img src=images/blank.png width =""800"" height = ""200""></p>","","","","","","","","","","","",""
"","1059.2650000035064","sequential-stimulus-presentation","49","322948","0.0-14.0-1.2","SS1613079878836","trial","","40","800","1859.2650000035064","images/stimuli/spore_stims/complex_10_A_d.gif","images/stimuli/spore_stims/complex_10_B_d.gif","","","","","2","complex_similar","images/stimuli/spore_stims/complex_10_B_d.gif","middle","","","","",""
"","null","html-keyboard-response","50","324208","0.0-14.0-0.3","SS1613079878836","","","null","","","","","<p><img src= images/blank.png width =""200"" height = ""200"" style = ""float:right""></p><p><img src=images/blank.png width =""800"" height = ""200""></p>","","","","","","","","","","","",""
"","444.629999998142","sequential-stimulus-presentation","51","325456","0.0-14.0-1.3","SS1613079878836","trial","","40","800","1244.629999998142","images/stimuli/spore_stims/complex_10_A_d.gif","images/stimuli/spore_stims/complex_10_B_d.gif","","","","","2","complex_similar","images/stimuli/spore_stims/complex_10_B_d.gif","middle","","","","",""
"","null","html-keyboard-response","52","326732","0.0-14.0-0.4","SS1613079878836","","","null","","","","","<p><img src= images/blank.png width =""200"" height = ""200"" style = ""float:right""></p><p><img src=images/blank.png width =""800"" height = ""200""></p>","","","","","","","","","","","",""
"","316.61000000167405","sequential-stimulus-presentation","53","327852","0.0-14.0-1.4","SS1613079878836","trial","","40","800","1116.610000001674","images/stimuli/spore_stims/complex_10_A_d.gif","images/stimuli/spore_stims/complex_10_B_d.gif","","","","","2","complex_similar","images/stimuli/spore_stims/complex_10_B_d.gif","middle","","","","",""
"","null","html-keyboard-response","54","329131","0.0-14.0-0.5","SS1613079878836","","","null","","","","","<p><img src= images/blank.png width =""200"" height = ""200"" style = ""float:right""></p><p><img src=images/blank.png width =""800"" height = ""200""></p>","","","","","","","","","","","",""
"","322.8850000014063","sequential-stimulus-presentation","55","330261","0.0-14.0-1.5","SS1613079878836","trial","","40","800","1122.8850000014063","images/stimuli/spore_stims/complex_10_A_d.gif","images/stimuli/spore_stims/complex_10_B_d.gif","","","","","2","complex_similar","images/stimuli/spore_stims/complex_10_A_d.gif","left","","","","",""
"","null","html-keyboard-response","56","331446","0.0-14.0-0.6","SS1613079878836","","","null","","","","","<p><img src= images/blank.png width =""200"" height = ""200"" style = ""float:right""></p><p><img src=images/blank.png width =""800"" height = ""200""></p>","","","","","","","","","","","",""
"","4.999999997380655","sequential-stimulus-presentation","57","332253","0.0-14.0-1.6","SS1613079878836","trial","","40","800","804.9999999973807","images/stimuli/spore_stims/complex_10_A_d.gif","images/stimuli/spore_stims/complex_10_B_d.gif","","","","","2","complex_similar","images/stimuli/spore_stims/complex_10_B_d.gif","middle","","","","",""
"","null","html-keyboard-response","58","333486","0.0-14.0-0.7","SS1613079878836","","","null","","","","","<p><img src= images/blank.png width =""200"" height = ""200"" style = ""float:right""></p><p><img src=images/blank.png width =""800"" height = ""200""></p>","","","","","","","","","","","",""
"","29.104999994160607","sequential-stimulus-presentation","59","334317","0.0-14.0-1.7","SS1613079878836","trial","","40","800","829.1049999941606","images/stimuli/spore_stims/complex_10_A_d.gif","images/stimuli/spore_stims/complex_10_B_d.gif","","","","","2","complex_similar","images/stimuli/spore_stims/complex_10_B_d.gif","middle","","","","",""
"","1281.8799999949988","html-keyboard-response","60","335601","0.0-15.0","SS1613079878836","pref_question","","51","","","","","<video width ='960' height = '540' style='padding-top:8%' autoplay muted><source src='images/stimuli/wall_pref.mp4' type='video/mp4'></video>","3","right","66%","2","","","","","","","",""
"","153.72000000206754","sequential-stimulus-presentation","61","336557","0.0-16.0","SS1613079878836","pref_reveal","","40","800","953.7200000020675","null","null","","","","","2","","","","novel","","","",""
"","null","html-keyboard-response","62","337743","0.0-17.0-0.0","SS1613079878836","","","null","","","","","<p><img src= images/blank.png width =""200"" height = ""200"" style = ""float:right""></p><p><img src=images/blank.png width =""800"" height = ""200""></p>","","","","","","","","","","","",""
"","59.77500000153668","sequential-stimulus-presentation","63","338606","0.0-17.0-1.0","SS1613079878836","trial","","40","800","859.7750000015367","images/stimuli/spore_stims/simple_06_B_b.gif","images/stimuli/spore_stims/simple_06_A_b.gif","","","","","3","simple_similar","images/stimuli/spore_stims/simple_06_A_b.gif","left","","","","",""
"","null","html-keyboard-response","64","339589","0.0-17.0-0.1","SS1613079878836","","","null","","","","","<p><img src= images/blank.png width =""200"" height = ""200"" style = ""float:right""></p><p><img src=images/blank.png width =""800"" height = ""200""></p>","","","","","","","","","","","",""
"","60.56999999418622","sequential-stimulus-presentation","65","340453","0.0-17.0-1.1","SS1613079878836","trial","","40","800","860.5699999941862","images/stimuli/spore_stims/simple_06_B_b.gif","images/stimuli/spore_stims/simple_06_A_b.gif","","","","","3","simple_similar","images/stimuli/spore_stims/simple_06_A_b.gif","left","","","","",""
"","null","html-keyboard-response","66","341640","0.0-17.0-0.2","SS1613079878836","","","null","","","","","<p><img src= images/blank.png width =""200"" height = ""200"" style = ""float:right""></p><p><img src=images/blank.png width =""800"" height = ""200""></p>","","","","","","","","","","","",""
"","155.65999999671476","sequential-stimulus-presentation","67","342598","0.0-17.0-1.2","SS1613079878836","trial","","40","800","955.6599999967148","images/stimuli/spore_stims/simple_06_B_b.gif","images/stimuli/spore_stims/simple_06_A_b.gif","","","","","3","simple_similar","images/stimuli/spore_stims/simple_06_A_b.gif","left","","","","",""
"","null","html-keyboard-response","68","343790","0.0-17.0-0.3","SS1613079878836","","","null","","","","","<p><img src= images/blank.png width =""200"" height = ""200"" style = ""float:right""></p><p><img src=images/blank.png width =""800"" height = ""200""></p>","","","","","","","","","","","",""
"","165.67999999824679","sequential-stimulus-presentation","69","344758","0.0-17.0-1.3","SS1613079878836","trial","","40","800","965.6799999982468","images/stimuli/spore_stims/simple_06_B_b.gif","images/stimuli/spore_stims/simple_06_A_b.gif","","","","","3","simple_similar","images/stimuli/spore_stims/simple_06_B_b.gif","middle","","","","",""
"","null","html-keyboard-response","70","346052","0.0-17.0-0.4","SS1613079878836","","","null","","","","","<p><img src= images/blank.png width =""200"" height = ""200"" style = ""float:right""></p><p><img src=images/blank.png width =""800"" height = ""200""></p>","","","","","","","","","","","",""
"","142.89999999891734","sequential-stimulus-presentation","71","346998","0.0-17.0-1.4","SS1613079878836","trial","","40","800","942.8999999989173","images/stimuli/spore_stims/simple_06_B_b.gif","images/stimuli/spore_stims/simple_06_A_b.gif","","","","","3","simple_similar","images/stimuli/spore_stims/simple_06_A_b.gif","left","","","","",""
"","null","html-keyboard-response","72","348151","0.0-17.0-0.5","SS1613079878836","","","null","","","","","<p><img src= images/blank.png width =""200"" height = ""200"" style = ""float:right""></p><p><img src=images/blank.png width =""800"" height = ""200""></p>","","","","","","","","","","","",""
"","1572.8149999995367","sequential-stimulus-presentation","73","350527","0.0-17.0-1.5","SS1613079878836","trial","","40","800","2372.8149999995367","images/stimuli/spore_stims/simple_06_B_b.gif","images/stimuli/spore_stims/simple_06_A_b.gif","","","","","3","simple_similar","images/stimuli/spore_stims/simple_06_A_b.gif","left","","","","",""
"","null","html-keyboard-response","74","351510","0.0-17.0-0.6","SS1613079878836","","","null","","","","","<p><img src= images/blank.png width =""200"" height = ""200"" style = ""float:right""></p><p><img src=images/blank.png width =""800"" height = ""200""></p>","","","","","","","","","","","",""
"","38.84999999718275","sequential-stimulus-presentation","75","352352","0.0-17.0-1.6","SS1613079878836","trial","","40","800","838.8499999971827","images/stimuli/spore_stims/simple_06_B_b.gif","images/stimuli/spore_stims/simple_06_A_b.gif","","","","","3","simple_similar","images/stimuli/spore_stims/simple_06_A_b.gif","left","","","","",""
"","null","html-keyboard-response","76","353187","0.0-17.0-0.7","SS1613079878836","","","null","","","","","<p><img src= images/blank.png width =""200"" height = ""200"" style = ""float:right""></p><p><img src=images/blank.png width =""800"" height = ""200""></p>","","","","","","","","","","","",""
"","145.44000000023516","sequential-stimulus-presentation","77","354135","0.0-17.0-1.7","SS1613079878836","trial","","40","800","945.4400000002352","images/stimuli/spore_stims/simple_06_B_b.gif","images/stimuli/spore_stims/simple_06_A_b.gif","","","","","3","simple_similar","images/stimuli/spore_stims/simple_06_A_b.gif","left","","","","",""
"","758.1799999970826","html-keyboard-response","78","354899","0.0-18.0","SS1613079878836","pref_question","","49","","","","","<video width ='960' height = '540' style='padding-top:8%' autoplay muted><source src='images/stimuli/wall_pref.mp4' type='video/mp4'></video>","1","left","25%","3","","","","","","","",""
"","177.5850000049104","sequential-stimulus-presentation","79","355879","0.0-19.0","SS1613079878836","pref_reveal","","40","800","977.5850000049104","null","null","","","","","3","","","","background","","","",""
"","null","html-keyboard-response","80","356762","0.0-20.0-0.0","SS1613079878836","","","null","","","","","<p><img src= images/blank.png width =""200"" height = ""200"" style = ""float:right""></p><p><img src=images/blank.png width =""800"" height = ""200""></p>","","","","","","","","","","","",""
"","65.9700000032899","sequential-stimulus-presentation","81","357631","0.0-20.0-1.0","SS1613079878836","trial","","40","800","865.9700000032899","images/stimuli/spore_stims/simple_19_B_c.gif","images/stimuli/spore_stims/simple_01_B_d.gif","","","","","4","simple_dissimilar","images/stimuli/spore_stims/simple_01_B_d.gif","right","","","","",""
"","null","html-keyboard-response","82","358661","0.0-20.0-0.1","SS1613079878836","","","null","","","","","<p><img src= images/blank.png width =""200"" height = ""200"" style = ""float:right""></p><p><img src=images/blank.png width =""800"" height = ""200""></p>","","","","","","","","","","","",""
"","142.86999999603722","sequential-stimulus-presentation","83","359608","0.0-20.0-1.1","SS1613079878836","trial","","40","800","942.8699999960372","images/stimuli/spore_stims/simple_19_B_c.gif","images/stimuli/spore_stims/simple_01_B_d.gif","","","","","4","simple_dissimilar","images/stimuli/spore_stims/simple_01_B_d.gif","right","","","","",""
"","null","html-keyboard-response","84","360738","0.0-20.0-0.2","SS1613079878836","","","null","","","","","<p><img src= images/blank.png width =""200"" height = ""200"" style = ""float:right""></p><p><img src=images/blank.png width =""800"" height = ""200""></p>","","","","","","","","","","","",""
"","182.1650000056252","sequential-stimulus-presentation","85","361728","0.0-20.0-1.2","SS1613079878836","trial","","40","800","982.1650000056252","images/stimuli/spore_stims/simple_19_B_c.gif","images/stimuli/spore_stims/simple_01_B_d.gif","","","","","4","simple_dissimilar","images/stimuli/spore_stims/simple_01_B_d.gif","right","","","","",""
"","null","html-keyboard-response","86","362695","0.0-20.0-0.3","SS1613079878836","","","null","","","","","<p><img src= images/blank.png width =""200"" height = ""200"" style = ""float:right""></p><p><img src=images/blank.png width =""800"" height = ""200""></p>","","","","","","","","","","","",""
"","270.6949999992503","sequential-stimulus-presentation","87","363768","0.0-20.0-1.3","SS1613079878836","trial","","40","800","1070.6949999992503","images/stimuli/spore_stims/simple_19_B_c.gif","images/stimuli/spore_stims/simple_01_B_d.gif","","","","","4","simple_dissimilar","images/stimuli/spore_stims/simple_01_B_d.gif","right","","","","",""
"","null","html-keyboard-response","88","364918","0.0-20.0-0.4","SS1613079878836","","","null","","","","","<p><img src= images/blank.png width =""200"" height = ""200"" style = ""float:right""></p><p><img src=images/blank.png width =""800"" height = ""200""></p>","","","","","","","","","","","",""
"","247.02499999693828","sequential-stimulus-presentation","89","365968","0.0-20.0-1.4","SS1613079878836","trial","","40","800","1047.0249999969383","images/stimuli/spore_stims/simple_19_B_c.gif","images/stimuli/spore_stims/simple_01_B_d.gif","","","","","4","simple_dissimilar","images/stimuli/spore_stims/simple_01_B_d.gif","right","","","","",""
"","null","html-keyboard-response","90","367081","0.0-20.0-0.5","SS1613079878836","","","null","","","","","<p><img src= images/blank.png width =""200"" height = ""200"" style = ""float:right""></p><p><img src=images/blank.png width =""800"" height = ""200""></p>","","","","","","","","","","","",""
"","203.93000000331085","sequential-stimulus-presentation","91","368089","0.0-20.0-1.5","SS1613079878836","trial","","40","800","1003.9300000033109","images/stimuli/spore_stims/simple_19_B_c.gif","images/stimuli/spore_stims/simple_01_B_d.gif","","","","","4","simple_dissimilar","images/stimuli/spore_stims/simple_01_B_d.gif","right","","","","",""
"","null","html-keyboard-response","92","369189","0.0-20.0-0.6","SS1613079878836","","","null","","","","","<p><img src= images/blank.png width =""200"" height = ""200"" style = ""float:right""></p><p><img src=images/blank.png width =""800"" height = ""200""></p>","","","","","","","","","","","",""
"","7968.890000003739","sequential-stimulus-presentation","93","378170","0.0-20.0-1.6","SS1613079878836","trial","","40","800","8768.89000000374","images/stimuli/spore_stims/simple_19_B_c.gif","images/stimuli/spore_stims/simple_01_B_d.gif","","","","","4","simple_dissimilar","images/stimuli/spore_stims/simple_01_B_d.gif","right","","","","",""
"","null","html-keyboard-response","94","379457","0.0-20.0-0.7","SS1613079878836","","","null","","","","","<p><img src= images/blank.png width =""200"" height = ""200"" style = ""float:right""></p><p><img src=images/blank.png width =""800"" height = ""200""></p>","","","","","","","","","","","",""
"","61.82499999704305","sequential-stimulus-presentation","95","380322","0.0-20.0-1.7","SS1613079878836","trial","","40","800","861.824999997043","images/stimuli/spore_stims/simple_19_B_c.gif","images/stimuli/spore_stims/simple_01_B_d.gif","","","","","4","simple_dissimilar","images/stimuli/spore_stims/simple_19_B_c.gif","middle","","","","",""
"","4902.614999999059","html-keyboard-response","96","385227","0.0-21.0","SS1613079878836","pref_question","","51","","","","","<video width ='960' height = '540' style='padding-top:8%' autoplay muted><source src='images/stimuli/wall_pref.mp4' type='video/mp4'></video>","3","right","66%","4","","","","","","","",""
"","924.6449999991455","sequential-stimulus-presentation","97","386955","0.0-22.0","SS1613079878836","pref_reveal","","40","800","1724.6449999991455","null","null","","","","","4","","","","background","","","",""
"","null","html-keyboard-response","98","388064","0.0-23.0-0.0","SS1613079878836","","","null","","","","","<p><img src= images/blank.png width =""200"" height = ""200"" style = ""float:right""></p><p><img src=images/blank.png width =""800"" height = ""200""></p>","","","","","","","","","","","",""
"","78.95999999891501","sequential-stimulus-presentation","99","388947","0.0-23.0-1.0","SS1613079878836","trial","","40","800","878.959999998915","images/stimuli/spore_stims/simple_12_B_b.gif","images/stimuli/spore_stims/simple_12_A_b.gif","","","","","5","simple_similar","images/stimuli/spore_stims/simple_12_A_b.gif","left","","","","",""
"","null","html-keyboard-response","100","389809","0.0-23.0-0.1","SS1613079878836","","","null","","","","","<p><img src= images/blank.png width =""200"" height = ""200"" style = ""float:right""></p><p><img src=images/blank.png width =""800"" height = ""200""></p>","","","","","","","","","","","",""
"","222.96999999525724","sequential-stimulus-presentation","101","390835","0.0-23.0-1.1","SS1613079878836","trial","","40","800","1022.9699999952572","images/stimuli/spore_stims/simple_12_B_b.gif","images/stimuli/spore_stims/simple_12_A_b.gif","","","","","5","simple_similar","images/stimuli/spore_stims/simple_12_A_b.gif","left","","","","",""
"","null","html-keyboard-response","102","391719","0.0-23.0-0.2","SS1613079878836","","","null","","","","","<p><img src= images/blank.png width =""200"" height = ""200"" style = ""float:right""></p><p><img src=images/blank.png width =""800"" height = ""200""></p>","","","","","","","","","","","",""
"","89.33999999862863","sequential-stimulus-presentation","103","392612","0.0-23.0-1.2","SS1613079878836","trial","","40","800","889.3399999986286","images/stimuli/spore_stims/simple_12_B_b.gif","images/stimuli/spore_stims/simple_12_A_b.gif","","","","","5","simple_similar","images/stimuli/spore_stims/simple_12_A_b.gif","left","","","","",""
"","null","html-keyboard-response","104","393767","0.0-23.0-0.3","SS1613079878836","","","null","","","","","<p><img src= images/blank.png width =""200"" height = ""200"" style = ""float:right""></p><p><img src=images/blank.png width =""800"" height = ""200""></p>","","","","","","","","","","","",""
"","161.68499999912456","sequential-stimulus-presentation","105","394732","0.0-23.0-1.3","SS1613079878836","trial","","40","800","961.6849999991246","images/stimuli/spore_stims/simple_12_B_b.gif","images/stimuli/spore_stims/simple_12_A_b.gif","","","","","5","simple_similar","images/stimuli/spore_stims/simple_12_A_b.gif","left","","","","",""
"","null","html-keyboard-response","106","395909","0.0-23.0-0.4","SS1613079878836","","","null","","","","","<p><img src= images/blank.png width =""200"" height = ""200"" style = ""float:right""></p><p><img src=images/blank.png width =""800"" height = ""200""></p>","","","","","","","","","","","",""
"","75.46500000171363","sequential-stimulus-presentation","107","396788","0.0-23.0-1.4","SS1613079878836","trial","","40","800","875.4650000017136","images/stimuli/spore_stims/simple_12_B_b.gif","images/stimuli/spore_stims/simple_12_A_b.gif","","","","","5","simple_similar","images/stimuli/spore_stims/simple_12_A_b.gif","left","","","","",""
"","null","html-keyboard-response","108","397785","0.0-23.0-0.5","SS1613079878836","","","null","","","","","<p><img src= images/blank.png width =""200"" height = ""200"" style = ""float:right""></p><p><img src=images/blank.png width =""800"" height = ""200""></p>","","","","","","","","","","","",""
"","31.449999994947575","sequential-stimulus-presentation","109","398620","0.0-23.0-1.5","SS1613079878836","trial","","40","800","831.4499999949476","images/stimuli/spore_stims/simple_12_B_b.gif","images/stimuli/spore_stims/simple_12_A_b.gif","","","","","5","simple_similar","images/stimuli/spore_stims/simple_12_A_b.gif","left","","","","",""
"","null","html-keyboard-response","110","399743","0.0-23.0-0.6","SS1613079878836","","","null","","","","","<p><img src= images/blank.png width =""200"" height = ""200"" style = ""float:right""></p><p><img src=images/blank.png width =""800"" height = ""200""></p>","","","","","","","","","","","",""
"","129.82999999803724","sequential-stimulus-presentation","111","400676","0.0-23.0-1.6","SS1613079878836","trial","","40","800","929.8299999980372","images/stimuli/spore_stims/simple_12_B_b.gif","images/stimuli/spore_stims/simple_12_A_b.gif","","","","","5","simple_similar","images/stimuli/spore_stims/simple_12_A_b.gif","left","","","","",""
"","null","html-keyboard-response","112","401905","0.0-23.0-0.7","SS1613079878836","","","null","","","","","<p><img src= images/blank.png width =""200"" height = ""200"" style = ""float:right""></p><p><img src=images/blank.png width =""800"" height = ""200""></p>","","","","","","","","","","","",""
"","43.51000000315253","sequential-stimulus-presentation","113","402753","0.0-23.0-1.7","SS1613079878836","trial","","40","800","843.5100000031525","images/stimuli/spore_stims/simple_12_B_b.gif","images/stimuli/spore_stims/simple_12_A_b.gif","","","","","5","simple_similar","images/stimuli/spore_stims/simple_12_B_b.gif","right","","","","",""
"","6010.54500000464","html-keyboard-response","114","408765","0.0-24.0","SS1613079878836","pref_question","","51","","","","","<video width ='960' height = '540' style='padding-top:8%' autoplay muted><source src='images/stimuli/wall_pref.mp4' type='video/mp4'></video>","3","right","66%","5","","","","","","","",""
"","357.0850000032806","sequential-stimulus-presentation","115","409926","0.0-25.0","SS1613079878836","pref_reveal","","40","800","1157.0850000032806","null","null","","","","","5","","","","deviant","","","",""
"","null","html-keyboard-response","116","411054","0.0-26.0-0.0","SS1613079878836","","","null","","","","","<p><img src= images/blank.png width =""200"" height = ""200"" style = ""float:right""></p><p><img src=images/blank.png width =""800"" height = ""200""></p>","","","","","","","","","","","",""
"","396.63000000291504","sequential-stimulus-presentation","117","412254","0.0-26.0-1.0","SS1613079878836","trial","","40","800","1196.630000002915","images/stimuli/spore_stims/complex_05_B_a.gif","images/stimuli/spore_stims/complex_05_A_a.gif","","","","","6","complex_similar","images/stimuli/spore_stims/complex_05_A_a.gif","left","","","","",""
"","null","html-keyboard-response","118","413396","0.0-26.0-0.1","SS1613079878836","","","null","","","","","<p><img src= images/blank.png width =""200"" height = ""200"" style = ""float:right""></p><p><img src=images/blank.png width =""800"" height = ""200""></p>","","","","","","","","","","","",""
"","22.99999999377178","sequential-stimulus-presentation","119","414222","0.0-26.0-1.1","SS1613079878836","trial","","40","800","822.9999999937718","images/stimuli/spore_stims/complex_05_B_a.gif","images/stimuli/spore_stims/complex_05_A_a.gif","","","","","6","complex_similar","images/stimuli/spore_stims/complex_05_A_a.gif","left","","","","",""
"","null","html-keyboard-response","120","415165","0.0-26.0-0.2","SS1613079878836","","","null","","","","","<p><img src= images/blank.png width =""200"" height = ""200"" style = ""float:right""></p><p><img src=images/blank.png width =""800"" height = ""200""></p>","","","","","","","","","","","",""
"","53.00500000157626","sequential-stimulus-presentation","121","416022","0.0-26.0-1.2","SS1613079878836","trial","","40","800","853.0050000015763","images/stimuli/spore_stims/complex_05_B_a.gif","images/stimuli/spore_stims/complex_05_A_a.gif","","","","","6","complex_similar","images/stimuli/spore_stims/complex_05_B_a.gif","middle","","","","",""
"","null","html-keyboard-response","122","417170","0.0-26.0-0.3","SS1613079878836","","","null","","","","","<p><img src= images/blank.png width =""200"" height = ""200"" style = ""float:right""></p><p><img src=images/blank.png width =""800"" height = ""200""></p>","","","","","","","","","","","",""
"","256.82500000402797","sequential-stimulus-presentation","123","418230","0.0-26.0-1.3","SS1613079878836","trial","","40","800","1056.825000004028","images/stimuli/spore_stims/complex_05_B_a.gif","images/stimuli/spore_stims/complex_05_A_a.gif","","","","","6","complex_similar","images/stimuli/spore_stims/complex_05_A_a.gif","left","","","","",""
"","null","html-keyboard-response","124","419273","0.0-26.0-0.4","SS1613079878836","","","null","","","","","<p><img src= images/blank.png width =""200"" height = ""200"" style = ""float:right""></p><p><img src=images/blank.png width =""800"" height = ""200""></p>","","","","","","","","","","","",""
"","209.69999999942956","sequential-stimulus-presentation","125","420287","0.0-26.0-1.4","SS1613079878836","trial","","40","800","1009.6999999994296","images/stimuli/spore_stims/complex_05_B_a.gif","images/stimuli/spore_stims/complex_05_A_a.gif","","","","","6","complex_similar","images/stimuli/spore_stims/complex_05_A_a.gif","left","","","","",""
"","null","html-keyboard-response","126","421442","0.0-26.0-0.5","SS1613079878836","","","null","","","","","<p><img src= images/blank.png width =""200"" height = ""200"" style = ""float:right""></p><p><img src=images/blank.png width =""800"" height = ""200""></p>","","","","","","","","","","","",""
"","65.45000000187429","sequential-stimulus-presentation","127","422311","0.0-26.0-1.5","SS1613079878836","trial","","40","800","865.4500000018743","images/stimuli/spore_stims/complex_05_B_a.gif","images/stimuli/spore_stims/complex_05_A_a.gif","","","","","6","complex_similar","images/stimuli/spore_stims/complex_05_A_a.gif","left","","","","",""
"","null","html-keyboard-response","128","423423","0.0-26.0-0.6","SS1613079878836","","","null","","","","","<p><img src= images/blank.png width =""200"" height = ""200"" style = ""float:right""></p><p><img src=images/blank.png width =""800"" height = ""200""></p>","","","","","","","","","","","",""
"","940.615000006801","sequential-stimulus-presentation","129","425167","0.0-26.0-1.6","SS1613079878836","trial","","40","800","1740.615000006801","images/stimuli/spore_stims/complex_05_B_a.gif","images/stimuli/spore_stims/complex_05_A_a.gif","","","","","6","complex_similar","images/stimuli/spore_stims/complex_05_A_a.gif","left","","","","",""
"","null","html-keyboard-response","130","426442","0.0-26.0-0.7","SS1613079878836","","","null","","","","","<p><img src= images/blank.png width =""200"" height = ""200"" style = ""float:right""></p><p><img src=images/blank.png width =""800"" height = ""200""></p>","","","","","","","","","","","",""
"","169.7299999941606","sequential-stimulus-presentation","131","427415","0.0-26.0-1.7","SS1613079878836","trial","","40","800","969.7299999941606","images/stimuli/spore_stims/complex_05_B_a.gif","images/stimuli/spore_stims/complex_05_A_a.gif","","","","","6","complex_similar","images/stimuli/spore_stims/complex_05_A_a.gif","left","","","","",""
"","2177.7749999964726","html-keyboard-response","132","429600","0.0-27.0","SS1613079878836","pref_question","","51","","","","","<video width ='960' height = '540' style='padding-top:8%' autoplay muted><source src='images/stimuli/wall_pref.mp4' type='video/mp4'></video>","3","right","66%","6","","","","","","","",""
"","1565.0550000063959","sequential-stimulus-presentation","133","431968","0.0-28.0","SS1613079878836","pref_reveal","","40","800","2365.055000006396","null","null","","","","","6","","","","novel","","","",""
"","null","html-keyboard-response","134","433155","0.0-29.0-0.0","SS1613079878836","","","null","","","","","<p><img src= images/blank.png width =""200"" height = ""200"" style = ""float:right""></p><p><img src=images/blank.png width =""800"" height = ""200""></p>","","","","","","","","","","","",""
"","74.02000000001863","sequential-stimulus-presentation","135","434032","0.0-29.0-1.0","SS1613079878836","trial","","40","800","874.0200000000186","images/stimuli/spore_stims/simple_20_A_c.gif","images/stimuli/spore_stims/simple_20_B_c.gif","","","","","7","simple_similar","images/stimuli/spore_stims/simple_20_B_c.gif","middle","","","","",""
"","null","html-keyboard-response","136","435163","0.0-29.0-0.1","SS1613079878836","","","null","","","","","<p><img src= images/blank.png width =""200"" height = ""200"" style = ""float:right""></p><p><img src=images/blank.png width =""800"" height = ""200""></p>","","","","","","","","","","","",""
"","185.81000000267522","sequential-stimulus-presentation","137","436152","0.0-29.0-1.1","SS1613079878836","trial","","40","800","985.8100000026752","images/stimuli/spore_stims/simple_20_A_c.gif","images/stimuli/spore_stims/simple_20_B_c.gif","","","","","7","simple_similar","images/stimuli/spore_stims/simple_20_B_c.gif","middle","","","","",""
"","null","html-keyboard-response","138","437145","0.0-29.0-0.2","SS1613079878836","","","null","","","","","<p><img src= images/blank.png width =""200"" height = ""200"" style = ""float:right""></p><p><img src=images/blank.png width =""800"" height = ""200""></p>","","","","","","","","","","","",""
"","41.71499999938533","sequential-stimulus-presentation","139","437993","0.0-29.0-1.2","SS1613079878836","trial","","40","800","841.7149999993853","images/stimuli/spore_stims/simple_20_A_c.gif","images/stimuli/spore_stims/simple_20_B_c.gif","","","","","7","simple_similar","images/stimuli/spore_stims/simple_20_B_c.gif","middle","","","","",""
"","null","html-keyboard-response","140","439059","0.0-29.0-0.3","SS1613079878836","","","null","","","","","<p><img src= images/blank.png width =""200"" height = ""200"" style = ""float:right""></p><p><img src=images/blank.png width =""800"" height = ""200""></p>","","","","","","","","","","","",""
"","66.67999999626772","sequential-stimulus-presentation","141","439929","0.0-29.0-1.3","SS1613079878836","trial","","40","800","866.6799999962677","images/stimuli/spore_stims/simple_20_A_c.gif","images/stimuli/spore_stims/simple_20_B_c.gif","","","","","7","simple_similar","images/stimuli/spore_stims/simple_20_A_c.gif","left","","","","",""
"","null","html-keyboard-response","142","441048","0.0-29.0-0.4","SS1613079878836","","","null","","","","","<p><img src= images/blank.png width =""200"" height = ""200"" style = ""float:right""></p><p><img src=images/blank.png width =""800"" height = ""200""></p>","","","","","","","","","","","",""
"","1286.3350000043283","sequential-stimulus-presentation","143","443138","0.0-29.0-1.4","SS1613079878836","trial","","40","800","2086.3350000043283","images/stimuli/spore_stims/simple_20_A_c.gif","images/stimuli/spore_stims/simple_20_B_c.gif","","","","","7","simple_similar","images/stimuli/spore_stims/simple_20_B_c.gif","middle","","","","",""
"","null","html-keyboard-response","144","444418","0.0-29.0-0.5","SS1613079878836","","","null","","","","","<p><img src= images/blank.png width =""200"" height = ""200"" style = ""float:right""></p><p><img src=images/blank.png width =""800"" height = ""200""></p>","","","","","","","","","","","",""
"","75.43500000610948","sequential-stimulus-presentation","145","445297","0.0-29.0-1.5","SS1613079878836","trial","","40","800","875.4350000061095","images/stimuli/spore_stims/simple_20_A_c.gif","images/stimuli/spore_stims/simple_20_B_c.gif","","","","","7","simple_similar","images/stimuli/spore_stims/simple_20_B_c.gif","middle","","","","",""
"","null","html-keyboard-response","146","446104","0.0-29.0-0.6","SS1613079878836","","","null","","","","","<p><img src= images/blank.png width =""200"" height = ""200"" style = ""float:right""></p><p><img src=images/blank.png width =""800"" height = ""200""></p>","","","","","","","","","","","",""
"","37.960000001476146","sequential-stimulus-presentation","147","446946","0.0-29.0-1.6","SS1613079878836","trial","","40","800","837.9600000014761","images/stimuli/spore_stims/simple_20_A_c.gif","images/stimuli/spore_stims/simple_20_B_c.gif","","","","","7","simple_similar","images/stimuli/spore_stims/simple_20_B_c.gif","middle","","","","",""
"","null","html-keyboard-response","148","448013","0.0-29.0-0.7","SS1613079878836","","","null","","","","","<p><img src= images/blank.png width =""200"" height = ""200"" style = ""float:right""></p><p><img src=images/blank.png width =""800"" height = ""200""></p>","","","","","","","","","","","",""
"","328.8650000031339","sequential-stimulus-presentation","149","449146","0.0-29.0-1.7","SS1613079878836","trial","","40","800","1128.865000003134","images/stimuli/spore_stims/simple_20_A_c.gif","images/stimuli/spore_stims/simple_20_B_c.gif","","","","","7","simple_similar","images/stimuli/spore_stims/simple_20_B_c.gif","middle","","","","",""
"","1637.9249999954482","html-keyboard-response","150","450786","0.0-30.0","SS1613079878836","pref_question","","50","","","","","<video width ='960' height = '540' style='padding-top:8%' autoplay muted><source src='images/stimuli/wall_pref.mp4' type='video/mp4'></video>","2","middle","45%","7","","","","","","","",""
"","36.625000000640284","sequential-stimulus-presentation","151","451627","0.0-31.0","SS1613079878836","pref_reveal","","40","800","836.6250000006403","null","null","","","","","7","","","","background","","","",""
"","null","html-keyboard-response","152","452757","0.0-32.0-0.0","SS1613079878836","","","null","","","","","<p><img src= images/blank.png width =""200"" height = ""200"" style = ""float:right""></p><p><img src=images/blank.png width =""800"" height = ""200""></p>","","","","","","","","","","","",""
"","145.940000002156","sequential-stimulus-presentation","153","453707","0.0-32.0-1.0","SS1613079878836","trial","","40","800","945.940000002156","images/stimuli/spore_stims/complex_03_B_d.gif","images/stimuli/spore_stims/complex_03_A_d.gif","","","","","8","complex_similar","images/stimuli/spore_stims/complex_03_A_d.gif","middle","","","","",""
"","null","html-keyboard-response","154","454842","0.0-32.0-0.1","SS1613079878836","","","null","","","","","<p><img src= images/blank.png width =""200"" height = ""200"" style = ""float:right""></p><p><img src=images/blank.png width =""800"" height = ""200""></p>","","","","","","","","","","","",""
"","8334.535000001779","sequential-stimulus-presentation","155","463980","0.0-32.0-1.1","SS1613079878836","trial","","40","800","9134.535000001779","images/stimuli/spore_stims/complex_03_B_d.gif","images/stimuli/spore_stims/complex_03_A_d.gif","","","","","8","complex_similar","images/stimuli/spore_stims/complex_03_A_d.gif","middle","","","","",""
"","null","html-keyboard-response","156","464926","0.0-32.0-0.2","SS1613079878836","","","null","","","","","<p><img src= images/blank.png width =""200"" height = ""200"" style = ""float:right""></p><p><img src=images/blank.png width =""800"" height = ""200""></p>","","","","","","","","","","","",""
"","65.82000000344124","sequential-stimulus-presentation","157","465796","0.0-32.0-1.2","SS1613079878836","trial","","40","800","865.8200000034412","images/stimuli/spore_stims/complex_03_B_d.gif","images/stimuli/spore_stims/complex_03_A_d.gif","","","","","8","complex_similar","images/stimuli/spore_stims/complex_03_A_d.gif","middle","","","","",""
"","null","html-keyboard-response","158","467201","0.0-32.0-0.3","SS1613079878836","","","null","","","","","<p><img src= images/blank.png width =""200"" height = ""200"" style = ""float:right""></p><p><img src=images/blank.png width =""800"" height = ""200""></p>","","","","","","","","","","","",""
"","52.35000000539003","sequential-stimulus-presentation","159","468060","0.0-32.0-1.3","SS1613079878836","trial","","40","800","852.35000000539","images/stimuli/spore_stims/complex_03_B_d.gif","images/stimuli/spore_stims/complex_03_A_d.gif","","","","","8","complex_similar","images/stimuli/spore_stims/complex_03_A_d.gif","middle","","","","",""
"","null","html-keyboard-response","160","468963","0.0-32.0-0.4","SS1613079878836","","","null","","","","","<p><img src= images/blank.png width =""200"" height = ""200"" style = ""float:right""></p><p><img src=images/blank.png width =""800"" height = ""200""></p>","","","","","","","","","","","",""
"","69.08499999553896","sequential-stimulus-presentation","161","469837","0.0-32.0-1.4","SS1613079878836","trial","","40","800","869.084999995539","images/stimuli/spore_stims/complex_03_B_d.gif","images/stimuli/spore_stims/complex_03_A_d.gif","","","","","8","complex_similar","images/stimuli/spore_stims/complex_03_A_d.gif","middle","","","","",""
"","null","html-keyboard-response","162","470827","0.0-32.0-0.5","SS1613079878836","","","null","","","","","<p><img src= images/blank.png width =""200"" height = ""200"" style = ""float:right""></p><p><img src=images/blank.png width =""800"" height = ""200""></p>","","","","","","","","","","","",""
"","205.82499999727588","sequential-stimulus-presentation","163","471836","0.0-32.0-1.5","SS1613079878836","trial","","40","800","1005.8249999972759","images/stimuli/spore_stims/complex_03_B_d.gif","images/stimuli/spore_stims/complex_03_A_d.gif","","","","","8","complex_similar","images/stimuli/spore_stims/complex_03_A_d.gif","middle","","","","",""
"","null","html-keyboard-response","164","472952","0.0-32.0-0.6","SS1613079878836","","","null","","","","","<p><img src= images/blank.png width =""200"" height = ""200"" style = ""float:right""></p><p><img src=images/blank.png width =""800"" height = ""200""></p>","","","","","","","","","","","",""
"","80.36499999434454","sequential-stimulus-presentation","165","473837","0.0-32.0-1.6","SS1613079878836","trial","","40","800","880.3649999943445","images/stimuli/spore_stims/complex_03_B_d.gif","images/stimuli/spore_stims/complex_03_A_d.gif","","","","","8","complex_similar","images/stimuli/spore_stims/complex_03_A_d.gif","middle","","","","",""
"","null","html-keyboard-response","166","474786","0.0-32.0-0.7","SS1613079878836","","","null","","","","","<p><img src= images/blank.png width =""200"" height = ""200"" style = ""float:right""></p><p><img src=images/blank.png width =""800"" height = ""200""></p>","","","","","","","","","","","",""
"","386.91000000108033","sequential-stimulus-presentation","167","475981","0.0-32.0-1.7","SS1613079878836","trial","","40","800","1186.9100000010803","images/stimuli/spore_stims/complex_03_B_d.gif","images/stimuli/spore_stims/complex_03_A_d.gif","","","","","8","complex_similar","images/stimuli/spore_stims/complex_03_B_d.gif","left","","","","",""
"","1078.0650000015157","html-keyboard-response","168","477062","0.0-33.0","SS1613079878836","pref_question","","49","","","","","<video width ='960' height = '540' style='padding-top:8%' autoplay muted><source src='images/stimuli/wall_pref.mp4' type='video/mp4'></video>","1","left","25%","8","","","","","","","",""
"","35.62499999679858","sequential-stimulus-presentation","169","477901","0.0-34.0","SS1613079878836","pref_reveal","","40","800","835.6249999967986","null","null","","","","","8","","","","deviant","","","",""
"","null","html-keyboard-response","170","478896","0.0-35.0-0.0","SS1613079878836","","","null","","","","","<p><img src= images/blank.png width =""200"" height = ""200"" style = ""float:right""></p><p><img src=images/blank.png width =""800"" height = ""200""></p>","","","","","","","","","","","",""
"","225.4899999970803","sequential-stimulus-presentation","171","479925","0.0-35.0-1.0","SS1613079878836","trial","","40","800","1025.4899999970803","images/stimuli/spore_stims/complex_16_A_a.gif","images/stimuli/spore_stims/complex_09_A_b.gif","","","","","9","complex_dissimilar","images/stimuli/spore_stims/complex_09_A_b.gif","left","","","","",""
"","null","html-keyboard-response","172","480905","0.0-35.0-0.1","SS1613079878836","","","null","","","","","<p><img src= images/blank.png width =""200"" height = ""200"" style = ""float:right""></p><p><img src=images/blank.png width =""800"" height = ""200""></p>","","","","","","","","","","","",""
"","72.75999999546912","sequential-stimulus-presentation","173","481782","0.0-35.0-1.1","SS1613079878836","trial","","40","800","872.7599999954691","images/stimuli/spore_stims/complex_16_A_a.gif","images/stimuli/spore_stims/complex_09_A_b.gif","","","","","9","complex_dissimilar","images/stimuli/spore_stims/complex_09_A_b.gif","left","","","","",""
"","null","html-keyboard-response","174","482714","0.0-35.0-0.2","SS1613079878836","","","null","","","","","<p><img src= images/blank.png width =""200"" height = ""200"" style = ""float:right""></p><p><img src=images/blank.png width =""800"" height = ""200""></p>","","","","","","","","","","","",""
"","160.15999999945052","sequential-stimulus-presentation","175","483678","0.0-35.0-1.2","SS1613079878836","trial","","40","800","960.1599999994505","images/stimuli/spore_stims/complex_16_A_a.gif","images/stimuli/spore_stims/complex_09_A_b.gif","","","","","9","complex_dissimilar","images/stimuli/spore_stims/complex_09_A_b.gif","left","","","","",""
"","null","html-keyboard-response","176","484828","0.0-35.0-0.3","SS1613079878836","","","null","","","","","<p><img src= images/blank.png width =""200"" height = ""200"" style = ""float:right""></p><p><img src=images/blank.png width =""800"" height = ""200""></p>","","","","","","","","","","","",""
"","246.67000000044936","sequential-stimulus-presentation","177","485878","0.0-35.0-1.3","SS1613079878836","trial","","40","800","1046.6700000004494","images/stimuli/spore_stims/complex_16_A_a.gif","images/stimuli/spore_stims/complex_09_A_b.gif","","","","","9","complex_dissimilar","images/stimuli/spore_stims/complex_16_A_a.gif","middle","","","","",""
"","null","html-keyboard-response","178","487146","0.0-35.0-0.4","SS1613079878836","","","null","","","","","<p><img src= images/blank.png width =""200"" height = ""200"" style = ""float:right""></p><p><img src=images/blank.png width =""800"" height = ""200""></p>","","","","","","","","","","","",""
"","344.3550000010873","sequential-stimulus-presentation","179","488294","0.0-35.0-1.4","SS1613079878836","trial","","40","800","1144.3550000010873","images/stimuli/spore_stims/complex_16_A_a.gif","images/stimuli/spore_stims/complex_09_A_b.gif","","","","","9","complex_dissimilar","images/stimuli/spore_stims/complex_09_A_b.gif","left","","","","",""
"","null","html-keyboard-response","180","489494","0.0-35.0-0.5","SS1613079878836","","","null","","","","","<p><img src= images/blank.png width =""200"" height = ""200"" style = ""float:right""></p><p><img src=images/blank.png width =""800"" height = ""200""></p>","","","","","","","","","","","",""
"","237.7649999980349","sequential-stimulus-presentation","181","490535","0.0-35.0-1.5","SS1613079878836","trial","","40","800","1037.764999998035","images/stimuli/spore_stims/complex_16_A_a.gif","images/stimuli/spore_stims/complex_09_A_b.gif","","","","","9","complex_dissimilar","images/stimuli/spore_stims/complex_09_A_b.gif","left","","","","",""
"","null","html-keyboard-response","182","491634","0.0-35.0-0.6","SS1613079878836","","","null","","","","","<p><img src= images/blank.png width =""200"" height = ""200"" style = ""float:right""></p><p><img src=images/blank.png width =""800"" height = ""200""></p>","","","","","","","","","","","",""
"","55.995000002440065","sequential-stimulus-presentation","183","492495","0.0-35.0-1.6","SS1613079878836","trial","","40","800","855.9950000024401","images/stimuli/spore_stims/complex_16_A_a.gif","images/stimuli/spore_stims/complex_09_A_b.gif","","","","","9","complex_dissimilar","images/stimuli/spore_stims/complex_09_A_b.gif","left","","","","",""
"","null","html-keyboard-response","184","493403","0.0-35.0-0.7","SS1613079878836","","","null","","","","","<p><img src= images/blank.png width =""200"" height = ""200"" style = ""float:right""></p><p><img src=images/blank.png width =""800"" height = ""200""></p>","","","","","","","","","","","",""
"","7.874999995692633","sequential-stimulus-presentation","185","494215","0.0-35.0-1.7","SS1613079878836","trial","","40","800","807.8749999956926","images/stimuli/spore_stims/complex_16_A_a.gif","images/stimuli/spore_stims/complex_09_A_b.gif","","","","","9","complex_dissimilar","images/stimuli/spore_stims/complex_09_A_b.gif","left","","","","",""
"","5655.9149999956135","html-keyboard-response","186","499880","0.0-36.0","SS1613079878836","pref_question","","51","","","","","<video width ='960' height = '540' style='padding-top:8%' autoplay muted><source src='images/stimuli/wall_pref.mp4' type='video/mp4'></video>","3","right","66%","9","","","","","","","",""
"","44.60999999730848","sequential-stimulus-presentation","187","500728","0.0-37.0","SS1613079878836","pref_reveal","","40","800","844.6099999973085","null","null","","","","","9","","","","novel","","","",""
"","null","html-keyboard-response","188","501979","0.0-38.0-0.0","SS1613079878836","","","null","","","","","<p><img src= images/blank.png width =""200"" height = ""200"" style = ""float:right""></p><p><img src=images/blank.png width =""800"" height = ""200""></p>","","","","","","","","","","","",""
"","380.7549999982584","sequential-stimulus-presentation","189","503164","0.0-38.0-1.0","SS1613079878836","trial","","40","800","1180.7549999982584","images/stimuli/spore_stims/simple_17_A_d.gif","images/stimuli/spore_stims/simple_13_A_c.gif","","","","","10","simple_dissimilar","images/stimuli/spore_stims/simple_13_A_c.gif","left","","","","",""
"","null","html-keyboard-response","190","504188","0.0-38.0-0.1","SS1613079878836","","","null","","","","","<p><img src= images/blank.png width =""200"" height = ""200"" style = ""float:right""></p><p><img src=images/blank.png width =""800"" height = ""200""></p>","","","","","","","","","","","",""
"","192.71000000298955","sequential-stimulus-presentation","191","505184","0.0-38.0-1.1","SS1613079878836","trial","","40","800","992.7100000029895","images/stimuli/spore_stims/simple_17_A_d.gif","images/stimuli/spore_stims/simple_13_A_c.gif","","","","","10","simple_dissimilar","images/stimuli/spore_stims/simple_13_A_c.gif","left","","","","",""
"","null","html-keyboard-response","192","506045","0.0-38.0-0.2","SS1613079878836","","","null","","","","","<p><img src= images/blank.png width =""200"" height = ""200"" style = ""float:right""></p><p><img src=images/blank.png width =""800"" height = ""200""></p>","","","","","","","","","","","",""
"","135.17999999749009","sequential-stimulus-presentation","193","506985","0.0-38.0-1.2","SS1613079878836","trial","","40","800","935.1799999974901","images/stimuli/spore_stims/simple_17_A_d.gif","images/stimuli/spore_stims/simple_13_A_c.gif","","","","","10","simple_dissimilar","images/stimuli/spore_stims/simple_13_A_c.gif","left","","","","",""
"","null","html-keyboard-response","194","507824","0.0-38.0-0.3","SS1613079878836","","","null","","","","","<p><img src= images/blank.png width =""200"" height = ""200"" style = ""float:right""></p><p><img src=images/blank.png width =""800"" height = ""200""></p>","","","","","","","","","","","",""
"","199.41000000108033","sequential-stimulus-presentation","195","508833","0.0-38.0-1.3","SS1613079878836","trial","","40","800","999.4100000010803","images/stimuli/spore_stims/simple_17_A_d.gif","images/stimuli/spore_stims/simple_13_A_c.gif","","","","","10","simple_dissimilar","images/stimuli/spore_stims/simple_13_A_c.gif","left","","","","",""
"","null","html-keyboard-response","196","509976","0.0-38.0-0.4","SS1613079878836","","","null","","","","","<p><img src= images/blank.png width =""200"" height = ""200"" style = ""float:right""></p><p><img src=images/blank.png width =""800"" height = ""200""></p>","","","","","","","","","","","",""
"","158.00999999931082","sequential-stimulus-presentation","197","510937","0.0-38.0-1.4","SS1613079878836","trial","","40","800","958.0099999993108","images/stimuli/spore_stims/simple_17_A_d.gif","images/stimuli/spore_stims/simple_13_A_c.gif","","","","","10","simple_dissimilar","images/stimuli/spore_stims/simple_13_A_c.gif","left","","","","",""
"","null","html-keyboard-response","198","512159","0.0-38.0-0.5","SS1613079878836","","","null","","","","","<p><img src= images/blank.png width =""200"" height = ""200"" style = ""float:right""></p><p><img src=images/blank.png width =""800"" height = ""200""></p>","","","","","","","","","","","",""
"","62.85000000207219","sequential-stimulus-presentation","199","513025","0.0-38.0-1.5","SS1613079878836","trial","","40","800","862.8500000020722","images/stimuli/spore_stims/simple_17_A_d.gif","images/stimuli/spore_stims/simple_13_A_c.gif","","","","","10","simple_dissimilar","images/stimuli/spore_stims/simple_13_A_c.gif","left","","","","",""
"","null","html-keyboard-response","200","514308","0.0-38.0-0.6","SS1613079878836","","","null","","","","","<p><img src= images/blank.png width =""200"" height = ""200"" style = ""float:right""></p><p><img src=images/blank.png width =""800"" height = ""200""></p>","","","","","","","","","","","",""
"","186.1399999980349","sequential-stimulus-presentation","201","515298","0.0-38.0-1.6","SS1613079878836","trial","","40","800","986.1399999980349","images/stimuli/spore_stims/simple_17_A_d.gif","images/stimuli/spore_stims/simple_13_A_c.gif","","","","","10","simple_dissimilar","images/stimuli/spore_stims/simple_17_A_d.gif","middle","","","","",""
"","null","html-keyboard-response","202","516168","0.0-38.0-0.7","SS1613079878836","","","null","","","","","<p><img src= images/blank.png width =""200"" height = ""200"" style = ""float:right""></p><p><img src=images/blank.png width =""800"" height = ""200""></p>","","","","","","","","","","","",""
"","765.9050000001444","sequential-stimulus-presentation","203","517737","0.0-38.0-1.7","SS1613079878836","trial","","40","800","1565.9050000001444","images/stimuli/spore_stims/simple_17_A_d.gif","images/stimuli/spore_stims/simple_13_A_c.gif","","","","","10","simple_dissimilar","images/stimuli/spore_stims/simple_13_A_c.gif","left","","","","",""
"","3669.8499999984633","html-keyboard-response","204","521410","0.0-39.0","SS1613079878836","pref_question","","49","","","","","<video width ='960' height = '540' style='padding-top:8%' autoplay muted><source src='images/stimuli/wall_pref.mp4' type='video/mp4'></video>","1","left","25%","10","","","","","","","",""
"","299.6500000008382","sequential-stimulus-presentation","205","522514","0.0-40.0","SS1613079878836","pref_reveal","","40","800","1099.6500000008382","null","null","","","","","10","","","","background","","","",""
"","null","html-keyboard-response","206","523321","0.0-41.0-0.0","SS1613079878836","","","null","","","","","<p><img src= images/blank.png width =""200"" height = ""200"" style = ""float:right""></p><p><img src=images/blank.png width =""800"" height = ""200""></p>","","","","","","","","","","","",""
"","4.690000001573935","sequential-stimulus-presentation","207","524130","0.0-41.0-1.0","SS1613079878836","trial","","40","800","804.6900000015739","images/stimuli/spore_stims/complex_09_B_b.gif","images/stimuli/spore_stims/complex_04_B_d.gif","","","","","11","complex_dissimilar","images/stimuli/spore_stims/complex_04_B_d.gif","right","","","","",""
"","null","html-keyboard-response","208","524937","0.0-41.0-0.1","SS1613079878836","","","null","","","","","<p><img src= images/blank.png width =""200"" height = ""200"" style = ""float:right""></p><p><img src=images/blank.png width =""800"" height = ""200""></p>","","","","","","","","","","","",""
"","197.93500000378117","sequential-stimulus-presentation","209","525939","0.0-41.0-1.1","SS1613079878836","trial","","40","800","997.9350000037812","images/stimuli/spore_stims/complex_09_B_b.gif","images/stimuli/spore_stims/complex_04_B_d.gif","","","","","11","complex_dissimilar","images/stimuli/spore_stims/complex_04_B_d.gif","right","","","","",""
"","null","html-keyboard-response","210","527227","0.0-41.0-0.2","SS1613079878836","","","null","","","","","<p><img src= images/blank.png width =""200"" height = ""200"" style = ""float:right""></p><p><img src=images/blank.png width =""800"" height = ""200""></p>","","","","","","","","","","","",""
"","23.114999996381812","sequential-stimulus-presentation","211","528059","0.0-41.0-1.2","SS1613079878836","trial","","40","800","823.1149999963818","images/stimuli/spore_stims/complex_09_B_b.gif","images/stimuli/spore_stims/complex_04_B_d.gif","","","","","11","complex_dissimilar","images/stimuli/spore_stims/complex_04_B_d.gif","right","","","","",""
"","null","html-keyboard-response","212","528863","0.0-41.0-0.3","SS1613079878836","","","null","","","","","<p><img src= images/blank.png width =""200"" height = ""200"" style = ""float:right""></p><p><img src=images/blank.png width =""800"" height = ""200""></p>","","","","","","","","","","","",""
"","79.62000000406988","sequential-stimulus-presentation","213","529747","0.0-41.0-1.3","SS1613079878836","trial","","40","800","879.6200000040699","images/stimuli/spore_stims/complex_09_B_b.gif","images/stimuli/spore_stims/complex_04_B_d.gif","","","","","11","complex_dissimilar","images/stimuli/spore_stims/complex_09_B_b.gif","left","","","","",""
"","null","html-keyboard-response","214","530867","0.0-41.0-0.4","SS1613079878836","","","null","","","","","<p><img src= images/blank.png width =""200"" height = ""200"" style = ""float:right""></p><p><img src=images/blank.png width =""800"" height = ""200""></p>","","","","","","","","","","","",""
"","156.15999999875203","sequential-stimulus-presentation","215","531828","0.0-41.0-1.4","SS1613079878836","trial","","40","800","956.159999998752","images/stimuli/spore_stims/complex_09_B_b.gif","images/stimuli/spore_stims/complex_04_B_d.gif","","","","","11","complex_dissimilar","images/stimuli/spore_stims/complex_04_B_d.gif","right","","","","",""
"","null","html-keyboard-response","216","532849","0.0-41.0-0.5","SS1613079878836","","","null","","","","","<p><img src= images/blank.png width =""200"" height = ""200"" style = ""float:right""></p><p><img src=images/blank.png width =""800"" height = ""200""></p>","","","","","","","","","","","",""
"","185.88499999896158","sequential-stimulus-presentation","217","533844","0.0-41.0-1.5","SS1613079878836","trial","","40","800","985.8849999989616","images/stimuli/spore_stims/complex_09_B_b.gif","images/stimuli/spore_stims/complex_04_B_d.gif","","","","","11","complex_dissimilar","images/stimuli/spore_stims/complex_04_B_d.gif","right","","","","",""
"","null","html-keyboard-response","218","534669","0.0-41.0-0.6","SS1613079878836","","","null","","","","","<p><img src= images/blank.png width =""200"" height = ""200"" style = ""float:right""></p><p><img src=images/blank.png width =""800"" height = ""200""></p>","","","","","","","","","","","",""
"","41.54500000004191","sequential-stimulus-presentation","219","535515","0.0-41.0-1.6","SS1613079878836","trial","","40","800","841.5450000000419","images/stimuli/spore_stims/complex_09_B_b.gif","images/stimuli/spore_stims/complex_04_B_d.gif","","","","","11","complex_dissimilar","images/stimuli/spore_stims/complex_04_B_d.gif","right","","","","",""
"","null","html-keyboard-response","220","536563","0.0-41.0-0.7","SS1613079878836","","","null","","","","","<p><img src= images/blank.png width =""200"" height = ""200"" style = ""float:right""></p><p><img src=images/blank.png width =""800"" height = ""200""></p>","","","","","","","","","","","",""
"","12.915000006556511","sequential-stimulus-presentation","221","537380","0.0-41.0-1.7","SS1613079878836","trial","","40","800","812.9150000065565","images/stimuli/spore_stims/complex_09_B_b.gif","images/stimuli/spore_stims/complex_04_B_d.gif","","","","","11","complex_dissimilar","images/stimuli/spore_stims/complex_04_B_d.gif","right","","","","",""
"","1244.5999999982305","html-keyboard-response","222","538628","0.0-42.0","SS1613079878836","pref_question","","51","","","","","<video width ='960' height = '540' style='padding-top:8%' autoplay muted><source src='images/stimuli/wall_pref.mp4' type='video/mp4'></video>","3","right","66%","11","","","","","","","",""
"","59.83500000007916","sequential-stimulus-presentation","223","539492","0.0-43.0","SS1613079878836","pref_reveal","","40","800","859.8350000000792","null","null","","","","","11","","","","background","","","",""
"","null","html-keyboard-response","224","540487","0.0-44.0-0.0","SS1613079878836","","","null","","","","","<p><img src= images/blank.png width =""200"" height = ""200"" style = ""float:right""></p><p><img src=images/blank.png width =""800"" height = ""200""></p>","","","","","","","","","","","",""
"","16.98500000196509","sequential-stimulus-presentation","225","541308","0.0-44.0-1.0","SS1613079878836","trial","","40","800","816.9850000019651","images/stimuli/spore_stims/simple_14_A_b.gif","images/stimuli/spore_stims/simple_07_A_a.gif","","","","","12","simple_dissimilar","images/stimuli/spore_stims/simple_07_A_a.gif","left","","","","",""
"","null","html-keyboard-response","226","542228","0.0-44.0-0.1","SS1613079878836","","","null","","","","","<p><img src= images/blank.png width =""200"" height = ""200"" style = ""float:right""></p><p><img src=images/blank.png width =""800"" height = ""200""></p>","","","","","","","","","","","",""
"","164.38499999651685","sequential-stimulus-presentation","227","543196","0.0-44.0-1.1","SS1613079878836","trial","","40","800","964.3849999965169","images/stimuli/spore_stims/simple_14_A_b.gif","images/stimuli/spore_stims/simple_07_A_a.gif","","","","","12","simple_dissimilar","images/stimuli/spore_stims/simple_07_A_a.gif","left","","","","",""
"","null","html-keyboard-response","228","544421","0.0-44.0-0.2","SS1613079878836","","","null","","","","","<p><img src= images/blank.png width =""200"" height = ""200"" style = ""float:right""></p><p><img src=images/blank.png width =""800"" height = ""200""></p>","","","","","","","","","","","",""
"","908.0250000043306","sequential-stimulus-presentation","229","546133","0.0-44.0-1.2","SS1613079878836","trial","","40","800","1708.0250000043306","images/stimuli/spore_stims/simple_14_A_b.gif","images/stimuli/spore_stims/simple_07_A_a.gif","","","","","12","simple_dissimilar","images/stimuli/spore_stims/simple_07_A_a.gif","left","","","","",""
"","null","html-keyboard-response","230","547353","0.0-44.0-0.3","SS1613079878836","","","null","","","","","<p><img src= images/blank.png width =""200"" height = ""200"" style = ""float:right""></p><p><img src=images/blank.png width =""800"" height = ""200""></p>","","","","","","","","","","","",""
"","40.0149999987334","sequential-stimulus-presentation","231","548197","0.0-44.0-1.3","SS1613079878836","trial","","40","800","840.0149999987334","images/stimuli/spore_stims/simple_14_A_b.gif","images/stimuli/spore_stims/simple_07_A_a.gif","","","","","12","simple_dissimilar","images/stimuli/spore_stims/simple_07_A_a.gif","left","","","","",""
"","null","html-keyboard-response","232","549202","0.0-44.0-0.4","SS1613079878836","","","null","","","","","<p><img src= images/blank.png width =""200"" height = ""200"" style = ""float:right""></p><p><img src=images/blank.png width =""800"" height = ""200""></p>","","","","","","","","","","","",""
"","230.9000000023516","sequential-stimulus-presentation","233","550237","0.0-44.0-1.4","SS1613079878836","trial","","40","800","1030.9000000023516","images/stimuli/spore_stims/simple_14_A_b.gif","images/stimuli/spore_stims/simple_07_A_a.gif","","","","","12","simple_dissimilar","images/stimuli/spore_stims/simple_07_A_a.gif","left","","","","",""
"","null","html-keyboard-response","234","551107","0.0-44.0-0.5","SS1613079878836","","","null","","","","","<p><img src= images/blank.png width =""200"" height = ""200"" style = ""float:right""></p><p><img src=images/blank.png width =""800"" height = ""200""></p>","","","","","","","","","","","",""
"","110.21500000054948","sequential-stimulus-presentation","235","552022","0.0-44.0-1.5","SS1613079878836","trial","","40","800","910.2150000005495","images/stimuli/spore_stims/simple_14_A_b.gif","images/stimuli/spore_stims/simple_07_A_a.gif","","","","","12","simple_dissimilar","images/stimuli/spore_stims/simple_14_A_b.gif","right","","","","",""
"","null","html-keyboard-response","236","552842","0.0-44.0-0.6","SS1613079878836","","","null","","","","","<p><img src= images/blank.png width =""200"" height = ""200"" style = ""float:right""></p><p><img src=images/blank.png width =""800"" height = ""200""></p>","","","","","","","","","","","",""
"","226.6749999979511","sequential-stimulus-presentation","237","553878","0.0-44.0-1.6","SS1613079878836","trial","","40","800","1026.674999997951","images/stimuli/spore_stims/simple_14_A_b.gif","images/stimuli/spore_stims/simple_07_A_a.gif","","","","","12","simple_dissimilar","images/stimuli/spore_stims/simple_07_A_a.gif","left","","","","",""
"","null","html-keyboard-response","238","554850","0.0-44.0-0.7","SS1613079878836","","","null","","","","","<p><img src= images/blank.png width =""200"" height = ""200"" style = ""float:right""></p><p><img src=images/blank.png width =""800"" height = ""200""></p>","","","","","","","","","","","",""
"","168.67500000086147","sequential-stimulus-presentation","239","555822","0.0-44.0-1.7","SS1613079878836","trial","","40","800","968.6750000008615","images/stimuli/spore_stims/simple_14_A_b.gif","images/stimuli/spore_stims/simple_07_A_a.gif","","","","","12","simple_dissimilar","images/stimuli/spore_stims/simple_07_A_a.gif","left","","","","",""
"","660.7949999960838","html-keyboard-response","240","556486","0.0-45.0","SS1613079878836","pref_question","","49","","","","","<video width ='960' height = '540' style='padding-top:8%' autoplay muted><source src='images/stimuli/wall_pref.mp4' type='video/mp4'></video>","1","left","25%","12","","","","","","","",""
"","116.23500000138301","sequential-stimulus-presentation","241","557406","0.0-46.0","SS1613079878836","pref_reveal","","40","800","916.235000001383","null","null","","","","","12","","","","background","","","",""
"","null","html-keyboard-response","242","558236","0.0-47.0-0.0","SS1613079878836","","","null","","","","","<p><img src= images/blank.png width =""200"" height = ""200"" style = ""float:right""></p><p><img src=images/blank.png width =""800"" height = ""200""></p>","","","","","","","","","","","",""
"","173.62000000139233","sequential-stimulus-presentation","243","559214","0.0-47.0-1.0","SS1613079878836","trial","","40","800","973.6200000013923","images/stimuli/spore_stims/complex_15_B_a.gif","images/stimuli/spore_stims/complex_13_B_a.gif","","","","","13","complex_dissimilar","images/stimuli/spore_stims/complex_13_B_a.gif","left","","","","",""
"","null","html-keyboard-response","244","560098","0.0-47.0-0.1","SS1613079878836","","","null","","","","","<p><img src= images/blank.png width =""200"" height = ""200"" style = ""float:right""></p><p><img src=images/blank.png width =""800"" height = ""200""></p>","","","","","","","","","","","",""
"","16.575000001466833","sequential-stimulus-presentation","245","560919","0.0-47.0-1.1","SS1613079878836","trial","","40","800","816.5750000014668","images/stimuli/spore_stims/complex_15_B_a.gif","images/stimuli/spore_stims/complex_13_B_a.gif","","","","","13","complex_dissimilar","images/stimuli/spore_stims/complex_13_B_a.gif","left","","","","",""
"","null","html-keyboard-response","246","562173","0.0-47.0-0.2","SS1613079878836","","","null","","","","","<p><img src= images/blank.png width =""200"" height = ""200"" style = ""float:right""></p><p><img src=images/blank.png width =""800"" height = ""200""></p>","","","","","","","","","","","",""
"","85.68000000377651","sequential-stimulus-presentation","247","563063","0.0-47.0-1.2","SS1613079878836","trial","","40","800","885.6800000037765","images/stimuli/spore_stims/complex_15_B_a.gif","images/stimuli/spore_stims/complex_13_B_a.gif","","","","","13","complex_dissimilar","images/stimuli/spore_stims/complex_13_B_a.gif","left","","","","",""
"","null","html-keyboard-response","248","564201","0.0-47.0-0.3","SS1613079878836","","","null","","","","","<p><img src= images/blank.png width =""200"" height = ""200"" style = ""float:right""></p><p><img src=images/blank.png width =""800"" height = ""200""></p>","","","","","","","","","","","",""
"","1541.590000000666","sequential-stimulus-presentation","249","566744","0.0-47.0-1.3","SS1613079878836","trial","","40","800","2341.590000000666","images/stimuli/spore_stims/complex_15_B_a.gif","images/stimuli/spore_stims/complex_13_B_a.gif","","","","","13","complex_dissimilar","images/stimuli/spore_stims/complex_13_B_a.gif","left","","","","",""
"","null","html-keyboard-response","250","567893","0.0-47.0-0.4","SS1613079878836","","","null","","","","","<p><img src= images/blank.png width =""200"" height = ""200"" style = ""float:right""></p><p><img src=images/blank.png width =""800"" height = ""200""></p>","","","","","","","","","","","",""
"","22.644999997341074","sequential-stimulus-presentation","251","568720","0.0-47.0-1.4","SS1613079878836","trial","","40","800","822.6449999973411","images/stimuli/spore_stims/complex_15_B_a.gif","images/stimuli/spore_stims/complex_13_B_a.gif","","","","","13","complex_dissimilar","images/stimuli/spore_stims/complex_13_B_a.gif","left","","","","",""
"","null","html-keyboard-response","252","569880","0.0-47.0-0.5","SS1613079878836","","","null","","","","","<p><img src= images/blank.png width =""200"" height = ""200"" style = ""float:right""></p><p><img src=images/blank.png width =""800"" height = ""200""></p>","","","","","","","","","","","",""
"","220.49499999405816","sequential-stimulus-presentation","253","570904","0.0-47.0-1.5","SS1613079878836","trial","","40","800","1020.4949999940582","images/stimuli/spore_stims/complex_15_B_a.gif","images/stimuli/spore_stims/complex_13_B_a.gif","","","","","13","complex_dissimilar","images/stimuli/spore_stims/complex_15_B_a.gif","right","","","","",""
"","null","html-keyboard-response","254","572079","0.0-47.0-0.6","SS1613079878836","","","null","","","","","<p><img src= images/blank.png width =""200"" height = ""200"" style = ""float:right""></p><p><img src=images/blank.png width =""800"" height = ""200""></p>","","","","","","","","","","","",""
"","196.62999999860767","sequential-stimulus-presentation","255","573080","0.0-47.0-1.6","SS1613079878836","trial","","40","800","996.6299999986077","images/stimuli/spore_stims/complex_15_B_a.gif","images/stimuli/spore_stims/complex_13_B_a.gif","","","","","13","complex_dissimilar","images/stimuli/spore_stims/complex_13_B_a.gif","left","","","","",""
"","null","html-keyboard-response","256","574109","0.0-47.0-0.7","SS1613079878836","","","null","","","","","<p><img src= images/blank.png width =""200"" height = ""200"" style = ""float:right""></p><p><img src=images/blank.png width =""800"" height = ""200""></p>","","","","","","","","","","","",""
"","101.45500000356697","sequential-stimulus-presentation","257","575016","0.0-47.0-1.7","SS1613079878836","trial","","40","800","901.455000003567","images/stimuli/spore_stims/complex_15_B_a.gif","images/stimuli/spore_stims/complex_13_B_a.gif","","","","","13","complex_dissimilar","images/stimuli/spore_stims/complex_13_B_a.gif","left","","","","",""
"","2996.2850000010803","html-keyboard-response","258","578017","0.0-48.0","SS1613079878836","pref_question","","50","","","","","<video width ='960' height = '540' style='padding-top:8%' autoplay muted><source src='images/stimuli/wall_pref.mp4' type='video/mp4'></video>","2","middle","45%","13","","","","","","","",""
"","94.03999999631196","sequential-stimulus-presentation","259","578921","0.0-49.0","SS1613079878836","pref_reveal","","40","800","894.039999996312","null","null","","","","","13","","","","novel","","","",""
"","null","html-keyboard-response","260","579947","0.0-50.0-0.0","SS1613079878836","","","null","","","","","<p><img src= images/blank.png width =""200"" height = ""200"" style = ""float:right""></p><p><img src=images/blank.png width =""800"" height = ""200""></p>","","","","","","","","","","","",""
"","104.89000000222586","sequential-stimulus-presentation","261","580857","0.0-50.0-1.0","SS1613079878836","trial","","40","800","904.8900000022259","images/stimuli/spore_stims/simple_09_B_d.gif","images/stimuli/spore_stims/simple_02_B_c.gif","","","","","14","simple_dissimilar","images/stimuli/spore_stims/simple_02_B_c.gif","middle","","","","",""
"","null","html-keyboard-response","262","581662","0.0-50.0-0.1","SS1613079878836","","","null","","","","","<p><img src= images/blank.png width =""200"" height = ""200"" style = ""float:right""></p><p><img src=images/blank.png width =""800"" height = ""200""></p>","","","","","","","","","","","",""
"","126.74999999580905","sequential-stimulus-presentation","263","582593","0.0-50.0-1.1","SS1613079878836","trial","","40","800","926.749999995809","images/stimuli/spore_stims/simple_09_B_d.gif","images/stimuli/spore_stims/simple_02_B_c.gif","","","","","14","simple_dissimilar","images/stimuli/spore_stims/simple_02_B_c.gif","middle","","","","",""
"","null","html-keyboard-response","264","583401","0.0-50.0-0.2","SS1613079878836","","","null","","","","","<p><img src= images/blank.png width =""200"" height = ""200"" style = ""float:right""></p><p><img src=images/blank.png width =""800"" height = ""200""></p>","","","","","","","","","","","",""
"","93.99000000127126","sequential-stimulus-presentation","265","584305","0.0-50.0-1.2","SS1613079878836","trial","","40","800","893.9900000012713","images/stimuli/spore_stims/simple_09_B_d.gif","images/stimuli/spore_stims/simple_02_B_c.gif","","","","","14","simple_dissimilar","images/stimuli/spore_stims/simple_09_B_d.gif","right","","","","",""
"","null","html-keyboard-response","266","585280","0.0-50.0-0.3","SS1613079878836","","","null","","","","","<p><img src= images/blank.png width =""200"" height = ""200"" style = ""float:right""></p><p><img src=images/blank.png width =""800"" height = ""200""></p>","","","","","","","","","","","",""
"","83.98500000475906","sequential-stimulus-presentation","267","586170","0.0-50.0-1.3","SS1613079878836","trial","","40","800","883.9850000047591","images/stimuli/spore_stims/simple_09_B_d.gif","images/stimuli/spore_stims/simple_02_B_c.gif","","","","","14","simple_dissimilar","images/stimuli/spore_stims/simple_02_B_c.gif","middle","","","","",""
"","null","html-keyboard-response","268","587120","0.0-50.0-0.4","SS1613079878836","","","null","","","","","<p><img src= images/blank.png width =""200"" height = ""200"" style = ""float:right""></p><p><img src=images/blank.png width =""800"" height = ""200""></p>","","","","","","","","","","","",""
"","205.56999999820255","sequential-stimulus-presentation","269","588130","0.0-50.0-1.4","SS1613079878836","trial","","40","800","1005.5699999982025","images/stimuli/spore_stims/simple_09_B_d.gif","images/stimuli/spore_stims/simple_02_B_c.gif","","","","","14","simple_dissimilar","images/stimuli/spore_stims/simple_02_B_c.gif","middle","","","","",""
"","null","html-keyboard-response","270","589375","0.0-50.0-0.5","SS1613079878836","","","null","","","","","<p><img src= images/blank.png width =""200"" height = ""200"" style = ""float:right""></p><p><img src=images/blank.png width =""800"" height = ""200""></p>","","","","","","","","","","","",""
"","118.81500000157394","sequential-stimulus-presentation","271","590306","0.0-50.0-1.5","SS1613079878836","trial","","40","800","918.8150000015739","images/stimuli/spore_stims/simple_09_B_d.gif","images/stimuli/spore_stims/simple_02_B_c.gif","","","","","14","simple_dissimilar","images/stimuli/spore_stims/simple_02_B_c.gif","middle","","","","",""
"","null","html-keyboard-response","272","591589","0.0-50.0-0.6","SS1613079878836","","","null","","","","","<p><img src= images/blank.png width =""200"" height = ""200"" style = ""float:right""></p><p><img src=images/blank.png width =""800"" height = ""200""></p>","","","","","","","","","","","",""
"","257.7900000032969","sequential-stimulus-presentation","273","592650","0.0-50.0-1.6","SS1613079878836","trial","","40","800","1057.7900000032969","images/stimuli/spore_stims/simple_09_B_d.gif","images/stimuli/spore_stims/simple_02_B_c.gif","","","","","14","simple_dissimilar","images/stimuli/spore_stims/simple_02_B_c.gif","middle","","","","",""
"","null","html-keyboard-response","274","593736","0.0-50.0-0.7","SS1613079878836","","","null","","","","","<p><img src= images/blank.png width =""200"" height = ""200"" style = ""float:right""></p><p><img src=images/blank.png width =""800"" height = ""200""></p>","","","","","","","","","","","",""
"","85.7800000011921","sequential-stimulus-presentation","275","594627","0.0-50.0-1.7","SS1613079878836","trial","","40","800","885.7800000011921","images/stimuli/spore_stims/simple_09_B_d.gif","images/stimuli/spore_stims/simple_02_B_c.gif","","","","","14","simple_dissimilar","images/stimuli/spore_stims/simple_02_B_c.gif","middle","","","","",""
"","691.5999999982305","html-keyboard-response","276","595323","0.0-51.0","SS1613079878836","pref_question","","49","","","","","<video width ='960' height = '540' style='padding-top:8%' autoplay muted><source src='images/stimuli/wall_pref.mp4' type='video/mp4'></video>","1","left","25%","14","","","","","","","",""
"","131.80500000459142","sequential-stimulus-presentation","277","596259","0.0-52.0","SS1613079878836","pref_reveal","","40","800","931.8050000045914","null","null","","","","","14","","","","novel","","","",""
"","null","html-keyboard-response","278","597143","0.0-53.0-0.0","SS1613079878836","","","null","","","","","<p><img src= images/blank.png width =""200"" height = ""200"" style = ""float:right""></p><p><img src=images/blank.png width =""800"" height = ""200""></p>","","","","","","","","","","","",""
"","142.9550000029849","sequential-stimulus-presentation","279","598091","0.0-53.0-1.0","SS1613079878836","trial","","40","800","942.9550000029849","images/stimuli/spore_stims/complex_16_B_a.gif","images/stimuli/spore_stims/complex_04_A_d.gif","","","","","15","complex_dissimilar","images/stimuli/spore_stims/complex_04_A_d.gif","left","","","","",""
"","null","html-keyboard-response","280","599081","0.0-53.0-0.1","SS1613079878836","","","null","","","","","<p><img src= images/blank.png width =""200"" height = ""200"" style = ""float:right""></p><p><img src=images/blank.png width =""800"" height = ""200""></p>","","","","","","","","","","","",""
"","14375.48500000406","sequential-stimulus-presentation","281","614261","0.0-53.0-1.1","SS1613079878836","trial","","40","800","15175.48500000406","images/stimuli/spore_stims/complex_16_B_a.gif","images/stimuli/spore_stims/complex_04_A_d.gif","","","","","15","complex_dissimilar","images/stimuli/spore_stims/complex_04_A_d.gif","left","","","","",""
"","null","html-keyboard-response","282","615143","0.0-53.0-0.2","SS1613079878836","","","null","","","","","<p><img src= images/blank.png width =""200"" height = ""200"" style = ""float:right""></p><p><img src=images/blank.png width =""800"" height = ""200""></p>","","","","","","","","","","","",""
"","184.84999999776483","sequential-stimulus-presentation","283","616133","0.0-53.0-1.2","SS1613079878836","trial","","40","800","984.8499999977648","images/stimuli/spore_stims/complex_16_B_a.gif","images/stimuli/spore_stims/complex_04_A_d.gif","","","","","15","complex_dissimilar","images/stimuli/spore_stims/complex_16_B_a.gif","right","","","","",""
"","null","html-keyboard-response","284","616994","0.0-53.0-0.3","SS1613079878836","","","null","","","","","<p><img src= images/blank.png width =""200"" height = ""200"" style = ""float:right""></p><p><img src=images/blank.png width =""800"" height = ""200""></p>","","","","","","","","","","","",""
"","165.56500000297092","sequential-stimulus-presentation","285","617965","0.0-53.0-1.3","SS1613079878836","trial","","40","800","965.5650000029709","images/stimuli/spore_stims/complex_16_B_a.gif","images/stimuli/spore_stims/complex_04_A_d.gif","","","","","15","complex_dissimilar","images/stimuli/spore_stims/complex_04_A_d.gif","left","","","","",""
"","null","html-keyboard-response","286","619193","0.0-53.0-0.4","SS1613079878836","","","null","","","","","<p><img src= images/blank.png width =""200"" height = ""200"" style = ""float:right""></p><p><img src=images/blank.png width =""800"" height = ""200""></p>","","","","","","","","","","","",""
"","446.8600000035949","sequential-stimulus-presentation","287","620445","0.0-53.0-1.4","SS1613079878836","trial","","40","800","1246.860000003595","images/stimuli/spore_stims/complex_16_B_a.gif","images/stimuli/spore_stims/complex_04_A_d.gif","","","","","15","complex_dissimilar","images/stimuli/spore_stims/complex_04_A_d.gif","left","","","","",""
"","null","html-keyboard-response","288","621352","0.0-53.0-0.5","SS1613079878836","","","null","","","","","<p><img src= images/blank.png width =""200"" height = ""200"" style = ""float:right""></p><p><img src=images/blank.png width =""800"" height = ""200""></p>","","","","","","","","","","","",""
"","161.38499999954365","sequential-stimulus-presentation","289","622317","0.0-53.0-1.5","SS1613079878836","trial","","40","800","961.3849999995437","images/stimuli/spore_stims/complex_16_B_a.gif","images/stimuli/spore_stims/complex_04_A_d.gif","","","","","15","complex_dissimilar","images/stimuli/spore_stims/complex_04_A_d.gif","left","","","","",""
"","null","html-keyboard-response","290","623592","0.0-53.0-0.6","SS1613079878836","","","null","","","","","<p><img src= images/blank.png width =""200"" height = ""200"" style = ""float:right""></p><p><img src=images/blank.png width =""800"" height = ""200""></p>","","","","","","","","","","","",""
"","66.08000000414904","sequential-stimulus-presentation","291","624462","0.0-53.0-1.6","SS1613079878836","trial","","40","800","866.080000004149","images/stimuli/spore_stims/complex_16_B_a.gif","images/stimuli/spore_stims/complex_04_A_d.gif","","","","","15","complex_dissimilar","images/stimuli/spore_stims/complex_04_A_d.gif","left","","","","",""
"","null","html-keyboard-response","292","625699","0.0-53.0-0.7","SS1613079878836","","","null","","","","","<p><img src= images/blank.png width =""200"" height = ""200"" style = ""float:right""></p><p><img src=images/blank.png width =""800"" height = ""200""></p>","","","","","","","","","","","",""
"","201.95000000251457","sequential-stimulus-presentation","293","626710","0.0-53.0-1.7","SS1613079878836","trial","","40","800","1001.9500000025146","images/stimuli/spore_stims/complex_16_B_a.gif","images/stimuli/spore_stims/complex_04_A_d.gif","","","","","15","complex_dissimilar","images/stimuli/spore_stims/complex_04_A_d.gif","left","","","","",""
"","453.04500000202097","html-keyboard-response","294","627166","0.0-54.0","SS1613079878836","pref_question","","51","","","","","<video width ='960' height = '540' style='padding-top:8%' autoplay muted><source src='images/stimuli/wall_pref.mp4' type='video/mp4'></video>","3","right","66%","15","","","","","","","",""
"","34.69999999657739","sequential-stimulus-presentation","295","628006","0.0-55.0","SS1613079878836","pref_reveal","","40","800","834.6999999965774","null","null","","","","","15","","","","deviant","","","",""
"","null","html-keyboard-response","296","629300","0.0-56.0-0.0","SS1613079878836","","","null","","","","","<p><img src= images/blank.png width =""200"" height = ""200"" style = ""float:right""></p><p><img src=images/blank.png width =""800"" height = ""200""></p>","","","","","","","","","","","",""
"","889.5699999993667","sequential-stimulus-presentation","297","630998","0.0-56.0-1.0","SS1613079878836","trial","","40","800","1689.5699999993667","images/stimuli/spore_stims/complex_18_A_c.gif","images/stimuli/spore_stims/complex_18_B_c.gif","","","","","16","complex_similar","images/stimuli/spore_stims/complex_18_B_c.gif","middle","","","","",""
"","null","html-keyboard-response","298","631933","0.0-56.0-0.1","SS1613079878836","","","null","","","","","<p><img src= images/blank.png width =""200"" height = ""200"" style = ""float:right""></p><p><img src=images/blank.png width =""800"" height = ""200""></p>","","","","","","","","","","","",""
"","276.68999999877997","sequential-stimulus-presentation","299","633015","0.0-56.0-1.1","SS1613079878836","trial","","40","800","1076.68999999878","images/stimuli/spore_stims/complex_18_A_c.gif","images/stimuli/spore_stims/complex_18_B_c.gif","","","","","16","complex_similar","images/stimuli/spore_stims/complex_18_B_c.gif","middle","","","","",""
"","null","html-keyboard-response","300","633952","0.0-56.0-0.2","SS1613079878836","","","null","","","","","<p><img src= images/blank.png width =""200"" height = ""200"" style = ""float:right""></p><p><img src=images/blank.png width =""800"" height = ""200""></p>","","","","","","","","","","","",""
"","91.21500000043306","sequential-stimulus-presentation","301","634847","0.0-56.0-1.2","SS1613079878836","trial","","40","800","891.2150000004331","images/stimuli/spore_stims/complex_18_A_c.gif","images/stimuli/spore_stims/complex_18_B_c.gif","","","","","16","complex_similar","images/stimuli/spore_stims/complex_18_B_c.gif","middle","","","","",""
"","null","html-keyboard-response","302","635737","0.0-56.0-0.3","SS1613079878836","","","null","","","","","<p><img src= images/blank.png width =""200"" height = ""200"" style = ""float:right""></p><p><img src=images/blank.png width =""800"" height = ""200""></p>","","","","","","","","","","","",""
"","57.87500000593718","sequential-stimulus-presentation","303","636599","0.0-56.0-1.3","SS1613079878836","trial","","40","800","857.8750000059372","images/stimuli/spore_stims/complex_18_A_c.gif","images/stimuli/spore_stims/complex_18_B_c.gif","","","","","16","complex_similar","images/stimuli/spore_stims/complex_18_A_c.gif","right","","","","",""
"","null","html-keyboard-response","304","637720","0.0-56.0-0.4","SS1613079878836","","","null","","","","","<p><img src= images/blank.png width =""200"" height = ""200"" style = ""float:right""></p><p><img src=images/blank.png width =""800"" height = ""200""></p>","","","","","","","","","","","",""
"","82.5299999996787","sequential-stimulus-presentation","305","638607","0.0-56.0-1.4","SS1613079878836","trial","","40","800","882.5299999996787","images/stimuli/spore_stims/complex_18_A_c.gif","images/stimuli/spore_stims/complex_18_B_c.gif","","","","","16","complex_similar","images/stimuli/spore_stims/complex_18_B_c.gif","middle","","","","",""
"","null","html-keyboard-response","306","639625","0.0-56.0-0.5","SS1613079878836","","","null","","","","","<p><img src= images/blank.png width =""200"" height = ""200"" style = ""float:right""></p><p><img src=images/blank.png width =""800"" height = ""200""></p>","","","","","","","","","","","",""
"","1.5899999998509884","sequential-stimulus-presentation","307","640431","0.0-56.0-1.5","SS1613079878836","trial","","40","800","801.589999999851","images/stimuli/spore_stims/complex_18_A_c.gif","images/stimuli/spore_stims/complex_18_B_c.gif","","","","","16","complex_similar","images/stimuli/spore_stims/complex_18_B_c.gif","middle","","","","",""
"","null","html-keyboard-response","308","641696","0.0-56.0-0.6","SS1613079878836","","","null","","","","","<p><img src= images/blank.png width =""200"" height = ""200"" style = ""float:right""></p><p><img src=images/blank.png width =""800"" height = ""200""></p>","","","","","","","","","","","",""
"","98.8599999982398","sequential-stimulus-presentation","309","642600","0.0-56.0-1.6","SS1613079878836","trial","","40","800","898.8599999982398","images/stimuli/spore_stims/complex_18_A_c.gif","images/stimuli/spore_stims/complex_18_B_c.gif","","","","","16","complex_similar","images/stimuli/spore_stims/complex_18_B_c.gif","middle","","","","",""
"","null","html-keyboard-response","310","643473","0.0-56.0-0.7","SS1613079878836","","","null","","","","","<p><img src= images/blank.png width =""200"" height = ""200"" style = ""float:right""></p><p><img src=images/blank.png width =""800"" height = ""200""></p>","","","","","","","","","","","",""
"","178.6599999977043","sequential-stimulus-presentation","311","644456","0.0-56.0-1.7","SS1613079878836","trial","","40","800","978.6599999977043","images/stimuli/spore_stims/complex_18_A_c.gif","images/stimuli/spore_stims/complex_18_B_c.gif","","","","","16","complex_similar","images/stimuli/spore_stims/complex_18_B_c.gif","middle","","","","",""
"","3093.28500000271","html-keyboard-response","312","647553","0.0-57.0","SS1613079878836","pref_question","","51","","","","","<video width ='960' height = '540' style='padding-top:8%' autoplay muted><source src='images/stimuli/wall_pref.mp4' type='video/mp4'></video>","3","right","66%","16","","","","","","","",""
