"view_history","rt","trial_type","trial_index","time_elapsed","internal_node_id","subject","stimulus_type","trial_stimulus","key_press","minimum_viewing_duration","trial_looking_time","block_deviant","block_background","stimulus","wall_pref","location","location_percent","block_number","block_type","stimulus_displayed","position_displayed","stim_type_selected","responses","question_order","stimulus_left","stimulus_right"
"[{""page_index"":0,""viewing_time"":22762.000000104308}]","22763.00000026822","instructions","0","22767","0.0-0.0","SS1613100732402","","","","","","","","","","","","","","","","","","","",""
"[{""page_index"":0,""viewing_time"":1663.0000001750886},{""page_index"":1,""viewing_time"":8243.999999947846}]","9907.000000122935","instructions","1","34679","0.0-1.0","SS1613100732402","instructions","","","","","","","","","","","","","","","","","","",""
"","10629.999999888241","sequential-stimulus-presentation","2","46118","0.0-2.0","SS1613100732402","","","40","800","11429.999999888241","null","null","","","","","","","","","","","","",""
"","348.9999999292195","sequential-stimulus-presentation","3","47273","0.0-3.0","SS1613100732402","","","40","800","1148.9999999292195","null","null","","","","","","","","","","","","",""
"[{""page_index"":0,""viewing_time"":3411.0000003129244}]","3411.0000003129244","instructions","4","50684","0.0-4.0","SS1613100732402","instructions","","","","","","","","","","","","","","","","","","",""
"","9234.000000171363","html-keyboard-response","5","59923","0.0-5.0","SS1613100732402","instructions","","50","","","","","<video width ='960' height = '540' autoplay muted><source src='images/stimuli/wall_pref.mp4' type='video/mp4'></video>","2","middle","45%","","","","","","","","",""
"","5425.999999977648","sequential-stimulus-presentation","6","66157","0.0-6.0","SS1613100732402","pref_reveal","","40","800","6225.999999977648","null","null","","","","","","","","","","","","",""
"[{""page_index"":0,""viewing_time"":2299.000000115484},{""page_index"":1,""viewing_time"":1165.9999997355044},{""page_index"":2,""viewing_time"":1313.0000000819564},{""page_index"":3,""viewing_time"":1379.0000001899898}]","6157.999999821186","instructions","7","72318","0.0-7.0","SS1613100732402","instructions","","","","","","","","","","","","","","","","","","",""
"","null","html-keyboard-response","8","73564","0.0-8.0-0.0","SS1613100732402","","","null","","","","","<p><img src= images/blank.png width =""200"" height = ""200"" style = ""float:right""></p><p><img src=images/blank.png width =""800"" height = ""200""></p>","","","","","","","","","","","",""
"","81856.00000014529","sequential-stimulus-presentation","9","156252","0.0-8.0-1.0","SS1613100732402","trial","","40","800","82656.00000014529","images/stimuli/spore_stims/simple_05_A_c.gif","images/stimuli/spore_stims/simple_18_A_d.gif","","","","","0","simple_dissimilar","images/stimuli/spore_stims/simple_18_A_d.gif","middle","","","","",""
"","null","html-keyboard-response","10","157491","0.0-8.0-0.1","SS1613100732402","","","null","","","","","<p><img src= images/blank.png width =""200"" height = ""200"" style = ""float:right""></p><p><img src=images/blank.png width =""800"" height = ""200""></p>","","","","","","","","","","","",""
"","1783.9999999850988","sequential-stimulus-presentation","11","160110","0.0-8.0-1.1","SS1613100732402","trial","","40","800","2583.999999985099","images/stimuli/spore_stims/simple_05_A_c.gif","images/stimuli/spore_stims/simple_18_A_d.gif","","","","","0","simple_dissimilar","images/stimuli/spore_stims/simple_18_A_d.gif","middle","","","","",""
"","null","html-keyboard-response","12","161143","0.0-8.0-0.2","SS1613100732402","","","null","","","","","<p><img src= images/blank.png width =""200"" height = ""200"" style = ""float:right""></p><p><img src=images/blank.png width =""800"" height = ""200""></p>","","","","","","","","","","","",""
"","859.9999998696148","sequential-stimulus-presentation","13","162810","0.0-8.0-1.2","SS1613100732402","trial","","40","800","1659.9999998696148","images/stimuli/spore_stims/simple_05_A_c.gif","images/stimuli/spore_stims/simple_18_A_d.gif","","","","","0","simple_dissimilar","images/stimuli/spore_stims/simple_18_A_d.gif","middle","","","","",""
"","null","html-keyboard-response","14","163907","0.0-8.0-0.3","SS1613100732402","","","null","","","","","<p><img src= images/blank.png width =""200"" height = ""200"" style = ""float:right""></p><p><img src=images/blank.png width =""800"" height = ""200""></p>","","","","","","","","","","","",""
"","2059.999999590218","sequential-stimulus-presentation","15","166781","0.0-8.0-1.3","SS1613100732402","trial","","40","800","2859.999999590218","images/stimuli/spore_stims/simple_05_A_c.gif","images/stimuli/spore_stims/simple_18_A_d.gif","","","","","0","simple_dissimilar","images/stimuli/spore_stims/simple_18_A_d.gif","middle","","","","",""
"","null","html-keyboard-response","16","168030","0.0-8.0-0.4","SS1613100732402","","","null","","","","","<p><img src= images/blank.png width =""200"" height = ""200"" style = ""float:right""></p><p><img src=images/blank.png width =""800"" height = ""200""></p>","","","","","","","","","","","",""
"","4002.0000003278255","sequential-stimulus-presentation","17","172837","0.0-8.0-1.4","SS1613100732402","trial","","40","800","4802.000000327826","images/stimuli/spore_stims/simple_05_A_c.gif","images/stimuli/spore_stims/simple_18_A_d.gif","","","","","0","simple_dissimilar","images/stimuli/spore_stims/simple_05_A_c.gif","left","","","","",""
"","null","html-keyboard-response","18","173933","0.0-8.0-0.5","SS1613100732402","","","null","","","","","<p><img src= images/blank.png width =""200"" height = ""200"" style = ""float:right""></p><p><img src=images/blank.png width =""800"" height = ""200""></p>","","","","","","","","","","","",""
"","1212.9999999888241","sequential-stimulus-presentation","19","175950","0.0-8.0-1.5","SS1613100732402","trial","","40","800","2012.9999999888241","images/stimuli/spore_stims/simple_05_A_c.gif","images/stimuli/spore_stims/simple_18_A_d.gif","","","","","0","simple_dissimilar","images/stimuli/spore_stims/simple_18_A_d.gif","middle","","","","",""
"","null","html-keyboard-response","20","176791","0.0-8.0-0.6","SS1613100732402","","","null","","","","","<p><img src= images/blank.png width =""200"" height = ""200"" style = ""float:right""></p><p><img src=images/blank.png width =""800"" height = ""200""></p>","","","","","","","","","","","",""
"","1658.9999999850988","sequential-stimulus-presentation","21","179256","0.0-8.0-1.6","SS1613100732402","trial","","40","800","2458.999999985099","images/stimuli/spore_stims/simple_05_A_c.gif","images/stimuli/spore_stims/simple_18_A_d.gif","","","","","0","simple_dissimilar","images/stimuli/spore_stims/simple_18_A_d.gif","middle","","","","",""
"","null","html-keyboard-response","22","180098","0.0-8.0-0.7","SS1613100732402","","","null","","","","","<p><img src= images/blank.png width =""200"" height = ""200"" style = ""float:right""></p><p><img src=images/blank.png width =""800"" height = ""200""></p>","","","","","","","","","","","",""
"","297.00000025331974","sequential-stimulus-presentation","23","181200","0.0-8.0-1.7","SS1613100732402","trial","","40","800","1097.0000002533197","images/stimuli/spore_stims/simple_05_A_c.gif","images/stimuli/spore_stims/simple_18_A_d.gif","","","","","0","simple_dissimilar","images/stimuli/spore_stims/simple_18_A_d.gif","middle","","","","",""
"","2472.9999997653067","html-keyboard-response","24","183678","0.0-9.0","SS1613100732402","pref_question","","51","","","","","<video width ='960' height = '540' style='padding-top:8%' autoplay muted><source src='images/stimuli/wall_pref.mp4' type='video/mp4'></video>","3","right","66%","0","","","","","","","",""
"","5101.000000257045","sequential-stimulus-presentation","25","189592","0.0-10.0","SS1613100732402","pref_reveal","","40","800","5901.000000257045","null","null","","","","","0","","","","novel","","","",""
"","null","html-keyboard-response","26","190454","0.0-11.0-0.0","SS1613100732402","","","null","","","","","<p><img src= images/blank.png width =""200"" height = ""200"" style = ""float:right""></p><p><img src=images/blank.png width =""800"" height = ""200""></p>","","","","","","","","","","","",""
"","541.9999998994172","sequential-stimulus-presentation","27","191807","0.0-11.0-1.0","SS1613100732402","trial","","40","800","1341.9999998994172","images/stimuli/spore_stims/complex_16_A_c.gif","images/stimuli/spore_stims/complex_16_B_c.gif","","","","","1","complex_similar","images/stimuli/spore_stims/complex_16_B_c.gif","right","","","","",""
"","null","html-keyboard-response","28","192693","0.0-11.0-0.1","SS1613100732402","","","null","","","","","<p><img src= images/blank.png width =""200"" height = ""200"" style = ""float:right""></p><p><img src=images/blank.png width =""800"" height = ""200""></p>","","","","","","","","","","","",""
"","381.00000005215406","sequential-stimulus-presentation","29","193882","0.0-11.0-1.1","SS1613100732402","trial","","40","800","1181.000000052154","images/stimuli/spore_stims/complex_16_A_c.gif","images/stimuli/spore_stims/complex_16_B_c.gif","","","","","1","complex_similar","images/stimuli/spore_stims/complex_16_B_c.gif","right","","","","",""
"","null","html-keyboard-response","30","194834","0.0-11.0-0.2","SS1613100732402","","","null","","","","","<p><img src= images/blank.png width =""200"" height = ""200"" style = ""float:right""></p><p><img src=images/blank.png width =""800"" height = ""200""></p>","","","","","","","","","","","",""
"","323.00000032410026","sequential-stimulus-presentation","31","195961","0.0-11.0-1.2","SS1613100732402","trial","","40","800","1123.0000003241003","images/stimuli/spore_stims/complex_16_A_c.gif","images/stimuli/spore_stims/complex_16_B_c.gif","","","","","1","complex_similar","images/stimuli/spore_stims/complex_16_B_c.gif","right","","","","",""
"","null","html-keyboard-response","32","196984","0.0-11.0-0.3","SS1613100732402","","","null","","","","","<p><img src= images/blank.png width =""200"" height = ""200"" style = ""float:right""></p><p><img src=images/blank.png width =""800"" height = ""200""></p>","","","","","","","","","","","",""
"","1020.9999997168779","sequential-stimulus-presentation","33","198841","0.0-11.0-1.3","SS1613100732402","trial","","40","800","1820.999999716878","images/stimuli/spore_stims/complex_16_A_c.gif","images/stimuli/spore_stims/complex_16_B_c.gif","","","","","1","complex_similar","images/stimuli/spore_stims/complex_16_B_c.gif","right","","","","",""
"","null","html-keyboard-response","34","199960","0.0-11.0-0.4","SS1613100732402","","","null","","","","","<p><img src= images/blank.png width =""200"" height = ""200"" style = ""float:right""></p><p><img src=images/blank.png width =""800"" height = ""200""></p>","","","","","","","","","","","",""
"","2473.000000230968","sequential-stimulus-presentation","35","203263","0.0-11.0-1.4","SS1613100732402","trial","","40","800","3273.000000230968","images/stimuli/spore_stims/complex_16_A_c.gif","images/stimuli/spore_stims/complex_16_B_c.gif","","","","","1","complex_similar","images/stimuli/spore_stims/complex_16_B_c.gif","right","","","","",""
"","null","html-keyboard-response","36","204439","0.0-11.0-0.5","SS1613100732402","","","null","","","","","<p><img src= images/blank.png width =""200"" height = ""200"" style = ""float:right""></p><p><img src=images/blank.png width =""800"" height = ""200""></p>","","","","","","","","","","","",""
"","68.99999966844916","sequential-stimulus-presentation","37","205337","0.0-11.0-1.5","SS1613100732402","trial","","40","800","868.9999996684492","images/stimuli/spore_stims/complex_16_A_c.gif","images/stimuli/spore_stims/complex_16_B_c.gif","","","","","1","complex_similar","images/stimuli/spore_stims/complex_16_B_c.gif","right","","","","",""
"","null","html-keyboard-response","38","206577","0.0-11.0-0.6","SS1613100732402","","","null","","","","","<p><img src= images/blank.png width =""200"" height = ""200"" style = ""float:right""></p><p><img src=images/blank.png width =""800"" height = ""200""></p>","","","","","","","","","","","",""
"","1919.9999999254942","sequential-stimulus-presentation","39","209309","0.0-11.0-1.6","SS1613100732402","trial","","40","800","2719.999999925494","images/stimuli/spore_stims/complex_16_A_c.gif","images/stimuli/spore_stims/complex_16_B_c.gif","","","","","1","complex_similar","images/stimuli/spore_stims/complex_16_B_c.gif","right","","","","",""
"","null","html-keyboard-response","40","210202","0.0-11.0-0.7","SS1613100732402","","","null","","","","","<p><img src= images/blank.png width =""200"" height = ""200"" style = ""float:right""></p><p><img src=images/blank.png width =""800"" height = ""200""></p>","","","","","","","","","","","",""
"","156.9999996572733","sequential-stimulus-presentation","41","211186","0.0-11.0-1.7","SS1613100732402","trial","","40","800","956.9999996572733","images/stimuli/spore_stims/complex_16_A_c.gif","images/stimuli/spore_stims/complex_16_B_c.gif","","","","","1","complex_similar","images/stimuli/spore_stims/complex_16_A_c.gif","middle","","","","",""
"","2452.000000048429","html-keyboard-response","42","213642","0.0-12.0","SS1613100732402","pref_question","","50","","","","","<video width ='960' height = '540' style='padding-top:8%' autoplay muted><source src='images/stimuli/wall_pref.mp4' type='video/mp4'></video>","2","middle","45%","1","","","","","","","",""
"","1748.9999998360872","sequential-stimulus-presentation","43","216199","0.0-13.0","SS1613100732402","pref_reveal","","40","800","2548.999999836087","null","null","","","","","1","","","","deviant","","","",""
"","null","html-keyboard-response","44","217232","0.0-14.0-0.0","SS1613100732402","","","null","","","","","<p><img src= images/blank.png width =""200"" height = ""200"" style = ""float:right""></p><p><img src=images/blank.png width =""800"" height = ""200""></p>","","","","","","","","","","","",""
"","1543.9999997615814","sequential-stimulus-presentation","45","219594","0.0-14.0-1.0","SS1613100732402","trial","","40","800","2343.9999997615814","images/stimuli/spore_stims/complex_01_B_a.gif","images/stimuli/spore_stims/complex_15_B_b.gif","","","","","2","complex_dissimilar","images/stimuli/spore_stims/complex_15_B_b.gif","middle","","","","",""
"","null","html-keyboard-response","46","220839","0.0-14.0-0.1","SS1613100732402","","","null","","","","","<p><img src= images/blank.png width =""200"" height = ""200"" style = ""float:right""></p><p><img src=images/blank.png width =""800"" height = ""200""></p>","","","","","","","","","","","",""
"","191.00000010803342","sequential-stimulus-presentation","47","221842","0.0-14.0-1.1","SS1613100732402","trial","","40","800","991.0000001080334","images/stimuli/spore_stims/complex_01_B_a.gif","images/stimuli/spore_stims/complex_15_B_b.gif","","","","","2","complex_dissimilar","images/stimuli/spore_stims/complex_15_B_b.gif","middle","","","","",""
"","null","html-keyboard-response","48","222922","0.0-14.0-0.2","SS1613100732402","","","null","","","","","<p><img src= images/blank.png width =""200"" height = ""200"" style = ""float:right""></p><p><img src=images/blank.png width =""800"" height = ""200""></p>","","","","","","","","","","","",""
"","5506.999999750406","sequential-stimulus-presentation","49","229236","0.0-14.0-1.2","SS1613100732402","trial","","40","800","6306.999999750406","images/stimuli/spore_stims/complex_01_B_a.gif","images/stimuli/spore_stims/complex_15_B_b.gif","","","","","2","complex_dissimilar","images/stimuli/spore_stims/complex_01_B_a.gif","right","","","","",""
"","null","html-keyboard-response","50","230399","0.0-14.0-0.3","SS1613100732402","","","null","","","","","<p><img src= images/blank.png width =""200"" height = ""200"" style = ""float:right""></p><p><img src=images/blank.png width =""800"" height = ""200""></p>","","","","","","","","","","","",""
"","962.9999999888241","sequential-stimulus-presentation","51","232172","0.0-14.0-1.3","SS1613100732402","trial","","40","800","1762.9999999888241","images/stimuli/spore_stims/complex_01_B_a.gif","images/stimuli/spore_stims/complex_15_B_b.gif","","","","","2","complex_dissimilar","images/stimuli/spore_stims/complex_15_B_b.gif","middle","","","","",""
"","null","html-keyboard-response","52","233071","0.0-14.0-0.4","SS1613100732402","","","null","","","","","<p><img src= images/blank.png width =""200"" height = ""200"" style = ""float:right""></p><p><img src=images/blank.png width =""800"" height = ""200""></p>","","","","","","","","","","","",""
"","158.99999998509884","sequential-stimulus-presentation","53","234034","0.0-14.0-1.4","SS1613100732402","trial","","40","800","958.9999999850988","images/stimuli/spore_stims/complex_01_B_a.gif","images/stimuli/spore_stims/complex_15_B_b.gif","","","","","2","complex_dissimilar","images/stimuli/spore_stims/complex_15_B_b.gif","middle","","","","",""
"","null","html-keyboard-response","54","235294","0.0-14.0-0.5","SS1613100732402","","","null","","","","","<p><img src= images/blank.png width =""200"" height = ""200"" style = ""float:right""></p><p><img src=images/blank.png width =""800"" height = ""200""></p>","","","","","","","","","","","",""
"","3313.999999780208","sequential-stimulus-presentation","55","239437","0.0-14.0-1.5","SS1613100732402","trial","","40","800","4113.999999780208","images/stimuli/spore_stims/complex_01_B_a.gif","images/stimuli/spore_stims/complex_15_B_b.gif","","","","","2","complex_dissimilar","images/stimuli/spore_stims/complex_15_B_b.gif","middle","","","","",""
"","null","html-keyboard-response","56","240247","0.0-14.0-0.6","SS1613100732402","","","null","","","","","<p><img src= images/blank.png width =""200"" height = ""200"" style = ""float:right""></p><p><img src=images/blank.png width =""800"" height = ""200""></p>","","","","","","","","","","","",""
"","759.0000000782311","sequential-stimulus-presentation","57","241818","0.0-14.0-1.6","SS1613100732402","trial","","40","800","1559.000000078231","images/stimuli/spore_stims/complex_01_B_a.gif","images/stimuli/spore_stims/complex_15_B_b.gif","","","","","2","complex_dissimilar","images/stimuli/spore_stims/complex_15_B_b.gif","middle","","","","",""
"","null","html-keyboard-response","58","243090","0.0-14.0-0.7","SS1613100732402","","","null","","","","","<p><img src= images/blank.png width =""200"" height = ""200"" style = ""float:right""></p><p><img src=images/blank.png width =""800"" height = ""200""></p>","","","","","","","","","","","",""
"","2202.000000048429","sequential-stimulus-presentation","59","246101","0.0-14.0-1.7","SS1613100732402","trial","","40","800","3002.000000048429","images/stimuli/spore_stims/complex_01_B_a.gif","images/stimuli/spore_stims/complex_15_B_b.gif","","","","","2","complex_dissimilar","images/stimuli/spore_stims/complex_15_B_b.gif","middle","","","","",""
"","1992.9999997839332","html-keyboard-response","60","248099","0.0-15.0","SS1613100732402","pref_question","","49","","","","","<video width ='960' height = '540' style='padding-top:8%' autoplay muted><source src='images/stimuli/wall_pref.mp4' type='video/mp4'></video>","1","left","25%","2","","","","","","","",""
"","1206.99999993667","sequential-stimulus-presentation","61","250115","0.0-16.0","SS1613100732402","pref_reveal","","40","800","2006.99999993667","null","null","","","","","2","","","","novel","","","",""
"","null","html-keyboard-response","62","251154","0.0-17.0-0.0","SS1613100732402","","","null","","","","","<p><img src= images/blank.png width =""200"" height = ""200"" style = ""float:right""></p><p><img src=images/blank.png width =""800"" height = ""200""></p>","","","","","","","","","","","",""
"","1043.00000006333","sequential-stimulus-presentation","63","253052","0.0-17.0-1.0","SS1613100732402","trial","","40","800","1843.00000006333","images/stimuli/spore_stims/simple_13_A_d.gif","images/stimuli/spore_stims/simple_13_B_d.gif","","","","","3","simple_similar","images/stimuli/spore_stims/simple_13_B_d.gif","left","","","","",""
"","null","html-keyboard-response","64","254209","0.0-17.0-0.1","SS1613100732402","","","null","","","","","<p><img src= images/blank.png width =""200"" height = ""200"" style = ""float:right""></p><p><img src=images/blank.png width =""800"" height = ""200""></p>","","","","","","","","","","","",""
"","154.00000009685755","sequential-stimulus-presentation","65","255171","0.0-17.0-1.1","SS1613100732402","trial","","40","800","954.0000000968575","images/stimuli/spore_stims/simple_13_A_d.gif","images/stimuli/spore_stims/simple_13_B_d.gif","","","","","3","simple_similar","images/stimuli/spore_stims/simple_13_B_d.gif","left","","","","",""
"","null","html-keyboard-response","66","256113","0.0-17.0-0.2","SS1613100732402","","","null","","","","","<p><img src= images/blank.png width =""200"" height = ""200"" style = ""float:right""></p><p><img src=images/blank.png width =""800"" height = ""200""></p>","","","","","","","","","","","",""
"","68.99999966844916","sequential-stimulus-presentation","67","256997","0.0-17.0-1.2","SS1613100732402","trial","","40","800","868.9999996684492","images/stimuli/spore_stims/simple_13_A_d.gif","images/stimuli/spore_stims/simple_13_B_d.gif","","","","","3","simple_similar","images/stimuli/spore_stims/simple_13_B_d.gif","left","","","","",""
"","null","html-keyboard-response","68","257833","0.0-17.0-0.3","SS1613100732402","","","null","","","","","<p><img src= images/blank.png width =""200"" height = ""200"" style = ""float:right""></p><p><img src=images/blank.png width =""800"" height = ""200""></p>","","","","","","","","","","","",""
"","1191.999999806285","sequential-stimulus-presentation","69","259853","0.0-17.0-1.3","SS1613100732402","trial","","40","800","1991.999999806285","images/stimuli/spore_stims/simple_13_A_d.gif","images/stimuli/spore_stims/simple_13_B_d.gif","","","","","3","simple_similar","images/stimuli/spore_stims/simple_13_B_d.gif","left","","","","",""
"","null","html-keyboard-response","70","260923","0.0-17.0-0.4","SS1613100732402","","","null","","","","","<p><img src= images/blank.png width =""200"" height = ""200"" style = ""float:right""></p><p><img src=images/blank.png width =""800"" height = ""200""></p>","","","","","","","","","","","",""
"","1220.9999999031425","sequential-stimulus-presentation","71","263001","0.0-17.0-1.4","SS1613100732402","trial","","40","800","2020.9999999031425","images/stimuli/spore_stims/simple_13_A_d.gif","images/stimuli/spore_stims/simple_13_B_d.gif","","","","","3","simple_similar","images/stimuli/spore_stims/simple_13_B_d.gif","left","","","","",""
"","null","html-keyboard-response","72","264149","0.0-17.0-0.5","SS1613100732402","","","null","","","","","<p><img src= images/blank.png width =""200"" height = ""200"" style = ""float:right""></p><p><img src=images/blank.png width =""800"" height = ""200""></p>","","","","","","","","","","","",""
"","594.0000000409782","sequential-stimulus-presentation","73","265552","0.0-17.0-1.5","SS1613100732402","trial","","40","800","1394.0000000409782","images/stimuli/spore_stims/simple_13_A_d.gif","images/stimuli/spore_stims/simple_13_B_d.gif","","","","","3","simple_similar","images/stimuli/spore_stims/simple_13_B_d.gif","left","","","","",""
"","null","html-keyboard-response","74","266579","0.0-17.0-0.6","SS1613100732402","","","null","","","","","<p><img src= images/blank.png width =""200"" height = ""200"" style = ""float:right""></p><p><img src=images/blank.png width =""800"" height = ""200""></p>","","","","","","","","","","","",""
"","1781.9999996572733","sequential-stimulus-presentation","75","269173","0.0-17.0-1.6","SS1613100732402","trial","","40","800","2581.9999996572733","images/stimuli/spore_stims/simple_13_A_d.gif","images/stimuli/spore_stims/simple_13_B_d.gif","","","","","3","simple_similar","images/stimuli/spore_stims/simple_13_A_d.gif","middle","","","","",""
"","null","html-keyboard-response","76","270239","0.0-17.0-0.7","SS1613100732402","","","null","","","","","<p><img src= images/blank.png width =""200"" height = ""200"" style = ""float:right""></p><p><img src=images/blank.png width =""800"" height = ""200""></p>","","","","","","","","","","","",""
"","2277.999999932945","sequential-stimulus-presentation","77","273324","0.0-17.0-1.7","SS1613100732402","trial","","40","800","3077.999999932945","images/stimuli/spore_stims/simple_13_A_d.gif","images/stimuli/spore_stims/simple_13_B_d.gif","","","","","3","simple_similar","images/stimuli/spore_stims/simple_13_B_d.gif","left","","","","",""
"","1281.000000424683","html-keyboard-response","78","274613","0.0-18.0","SS1613100732402","pref_question","","51","","","","","<video width ='960' height = '540' style='padding-top:8%' autoplay muted><source src='images/stimuli/wall_pref.mp4' type='video/mp4'></video>","3","right","66%","3","","","","","","","",""
"","2216.000000014901","sequential-stimulus-presentation","79","277636","0.0-19.0","SS1613100732402","pref_reveal","","40","800","3016.000000014901","null","null","","","","","3","","","","novel","","","",""
"","null","html-keyboard-response","80","278920","0.0-20.0-0.0","SS1613100732402","","","null","","","","","<p><img src= images/blank.png width =""200"" height = ""200"" style = ""float:right""></p><p><img src=images/blank.png width =""800"" height = ""200""></p>","","","","","","","","","","","",""
"","2337.999999988824","sequential-stimulus-presentation","81","282071","0.0-20.0-1.0","SS1613100732402","trial","","40","800","3137.999999988824","images/stimuli/spore_stims/complex_20_A_b.gif","images/stimuli/spore_stims/complex_11_A_c.gif","","","","","4","complex_dissimilar","images/stimuli/spore_stims/complex_11_A_c.gif","middle","","","","",""
"","null","html-keyboard-response","82","283310","0.0-20.0-0.1","SS1613100732402","","","null","","","","","<p><img src= images/blank.png width =""200"" height = ""200"" style = ""float:right""></p><p><img src=images/blank.png width =""800"" height = ""200""></p>","","","","","","","","","","","",""
"","108.00000000745058","sequential-stimulus-presentation","83","284232","0.0-20.0-1.1","SS1613100732402","trial","","40","800","908.0000000074506","images/stimuli/spore_stims/complex_20_A_b.gif","images/stimuli/spore_stims/complex_11_A_c.gif","","","","","4","complex_dissimilar","images/stimuli/spore_stims/complex_11_A_c.gif","middle","","","","",""
"","null","html-keyboard-response","84","285340","0.0-20.0-0.2","SS1613100732402","","","null","","","","","<p><img src= images/blank.png width =""200"" height = ""200"" style = ""float:right""></p><p><img src=images/blank.png width =""800"" height = ""200""></p>","","","","","","","","","","","",""
"","962.9999999888241","sequential-stimulus-presentation","85","287134","0.0-20.0-1.2","SS1613100732402","trial","","40","800","1762.9999999888241","images/stimuli/spore_stims/complex_20_A_b.gif","images/stimuli/spore_stims/complex_11_A_c.gif","","","","","4","complex_dissimilar","images/stimuli/spore_stims/complex_20_A_b.gif","right","","","","",""
"","null","html-keyboard-response","86","288173","0.0-20.0-0.3","SS1613100732402","","","null","","","","","<p><img src= images/blank.png width =""200"" height = ""200"" style = ""float:right""></p><p><img src=images/blank.png width =""800"" height = ""200""></p>","","","","","","","","","","","",""
"","1045.0000003911555","sequential-stimulus-presentation","87","290024","0.0-20.0-1.3","SS1613100732402","trial","","40","800","1845.0000003911555","images/stimuli/spore_stims/complex_20_A_b.gif","images/stimuli/spore_stims/complex_11_A_c.gif","","","","","4","complex_dissimilar","images/stimuli/spore_stims/complex_11_A_c.gif","middle","","","","",""
"","null","html-keyboard-response","88","291105","0.0-20.0-0.4","SS1613100732402","","","null","","","","","<p><img src= images/blank.png width =""200"" height = ""200"" style = ""float:right""></p><p><img src=images/blank.png width =""800"" height = ""200""></p>","","","","","","","","","","","",""
"","1359.0000001713634","sequential-stimulus-presentation","89","293271","0.0-20.0-1.4","SS1613100732402","trial","","40","800","2159.0000001713634","images/stimuli/spore_stims/complex_20_A_b.gif","images/stimuli/spore_stims/complex_11_A_c.gif","","","","","4","complex_dissimilar","images/stimuli/spore_stims/complex_11_A_c.gif","middle","","","","",""
"","null","html-keyboard-response","90","294214","0.0-20.0-0.5","SS1613100732402","","","null","","","","","<p><img src= images/blank.png width =""200"" height = ""200"" style = ""float:right""></p><p><img src=images/blank.png width =""800"" height = ""200""></p>","","","","","","","","","","","",""
"","1083.9999997988343","sequential-stimulus-presentation","91","296106","0.0-20.0-1.5","SS1613100732402","trial","","40","800","1883.9999997988343","images/stimuli/spore_stims/complex_20_A_b.gif","images/stimuli/spore_stims/complex_11_A_c.gif","","","","","4","complex_dissimilar","images/stimuli/spore_stims/complex_11_A_c.gif","middle","","","","",""
"","null","html-keyboard-response","92","297034","0.0-20.0-0.6","SS1613100732402","","","null","","","","","<p><img src= images/blank.png width =""200"" height = ""200"" style = ""float:right""></p><p><img src=images/blank.png width =""800"" height = ""200""></p>","","","","","","","","","","","",""
"","1316.999999806285","sequential-stimulus-presentation","93","299170","0.0-20.0-1.6","SS1613100732402","trial","","40","800","2116.999999806285","images/stimuli/spore_stims/complex_20_A_b.gif","images/stimuli/spore_stims/complex_11_A_c.gif","","","","","4","complex_dissimilar","images/stimuli/spore_stims/complex_11_A_c.gif","middle","","","","",""
"","null","html-keyboard-response","94","300290","0.0-20.0-0.7","SS1613100732402","","","null","","","","","<p><img src= images/blank.png width =""200"" height = ""200"" style = ""float:right""></p><p><img src=images/blank.png width =""800"" height = ""200""></p>","","","","","","","","","","","",""
"","13171.999999787658","sequential-stimulus-presentation","95","314278","0.0-20.0-1.7","SS1613100732402","trial","","40","800","13971.999999787658","images/stimuli/spore_stims/complex_20_A_b.gif","images/stimuli/spore_stims/complex_11_A_c.gif","","","","","4","complex_dissimilar","images/stimuli/spore_stims/complex_11_A_c.gif","middle","","","","",""
"","3024.9999999068677","html-keyboard-response","96","317313","0.0-21.0","SS1613100732402","pref_question","","51","","","","","<video width ='960' height = '540' style='padding-top:8%' autoplay muted><source src='images/stimuli/wall_pref.mp4' type='video/mp4'></video>","3","right","66%","4","","","","","","","",""
"","1070.9999999962747","sequential-stimulus-presentation","97","319192","0.0-22.0","SS1613100732402","pref_reveal","","40","800","1870.9999999962747","null","null","","","","","4","","","","deviant","","","",""
"","null","html-keyboard-response","98","320002","0.0-23.0-0.0","SS1613100732402","","","null","","","","","<p><img src= images/blank.png width =""200"" height = ""200"" style = ""float:right""></p><p><img src=images/blank.png width =""800"" height = ""200""></p>","","","","","","","","","","","",""
"","120.00000011175871","sequential-stimulus-presentation","99","320937","0.0-23.0-1.0","SS1613100732402","trial","","40","800","920.0000001117587","images/stimuli/spore_stims/complex_19_B_b.gif","images/stimuli/spore_stims/complex_19_A_b.gif","","","","","5","complex_similar","images/stimuli/spore_stims/complex_19_A_b.gif","middle","","","","",""
"","null","html-keyboard-response","100","321920","0.0-23.0-0.1","SS1613100732402","","","null","","","","","<p><img src= images/blank.png width =""200"" height = ""200"" style = ""float:right""></p><p><img src=images/blank.png width =""800"" height = ""200""></p>","","","","","","","","","","","",""
"","1169.0000002272427","sequential-stimulus-presentation","101","323901","0.0-23.0-1.1","SS1613100732402","trial","","40","800","1969.0000002272427","images/stimuli/spore_stims/complex_19_B_b.gif","images/stimuli/spore_stims/complex_19_A_b.gif","","","","","5","complex_similar","images/stimuli/spore_stims/complex_19_A_b.gif","middle","","","","",""
"","null","html-keyboard-response","102","324917","0.0-23.0-0.2","SS1613100732402","","","null","","","","","<p><img src= images/blank.png width =""200"" height = ""200"" style = ""float:right""></p><p><img src=images/blank.png width =""800"" height = ""200""></p>","","","","","","","","","","","",""
"","202.00000004842877","sequential-stimulus-presentation","103","325926","0.0-23.0-1.2","SS1613100732402","trial","","40","800","1002.0000000484288","images/stimuli/spore_stims/complex_19_B_b.gif","images/stimuli/spore_stims/complex_19_A_b.gif","","","","","5","complex_similar","images/stimuli/spore_stims/complex_19_A_b.gif","middle","","","","",""
"","null","html-keyboard-response","104","327151","0.0-23.0-0.3","SS1613100732402","","","null","","","","","<p><img src= images/blank.png width =""200"" height = ""200"" style = ""float:right""></p><p><img src=images/blank.png width =""800"" height = ""200""></p>","","","","","","","","","","","",""
"","469.0000000409782","sequential-stimulus-presentation","105","328435","0.0-23.0-1.3","SS1613100732402","trial","","40","800","1269.0000000409782","images/stimuli/spore_stims/complex_19_B_b.gif","images/stimuli/spore_stims/complex_19_A_b.gif","","","","","5","complex_similar","images/stimuli/spore_stims/complex_19_A_b.gif","middle","","","","",""
"","null","html-keyboard-response","106","329256","0.0-23.0-0.4","SS1613100732402","","","null","","","","","<p><img src= images/blank.png width =""200"" height = ""200"" style = ""float:right""></p><p><img src=images/blank.png width =""800"" height = ""200""></p>","","","","","","","","","","","",""
"","129.9999998882413","sequential-stimulus-presentation","107","330207","0.0-23.0-1.4","SS1613100732402","trial","","40","800","929.9999998882413","images/stimuli/spore_stims/complex_19_B_b.gif","images/stimuli/spore_stims/complex_19_A_b.gif","","","","","5","complex_similar","images/stimuli/spore_stims/complex_19_A_b.gif","middle","","","","",""
"","null","html-keyboard-response","108","331494","0.0-23.0-0.5","SS1613100732402","","","null","","","","","<p><img src= images/blank.png width =""200"" height = ""200"" style = ""float:right""></p><p><img src=images/blank.png width =""800"" height = ""200""></p>","","","","","","","","","","","",""
"","43.000000063329935","sequential-stimulus-presentation","109","332355","0.0-23.0-1.5","SS1613100732402","trial","","40","800","843.0000000633299","images/stimuli/spore_stims/complex_19_B_b.gif","images/stimuli/spore_stims/complex_19_A_b.gif","","","","","5","complex_similar","images/stimuli/spore_stims/complex_19_B_b.gif","left","","","","",""
"","null","html-keyboard-response","110","333634","0.0-23.0-0.6","SS1613100732402","","","null","","","","","<p><img src= images/blank.png width =""200"" height = ""200"" style = ""float:right""></p><p><img src=images/blank.png width =""800"" height = ""200""></p>","","","","","","","","","","","",""
"","2473.9999999292195","sequential-stimulus-presentation","111","336922","0.0-23.0-1.6","SS1613100732402","trial","","40","800","3273.9999999292195","images/stimuli/spore_stims/complex_19_B_b.gif","images/stimuli/spore_stims/complex_19_A_b.gif","","","","","5","complex_similar","images/stimuli/spore_stims/complex_19_A_b.gif","middle","","","","",""
"","null","html-keyboard-response","112","337868","0.0-23.0-0.7","SS1613100732402","","","null","","","","","<p><img src= images/blank.png width =""200"" height = ""200"" style = ""float:right""></p><p><img src=images/blank.png width =""800"" height = ""200""></p>","","","","","","","","","","","",""
"","1811.9999999180436","sequential-stimulus-presentation","113","340511","0.0-23.0-1.7","SS1613100732402","trial","","40","800","2611.9999999180436","images/stimuli/spore_stims/complex_19_B_b.gif","images/stimuli/spore_stims/complex_19_A_b.gif","","","","","5","complex_similar","images/stimuli/spore_stims/complex_19_A_b.gif","middle","","","","",""
"","6655.00000026077","html-keyboard-response","114","347201","0.0-24.0","SS1613100732402","pref_question","","51","","","","","<video width ='960' height = '540' style='padding-top:8%' autoplay muted><source src='images/stimuli/wall_pref.mp4' type='video/mp4'></video>","3","right","66%","5","","","","","","","",""
"","400.00000037252903","sequential-stimulus-presentation","115","348410","0.0-25.0","SS1613100732402","pref_reveal","","40","800","1200.000000372529","null","null","","","","","5","","","","novel","","","",""
"","null","html-keyboard-response","116","349598","0.0-26.0-0.0","SS1613100732402","","","null","","","","","<p><img src= images/blank.png width =""200"" height = ""200"" style = ""float:right""></p><p><img src=images/blank.png width =""800"" height = ""200""></p>","","","","","","","","","","","",""
"","1560.0000000558794","sequential-stimulus-presentation","117","351973","0.0-26.0-1.0","SS1613100732402","trial","","40","800","2360.0000000558794","images/stimuli/spore_stims/complex_10_A_d.gif","images/stimuli/spore_stims/complex_10_B_d.gif","","","","","6","complex_similar","images/stimuli/spore_stims/complex_10_B_d.gif","left","","","","",""
"","null","html-keyboard-response","118","353256","0.0-26.0-0.1","SS1613100732402","","","null","","","","","<p><img src= images/blank.png width =""200"" height = ""200"" style = ""float:right""></p><p><img src=images/blank.png width =""800"" height = ""200""></p>","","","","","","","","","","","",""
"","589.0000001527369","sequential-stimulus-presentation","119","354651","0.0-26.0-1.1","SS1613100732402","trial","","40","800","1389.000000152737","images/stimuli/spore_stims/complex_10_A_d.gif","images/stimuli/spore_stims/complex_10_B_d.gif","","","","","6","complex_similar","images/stimuli/spore_stims/complex_10_B_d.gif","left","","","","",""
"","null","html-keyboard-response","120","355719","0.0-26.0-0.2","SS1613100732402","","","null","","","","","<p><img src= images/blank.png width =""200"" height = ""200"" style = ""float:right""></p><p><img src=images/blank.png width =""800"" height = ""200""></p>","","","","","","","","","","","",""
"","537.0000000111759","sequential-stimulus-presentation","121","357079","0.0-26.0-1.2","SS1613100732402","trial","","40","800","1337.0000000111759","images/stimuli/spore_stims/complex_10_A_d.gif","images/stimuli/spore_stims/complex_10_B_d.gif","","","","","6","complex_similar","images/stimuli/spore_stims/complex_10_B_d.gif","left","","","","",""
"","null","html-keyboard-response","122","358046","0.0-26.0-0.3","SS1613100732402","","","null","","","","","<p><img src= images/blank.png width =""200"" height = ""200"" style = ""float:right""></p><p><img src=images/blank.png width =""800"" height = ""200""></p>","","","","","","","","","","","",""
"","1055.9999998658895","sequential-stimulus-presentation","123","359916","0.0-26.0-1.3","SS1613100732402","trial","","40","800","1855.9999998658895","images/stimuli/spore_stims/complex_10_A_d.gif","images/stimuli/spore_stims/complex_10_B_d.gif","","","","","6","complex_similar","images/stimuli/spore_stims/complex_10_B_d.gif","left","","","","",""
"","null","html-keyboard-response","124","360926","0.0-26.0-0.4","SS1613100732402","","","null","","","","","<p><img src= images/blank.png width =""200"" height = ""200"" style = ""float:right""></p><p><img src=images/blank.png width =""800"" height = ""200""></p>","","","","","","","","","","","",""
"","740.9999999217689","sequential-stimulus-presentation","125","362486","0.0-26.0-1.4","SS1613100732402","trial","","40","800","1540.999999921769","images/stimuli/spore_stims/complex_10_A_d.gif","images/stimuli/spore_stims/complex_10_B_d.gif","","","","","6","complex_similar","images/stimuli/spore_stims/complex_10_B_d.gif","left","","","","",""
"","null","html-keyboard-response","126","363531","0.0-26.0-0.5","SS1613100732402","","","null","","","","","<p><img src= images/blank.png width =""200"" height = ""200"" style = ""float:right""></p><p><img src=images/blank.png width =""800"" height = ""200""></p>","","","","","","","","","","","",""
"","714.0000001527369","sequential-stimulus-presentation","127","365052","0.0-26.0-1.5","SS1613100732402","trial","","40","800","1514.000000152737","images/stimuli/spore_stims/complex_10_A_d.gif","images/stimuli/spore_stims/complex_10_B_d.gif","","","","","6","complex_similar","images/stimuli/spore_stims/complex_10_B_d.gif","left","","","","",""
"","null","html-keyboard-response","128","366334","0.0-26.0-0.6","SS1613100732402","","","null","","","","","<p><img src= images/blank.png width =""200"" height = ""200"" style = ""float:right""></p><p><img src=images/blank.png width =""800"" height = ""200""></p>","","","","","","","","","","","",""
"","1183.000000193715","sequential-stimulus-presentation","129","368342","0.0-26.0-1.6","SS1613100732402","trial","","40","800","1983.000000193715","images/stimuli/spore_stims/complex_10_A_d.gif","images/stimuli/spore_stims/complex_10_B_d.gif","","","","","6","complex_similar","images/stimuli/spore_stims/complex_10_A_d.gif","middle","","","","",""
"","null","html-keyboard-response","130","369445","0.0-26.0-0.7","SS1613100732402","","","null","","","","","<p><img src= images/blank.png width =""200"" height = ""200"" style = ""float:right""></p><p><img src=images/blank.png width =""800"" height = ""200""></p>","","","","","","","","","","","",""
"","102.999999653548","sequential-stimulus-presentation","131","370355","0.0-26.0-1.7","SS1613100732402","trial","","40","800","902.999999653548","images/stimuli/spore_stims/complex_10_A_d.gif","images/stimuli/spore_stims/complex_10_B_d.gif","","","","","6","complex_similar","images/stimuli/spore_stims/complex_10_B_d.gif","left","","","","",""
"","2529.999999795109","html-keyboard-response","132","372914","0.0-27.0","SS1613100732402","pref_question","","50","","","","","<video width ='960' height = '540' style='padding-top:8%' autoplay muted><source src='images/stimuli/wall_pref.mp4' type='video/mp4'></video>","2","middle","45%","6","","","","","","","",""
"","462.99999998882413","sequential-stimulus-presentation","133","374186","0.0-28.0","SS1613100732402","pref_reveal","","40","800","1262.9999999888241","null","null","","","","","6","","","","deviant","","","",""
"","null","html-keyboard-response","134","375071","0.0-29.0-0.0","SS1613100732402","","","null","","","","","<p><img src= images/blank.png width =""200"" height = ""200"" style = ""float:right""></p><p><img src=images/blank.png width =""800"" height = ""200""></p>","","","","","","","","","","","",""
"","1185.0000000558794","sequential-stimulus-presentation","135","377072","0.0-29.0-1.0","SS1613100732402","trial","","40","800","1985.0000000558794","images/stimuli/spore_stims/complex_11_B_c.gif","images/stimuli/spore_stims/complex_08_A_b.gif","","","","","7","complex_dissimilar","images/stimuli/spore_stims/complex_08_A_b.gif","left","","","","",""
"","null","html-keyboard-response","136","378097","0.0-29.0-0.1","SS1613100732402","","","null","","","","","<p><img src= images/blank.png width =""200"" height = ""200"" style = ""float:right""></p><p><img src=images/blank.png width =""800"" height = ""200""></p>","","","","","","","","","","","",""
"","2121.0000002756715","sequential-stimulus-presentation","137","381025","0.0-29.0-1.1","SS1613100732402","trial","","40","800","2921.0000002756715","images/stimuli/spore_stims/complex_11_B_c.gif","images/stimuli/spore_stims/complex_08_A_b.gif","","","","","7","complex_dissimilar","images/stimuli/spore_stims/complex_08_A_b.gif","left","","","","",""
"","null","html-keyboard-response","138","382295","0.0-29.0-0.2","SS1613100732402","","","null","","","","","<p><img src= images/blank.png width =""200"" height = ""200"" style = ""float:right""></p><p><img src=images/blank.png width =""800"" height = ""200""></p>","","","","","","","","","","","",""
"","2285.999999847263","sequential-stimulus-presentation","139","385390","0.0-29.0-1.2","SS1613100732402","trial","","40","800","3085.999999847263","images/stimuli/spore_stims/complex_11_B_c.gif","images/stimuli/spore_stims/complex_08_A_b.gif","","","","","7","complex_dissimilar","images/stimuli/spore_stims/complex_08_A_b.gif","left","","","","",""
"","null","html-keyboard-response","140","386502","0.0-29.0-0.3","SS1613100732402","","","null","","","","","<p><img src= images/blank.png width =""200"" height = ""200"" style = ""float:right""></p><p><img src=images/blank.png width =""800"" height = ""200""></p>","","","","","","","","","","","",""
"","2469.000000040978","sequential-stimulus-presentation","141","389787","0.0-29.0-1.3","SS1613100732402","trial","","40","800","3269.000000040978","images/stimuli/spore_stims/complex_11_B_c.gif","images/stimuli/spore_stims/complex_08_A_b.gif","","","","","7","complex_dissimilar","images/stimuli/spore_stims/complex_08_A_b.gif","left","","","","",""
"","null","html-keyboard-response","142","390942","0.0-29.0-0.4","SS1613100732402","","","null","","","","","<p><img src= images/blank.png width =""200"" height = ""200"" style = ""float:right""></p><p><img src=images/blank.png width =""800"" height = ""200""></p>","","","","","","","","","","","",""
"","1858.0000000074506","sequential-stimulus-presentation","143","393617","0.0-29.0-1.4","SS1613100732402","trial","","40","800","2658.0000000074506","images/stimuli/spore_stims/complex_11_B_c.gif","images/stimuli/spore_stims/complex_08_A_b.gif","","","","","7","complex_dissimilar","images/stimuli/spore_stims/complex_08_A_b.gif","left","","","","",""
"","null","html-keyboard-response","144","394768","0.0-29.0-0.5","SS1613100732402","","","null","","","","","<p><img src= images/blank.png width =""200"" height = ""200"" style = ""float:right""></p><p><img src=images/blank.png width =""800"" height = ""200""></p>","","","","","","","","","","","",""
"","586.9999998249114","sequential-stimulus-presentation","145","396162","0.0-29.0-1.5","SS1613100732402","trial","","40","800","1386.9999998249114","images/stimuli/spore_stims/complex_11_B_c.gif","images/stimuli/spore_stims/complex_08_A_b.gif","","","","","7","complex_dissimilar","images/stimuli/spore_stims/complex_11_B_c.gif","right","","","","",""
"","null","html-keyboard-response","146","397096","0.0-29.0-0.6","SS1613100732402","","","null","","","","","<p><img src= images/blank.png width =""200"" height = ""200"" style = ""float:right""></p><p><img src=images/blank.png width =""800"" height = ""200""></p>","","","","","","","","","","","",""
"","989.9999997578561","sequential-stimulus-presentation","147","398892","0.0-29.0-1.6","SS1613100732402","trial","","40","800","1789.9999997578561","images/stimuli/spore_stims/complex_11_B_c.gif","images/stimuli/spore_stims/complex_08_A_b.gif","","","","","7","complex_dissimilar","images/stimuli/spore_stims/complex_08_A_b.gif","left","","","","",""
"","null","html-keyboard-response","148","400143","0.0-29.0-0.7","SS1613100732402","","","null","","","","","<p><img src= images/blank.png width =""200"" height = ""200"" style = ""float:right""></p><p><img src=images/blank.png width =""800"" height = ""200""></p>","","","","","","","","","","","",""
"","291.99999989941716","sequential-stimulus-presentation","149","401242","0.0-29.0-1.7","SS1613100732402","trial","","40","800","1091.9999998994172","images/stimuli/spore_stims/complex_11_B_c.gif","images/stimuli/spore_stims/complex_08_A_b.gif","","","","","7","complex_dissimilar","images/stimuli/spore_stims/complex_08_A_b.gif","left","","","","",""
"","12424.000000115484","html-keyboard-response","150","413673","0.0-30.0","SS1613100732402","pref_question","","50","","","","","<video width ='960' height = '540' style='padding-top:8%' autoplay muted><source src='images/stimuli/wall_pref.mp4' type='video/mp4'></video>","2","middle","45%","7","","","","","","","",""
"","1291.0000002011657","sequential-stimulus-presentation","151","415773","0.0-31.0","SS1613100732402","pref_reveal","","40","800","2091.0000002011657","null","null","","","","","7","","","","novel","","","",""
"","null","html-keyboard-response","152","416934","0.0-32.0-0.0","SS1613100732402","","","null","","","","","<p><img src= images/blank.png width =""200"" height = ""200"" style = ""float:right""></p><p><img src=images/blank.png width =""800"" height = ""200""></p>","","","","","","","","","","","",""
"","192.99999997019768","sequential-stimulus-presentation","153","417951","0.0-32.0-1.0","SS1613100732402","trial","","40","800","992.9999999701977","images/stimuli/spore_stims/simple_20_A_b.gif","images/stimuli/spore_stims/simple_20_B_b.gif","","","","","8","simple_similar","images/stimuli/spore_stims/simple_20_B_b.gif","right","","","","",""
"","null","html-keyboard-response","154","419041","0.0-32.0-0.1","SS1613100732402","","","null","","","","","<p><img src= images/blank.png width =""200"" height = ""200"" style = ""float:right""></p><p><img src=images/blank.png width =""800"" height = ""200""></p>","","","","","","","","","","","",""
"","888.9999999664724","sequential-stimulus-presentation","155","420737","0.0-32.0-1.1","SS1613100732402","trial","","40","800","1688.9999999664724","images/stimuli/spore_stims/simple_20_A_b.gif","images/stimuli/spore_stims/simple_20_B_b.gif","","","","","8","simple_similar","images/stimuli/spore_stims/simple_20_B_b.gif","right","","","","",""
"","null","html-keyboard-response","156","422031","0.0-32.0-0.2","SS1613100732402","","","null","","","","","<p><img src= images/blank.png width =""200"" height = ""200"" style = ""float:right""></p><p><img src=images/blank.png width =""800"" height = ""200""></p>","","","","","","","","","","","",""
"","791.9999998994172","sequential-stimulus-presentation","157","423639","0.0-32.0-1.2","SS1613100732402","trial","","40","800","1591.9999998994172","images/stimuli/spore_stims/simple_20_A_b.gif","images/stimuli/spore_stims/simple_20_B_b.gif","","","","","8","simple_similar","images/stimuli/spore_stims/simple_20_B_b.gif","right","","","","",""
"","null","html-keyboard-response","158","424622","0.0-32.0-0.3","SS1613100732402","","","null","","","","","<p><img src= images/blank.png width =""200"" height = ""200"" style = ""float:right""></p><p><img src=images/blank.png width =""800"" height = ""200""></p>","","","","","","","","","","","",""
"","2234.0000001713634","sequential-stimulus-presentation","159","427672","0.0-32.0-1.3","SS1613100732402","trial","","40","800","3034.0000001713634","images/stimuli/spore_stims/simple_20_A_b.gif","images/stimuli/spore_stims/simple_20_B_b.gif","","","","","8","simple_similar","images/stimuli/spore_stims/simple_20_B_b.gif","right","","","","",""
"","null","html-keyboard-response","160","428838","0.0-32.0-0.4","SS1613100732402","","","null","","","","","<p><img src= images/blank.png width =""200"" height = ""200"" style = ""float:right""></p><p><img src=images/blank.png width =""800"" height = ""200""></p>","","","","","","","","","","","",""
"","86.99999982491136","sequential-stimulus-presentation","161","429741","0.0-32.0-1.4","SS1613100732402","trial","","40","800","886.9999998249114","images/stimuli/spore_stims/simple_20_A_b.gif","images/stimuli/spore_stims/simple_20_B_b.gif","","","","","8","simple_similar","images/stimuli/spore_stims/simple_20_B_b.gif","right","","","","",""
"","null","html-keyboard-response","162","430909","0.0-32.0-0.5","SS1613100732402","","","null","","","","","<p><img src= images/blank.png width =""200"" height = ""200"" style = ""float:right""></p><p><img src=images/blank.png width =""800"" height = ""200""></p>","","","","","","","","","","","",""
"","1112.9999998956919","sequential-stimulus-presentation","163","432831","0.0-32.0-1.5","SS1613100732402","trial","","40","800","1912.9999998956919","images/stimuli/spore_stims/simple_20_A_b.gif","images/stimuli/spore_stims/simple_20_B_b.gif","","","","","8","simple_similar","images/stimuli/spore_stims/simple_20_B_b.gif","right","","","","",""
"","null","html-keyboard-response","164","434057","0.0-32.0-0.6","SS1613100732402","","","null","","","","","<p><img src= images/blank.png width =""200"" height = ""200"" style = ""float:right""></p><p><img src=images/blank.png width =""800"" height = ""200""></p>","","","","","","","","","","","",""
"","137.9999998025596","sequential-stimulus-presentation","165","435013","0.0-32.0-1.6","SS1613100732402","trial","","40","800","937.9999998025596","images/stimuli/spore_stims/simple_20_A_b.gif","images/stimuli/spore_stims/simple_20_B_b.gif","","","","","8","simple_similar","images/stimuli/spore_stims/simple_20_A_b.gif","middle","","","","",""
"","null","html-keyboard-response","166","436234","0.0-32.0-0.7","SS1613100732402","","","null","","","","","<p><img src= images/blank.png width =""200"" height = ""200"" style = ""float:right""></p><p><img src=images/blank.png width =""800"" height = ""200""></p>","","","","","","","","","","","",""
"","1520.0000000186265","sequential-stimulus-presentation","167","438563","0.0-32.0-1.7","SS1613100732402","trial","","40","800","2320.0000000186265","images/stimuli/spore_stims/simple_20_A_b.gif","images/stimuli/spore_stims/simple_20_B_b.gif","","","","","8","simple_similar","images/stimuli/spore_stims/simple_20_B_b.gif","right","","","","",""
"","2904.999999795109","html-keyboard-response","168","441474","0.0-33.0","SS1613100732402","pref_question","","50","","","","","<video width ='960' height = '540' style='padding-top:8%' autoplay muted><source src='images/stimuli/wall_pref.mp4' type='video/mp4'></video>","2","middle","45%","8","","","","","","","",""
"","254.9999998882413","sequential-stimulus-presentation","169","442545","0.0-34.0","SS1613100732402","pref_reveal","","40","800","1054.9999998882413","null","null","","","","","8","","","","deviant","","","",""
"","null","html-keyboard-response","170","443838","0.0-35.0-0.0","SS1613100732402","","","null","","","","","<p><img src= images/blank.png width =""200"" height = ""200"" style = ""float:right""></p><p><img src=images/blank.png width =""800"" height = ""200""></p>","","","","","","","","","","","",""
"","1728.9999998174608","sequential-stimulus-presentation","171","446380","0.0-35.0-1.0","SS1613100732402","trial","","40","800","2528.999999817461","images/stimuli/spore_stims/simple_16_A_c.gif","images/stimuli/spore_stims/simple_16_B_c.gif","","","","","9","simple_similar","images/stimuli/spore_stims/simple_16_B_c.gif","middle","","","","",""
"","null","html-keyboard-response","172","447346","0.0-35.0-0.1","SS1613100732402","","","null","","","","","<p><img src= images/blank.png width =""200"" height = ""200"" style = ""float:right""></p><p><img src=images/blank.png width =""800"" height = ""200""></p>","","","","","","","","","","","",""
"","603.0000001192093","sequential-stimulus-presentation","173","448856","0.0-35.0-1.1","SS1613100732402","trial","","40","800","1403.0000001192093","images/stimuli/spore_stims/simple_16_A_c.gif","images/stimuli/spore_stims/simple_16_B_c.gif","","","","","9","simple_similar","images/stimuli/spore_stims/simple_16_B_c.gif","middle","","","","",""
"","null","html-keyboard-response","174","449999","0.0-35.0-0.2","SS1613100732402","","","null","","","","","<p><img src= images/blank.png width =""200"" height = ""200"" style = ""float:right""></p><p><img src=images/blank.png width =""800"" height = ""200""></p>","","","","","","","","","","","",""
"","838.9999996870756","sequential-stimulus-presentation","175","451655","0.0-35.0-1.2","SS1613100732402","trial","","40","800","1638.9999996870756","images/stimuli/spore_stims/simple_16_A_c.gif","images/stimuli/spore_stims/simple_16_B_c.gif","","","","","9","simple_similar","images/stimuli/spore_stims/simple_16_B_c.gif","middle","","","","",""
"","null","html-keyboard-response","176","452705","0.0-35.0-0.3","SS1613100732402","","","null","","","","","<p><img src= images/blank.png width =""200"" height = ""200"" style = ""float:right""></p><p><img src=images/blank.png width =""800"" height = ""200""></p>","","","","","","","","","","","",""
"","1424.9999998137355","sequential-stimulus-presentation","177","454937","0.0-35.0-1.3","SS1613100732402","trial","","40","800","2224.9999998137355","images/stimuli/spore_stims/simple_16_A_c.gif","images/stimuli/spore_stims/simple_16_B_c.gif","","","","","9","simple_similar","images/stimuli/spore_stims/simple_16_B_c.gif","middle","","","","",""
"","null","html-keyboard-response","178","456208","0.0-35.0-0.4","SS1613100732402","","","null","","","","","<p><img src= images/blank.png width =""200"" height = ""200"" style = ""float:right""></p><p><img src=images/blank.png width =""800"" height = ""200""></p>","","","","","","","","","","","",""
"","1248.0000001378357","sequential-stimulus-presentation","179","458351","0.0-35.0-1.4","SS1613100732402","trial","","40","800","2048.0000001378357","images/stimuli/spore_stims/simple_16_A_c.gif","images/stimuli/spore_stims/simple_16_B_c.gif","","","","","9","simple_similar","images/stimuli/spore_stims/simple_16_A_c.gif","left","","","","",""
"","null","html-keyboard-response","180","459322","0.0-35.0-0.5","SS1613100732402","","","null","","","","","<p><img src= images/blank.png width =""200"" height = ""200"" style = ""float:right""></p><p><img src=images/blank.png width =""800"" height = ""200""></p>","","","","","","","","","","","",""
"","983.0000000074506","sequential-stimulus-presentation","181","461111","0.0-35.0-1.5","SS1613100732402","trial","","40","800","1783.0000000074506","images/stimuli/spore_stims/simple_16_A_c.gif","images/stimuli/spore_stims/simple_16_B_c.gif","","","","","9","simple_similar","images/stimuli/spore_stims/simple_16_B_c.gif","middle","","","","",""
"","null","html-keyboard-response","182","461988","0.0-35.0-0.6","SS1613100732402","","","null","","","","","<p><img src= images/blank.png width =""200"" height = ""200"" style = ""float:right""></p><p><img src=images/blank.png width =""800"" height = ""200""></p>","","","","","","","","","","","",""
"","12.000000104308128","sequential-stimulus-presentation","183","462807","0.0-35.0-1.6","SS1613100732402","trial","","40","800","812.0000001043081","images/stimuli/spore_stims/simple_16_A_c.gif","images/stimuli/spore_stims/simple_16_B_c.gif","","","","","9","simple_similar","images/stimuli/spore_stims/simple_16_B_c.gif","middle","","","","",""
"","null","html-keyboard-response","184","463774","0.0-35.0-0.7","SS1613100732402","","","null","","","","","<p><img src= images/blank.png width =""200"" height = ""200"" style = ""float:right""></p><p><img src=images/blank.png width =""800"" height = ""200""></p>","","","","","","","","","","","",""
"","23.000000044703484","sequential-stimulus-presentation","185","464611","0.0-35.0-1.7","SS1613100732402","trial","","40","800","823.0000000447035","images/stimuli/spore_stims/simple_16_A_c.gif","images/stimuli/spore_stims/simple_16_B_c.gif","","","","","9","simple_similar","images/stimuli/spore_stims/simple_16_B_c.gif","middle","","","","",""
"","2180.000000167638","html-keyboard-response","186","466796","0.0-36.0","SS1613100732402","pref_question","","50","","","","","<video width ='960' height = '540' style='padding-top:8%' autoplay muted><source src='images/stimuli/wall_pref.mp4' type='video/mp4'></video>","2","middle","45%","9","","","","","","","",""
"","1828.999999910593","sequential-stimulus-presentation","187","469434","0.0-37.0","SS1613100732402","pref_reveal","","40","800","2628.999999910593","null","null","","","","","9","","","","background","","","",""
"","null","html-keyboard-response","188","470426","0.0-38.0-0.0","SS1613100732402","","","null","","","","","<p><img src= images/blank.png width =""200"" height = ""200"" style = ""float:right""></p><p><img src=images/blank.png width =""800"" height = ""200""></p>","","","","","","","","","","","",""
"","1491.9999996200204","sequential-stimulus-presentation","189","472729","0.0-38.0-1.0","SS1613100732402","trial","","40","800","2291.9999996200204","images/stimuli/spore_stims/simple_10_B_d.gif","images/stimuli/spore_stims/simple_02_B_d.gif","","","","","10","simple_dissimilar","images/stimuli/spore_stims/simple_02_B_d.gif","middle","","","","",""
"","null","html-keyboard-response","190","473791","0.0-38.0-0.1","SS1613100732402","","","null","","","","","<p><img src= images/blank.png width =""200"" height = ""200"" style = ""float:right""></p><p><img src=images/blank.png width =""800"" height = ""200""></p>","","","","","","","","","","","",""
"","1367.0000000856817","sequential-stimulus-presentation","191","475972","0.0-38.0-1.1","SS1613100732402","trial","","40","800","2167.0000000856817","images/stimuli/spore_stims/simple_10_B_d.gif","images/stimuli/spore_stims/simple_02_B_d.gif","","","","","10","simple_dissimilar","images/stimuli/spore_stims/simple_02_B_d.gif","middle","","","","",""
"","null","html-keyboard-response","192","477197","0.0-38.0-0.2","SS1613100732402","","","null","","","","","<p><img src= images/blank.png width =""200"" height = ""200"" style = ""float:right""></p><p><img src=images/blank.png width =""800"" height = ""200""></p>","","","","","","","","","","","",""
"","1238.9999995939434","sequential-stimulus-presentation","193","479260","0.0-38.0-1.2","SS1613100732402","trial","","40","800","2038.9999995939434","images/stimuli/spore_stims/simple_10_B_d.gif","images/stimuli/spore_stims/simple_02_B_d.gif","","","","","10","simple_dissimilar","images/stimuli/spore_stims/simple_02_B_d.gif","middle","","","","",""
"","null","html-keyboard-response","194","480551","0.0-38.0-0.3","SS1613100732402","","","null","","","","","<p><img src= images/blank.png width =""200"" height = ""200"" style = ""float:right""></p><p><img src=images/blank.png width =""800"" height = ""200""></p>","","","","","","","","","","","",""
"","1702.9999997466803","sequential-stimulus-presentation","195","483070","0.0-38.0-1.3","SS1613100732402","trial","","40","800","2502.9999997466803","images/stimuli/spore_stims/simple_10_B_d.gif","images/stimuli/spore_stims/simple_02_B_d.gif","","","","","10","simple_dissimilar","images/stimuli/spore_stims/simple_02_B_d.gif","middle","","","","",""
"","null","html-keyboard-response","196","484178","0.0-38.0-0.4","SS1613100732402","","","null","","","","","<p><img src= images/blank.png width =""200"" height = ""200"" style = ""float:right""></p><p><img src=images/blank.png width =""800"" height = ""200""></p>","","","","","","","","","","","",""
"","1654.0000000968575","sequential-stimulus-presentation","197","486651","0.0-38.0-1.4","SS1613100732402","trial","","40","800","2454.0000000968575","images/stimuli/spore_stims/simple_10_B_d.gif","images/stimuli/spore_stims/simple_02_B_d.gif","","","","","10","simple_dissimilar","images/stimuli/spore_stims/simple_02_B_d.gif","middle","","","","",""
"","null","html-keyboard-response","198","487546","0.0-38.0-0.5","SS1613100732402","","","null","","","","","<p><img src= images/blank.png width =""200"" height = ""200"" style = ""float:right""></p><p><img src=images/blank.png width =""800"" height = ""200""></p>","","","","","","","","","","","",""
"","89.0000001527369","sequential-stimulus-presentation","199","488447","0.0-38.0-1.5","SS1613100732402","trial","","40","800","889.0000001527369","images/stimuli/spore_stims/simple_10_B_d.gif","images/stimuli/spore_stims/simple_02_B_d.gif","","","","","10","simple_dissimilar","images/stimuli/spore_stims/simple_02_B_d.gif","middle","","","","",""
"","null","html-keyboard-response","200","489375","0.0-38.0-0.6","SS1613100732402","","","null","","","","","<p><img src= images/blank.png width =""200"" height = ""200"" style = ""float:right""></p><p><img src=images/blank.png width =""800"" height = ""200""></p>","","","","","","","","","","","",""
"","123.00000013783574","sequential-stimulus-presentation","201","490319","0.0-38.0-1.6","SS1613100732402","trial","","40","800","923.0000001378357","images/stimuli/spore_stims/simple_10_B_d.gif","images/stimuli/spore_stims/simple_02_B_d.gif","","","","","10","simple_dissimilar","images/stimuli/spore_stims/simple_02_B_d.gif","middle","","","","",""
"","null","html-keyboard-response","202","491605","0.0-38.0-0.7","SS1613100732402","","","null","","","","","<p><img src= images/blank.png width =""200"" height = ""200"" style = ""float:right""></p><p><img src=images/blank.png width =""800"" height = ""200""></p>","","","","","","","","","","","",""
"","1962.9999999888241","sequential-stimulus-presentation","203","494375","0.0-38.0-1.7","SS1613100732402","trial","","40","800","2762.999999988824","images/stimuli/spore_stims/simple_10_B_d.gif","images/stimuli/spore_stims/simple_02_B_d.gif","","","","","10","simple_dissimilar","images/stimuli/spore_stims/simple_10_B_d.gif","right","","","","",""
"","2049.000000115484","html-keyboard-response","204","496434","0.0-39.0","SS1613100732402","pref_question","","49","","","","","<video width ='960' height = '540' style='padding-top:8%' autoplay muted><source src='images/stimuli/wall_pref.mp4' type='video/mp4'></video>","1","left","25%","10","","","","","","","",""
"","2594.000000040978","sequential-stimulus-presentation","205","499837","0.0-40.0","SS1613100732402","pref_reveal","","40","800","3394.000000040978","null","null","","","","","10","","","","novel","","","",""
"","null","html-keyboard-response","206","500704","0.0-41.0-0.0","SS1613100732402","","","null","","","","","<p><img src= images/blank.png width =""200"" height = ""200"" style = ""float:right""></p><p><img src=images/blank.png width =""800"" height = ""200""></p>","","","","","","","","","","","",""
"","57.00000002980232","sequential-stimulus-presentation","207","501572","0.0-41.0-1.0","SS1613100732402","trial","","40","800","857.0000000298023","images/stimuli/spore_stims/simple_17_A_a.gif","images/stimuli/spore_stims/simple_01_B_b.gif","","","","","11","simple_dissimilar","images/stimuli/spore_stims/simple_01_B_b.gif","middle","","","","",""
"","null","html-keyboard-response","208","502874","0.0-41.0-0.1","SS1613100732402","","","null","","","","","<p><img src= images/blank.png width =""200"" height = ""200"" style = ""float:right""></p><p><img src=images/blank.png width =""800"" height = ""200""></p>","","","","","","","","","","","",""
"","1256.9999997504056","sequential-stimulus-presentation","209","504942","0.0-41.0-1.1","SS1613100732402","trial","","40","800","2056.9999997504056","images/stimuli/spore_stims/simple_17_A_a.gif","images/stimuli/spore_stims/simple_01_B_b.gif","","","","","11","simple_dissimilar","images/stimuli/spore_stims/simple_01_B_b.gif","middle","","","","",""
"","null","html-keyboard-response","210","506018","0.0-41.0-0.2","SS1613100732402","","","null","","","","","<p><img src= images/blank.png width =""200"" height = ""200"" style = ""float:right""></p><p><img src=images/blank.png width =""800"" height = ""200""></p>","","","","","","","","","","","",""
"","1496.999999973923","sequential-stimulus-presentation","211","508331","0.0-41.0-1.2","SS1613100732402","trial","","40","800","2296.999999973923","images/stimuli/spore_stims/simple_17_A_a.gif","images/stimuli/spore_stims/simple_01_B_b.gif","","","","","11","simple_dissimilar","images/stimuli/spore_stims/simple_01_B_b.gif","middle","","","","",""
"","null","html-keyboard-response","212","509516","0.0-41.0-0.3","SS1613100732402","","","null","","","","","<p><img src= images/blank.png width =""200"" height = ""200"" style = ""float:right""></p><p><img src=images/blank.png width =""800"" height = ""200""></p>","","","","","","","","","","","",""
"","1042.0000003650784","sequential-stimulus-presentation","213","511370","0.0-41.0-1.3","SS1613100732402","trial","","40","800","1842.0000003650784","images/stimuli/spore_stims/simple_17_A_a.gif","images/stimuli/spore_stims/simple_01_B_b.gif","","","","","11","simple_dissimilar","images/stimuli/spore_stims/simple_01_B_b.gif","middle","","","","",""
"","null","html-keyboard-response","214","512476","0.0-41.0-0.4","SS1613100732402","","","null","","","","","<p><img src= images/blank.png width =""200"" height = ""200"" style = ""float:right""></p><p><img src=images/blank.png width =""800"" height = ""200""></p>","","","","","","","","","","","",""
"","1175.9999999776483","sequential-stimulus-presentation","215","514462","0.0-41.0-1.4","SS1613100732402","trial","","40","800","1975.9999999776483","images/stimuli/spore_stims/simple_17_A_a.gif","images/stimuli/spore_stims/simple_01_B_b.gif","","","","","11","simple_dissimilar","images/stimuli/spore_stims/simple_01_B_b.gif","middle","","","","",""
"","null","html-keyboard-response","216","515519","0.0-41.0-0.5","SS1613100732402","","","null","","","","","<p><img src= images/blank.png width =""200"" height = ""200"" style = ""float:right""></p><p><img src=images/blank.png width =""800"" height = ""200""></p>","","","","","","","","","","","",""
"","1020.0000000186265","sequential-stimulus-presentation","217","517358","0.0-41.0-1.5","SS1613100732402","trial","","40","800","1820.0000000186265","images/stimuli/spore_stims/simple_17_A_a.gif","images/stimuli/spore_stims/simple_01_B_b.gif","","","","","11","simple_dissimilar","images/stimuli/spore_stims/simple_17_A_a.gif","left","","","","",""
"","null","html-keyboard-response","218","518454","0.0-41.0-0.6","SS1613100732402","","","null","","","","","<p><img src= images/blank.png width =""200"" height = ""200"" style = ""float:right""></p><p><img src=images/blank.png width =""800"" height = ""200""></p>","","","","","","","","","","","",""
"","962.0000002905726","sequential-stimulus-presentation","219","520235","0.0-41.0-1.6","SS1613100732402","trial","","40","800","1762.0000002905726","images/stimuli/spore_stims/simple_17_A_a.gif","images/stimuli/spore_stims/simple_01_B_b.gif","","","","","11","simple_dissimilar","images/stimuli/spore_stims/simple_01_B_b.gif","middle","","","","",""
"","null","html-keyboard-response","220","521414","0.0-41.0-0.7","SS1613100732402","","","null","","","","","<p><img src= images/blank.png width =""200"" height = ""200"" style = ""float:right""></p><p><img src=images/blank.png width =""800"" height = ""200""></p>","","","","","","","","","","","",""
"","864.0000000596046","sequential-stimulus-presentation","221","523094","0.0-41.0-1.7","SS1613100732402","trial","","40","800","1664.0000000596046","images/stimuli/spore_stims/simple_17_A_a.gif","images/stimuli/spore_stims/simple_01_B_b.gif","","","","","11","simple_dissimilar","images/stimuli/spore_stims/simple_01_B_b.gif","middle","","","","",""
"","2171.000000089407","html-keyboard-response","222","525271","0.0-42.0","SS1613100732402","pref_question","","51","","","","","<video width ='960' height = '540' style='padding-top:8%' autoplay muted><source src='images/stimuli/wall_pref.mp4' type='video/mp4'></video>","3","right","66%","11","","","","","","","",""
"","981.9999998435378","sequential-stimulus-presentation","223","527070","0.0-43.0","SS1613100732402","pref_reveal","","40","800","1781.9999998435378","null","null","","","","","11","","","","novel","","","",""
"","null","html-keyboard-response","224","528217","0.0-44.0-0.0","SS1613100732402","","","null","","","","","<p><img src= images/blank.png width =""200"" height = ""200"" style = ""float:right""></p><p><img src=images/blank.png width =""800"" height = ""200""></p>","","","","","","","","","","","",""
"","52.00000014156103","sequential-stimulus-presentation","225","529096","0.0-44.0-1.0","SS1613100732402","trial","","40","800","852.000000141561","images/stimuli/spore_stims/complex_12_A_b.gif","images/stimuli/spore_stims/complex_12_B_b.gif","","","","","12","complex_similar","images/stimuli/spore_stims/complex_12_B_b.gif","right","","","","",""
"","null","html-keyboard-response","226","530315","0.0-44.0-0.1","SS1613100732402","","","null","","","","","<p><img src= images/blank.png width =""200"" height = ""200"" style = ""float:right""></p><p><img src=images/blank.png width =""800"" height = ""200""></p>","","","","","","","","","","","",""
"","749.0000003017485","sequential-stimulus-presentation","227","531881","0.0-44.0-1.1","SS1613100732402","trial","","40","800","1549.0000003017485","images/stimuli/spore_stims/complex_12_A_b.gif","images/stimuli/spore_stims/complex_12_B_b.gif","","","","","12","complex_similar","images/stimuli/spore_stims/complex_12_B_b.gif","right","","","","",""
"","null","html-keyboard-response","228","533074","0.0-44.0-0.2","SS1613100732402","","","null","","","","","<p><img src= images/blank.png width =""200"" height = ""200"" style = ""float:right""></p><p><img src=images/blank.png width =""800"" height = ""200""></p>","","","","","","","","","","","",""
"","1105.999999679625","sequential-stimulus-presentation","229","534994","0.0-44.0-1.2","SS1613100732402","trial","","40","800","1905.999999679625","images/stimuli/spore_stims/complex_12_A_b.gif","images/stimuli/spore_stims/complex_12_B_b.gif","","","","","12","complex_similar","images/stimuli/spore_stims/complex_12_B_b.gif","right","","","","",""
"","null","html-keyboard-response","230","536078","0.0-44.0-0.3","SS1613100732402","","","null","","","","","<p><img src= images/blank.png width =""200"" height = ""200"" style = ""float:right""></p><p><img src=images/blank.png width =""800"" height = ""200""></p>","","","","","","","","","","","",""
"","1328.0000002123415","sequential-stimulus-presentation","231","538218","0.0-44.0-1.3","SS1613100732402","trial","","40","800","2128.0000002123415","images/stimuli/spore_stims/complex_12_A_b.gif","images/stimuli/spore_stims/complex_12_B_b.gif","","","","","12","complex_similar","images/stimuli/spore_stims/complex_12_B_b.gif","right","","","","",""
"","null","html-keyboard-response","232","539236","0.0-44.0-0.4","SS1613100732402","","","null","","","","","<p><img src= images/blank.png width =""200"" height = ""200"" style = ""float:right""></p><p><img src=images/blank.png width =""800"" height = ""200""></p>","","","","","","","","","","","",""
"","207.99999963492155","sequential-stimulus-presentation","233","540261","0.0-44.0-1.4","SS1613100732402","trial","","40","800","1007.9999996349216","images/stimuli/spore_stims/complex_12_A_b.gif","images/stimuli/spore_stims/complex_12_B_b.gif","","","","","12","complex_similar","images/stimuli/spore_stims/complex_12_B_b.gif","right","","","","",""
"","null","html-keyboard-response","234","541495","0.0-44.0-0.5","SS1613100732402","","","null","","","","","<p><img src= images/blank.png width =""200"" height = ""200"" style = ""float:right""></p><p><img src=images/blank.png width =""800"" height = ""200""></p>","","","","","","","","","","","",""
"","168.00000006332994","sequential-stimulus-presentation","235","542485","0.0-44.0-1.5","SS1613100732402","trial","","40","800","968.0000000633299","images/stimuli/spore_stims/complex_12_A_b.gif","images/stimuli/spore_stims/complex_12_B_b.gif","","","","","12","complex_similar","images/stimuli/spore_stims/complex_12_B_b.gif","right","","","","",""
"","null","html-keyboard-response","236","543439","0.0-44.0-0.6","SS1613100732402","","","null","","","","","<p><img src= images/blank.png width =""200"" height = ""200"" style = ""float:right""></p><p><img src=images/blank.png width =""800"" height = ""200""></p>","","","","","","","","","","","",""
"","24.999999906867743","sequential-stimulus-presentation","237","544287","0.0-44.0-1.6","SS1613100732402","trial","","40","800","824.9999999068677","images/stimuli/spore_stims/complex_12_A_b.gif","images/stimuli/spore_stims/complex_12_B_b.gif","","","","","12","complex_similar","images/stimuli/spore_stims/complex_12_B_b.gif","right","","","","",""
"","null","html-keyboard-response","238","545272","0.0-44.0-0.7","SS1613100732402","","","null","","","","","<p><img src= images/blank.png width =""200"" height = ""200"" style = ""float:right""></p><p><img src=images/blank.png width =""800"" height = ""200""></p>","","","","","","","","","","","",""
"","2271.9999998807907","sequential-stimulus-presentation","239","548365","0.0-44.0-1.7","SS1613100732402","trial","","40","800","3071.9999998807907","images/stimuli/spore_stims/complex_12_A_b.gif","images/stimuli/spore_stims/complex_12_B_b.gif","","","","","12","complex_similar","images/stimuli/spore_stims/complex_12_A_b.gif","left","","","","",""
"","1971.0000003688037","html-keyboard-response","240","550345","0.0-45.0","SS1613100732402","pref_question","","50","","","","","<video width ='960' height = '540' style='padding-top:8%' autoplay muted><source src='images/stimuli/wall_pref.mp4' type='video/mp4'></video>","2","middle","45%","12","","","","","","","",""
"","1921.000000089407","sequential-stimulus-presentation","241","553074","0.0-46.0","SS1613100732402","pref_reveal","","40","800","2721.000000089407","null","null","","","","","12","","","","novel","","","",""
"","null","html-keyboard-response","242","554294","0.0-47.0-0.0","SS1613100732402","","","null","","","","","<p><img src= images/blank.png width =""200"" height = ""200"" style = ""float:right""></p><p><img src=images/blank.png width =""800"" height = ""200""></p>","","","","","","","","","","","",""
"","1187.000000383705","sequential-stimulus-presentation","243","556309","0.0-47.0-1.0","SS1613100732402","trial","","40","800","1987.000000383705","images/stimuli/spore_stims/simple_14_B_b.gif","images/stimuli/spore_stims/simple_02_A_a.gif","","","","","13","simple_dissimilar","images/stimuli/spore_stims/simple_02_A_a.gif","middle","","","","",""
"","null","html-keyboard-response","244","557269","0.0-47.0-0.1","SS1613100732402","","","null","","","","","<p><img src= images/blank.png width =""200"" height = ""200"" style = ""float:right""></p><p><img src=images/blank.png width =""800"" height = ""200""></p>","","","","","","","","","","","",""
"","1388.9999999664724","sequential-stimulus-presentation","245","559479","0.0-47.0-1.1","SS1613100732402","trial","","40","800","2188.9999999664724","images/stimuli/spore_stims/simple_14_B_b.gif","images/stimuli/spore_stims/simple_02_A_a.gif","","","","","13","simple_dissimilar","images/stimuli/spore_stims/simple_02_A_a.gif","middle","","","","",""
"","null","html-keyboard-response","246","560306","0.0-47.0-0.2","SS1613100732402","","","null","","","","","<p><img src= images/blank.png width =""200"" height = ""200"" style = ""float:right""></p><p><img src=images/blank.png width =""800"" height = ""200""></p>","","","","","","","","","","","",""
"","126.00000016391277","sequential-stimulus-presentation","247","561343","0.0-47.0-1.2","SS1613100732402","trial","","40","800","926.0000001639128","images/stimuli/spore_stims/simple_14_B_b.gif","images/stimuli/spore_stims/simple_02_A_a.gif","","","","","13","simple_dissimilar","images/stimuli/spore_stims/simple_02_A_a.gif","middle","","","","",""
"","null","html-keyboard-response","248","562403","0.0-47.0-0.3","SS1613100732402","","","null","","","","","<p><img src= images/blank.png width =""200"" height = ""200"" style = ""float:right""></p><p><img src=images/blank.png width =""800"" height = ""200""></p>","","","","","","","","","","","",""
"","268.0000001564622","sequential-stimulus-presentation","249","563484","0.0-47.0-1.3","SS1613100732402","trial","","40","800","1068.0000001564622","images/stimuli/spore_stims/simple_14_B_b.gif","images/stimuli/spore_stims/simple_02_A_a.gif","","","","","13","simple_dissimilar","images/stimuli/spore_stims/simple_02_A_a.gif","middle","","","","",""
"","null","html-keyboard-response","250","564493","0.0-47.0-0.4","SS1613100732402","","","null","","","","","<p><img src= images/blank.png width =""200"" height = ""200"" style = ""float:right""></p><p><img src=images/blank.png width =""800"" height = ""200""></p>","","","","","","","","","","","",""
"","889.9999996647239","sequential-stimulus-presentation","251","566213","0.0-47.0-1.4","SS1613100732402","trial","","40","800","1689.9999996647239","images/stimuli/spore_stims/simple_14_B_b.gif","images/stimuli/spore_stims/simple_02_A_a.gif","","","","","13","simple_dissimilar","images/stimuli/spore_stims/simple_02_A_a.gif","middle","","","","",""
"","null","html-keyboard-response","252","567471","0.0-47.0-0.5","SS1613100732402","","","null","","","","","<p><img src= images/blank.png width =""200"" height = ""200"" style = ""float:right""></p><p><img src=images/blank.png width =""800"" height = ""200""></p>","","","","","","","","","","","",""
"","272.9999995790422","sequential-stimulus-presentation","253","568579","0.0-47.0-1.5","SS1613100732402","trial","","40","800","1072.9999995790422","images/stimuli/spore_stims/simple_14_B_b.gif","images/stimuli/spore_stims/simple_02_A_a.gif","","","","","13","simple_dissimilar","images/stimuli/spore_stims/simple_02_A_a.gif","middle","","","","",""
"","null","html-keyboard-response","254","569546","0.0-47.0-0.6","SS1613100732402","","","null","","","","","<p><img src= images/blank.png width =""200"" height = ""200"" style = ""float:right""></p><p><img src=images/blank.png width =""800"" height = ""200""></p>","","","","","","","","","","","",""
"","867.9999997839332","sequential-stimulus-presentation","255","571232","0.0-47.0-1.6","SS1613100732402","trial","","40","800","1667.9999997839332","images/stimuli/spore_stims/simple_14_B_b.gif","images/stimuli/spore_stims/simple_02_A_a.gif","","","","","13","simple_dissimilar","images/stimuli/spore_stims/simple_02_A_a.gif","middle","","","","",""
"","null","html-keyboard-response","256","572194","0.0-47.0-0.7","SS1613100732402","","","null","","","","","<p><img src= images/blank.png width =""200"" height = ""200"" style = ""float:right""></p><p><img src=images/blank.png width =""800"" height = ""200""></p>","","","","","","","","","","","",""
"","336.99999982491136","sequential-stimulus-presentation","257","573342","0.0-47.0-1.7","SS1613100732402","trial","","40","800","1136.9999998249114","images/stimuli/spore_stims/simple_14_B_b.gif","images/stimuli/spore_stims/simple_02_A_a.gif","","","","","13","simple_dissimilar","images/stimuli/spore_stims/simple_14_B_b.gif","right","","","","",""
"","4283.999999985099","html-keyboard-response","258","577634","0.0-48.0","SS1613100732402","pref_question","","50","","","","","<video width ='960' height = '540' style='padding-top:8%' autoplay muted><source src='images/stimuli/wall_pref.mp4' type='video/mp4'></video>","2","middle","45%","13","","","","","","","",""
"","2860.000000335276","sequential-stimulus-presentation","259","581314","0.0-49.0","SS1613100732402","pref_reveal","","40","800","3660.000000335276","null","null","","","","","13","","","","background","","","",""
"","null","html-keyboard-response","260","582264","0.0-50.0-0.0","SS1613100732402","","","null","","","","","<p><img src= images/blank.png width =""200"" height = ""200"" style = ""float:right""></p><p><img src=images/blank.png width =""800"" height = ""200""></p>","","","","","","","","","","","",""
"","180.99999986588955","sequential-stimulus-presentation","261","583260","0.0-50.0-1.0","SS1613100732402","trial","","40","800","980.9999998658895","images/stimuli/spore_stims/simple_11_B_b.gif","images/stimuli/spore_stims/simple_11_A_b.gif","","","","","14","simple_similar","images/stimuli/spore_stims/simple_11_A_b.gif","middle","","","","",""
"","null","html-keyboard-response","262","584553","0.0-50.0-0.1","SS1613100732402","","","null","","","","","<p><img src= images/blank.png width =""200"" height = ""200"" style = ""float:right""></p><p><img src=images/blank.png width =""800"" height = ""200""></p>","","","","","","","","","","","",""
"","1845.9999999031425","sequential-stimulus-presentation","263","587214","0.0-50.0-1.1","SS1613100732402","trial","","40","800","2645.9999999031425","images/stimuli/spore_stims/simple_11_B_b.gif","images/stimuli/spore_stims/simple_11_A_b.gif","","","","","14","simple_similar","images/stimuli/spore_stims/simple_11_A_b.gif","middle","","","","",""
"","null","html-keyboard-response","264","588480","0.0-50.0-0.2","SS1613100732402","","","null","","","","","<p><img src= images/blank.png width =""200"" height = ""200"" style = ""float:right""></p><p><img src=images/blank.png width =""800"" height = ""200""></p>","","","","","","","","","","","",""
"","187.0000003837049","sequential-stimulus-presentation","265","589472","0.0-50.0-1.2","SS1613100732402","trial","","40","800","987.0000003837049","images/stimuli/spore_stims/simple_11_B_b.gif","images/stimuli/spore_stims/simple_11_A_b.gif","","","","","14","simple_similar","images/stimuli/spore_stims/simple_11_A_b.gif","middle","","","","",""
"","null","html-keyboard-response","266","590751","0.0-50.0-0.3","SS1613100732402","","","null","","","","","<p><img src= images/blank.png width =""200"" height = ""200"" style = ""float:right""></p><p><img src=images/blank.png width =""800"" height = ""200""></p>","","","","","","","","","","","",""
"","89.0000001527369","sequential-stimulus-presentation","267","591652","0.0-50.0-1.3","SS1613100732402","trial","","40","800","889.0000001527369","images/stimuli/spore_stims/simple_11_B_b.gif","images/stimuli/spore_stims/simple_11_A_b.gif","","","","","14","simple_similar","images/stimuli/spore_stims/simple_11_A_b.gif","middle","","","","",""
"","null","html-keyboard-response","268","592797","0.0-50.0-0.4","SS1613100732402","","","null","","","","","<p><img src= images/blank.png width =""200"" height = ""200"" style = ""float:right""></p><p><img src=images/blank.png width =""800"" height = ""200""></p>","","","","","","","","","","","",""
"","1863.9999995939434","sequential-stimulus-presentation","269","595474","0.0-50.0-1.4","SS1613100732402","trial","","40","800","2663.9999995939434","images/stimuli/spore_stims/simple_11_B_b.gif","images/stimuli/spore_stims/simple_11_A_b.gif","","","","","14","simple_similar","images/stimuli/spore_stims/simple_11_B_b.gif","left","","","","",""
"","null","html-keyboard-response","270","596703","0.0-50.0-0.5","SS1613100732402","","","null","","","","","<p><img src= images/blank.png width =""200"" height = ""200"" style = ""float:right""></p><p><img src=images/blank.png width =""800"" height = ""200""></p>","","","","","","","","","","","",""
"","1094.9999997392297","sequential-stimulus-presentation","271","598611","0.0-50.0-1.5","SS1613100732402","trial","","40","800","1894.9999997392297","images/stimuli/spore_stims/simple_11_B_b.gif","images/stimuli/spore_stims/simple_11_A_b.gif","","","","","14","simple_similar","images/stimuli/spore_stims/simple_11_A_b.gif","middle","","","","",""
"","null","html-keyboard-response","272","599748","0.0-50.0-0.6","SS1613100732402","","","null","","","","","<p><img src= images/blank.png width =""200"" height = ""200"" style = ""float:right""></p><p><img src=images/blank.png width =""800"" height = ""200""></p>","","","","","","","","","","","",""
"","125","sequential-stimulus-presentation","273","600691","0.0-50.0-1.6","SS1613100732402","trial","","40","800","925","images/stimuli/spore_stims/simple_11_B_b.gif","images/stimuli/spore_stims/simple_11_A_b.gif","","","","","14","simple_similar","images/stimuli/spore_stims/simple_11_A_b.gif","middle","","","","",""
"","null","html-keyboard-response","274","601940","0.0-50.0-0.7","SS1613100732402","","","null","","","","","<p><img src= images/blank.png width =""200"" height = ""200"" style = ""float:right""></p><p><img src=images/blank.png width =""800"" height = ""200""></p>","","","","","","","","","","","",""
"","1680.9999998658895","sequential-stimulus-presentation","275","604446","0.0-50.0-1.7","SS1613100732402","trial","","40","800","2480.9999998658895","images/stimuli/spore_stims/simple_11_B_b.gif","images/stimuli/spore_stims/simple_11_A_b.gif","","","","","14","simple_similar","images/stimuli/spore_stims/simple_11_A_b.gif","middle","","","","",""
"","1825.999999884516","html-keyboard-response","276","606279","0.0-51.0","SS1613100732402","pref_question","","50","","","","","<video width ='960' height = '540' style='padding-top:8%' autoplay muted><source src='images/stimuli/wall_pref.mp4' type='video/mp4'></video>","2","middle","45%","14","","","","","","","",""
"","813.9999997802079","sequential-stimulus-presentation","277","607913","0.0-52.0","SS1613100732402","pref_reveal","","40","800","1613.9999997802079","null","null","","","","","14","","","","background","","","",""
"","null","html-keyboard-response","278","608731","0.0-53.0-0.0","SS1613100732402","","","null","","","","","<p><img src= images/blank.png width =""200"" height = ""200"" style = ""float:right""></p><p><img src=images/blank.png width =""800"" height = ""200""></p>","","","","","","","","","","","",""
"","598.9999999292195","sequential-stimulus-presentation","279","610142","0.0-53.0-1.0","SS1613100732402","trial","","40","800","1398.9999999292195","images/stimuli/spore_stims/simple_19_A_d.gif","images/stimuli/spore_stims/simple_19_B_d.gif","","","","","15","simple_similar","images/stimuli/spore_stims/simple_19_B_d.gif","middle","","","","",""
"","null","html-keyboard-response","280","611391","0.0-53.0-0.1","SS1613100732402","","","null","","","","","<p><img src= images/blank.png width =""200"" height = ""200"" style = ""float:right""></p><p><img src=images/blank.png width =""800"" height = ""200""></p>","","","","","","","","","","","",""
"","1350.0000000931323","sequential-stimulus-presentation","281","613547","0.0-53.0-1.1","SS1613100732402","trial","","40","800","2150.0000000931323","images/stimuli/spore_stims/simple_19_A_d.gif","images/stimuli/spore_stims/simple_19_B_d.gif","","","","","15","simple_similar","images/stimuli/spore_stims/simple_19_B_d.gif","middle","","","","",""
"","null","html-keyboard-response","282","614423","0.0-53.0-0.2","SS1613100732402","","","null","","","","","<p><img src= images/blank.png width =""200"" height = ""200"" style = ""float:right""></p><p><img src=images/blank.png width =""800"" height = ""200""></p>","","","","","","","","","","","",""
"","103.00000011920929","sequential-stimulus-presentation","283","615341","0.0-53.0-1.2","SS1613100732402","trial","","40","800","903.0000001192093","images/stimuli/spore_stims/simple_19_A_d.gif","images/stimuli/spore_stims/simple_19_B_d.gif","","","","","15","simple_similar","images/stimuli/spore_stims/simple_19_B_d.gif","middle","","","","",""
"","null","html-keyboard-response","284","616276","0.0-53.0-0.3","SS1613100732402","","","null","","","","","<p><img src= images/blank.png width =""200"" height = ""200"" style = ""float:right""></p><p><img src=images/blank.png width =""800"" height = ""200""></p>","","","","","","","","","","","",""
"","177.00000014156103","sequential-stimulus-presentation","285","617280","0.0-53.0-1.3","SS1613100732402","trial","","40","800","977.000000141561","images/stimuli/spore_stims/simple_19_A_d.gif","images/stimuli/spore_stims/simple_19_B_d.gif","","","","","15","simple_similar","images/stimuli/spore_stims/simple_19_B_d.gif","middle","","","","",""
"","null","html-keyboard-response","286","618289","0.0-53.0-0.4","SS1613100732402","","","null","","","","","<p><img src= images/blank.png width =""200"" height = ""200"" style = ""float:right""></p><p><img src=images/blank.png width =""800"" height = ""200""></p>","","","","","","","","","","","",""
"","1297.9999999515712","sequential-stimulus-presentation","287","620406","0.0-53.0-1.4","SS1613100732402","trial","","40","800","2097.999999951571","images/stimuli/spore_stims/simple_19_A_d.gif","images/stimuli/spore_stims/simple_19_B_d.gif","","","","","15","simple_similar","images/stimuli/spore_stims/simple_19_B_d.gif","middle","","","","",""
"","null","html-keyboard-response","288","621235","0.0-53.0-0.5","SS1613100732402","","","null","","","","","<p><img src= images/blank.png width =""200"" height = ""200"" style = ""float:right""></p><p><img src=images/blank.png width =""800"" height = ""200""></p>","","","","","","","","","","","",""
"","140.99999982863665","sequential-stimulus-presentation","289","622194","0.0-53.0-1.5","SS1613100732402","trial","","40","800","940.9999998286366","images/stimuli/spore_stims/simple_19_A_d.gif","images/stimuli/spore_stims/simple_19_B_d.gif","","","","","15","simple_similar","images/stimuli/spore_stims/simple_19_B_d.gif","middle","","","","",""
"","null","html-keyboard-response","290","623175","0.0-53.0-0.6","SS1613100732402","","","null","","","","","<p><img src= images/blank.png width =""200"" height = ""200"" style = ""float:right""></p><p><img src=images/blank.png width =""800"" height = ""200""></p>","","","","","","","","","","","",""
"","1587.9999999888241","sequential-stimulus-presentation","291","625572","0.0-53.0-1.6","SS1613100732402","trial","","40","800","2387.999999988824","images/stimuli/spore_stims/simple_19_A_d.gif","images/stimuli/spore_stims/simple_19_B_d.gif","","","","","15","simple_similar","images/stimuli/spore_stims/simple_19_A_d.gif","left","","","","",""
"","null","html-keyboard-response","292","626460","0.0-53.0-0.7","SS1613100732402","","","null","","","","","<p><img src= images/blank.png width =""200"" height = ""200"" style = ""float:right""></p><p><img src=images/blank.png width =""800"" height = ""200""></p>","","","","","","","","","","","",""
"","66.00000010803342","sequential-stimulus-presentation","293","627343","0.0-53.0-1.7","SS1613100732402","trial","","40","800","866.0000001080334","images/stimuli/spore_stims/simple_19_A_d.gif","images/stimuli/spore_stims/simple_19_B_d.gif","","","","","15","simple_similar","images/stimuli/spore_stims/simple_19_B_d.gif","middle","","","","",""
"","1984.0000001713634","html-keyboard-response","294","629334","0.0-54.0","SS1613100732402","pref_question","","50","","","","","<video width ='960' height = '540' style='padding-top:8%' autoplay muted><source src='images/stimuli/wall_pref.mp4' type='video/mp4'></video>","2","middle","45%","15","","","","","","","",""
"","2331.99999993667","sequential-stimulus-presentation","295","632476","0.0-55.0","SS1613100732402","pref_reveal","","40","800","3131.99999993667","null","null","","","","","15","","","","background","","","",""
"","null","html-keyboard-response","296","633445","0.0-56.0-0.0","SS1613100732402","","","null","","","","","<p><img src= images/blank.png width =""200"" height = ""200"" style = ""float:right""></p><p><img src=images/blank.png width =""800"" height = ""200""></p>","","","","","","","","","","","",""
"","2375.9999996982515","sequential-stimulus-presentation","297","636643","0.0-56.0-1.0","SS1613100732402","trial","","40","800","3175.9999996982515","images/stimuli/spore_stims/simple_08_B_d.gif","images/stimuli/spore_stims/simple_07_B_a.gif","","","","","16","simple_dissimilar","images/stimuli/spore_stims/simple_07_B_a.gif","right","","","","",""
"","null","html-keyboard-response","298","637872","0.0-56.0-0.1","SS1613100732402","","","null","","","","","<p><img src= images/blank.png width =""200"" height = ""200"" style = ""float:right""></p><p><img src=images/blank.png width =""800"" height = ""200""></p>","","","","","","","","","","","",""
"","1462.9999999888241","sequential-stimulus-presentation","299","640162","0.0-56.0-1.1","SS1613100732402","trial","","40","800","2262.999999988824","images/stimuli/spore_stims/simple_08_B_d.gif","images/stimuli/spore_stims/simple_07_B_a.gif","","","","","16","simple_dissimilar","images/stimuli/spore_stims/simple_07_B_a.gif","right","","","","",""
"","null","html-keyboard-response","300","641300","0.0-56.0-0.2","SS1613100732402","","","null","","","","","<p><img src= images/blank.png width =""200"" height = ""200"" style = ""float:right""></p><p><img src=images/blank.png width =""800"" height = ""200""></p>","","","","","","","","","","","",""
"","2109.999999869615","sequential-stimulus-presentation","301","644227","0.0-56.0-1.2","SS1613100732402","trial","","40","800","2909.999999869615","images/stimuli/spore_stims/simple_08_B_d.gif","images/stimuli/spore_stims/simple_07_B_a.gif","","","","","16","simple_dissimilar","images/stimuli/spore_stims/simple_07_B_a.gif","right","","","","",""
"","null","html-keyboard-response","302","645296","0.0-56.0-0.3","SS1613100732402","","","null","","","","","<p><img src= images/blank.png width =""200"" height = ""200"" style = ""float:right""></p><p><img src=images/blank.png width =""800"" height = ""200""></p>","","","","","","","","","","","",""
"","1268.0000001564622","sequential-stimulus-presentation","303","647391","0.0-56.0-1.3","SS1613100732402","trial","","40","800","2068.000000156462","images/stimuli/spore_stims/simple_08_B_d.gif","images/stimuli/spore_stims/simple_07_B_a.gif","","","","","16","simple_dissimilar","images/stimuli/spore_stims/simple_07_B_a.gif","right","","","","",""
"","null","html-keyboard-response","304","648534","0.0-56.0-0.4","SS1613100732402","","","null","","","","","<p><img src= images/blank.png width =""200"" height = ""200"" style = ""float:right""></p><p><img src=images/blank.png width =""800"" height = ""200""></p>","","","","","","","","","","","",""
"","23.000000044703484","sequential-stimulus-presentation","305","649374","0.0-56.0-1.4","SS1613100732402","trial","","40","800","823.0000000447035","images/stimuli/spore_stims/simple_08_B_d.gif","images/stimuli/spore_stims/simple_07_B_a.gif","","","","","16","simple_dissimilar","images/stimuli/spore_stims/simple_08_B_d.gif","middle","","","","",""
"","null","html-keyboard-response","306","650645","0.0-56.0-0.5","SS1613100732402","","","null","","","","","<p><img src= images/blank.png width =""200"" height = ""200"" style = ""float:right""></p><p><img src=images/blank.png width =""800"" height = ""200""></p>","","","","","","","","","","","",""
"","1837.9999999888241","sequential-stimulus-presentation","307","653309","0.0-56.0-1.5","SS1613100732402","trial","","40","800","2637.999999988824","images/stimuli/spore_stims/simple_08_B_d.gif","images/stimuli/spore_stims/simple_07_B_a.gif","","","","","16","simple_dissimilar","images/stimuli/spore_stims/simple_07_B_a.gif","right","","","","",""
"","null","html-keyboard-response","308","654349","0.0-56.0-0.6","SS1613100732402","","","null","","","","","<p><img src= images/blank.png width =""200"" height = ""200"" style = ""float:right""></p><p><img src=images/blank.png width =""800"" height = ""200""></p>","","","","","","","","","","","",""
"","7677.9999998398125","sequential-stimulus-presentation","309","662862","0.0-56.0-1.6","SS1613100732402","trial","","40","800","8477.999999839813","images/stimuli/spore_stims/simple_08_B_d.gif","images/stimuli/spore_stims/simple_07_B_a.gif","","","","","16","simple_dissimilar","images/stimuli/spore_stims/simple_07_B_a.gif","right","","","","",""
"","null","html-keyboard-response","310","663908","0.0-56.0-0.7","SS1613100732402","","","null","","","","","<p><img src= images/blank.png width =""200"" height = ""200"" style = ""float:right""></p><p><img src=images/blank.png width =""800"" height = ""200""></p>","","","","","","","","","","","",""
"","1219.9999997392297","sequential-stimulus-presentation","311","665944","0.0-56.0-1.7","SS1613100732402","trial","","40","800","2019.9999997392297","images/stimuli/spore_stims/simple_08_B_d.gif","images/stimuli/spore_stims/simple_07_B_a.gif","","","","","16","simple_dissimilar","images/stimuli/spore_stims/simple_07_B_a.gif","right","","","","",""
"","2381.000000052154","html-keyboard-response","312","668335","0.0-57.0","SS1613100732402","pref_question","","51","","","","","<video width ='960' height = '540' style='padding-top:8%' autoplay muted><source src='images/stimuli/wall_pref.mp4' type='video/mp4'></video>","3","right","66%","16","","","","","","","",""
