"view_history","rt","trial_type","trial_index","time_elapsed","internal_node_id","subject","stimulus_type","trial_stimulus","key_press","minimum_viewing_duration","trial_looking_time","block_deviant","block_background","stimulus","wall_pref","location","location_percent","block_number","block_type","stimulus_displayed","position_displayed","stim_type_selected","responses","question_order","stimulus_left","stimulus_right"
"[{""page_index"":0,""viewing_time"":2522.5700000009965}]","2523.670000000493","instructions","0","2529","0.0-0.0","SS1613141124604","","","","","","","","","","","","","","","","","","","",""
"[{""page_index"":0,""viewing_time"":2214.6749999992608},{""page_index"":1,""viewing_time"":4757.564999999886}]","6972.874999999476","instructions","1","11508","0.0-1.0","SS1613141124604","instructions","","","","","","","","","","","","","","","","","","",""
"","3227.504999998928","sequential-stimulus-presentation","2","15546","0.0-2.0","SS1613141124604","","","40","800","4027.504999998928","null","null","","","","","","","","","","","","",""
"","3447.360000000117","sequential-stimulus-presentation","3","19804","0.0-3.0","SS1613141124604","","","40","800","4247.360000000117","null","null","","","","","","","","","","","","",""
"[{""page_index"":0,""viewing_time"":2371.7149999993126}]","2372.30499999896","instructions","4","22178","0.0-4.0","SS1613141124604","instructions","","","","","","","","","","","","","","","","","","",""
"","3847.2949999995762","html-keyboard-response","5","26033","0.0-5.0","SS1613141124604","instructions","","49","","","","","<video width ='960' height = '540' autoplay muted><source src='images/stimuli/wall_pref.mp4' type='video/mp4'></video>","1","left","25%","","","","","","","","",""
"","475.45499999978347","sequential-stimulus-presentation","6","27319","0.0-6.0","SS1613141124604","pref_reveal","","40","800","1275.4549999997835","null","null","","","","","","","","","","","","",""
"[{""page_index"":0,""viewing_time"":3150.550000000294},{""page_index"":1,""viewing_time"":2011.5700000005745},{""page_index"":2,""viewing_time"":830.2100000000792},{""page_index"":3,""viewing_time"":580.9599999993225}]","6573.985000000903","instructions","7","33895","0.0-7.0","SS1613141124604","instructions","","","","","","","","","","","","","","","","","","",""
"","null","html-keyboard-response","8","34960","0.0-8.0-0.0","SS1613141124604","","","null","","","","","<p><img src= images/blank.png width =""200"" height = ""200"" style = ""float:right""></p><p><img src=images/blank.png width =""800"" height = ""200""></p>","","","","","","","","","","","",""
"","3257.3750000010477","sequential-stimulus-presentation","9","39036","0.0-8.0-1.0","SS1613141124604","trial","","40","800","4057.3750000010477","images/stimuli/spore_stims/complex_02_B_c.gif","images/stimuli/spore_stims/complex_09_A_b.gif","","","","","0","complex_dissimilar","images/stimuli/spore_stims/complex_09_A_b.gif","middle","","","","",""
"","null","html-keyboard-response","10","40078","0.0-8.0-0.1","SS1613141124604","","","null","","","","","<p><img src= images/blank.png width =""200"" height = ""200"" style = ""float:right""></p><p><img src=images/blank.png width =""800"" height = ""200""></p>","","","","","","","","","","","",""
"","719.9600000003556","sequential-stimulus-presentation","11","41611","0.0-8.0-1.1","SS1613141124604","trial","","40","800","1519.9600000003556","images/stimuli/spore_stims/complex_02_B_c.gif","images/stimuli/spore_stims/complex_09_A_b.gif","","","","","0","complex_dissimilar","images/stimuli/spore_stims/complex_09_A_b.gif","middle","","","","",""
"","null","html-keyboard-response","12","42608","0.0-8.0-0.2","SS1613141124604","","","null","","","","","<p><img src= images/blank.png width =""200"" height = ""200"" style = ""float:right""></p><p><img src=images/blank.png width =""800"" height = ""200""></p>","","","","","","","","","","","",""
"","922.9500000001281","sequential-stimulus-presentation","13","44345","0.0-8.0-1.2","SS1613141124604","trial","","40","800","1722.950000000128","images/stimuli/spore_stims/complex_02_B_c.gif","images/stimuli/spore_stims/complex_09_A_b.gif","","","","","0","complex_dissimilar","images/stimuli/spore_stims/complex_09_A_b.gif","middle","","","","",""
"","null","html-keyboard-response","14","45621","0.0-8.0-0.3","SS1613141124604","","","null","","","","","<p><img src= images/blank.png width =""200"" height = ""200"" style = ""float:right""></p><p><img src=images/blank.png width =""800"" height = ""200""></p>","","","","","","","","","","","",""
"","1335.1949999996577","sequential-stimulus-presentation","15","47769","0.0-8.0-1.3","SS1613141124604","trial","","40","800","2135.1949999996577","images/stimuli/spore_stims/complex_02_B_c.gif","images/stimuli/spore_stims/complex_09_A_b.gif","","","","","0","complex_dissimilar","images/stimuli/spore_stims/complex_02_B_c.gif","right","","","","",""
"","null","html-keyboard-response","16","48593","0.0-8.0-0.4","SS1613141124604","","","null","","","","","<p><img src= images/blank.png width =""200"" height = ""200"" style = ""float:right""></p><p><img src=images/blank.png width =""800"" height = ""200""></p>","","","","","","","","","","","",""
"","93.75999999974738","sequential-stimulus-presentation","17","49501","0.0-8.0-1.4","SS1613141124604","trial","","40","800","893.7599999997474","images/stimuli/spore_stims/complex_02_B_c.gif","images/stimuli/spore_stims/complex_09_A_b.gif","","","","","0","complex_dissimilar","images/stimuli/spore_stims/complex_09_A_b.gif","middle","","","","",""
"","null","html-keyboard-response","18","50328","0.0-8.0-0.5","SS1613141124604","","","null","","","","","<p><img src= images/blank.png width =""200"" height = ""200"" style = ""float:right""></p><p><img src=images/blank.png width =""800"" height = ""200""></p>","","","","","","","","","","","",""
"","915.8100000004197","sequential-stimulus-presentation","19","52057","0.0-8.0-1.5","SS1613141124604","trial","","40","800","1715.8100000004197","images/stimuli/spore_stims/complex_02_B_c.gif","images/stimuli/spore_stims/complex_09_A_b.gif","","","","","0","complex_dissimilar","images/stimuli/spore_stims/complex_09_A_b.gif","middle","","","","",""
"","null","html-keyboard-response","20","53355","0.0-8.0-0.6","SS1613141124604","","","null","","","","","<p><img src= images/blank.png width =""200"" height = ""200"" style = ""float:right""></p><p><img src=images/blank.png width =""800"" height = ""200""></p>","","","","","","","","","","","",""
"","2275.2400000008492","sequential-stimulus-presentation","21","56442","0.0-8.0-1.6","SS1613141124604","trial","","40","800","3075.2400000008492","images/stimuli/spore_stims/complex_02_B_c.gif","images/stimuli/spore_stims/complex_09_A_b.gif","","","","","0","complex_dissimilar","images/stimuli/spore_stims/complex_09_A_b.gif","middle","","","","",""
"","null","html-keyboard-response","22","57713","0.0-8.0-0.7","SS1613141124604","","","null","","","","","<p><img src= images/blank.png width =""200"" height = ""200"" style = ""float:right""></p><p><img src=images/blank.png width =""800"" height = ""200""></p>","","","","","","","","","","","",""
"","1893.7150000001566","sequential-stimulus-presentation","23","60420","0.0-8.0-1.7","SS1613141124604","trial","","40","800","2693.7150000001566","images/stimuli/spore_stims/complex_02_B_c.gif","images/stimuli/spore_stims/complex_09_A_b.gif","","","","","0","complex_dissimilar","images/stimuli/spore_stims/complex_09_A_b.gif","middle","","","","",""
"","1888.9799999997194","html-keyboard-response","24","62351","0.0-9.0","SS1613141124604","pref_question","","49","","","","","<video width ='960' height = '540' style='padding-top:8%' autoplay muted><source src='images/stimuli/wall_pref.mp4' type='video/mp4'></video>","1","left","25%","0","","","","","","","",""
"","383.9400000015303","sequential-stimulus-presentation","25","63545","0.0-10.0","SS1613141124604","pref_reveal","","40","800","1183.9400000015303","null","null","","","","","0","","","","novel","","","",""
"","null","html-keyboard-response","26","64653","0.0-11.0-0.0","SS1613141124604","","","null","","","","","<p><img src= images/blank.png width =""200"" height = ""200"" style = ""float:right""></p><p><img src=images/blank.png width =""800"" height = ""200""></p>","","","","","","","","","","","",""
"","1786.4650000010442","sequential-stimulus-presentation","27","67252","0.0-11.0-1.0","SS1613141124604","trial","","40","800","2586.4650000010442","images/stimuli/spore_stims/simple_10_A_d.gif","images/stimuli/spore_stims/simple_10_B_d.gif","","","","","1","simple_similar","images/stimuli/spore_stims/simple_10_B_d.gif","left","","","","",""
"","null","html-keyboard-response","28","68339","0.0-11.0-0.1","SS1613141124604","","","null","","","","","<p><img src= images/blank.png width =""200"" height = ""200"" style = ""float:right""></p><p><img src=images/blank.png width =""800"" height = ""200""></p>","","","","","","","","","","","",""
"","1796.9000000011874","sequential-stimulus-presentation","29","70953","0.0-11.0-1.1","SS1613141124604","trial","","40","800","2596.9000000011874","images/stimuli/spore_stims/simple_10_A_d.gif","images/stimuli/spore_stims/simple_10_B_d.gif","","","","","1","simple_similar","images/stimuli/spore_stims/simple_10_B_d.gif","left","","","","",""
"","null","html-keyboard-response","30","72033","0.0-11.0-0.2","SS1613141124604","","","null","","","","","<p><img src= images/blank.png width =""200"" height = ""200"" style = ""float:right""></p><p><img src=images/blank.png width =""800"" height = ""200""></p>","","","","","","","","","","","",""
"","996.064999999362","sequential-stimulus-presentation","31","73844","0.0-11.0-1.2","SS1613141124604","trial","","40","800","1796.064999999362","images/stimuli/spore_stims/simple_10_A_d.gif","images/stimuli/spore_stims/simple_10_B_d.gif","","","","","1","simple_similar","images/stimuli/spore_stims/simple_10_B_d.gif","left","","","","",""
"","null","html-keyboard-response","32","75108","0.0-11.0-0.3","SS1613141124604","","","null","","","","","<p><img src= images/blank.png width =""200"" height = ""200"" style = ""float:right""></p><p><img src=images/blank.png width =""800"" height = ""200""></p>","","","","","","","","","","","",""
"","1334.1850000015256","sequential-stimulus-presentation","33","77261","0.0-11.0-1.3","SS1613141124604","trial","","40","800","2134.1850000015256","images/stimuli/spore_stims/simple_10_A_d.gif","images/stimuli/spore_stims/simple_10_B_d.gif","","","","","1","simple_similar","images/stimuli/spore_stims/simple_10_B_d.gif","left","","","","",""
"","null","html-keyboard-response","34","78362","0.0-11.0-0.4","SS1613141124604","","","null","","","","","<p><img src= images/blank.png width =""200"" height = ""200"" style = ""float:right""></p><p><img src=images/blank.png width =""800"" height = ""200""></p>","","","","","","","","","","","",""
"","933.2849999991595","sequential-stimulus-presentation","35","80114","0.0-11.0-1.4","SS1613141124604","trial","","40","800","1733.2849999991595","images/stimuli/spore_stims/simple_10_A_d.gif","images/stimuli/spore_stims/simple_10_B_d.gif","","","","","1","simple_similar","images/stimuli/spore_stims/simple_10_B_d.gif","left","","","","",""
"","null","html-keyboard-response","36","81234","0.0-11.0-0.5","SS1613141124604","","","null","","","","","<p><img src= images/blank.png width =""200"" height = ""200"" style = ""float:right""></p><p><img src=images/blank.png width =""800"" height = ""200""></p>","","","","","","","","","","","",""
"","292.250000000422","sequential-stimulus-presentation","37","82339","0.0-11.0-1.5","SS1613141124604","trial","","40","800","1092.250000000422","images/stimuli/spore_stims/simple_10_A_d.gif","images/stimuli/spore_stims/simple_10_B_d.gif","","","","","1","simple_similar","images/stimuli/spore_stims/simple_10_B_d.gif","left","","","","",""
"","null","html-keyboard-response","38","83622","0.0-11.0-0.6","SS1613141124604","","","null","","","","","<p><img src= images/blank.png width =""200"" height = ""200"" style = ""float:right""></p><p><img src=images/blank.png width =""800"" height = ""200""></p>","","","","","","","","","","","",""
"","2152.9299999983778","sequential-stimulus-presentation","39","86591","0.0-11.0-1.6","SS1613141124604","trial","","40","800","2952.9299999983778","images/stimuli/spore_stims/simple_10_A_d.gif","images/stimuli/spore_stims/simple_10_B_d.gif","","","","","1","simple_similar","images/stimuli/spore_stims/simple_10_A_d.gif","middle","","","","",""
"","null","html-keyboard-response","40","87536","0.0-11.0-0.7","SS1613141124604","","","null","","","","","<p><img src= images/blank.png width =""200"" height = ""200"" style = ""float:right""></p><p><img src=images/blank.png width =""800"" height = ""200""></p>","","","","","","","","","","","",""
"","422.02999999972235","sequential-stimulus-presentation","41","88772","0.0-11.0-1.7","SS1613141124604","trial","","40","800","1222.0299999997223","images/stimuli/spore_stims/simple_10_A_d.gif","images/stimuli/spore_stims/simple_10_B_d.gif","","","","","1","simple_similar","images/stimuli/spore_stims/simple_10_B_d.gif","left","","","","",""
"","1373.410000000149","html-keyboard-response","42","90151","0.0-12.0","SS1613141124604","pref_question","","51","","","","","<video width ='960' height = '540' style='padding-top:8%' autoplay muted><source src='images/stimuli/wall_pref.mp4' type='video/mp4'></video>","3","right","66%","1","","","","","","","",""
"","308.6199999997916","sequential-stimulus-presentation","43","91268","0.0-13.0","SS1613141124604","pref_reveal","","40","800","1108.6199999997916","null","null","","","","","1","","","","novel","","","",""
"","null","html-keyboard-response","44","92124","0.0-14.0-0.0","SS1613141124604","","","null","","","","","<p><img src= images/blank.png width =""200"" height = ""200"" style = ""float:right""></p><p><img src=images/blank.png width =""800"" height = ""200""></p>","","","","","","","","","","","",""
"","184.62999999974272","sequential-stimulus-presentation","45","93123","0.0-14.0-1.0","SS1613141124604","trial","","40","800","984.6299999997427","images/stimuli/spore_stims/complex_16_A_d.gif","images/stimuli/spore_stims/complex_02_A_a.gif","","","","","2","complex_dissimilar","images/stimuli/spore_stims/complex_02_A_a.gif","middle","","","","",""
"","null","html-keyboard-response","46","93986","0.0-14.0-0.1","SS1613141124604","","","null","","","","","<p><img src= images/blank.png width =""200"" height = ""200"" style = ""float:right""></p><p><img src=images/blank.png width =""800"" height = ""200""></p>","","","","","","","","","","","",""
"","2311.650000001464","sequential-stimulus-presentation","47","97117","0.0-14.0-1.1","SS1613141124604","trial","","40","800","3111.650000001464","images/stimuli/spore_stims/complex_16_A_d.gif","images/stimuli/spore_stims/complex_02_A_a.gif","","","","","2","complex_dissimilar","images/stimuli/spore_stims/complex_02_A_a.gif","middle","","","","",""
"","null","html-keyboard-response","48","98273","0.0-14.0-0.2","SS1613141124604","","","null","","","","","<p><img src= images/blank.png width =""200"" height = ""200"" style = ""float:right""></p><p><img src=images/blank.png width =""800"" height = ""200""></p>","","","","","","","","","","","",""
"","59.71500000123342","sequential-stimulus-presentation","49","99149","0.0-14.0-1.2","SS1613141124604","trial","","40","800","859.7150000012334","images/stimuli/spore_stims/complex_16_A_d.gif","images/stimuli/spore_stims/complex_02_A_a.gif","","","","","2","complex_dissimilar","images/stimuli/spore_stims/complex_02_A_a.gif","middle","","","","",""
"","null","html-keyboard-response","50","100235","0.0-14.0-0.3","SS1613141124604","","","null","","","","","<p><img src= images/blank.png width =""200"" height = ""200"" style = ""float:right""></p><p><img src=images/blank.png width =""800"" height = ""200""></p>","","","","","","","","","","","",""
"","1633.045000000493","sequential-stimulus-presentation","51","102682","0.0-14.0-1.3","SS1613141124604","trial","","40","800","2433.045000000493","images/stimuli/spore_stims/complex_16_A_d.gif","images/stimuli/spore_stims/complex_02_A_a.gif","","","","","2","complex_dissimilar","images/stimuli/spore_stims/complex_02_A_a.gif","middle","","","","",""
"","null","html-keyboard-response","52","103929","0.0-14.0-0.4","SS1613141124604","","","null","","","","","<p><img src= images/blank.png width =""200"" height = ""200"" style = ""float:right""></p><p><img src=images/blank.png width =""800"" height = ""200""></p>","","","","","","","","","","","",""
"","1792.3549999995885","sequential-stimulus-presentation","53","106540","0.0-14.0-1.4","SS1613141124604","trial","","40","800","2592.3549999995885","images/stimuli/spore_stims/complex_16_A_d.gif","images/stimuli/spore_stims/complex_02_A_a.gif","","","","","2","complex_dissimilar","images/stimuli/spore_stims/complex_02_A_a.gif","middle","","","","",""
"","null","html-keyboard-response","54","107646","0.0-14.0-0.5","SS1613141124604","","","null","","","","","<p><img src= images/blank.png width =""200"" height = ""200"" style = ""float:right""></p><p><img src=images/blank.png width =""800"" height = ""200""></p>","","","","","","","","","","","",""
"","1523.8449999997101","sequential-stimulus-presentation","55","109986","0.0-14.0-1.5","SS1613141124604","trial","","40","800","2323.84499999971","images/stimuli/spore_stims/complex_16_A_d.gif","images/stimuli/spore_stims/complex_02_A_a.gif","","","","","2","complex_dissimilar","images/stimuli/spore_stims/complex_02_A_a.gif","middle","","","","",""
"","null","html-keyboard-response","56","111274","0.0-14.0-0.6","SS1613141124604","","","null","","","","","<p><img src= images/blank.png width =""200"" height = ""200"" style = ""float:right""></p><p><img src=images/blank.png width =""800"" height = ""200""></p>","","","","","","","","","","","",""
"","2619.344999999157","sequential-stimulus-presentation","57","114710","0.0-14.0-1.6","SS1613141124604","trial","","40","800","3419.344999999157","images/stimuli/spore_stims/complex_16_A_d.gif","images/stimuli/spore_stims/complex_02_A_a.gif","","","","","2","complex_dissimilar","images/stimuli/spore_stims/complex_16_A_d.gif","left","","","","",""
"","null","html-keyboard-response","58","115795","0.0-14.0-0.7","SS1613141124604","","","null","","","","","<p><img src= images/blank.png width =""200"" height = ""200"" style = ""float:right""></p><p><img src=images/blank.png width =""800"" height = ""200""></p>","","","","","","","","","","","",""
"","705.4100000004837","sequential-stimulus-presentation","59","117310","0.0-14.0-1.7","SS1613141124604","trial","","40","800","1505.4100000004837","images/stimuli/spore_stims/complex_16_A_d.gif","images/stimuli/spore_stims/complex_02_A_a.gif","","","","","2","complex_dissimilar","images/stimuli/spore_stims/complex_02_A_a.gif","middle","","","","",""
"","1221.0350000004837","html-keyboard-response","60","118538","0.0-15.0","SS1613141124604","pref_question","","51","","","","","<video width ='960' height = '540' style='padding-top:8%' autoplay muted><source src='images/stimuli/wall_pref.mp4' type='video/mp4'></video>","3","right","66%","2","","","","","","","",""
"","2147.9350000008562","sequential-stimulus-presentation","61","121495","0.0-16.0","SS1613141124604","pref_reveal","","40","800","2947.9350000008562","null","null","","","","","2","","","","novel","","","",""
"","null","html-keyboard-response","62","122510","0.0-17.0-0.0","SS1613141124604","","","null","","","","","<p><img src= images/blank.png width =""200"" height = ""200"" style = ""float:right""></p><p><img src=images/blank.png width =""800"" height = ""200""></p>","","","","","","","","","","","",""
"","2704.9799999985844","sequential-stimulus-presentation","63","126069","0.0-17.0-1.0","SS1613141124604","trial","","40","800","3504.9799999985844","images/stimuli/spore_stims/simple_04_A_a.gif","images/stimuli/spore_stims/simple_15_A_a.gif","","","","","3","simple_dissimilar","images/stimuli/spore_stims/simple_15_A_a.gif","middle","","","","",""
"","null","html-keyboard-response","64","127204","0.0-17.0-0.1","SS1613141124604","","","null","","","","","<p><img src= images/blank.png width =""200"" height = ""200"" style = ""float:right""></p><p><img src=images/blank.png width =""800"" height = ""200""></p>","","","","","","","","","","","",""
"","928.0600000002014","sequential-stimulus-presentation","65","128946","0.0-17.0-1.1","SS1613141124604","trial","","40","800","1728.0600000002014","images/stimuli/spore_stims/simple_04_A_a.gif","images/stimuli/spore_stims/simple_15_A_a.gif","","","","","3","simple_dissimilar","images/stimuli/spore_stims/simple_15_A_a.gif","middle","","","","",""
"","null","html-keyboard-response","66","129793","0.0-17.0-0.2","SS1613141124604","","","null","","","","","<p><img src= images/blank.png width =""200"" height = ""200"" style = ""float:right""></p><p><img src=images/blank.png width =""800"" height = ""200""></p>","","","","","","","","","","","",""
"","624.2700000002515","sequential-stimulus-presentation","67","131236","0.0-17.0-1.2","SS1613141124604","trial","","40","800","1424.2700000002515","images/stimuli/spore_stims/simple_04_A_a.gif","images/stimuli/spore_stims/simple_15_A_a.gif","","","","","3","simple_dissimilar","images/stimuli/spore_stims/simple_15_A_a.gif","middle","","","","",""
"","null","html-keyboard-response","68","132191","0.0-17.0-0.3","SS1613141124604","","","null","","","","","<p><img src= images/blank.png width =""200"" height = ""200"" style = ""float:right""></p><p><img src=images/blank.png width =""800"" height = ""200""></p>","","","","","","","","","","","",""
"","2429.6449999983597","sequential-stimulus-presentation","69","135439","0.0-17.0-1.3","SS1613141124604","trial","","40","800","3229.6449999983597","images/stimuli/spore_stims/simple_04_A_a.gif","images/stimuli/spore_stims/simple_15_A_a.gif","","","","","3","simple_dissimilar","images/stimuli/spore_stims/simple_04_A_a.gif","right","","","","",""
"","null","html-keyboard-response","70","136472","0.0-17.0-0.4","SS1613141124604","","","null","","","","","<p><img src= images/blank.png width =""200"" height = ""200"" style = ""float:right""></p><p><img src=images/blank.png width =""800"" height = ""200""></p>","","","","","","","","","","","",""
"","1429.0750000000116","sequential-stimulus-presentation","71","138722","0.0-17.0-1.4","SS1613141124604","trial","","40","800","2229.0750000000116","images/stimuli/spore_stims/simple_04_A_a.gif","images/stimuli/spore_stims/simple_15_A_a.gif","","","","","3","simple_dissimilar","images/stimuli/spore_stims/simple_15_A_a.gif","middle","","","","",""
"","null","html-keyboard-response","72","139568","0.0-17.0-0.5","SS1613141124604","","","null","","","","","<p><img src= images/blank.png width =""200"" height = ""200"" style = ""float:right""></p><p><img src=images/blank.png width =""800"" height = ""200""></p>","","","","","","","","","","","",""
"","768.0700000000652","sequential-stimulus-presentation","73","141151","0.0-17.0-1.5","SS1613141124604","trial","","40","800","1568.0700000000652","images/stimuli/spore_stims/simple_04_A_a.gif","images/stimuli/spore_stims/simple_15_A_a.gif","","","","","3","simple_dissimilar","images/stimuli/spore_stims/simple_15_A_a.gif","middle","","","","",""
"","null","html-keyboard-response","74","142253","0.0-17.0-0.6","SS1613141124604","","","null","","","","","<p><img src= images/blank.png width =""200"" height = ""200"" style = ""float:right""></p><p><img src=images/blank.png width =""800"" height = ""200""></p>","","","","","","","","","","","",""
"","821.4699999989243","sequential-stimulus-presentation","75","143895","0.0-17.0-1.6","SS1613141124604","trial","","40","800","1621.4699999989243","images/stimuli/spore_stims/simple_04_A_a.gif","images/stimuli/spore_stims/simple_15_A_a.gif","","","","","3","simple_dissimilar","images/stimuli/spore_stims/simple_15_A_a.gif","middle","","","","",""
"","null","html-keyboard-response","76","144811","0.0-17.0-0.7","SS1613141124604","","","null","","","","","<p><img src= images/blank.png width =""200"" height = ""200"" style = ""float:right""></p><p><img src=images/blank.png width =""800"" height = ""200""></p>","","","","","","","","","","","",""
"","790.5799999989395","sequential-stimulus-presentation","77","146412","0.0-17.0-1.7","SS1613141124604","trial","","40","800","1590.5799999989395","images/stimuli/spore_stims/simple_04_A_a.gif","images/stimuli/spore_stims/simple_15_A_a.gif","","","","","3","simple_dissimilar","images/stimuli/spore_stims/simple_15_A_a.gif","middle","","","","",""
"","1257.7049999999872","html-keyboard-response","78","147676","0.0-18.0","SS1613141124604","pref_question","","49","","","","","<video width ='960' height = '540' style='padding-top:8%' autoplay muted><source src='images/stimuli/wall_pref.mp4' type='video/mp4'></video>","1","left","25%","3","","","","","","","",""
"","3571.700000000419","sequential-stimulus-presentation","79","152105","0.0-19.0","SS1613141124604","pref_reveal","","40","800","4371.700000000419","null","null","","","","","3","","","","novel","","","",""
"","null","html-keyboard-response","80","153175","0.0-20.0-0.0","SS1613141124604","","","null","","","","","<p><img src= images/blank.png width =""200"" height = ""200"" style = ""float:right""></p><p><img src=images/blank.png width =""800"" height = ""200""></p>","","","","","","","","","","","",""
"","2471.255000000383","sequential-stimulus-presentation","81","156457","0.0-20.0-1.0","SS1613141124604","trial","","40","800","3271.255000000383","images/stimuli/spore_stims/complex_03_A_a.gif","images/stimuli/spore_stims/complex_03_B_a.gif","","","","","4","complex_similar","images/stimuli/spore_stims/complex_03_B_a.gif","left","","","","",""
"","null","html-keyboard-response","82","157584","0.0-20.0-0.1","SS1613141124604","","","null","","","","","<p><img src= images/blank.png width =""200"" height = ""200"" style = ""float:right""></p><p><img src=images/blank.png width =""800"" height = ""200""></p>","","","","","","","","","","","",""
"","1048.4450000003562","sequential-stimulus-presentation","83","159450","0.0-20.0-1.1","SS1613141124604","trial","","40","800","1848.4450000003562","images/stimuli/spore_stims/complex_03_A_a.gif","images/stimuli/spore_stims/complex_03_B_a.gif","","","","","4","complex_similar","images/stimuli/spore_stims/complex_03_B_a.gif","left","","","","",""
"","null","html-keyboard-response","84","160403","0.0-20.0-0.2","SS1613141124604","","","null","","","","","<p><img src= images/blank.png width =""200"" height = ""200"" style = ""float:right""></p><p><img src=images/blank.png width =""800"" height = ""200""></p>","","","","","","","","","","","",""
"","682.2350000002189","sequential-stimulus-presentation","85","161904","0.0-20.0-1.2","SS1613141124604","trial","","40","800","1482.2350000002189","images/stimuli/spore_stims/complex_03_A_a.gif","images/stimuli/spore_stims/complex_03_B_a.gif","","","","","4","complex_similar","images/stimuli/spore_stims/complex_03_B_a.gif","left","","","","",""
"","null","html-keyboard-response","86","162775","0.0-20.0-0.3","SS1613141124604","","","null","","","","","<p><img src= images/blank.png width =""200"" height = ""200"" style = ""float:right""></p><p><img src=images/blank.png width =""800"" height = ""200""></p>","","","","","","","","","","","",""
"","1849.9549999996962","sequential-stimulus-presentation","87","165446","0.0-20.0-1.3","SS1613141124604","trial","","40","800","2649.954999999696","images/stimuli/spore_stims/complex_03_A_a.gif","images/stimuli/spore_stims/complex_03_B_a.gif","","","","","4","complex_similar","images/stimuli/spore_stims/complex_03_A_a.gif","right","","","","",""
"","null","html-keyboard-response","88","166443","0.0-20.0-0.4","SS1613141124604","","","null","","","","","<p><img src= images/blank.png width =""200"" height = ""200"" style = ""float:right""></p><p><img src=images/blank.png width =""800"" height = ""200""></p>","","","","","","","","","","","",""
"","392.20999999999185","sequential-stimulus-presentation","89","167652","0.0-20.0-1.4","SS1613141124604","trial","","40","800","1192.2099999999919","images/stimuli/spore_stims/complex_03_A_a.gif","images/stimuli/spore_stims/complex_03_B_a.gif","","","","","4","complex_similar","images/stimuli/spore_stims/complex_03_B_a.gif","left","","","","",""
"","null","html-keyboard-response","90","168516","0.0-20.0-0.5","SS1613141124604","","","null","","","","","<p><img src= images/blank.png width =""200"" height = ""200"" style = ""float:right""></p><p><img src=images/blank.png width =""800"" height = ""200""></p>","","","","","","","","","","","",""
"","346.96499999880325","sequential-stimulus-presentation","91","169673","0.0-20.0-1.5","SS1613141124604","trial","","40","800","1146.9649999988033","images/stimuli/spore_stims/complex_03_A_a.gif","images/stimuli/spore_stims/complex_03_B_a.gif","","","","","4","complex_similar","images/stimuli/spore_stims/complex_03_B_a.gif","left","","","","",""
"","null","html-keyboard-response","92","170591","0.0-20.0-0.6","SS1613141124604","","","null","","","","","<p><img src= images/blank.png width =""200"" height = ""200"" style = ""float:right""></p><p><img src=images/blank.png width =""800"" height = ""200""></p>","","","","","","","","","","","",""
"","749.7700000003679","sequential-stimulus-presentation","93","172168","0.0-20.0-1.6","SS1613141124604","trial","","40","800","1549.7700000003679","images/stimuli/spore_stims/complex_03_A_a.gif","images/stimuli/spore_stims/complex_03_B_a.gif","","","","","4","complex_similar","images/stimuli/spore_stims/complex_03_B_a.gif","left","","","","",""
"","null","html-keyboard-response","94","173395","0.0-20.0-0.7","SS1613141124604","","","null","","","","","<p><img src= images/blank.png width =""200"" height = ""200"" style = ""float:right""></p><p><img src=images/blank.png width =""800"" height = ""200""></p>","","","","","","","","","","","",""
"","708.4249999989115","sequential-stimulus-presentation","95","174921","0.0-20.0-1.7","SS1613141124604","trial","","40","800","1508.4249999989115","images/stimuli/spore_stims/complex_03_A_a.gif","images/stimuli/spore_stims/complex_03_B_a.gif","","","","","4","complex_similar","images/stimuli/spore_stims/complex_03_B_a.gif","left","","","","",""
"","1872.7399999988847","html-keyboard-response","96","176803","0.0-21.0","SS1613141124604","pref_question","","50","","","","","<video width ='960' height = '540' style='padding-top:8%' autoplay muted><source src='images/stimuli/wall_pref.mp4' type='video/mp4'></video>","2","middle","45%","4","","","","","","","",""
"","1941.9550000002491","sequential-stimulus-presentation","97","179555","0.0-22.0","SS1613141124604","pref_reveal","","40","800","2741.955000000249","null","null","","","","","4","","","","novel","","","",""
"","null","html-keyboard-response","98","180534","0.0-23.0-0.0","SS1613141124604","","","null","","","","","<p><img src= images/blank.png width =""200"" height = ""200"" style = ""float:right""></p><p><img src=images/blank.png width =""800"" height = ""200""></p>","","","","","","","","","","","",""
"","2025.5099999994854","sequential-stimulus-presentation","99","183414","0.0-23.0-1.0","SS1613141124604","trial","","40","800","2825.5099999994854","images/stimuli/spore_stims/complex_06_B_b.gif","images/stimuli/spore_stims/complex_13_A_a.gif","","","","","5","complex_dissimilar","images/stimuli/spore_stims/complex_13_A_a.gif","right","","","","",""
"","null","html-keyboard-response","100","184558","0.0-23.0-0.1","SS1613141124604","","","null","","","","","<p><img src= images/blank.png width =""200"" height = ""200"" style = ""float:right""></p><p><img src=images/blank.png width =""800"" height = ""200""></p>","","","","","","","","","","","",""
"","2054.7850000002654","sequential-stimulus-presentation","101","187434","0.0-23.0-1.1","SS1613141124604","trial","","40","800","2854.7850000002654","images/stimuli/spore_stims/complex_06_B_b.gif","images/stimuli/spore_stims/complex_13_A_a.gif","","","","","5","complex_dissimilar","images/stimuli/spore_stims/complex_13_A_a.gif","right","","","","",""
"","null","html-keyboard-response","102","188323","0.0-23.0-0.2","SS1613141124604","","","null","","","","","<p><img src= images/blank.png width =""200"" height = ""200"" style = ""float:right""></p><p><img src=images/blank.png width =""800"" height = ""200""></p>","","","","","","","","","","","",""
"","1819.8900000006543","sequential-stimulus-presentation","103","190962","0.0-23.0-1.2","SS1613141124604","trial","","40","800","2619.8900000006543","images/stimuli/spore_stims/complex_06_B_b.gif","images/stimuli/spore_stims/complex_13_A_a.gif","","","","","5","complex_dissimilar","images/stimuli/spore_stims/complex_13_A_a.gif","right","","","","",""
"","null","html-keyboard-response","104","192034","0.0-23.0-0.3","SS1613141124604","","","null","","","","","<p><img src= images/blank.png width =""200"" height = ""200"" style = ""float:right""></p><p><img src=images/blank.png width =""800"" height = ""200""></p>","","","","","","","","","","","",""
"","1534.7999999994354","sequential-stimulus-presentation","105","194385","0.0-23.0-1.3","SS1613141124604","trial","","40","800","2334.7999999994354","images/stimuli/spore_stims/complex_06_B_b.gif","images/stimuli/spore_stims/complex_13_A_a.gif","","","","","5","complex_dissimilar","images/stimuli/spore_stims/complex_06_B_b.gif","left","","","","",""
"","null","html-keyboard-response","106","195389","0.0-23.0-0.4","SS1613141124604","","","null","","","","","<p><img src= images/blank.png width =""200"" height = ""200"" style = ""float:right""></p><p><img src=images/blank.png width =""800"" height = ""200""></p>","","","","","","","","","","","",""
"","1095.2149999993562","sequential-stimulus-presentation","107","197305","0.0-23.0-1.4","SS1613141124604","trial","","40","800","1895.2149999993562","images/stimuli/spore_stims/complex_06_B_b.gif","images/stimuli/spore_stims/complex_13_A_a.gif","","","","","5","complex_dissimilar","images/stimuli/spore_stims/complex_13_A_a.gif","right","","","","",""
"","null","html-keyboard-response","108","198363","0.0-23.0-0.5","SS1613141124604","","","null","","","","","<p><img src= images/blank.png width =""200"" height = ""200"" style = ""float:right""></p><p><img src=images/blank.png width =""800"" height = ""200""></p>","","","","","","","","","","","",""
"","1216.7849999986938","sequential-stimulus-presentation","109","200399","0.0-23.0-1.5","SS1613141124604","trial","","40","800","2016.7849999986938","images/stimuli/spore_stims/complex_06_B_b.gif","images/stimuli/spore_stims/complex_13_A_a.gif","","","","","5","complex_dissimilar","images/stimuli/spore_stims/complex_13_A_a.gif","right","","","","",""
"","null","html-keyboard-response","110","201613","0.0-23.0-0.6","SS1613141124604","","","null","","","","","<p><img src= images/blank.png width =""200"" height = ""200"" style = ""float:right""></p><p><img src=images/blank.png width =""800"" height = ""200""></p>","","","","","","","","","","","",""
"","1843.974999999802","sequential-stimulus-presentation","111","204278","0.0-23.0-1.6","SS1613141124604","trial","","40","800","2643.974999999802","images/stimuli/spore_stims/complex_06_B_b.gif","images/stimuli/spore_stims/complex_13_A_a.gif","","","","","5","complex_dissimilar","images/stimuli/spore_stims/complex_13_A_a.gif","right","","","","",""
"","null","html-keyboard-response","112","205518","0.0-23.0-0.7","SS1613141124604","","","null","","","","","<p><img src= images/blank.png width =""200"" height = ""200"" style = ""float:right""></p><p><img src=images/blank.png width =""800"" height = ""200""></p>","","","","","","","","","","","",""
"","956.3449999986915","sequential-stimulus-presentation","113","207298","0.0-23.0-1.7","SS1613141124604","trial","","40","800","1756.3449999986915","images/stimuli/spore_stims/complex_06_B_b.gif","images/stimuli/spore_stims/complex_13_A_a.gif","","","","","5","complex_dissimilar","images/stimuli/spore_stims/complex_13_A_a.gif","right","","","","",""
"","1273.6100000001607","html-keyboard-response","114","208581","0.0-24.0","SS1613141124604","pref_question","","50","","","","","<video width ='960' height = '540' style='padding-top:8%' autoplay muted><source src='images/stimuli/wall_pref.mp4' type='video/mp4'></video>","2","middle","45%","5","","","","","","","",""
"","1709.6799999999348","sequential-stimulus-presentation","115","211101","0.0-25.0","SS1613141124604","pref_reveal","","40","800","2509.679999999935","null","null","","","","","5","","","","novel","","","",""
"","null","html-keyboard-response","116","212177","0.0-26.0-0.0","SS1613141124604","","","null","","","","","<p><img src= images/blank.png width =""200"" height = ""200"" style = ""float:right""></p><p><img src=images/blank.png width =""800"" height = ""200""></p>","","","","","","","","","","","",""
"","1338.980000000447","sequential-stimulus-presentation","117","214393","0.0-26.0-1.0","SS1613141124604","trial","","40","800","2138.980000000447","images/stimuli/spore_stims/simple_04_B_d.gif","images/stimuli/spore_stims/simple_20_A_d.gif","","","","","6","simple_dissimilar","images/stimuli/spore_stims/simple_20_A_d.gif","right","","","","",""
"","null","html-keyboard-response","118","215445","0.0-26.0-0.1","SS1613141124604","","","null","","","","","<p><img src= images/blank.png width =""200"" height = ""200"" style = ""float:right""></p><p><img src=images/blank.png width =""800"" height = ""200""></p>","","","","","","","","","","","",""
"","595.7949999992852","sequential-stimulus-presentation","119","216866","0.0-26.0-1.1","SS1613141124604","trial","","40","800","1395.7949999992852","images/stimuli/spore_stims/simple_04_B_d.gif","images/stimuli/spore_stims/simple_20_A_d.gif","","","","","6","simple_dissimilar","images/stimuli/spore_stims/simple_20_A_d.gif","right","","","","",""
"","null","html-keyboard-response","120","217878","0.0-26.0-0.2","SS1613141124604","","","null","","","","","<p><img src= images/blank.png width =""200"" height = ""200"" style = ""float:right""></p><p><img src=images/blank.png width =""800"" height = ""200""></p>","","","","","","","","","","","",""
"","1958.515000000276","sequential-stimulus-presentation","121","220655","0.0-26.0-1.2","SS1613141124604","trial","","40","800","2758.515000000276","images/stimuli/spore_stims/simple_04_B_d.gif","images/stimuli/spore_stims/simple_20_A_d.gif","","","","","6","simple_dissimilar","images/stimuli/spore_stims/simple_04_B_d.gif","middle","","","","",""
"","null","html-keyboard-response","122","221515","0.0-26.0-0.3","SS1613141124604","","","null","","","","","<p><img src= images/blank.png width =""200"" height = ""200"" style = ""float:right""></p><p><img src=images/blank.png width =""800"" height = ""200""></p>","","","","","","","","","","","",""
"","281.11499999975786","sequential-stimulus-presentation","123","222615","0.0-26.0-1.3","SS1613141124604","trial","","40","800","1081.1149999997579","images/stimuli/spore_stims/simple_04_B_d.gif","images/stimuli/spore_stims/simple_20_A_d.gif","","","","","6","simple_dissimilar","images/stimuli/spore_stims/simple_20_A_d.gif","right","","","","",""
"","null","html-keyboard-response","124","223821","0.0-26.0-0.4","SS1613141124604","","","null","","","","","<p><img src= images/blank.png width =""200"" height = ""200"" style = ""float:right""></p><p><img src=images/blank.png width =""800"" height = ""200""></p>","","","","","","","","","","","",""
"","696.1199999986857","sequential-stimulus-presentation","125","225335","0.0-26.0-1.4","SS1613141124604","trial","","40","800","1496.1199999986857","images/stimuli/spore_stims/simple_04_B_d.gif","images/stimuli/spore_stims/simple_20_A_d.gif","","","","","6","simple_dissimilar","images/stimuli/spore_stims/simple_20_A_d.gif","right","","","","",""
"","null","html-keyboard-response","126","226397","0.0-26.0-0.5","SS1613141124604","","","null","","","","","<p><img src= images/blank.png width =""200"" height = ""200"" style = ""float:right""></p><p><img src=images/blank.png width =""800"" height = ""200""></p>","","","","","","","","","","","",""
"","384.99000000048545","sequential-stimulus-presentation","127","227604","0.0-26.0-1.5","SS1613141124604","trial","","40","800","1184.9900000004855","images/stimuli/spore_stims/simple_04_B_d.gif","images/stimuli/spore_stims/simple_20_A_d.gif","","","","","6","simple_dissimilar","images/stimuli/spore_stims/simple_20_A_d.gif","right","","","","",""
"","null","html-keyboard-response","128","228580","0.0-26.0-0.6","SS1613141124604","","","null","","","","","<p><img src= images/blank.png width =""200"" height = ""200"" style = ""float:right""></p><p><img src=images/blank.png width =""800"" height = ""200""></p>","","","","","","","","","","","",""
"","147.7149999991525","sequential-stimulus-presentation","129","229555","0.0-26.0-1.6","SS1613141124604","trial","","40","800","947.7149999991525","images/stimuli/spore_stims/simple_04_B_d.gif","images/stimuli/spore_stims/simple_20_A_d.gif","","","","","6","simple_dissimilar","images/stimuli/spore_stims/simple_20_A_d.gif","right","","","","",""
"","null","html-keyboard-response","130","230819","0.0-26.0-0.7","SS1613141124604","","","null","","","","","<p><img src= images/blank.png width =""200"" height = ""200"" style = ""float:right""></p><p><img src=images/blank.png width =""800"" height = ""200""></p>","","","","","","","","","","","",""
"","568.0300000003772","sequential-stimulus-presentation","131","232247","0.0-26.0-1.7","SS1613141124604","trial","","40","800","1368.0300000003772","images/stimuli/spore_stims/simple_04_B_d.gif","images/stimuli/spore_stims/simple_20_A_d.gif","","","","","6","simple_dissimilar","images/stimuli/spore_stims/simple_20_A_d.gif","right","","","","",""
"","1212.005000001227","html-keyboard-response","132","233478","0.0-27.0","SS1613141124604","pref_question","","49","","","","","<video width ='960' height = '540' style='padding-top:8%' autoplay muted><source src='images/stimuli/wall_pref.mp4' type='video/mp4'></video>","1","left","25%","6","","","","","","","",""
"","2140.8649999993795","sequential-stimulus-presentation","133","236430","0.0-28.0","SS1613141124604","pref_reveal","","40","800","2940.8649999993795","null","null","","","","","6","","","","novel","","","",""
"","null","html-keyboard-response","134","237542","0.0-29.0-0.0","SS1613141124604","","","null","","","","","<p><img src= images/blank.png width =""200"" height = ""200"" style = ""float:right""></p><p><img src=images/blank.png width =""800"" height = ""200""></p>","","","","","","","","","","","",""
"","1933.749999998312","sequential-stimulus-presentation","135","240302","0.0-29.0-1.0","SS1613141124604","trial","","40","800","2733.749999998312","images/stimuli/spore_stims/simple_06_B_c.gif","images/stimuli/spore_stims/simple_12_A_c.gif","","","","","7","simple_dissimilar","images/stimuli/spore_stims/simple_12_A_c.gif","middle","","","","",""
"","null","html-keyboard-response","136","241131","0.0-29.0-0.1","SS1613141124604","","","null","","","","","<p><img src= images/blank.png width =""200"" height = ""200"" style = ""float:right""></p><p><img src=images/blank.png width =""800"" height = ""200""></p>","","","","","","","","","","","",""
"","1037.4300000003132","sequential-stimulus-presentation","137","242989","0.0-29.0-1.1","SS1613141124604","trial","","40","800","1837.4300000003132","images/stimuli/spore_stims/simple_06_B_c.gif","images/stimuli/spore_stims/simple_12_A_c.gif","","","","","7","simple_dissimilar","images/stimuli/spore_stims/simple_12_A_c.gif","middle","","","","",""
"","null","html-keyboard-response","138","244072","0.0-29.0-0.2","SS1613141124604","","","null","","","","","<p><img src= images/blank.png width =""200"" height = ""200"" style = ""float:right""></p><p><img src=images/blank.png width =""800"" height = ""200""></p>","","","","","","","","","","","",""
"","197.08999999967637","sequential-stimulus-presentation","139","245091","0.0-29.0-1.2","SS1613141124604","trial","","40","800","997.0899999996764","images/stimuli/spore_stims/simple_06_B_c.gif","images/stimuli/spore_stims/simple_12_A_c.gif","","","","","7","simple_dissimilar","images/stimuli/spore_stims/simple_12_A_c.gif","middle","","","","",""
"","null","html-keyboard-response","140","246006","0.0-29.0-0.3","SS1613141124604","","","null","","","","","<p><img src= images/blank.png width =""200"" height = ""200"" style = ""float:right""></p><p><img src=images/blank.png width =""800"" height = ""200""></p>","","","","","","","","","","","",""
"","293.3800000009942","sequential-stimulus-presentation","141","247121","0.0-29.0-1.3","SS1613141124604","trial","","40","800","1093.3800000009942","images/stimuli/spore_stims/simple_06_B_c.gif","images/stimuli/spore_stims/simple_12_A_c.gif","","","","","7","simple_dissimilar","images/stimuli/spore_stims/simple_12_A_c.gif","middle","","","","",""
"","null","html-keyboard-response","142","248363","0.0-29.0-0.4","SS1613141124604","","","null","","","","","<p><img src= images/blank.png width =""200"" height = ""200"" style = ""float:right""></p><p><img src=images/blank.png width =""800"" height = ""200""></p>","","","","","","","","","","","",""
"","259.1400000001304","sequential-stimulus-presentation","143","249443","0.0-29.0-1.4","SS1613141124604","trial","","40","800","1059.1400000001304","images/stimuli/spore_stims/simple_06_B_c.gif","images/stimuli/spore_stims/simple_12_A_c.gif","","","","","7","simple_dissimilar","images/stimuli/spore_stims/simple_12_A_c.gif","middle","","","","",""
"","null","html-keyboard-response","144","250690","0.0-29.0-0.5","SS1613141124604","","","null","","","","","<p><img src= images/blank.png width =""200"" height = ""200"" style = ""float:right""></p><p><img src=images/blank.png width =""800"" height = ""200""></p>","","","","","","","","","","","",""
"","450.5950000002631","sequential-stimulus-presentation","145","251961","0.0-29.0-1.5","SS1613141124604","trial","","40","800","1250.595000000263","images/stimuli/spore_stims/simple_06_B_c.gif","images/stimuli/spore_stims/simple_12_A_c.gif","","","","","7","simple_dissimilar","images/stimuli/spore_stims/simple_12_A_c.gif","middle","","","","",""
"","null","html-keyboard-response","146","252956","0.0-29.0-0.6","SS1613141124604","","","null","","","","","<p><img src= images/blank.png width =""200"" height = ""200"" style = ""float:right""></p><p><img src=images/blank.png width =""800"" height = ""200""></p>","","","","","","","","","","","",""
"","3424.7250000007916","sequential-stimulus-presentation","147","257192","0.0-29.0-1.6","SS1613141124604","trial","","40","800","4224.725000000792","images/stimuli/spore_stims/simple_06_B_c.gif","images/stimuli/spore_stims/simple_12_A_c.gif","","","","","7","simple_dissimilar","images/stimuli/spore_stims/simple_06_B_c.gif","right","","","","",""
"","null","html-keyboard-response","148","258366","0.0-29.0-0.7","SS1613141124604","","","null","","","","","<p><img src= images/blank.png width =""200"" height = ""200"" style = ""float:right""></p><p><img src=images/blank.png width =""800"" height = ""200""></p>","","","","","","","","","","","",""
"","282.1999999996042","sequential-stimulus-presentation","149","259472","0.0-29.0-1.7","SS1613141124604","trial","","40","800","1082.1999999996042","images/stimuli/spore_stims/simple_06_B_c.gif","images/stimuli/spore_stims/simple_12_A_c.gif","","","","","7","simple_dissimilar","images/stimuli/spore_stims/simple_12_A_c.gif","middle","","","","",""
"","1518.7499999992433","html-keyboard-response","150","261048","0.0-30.0","SS1613141124604","pref_question","","49","","","","","<video width ='960' height = '540' style='padding-top:8%' autoplay muted><source src='images/stimuli/wall_pref.mp4' type='video/mp4'></video>","1","left","25%","7","","","","","","","",""
"","2834.3850000001257","sequential-stimulus-presentation","151","264699","0.0-31.0","SS1613141124604","pref_reveal","","40","800","3634.3850000001257","null","null","","","","","7","","","","novel","","","",""
"","null","html-keyboard-response","152","265754","0.0-32.0-0.0","SS1613141124604","","","null","","","","","<p><img src= images/blank.png width =""200"" height = ""200"" style = ""float:right""></p><p><img src=images/blank.png width =""800"" height = ""200""></p>","","","","","","","","","","","",""
"","294.7600000007078","sequential-stimulus-presentation","153","266871","0.0-32.0-1.0","SS1613141124604","trial","","40","800","1094.7600000007078","images/stimuli/spore_stims/simple_13_B_b.gif","images/stimuli/spore_stims/simple_09_A_c.gif","","","","","8","simple_dissimilar","images/stimuli/spore_stims/simple_09_A_c.gif","middle","","","","",""
"","null","html-keyboard-response","154","268042","0.0-32.0-0.1","SS1613141124604","","","null","","","","","<p><img src= images/blank.png width =""200"" height = ""200"" style = ""float:right""></p><p><img src=images/blank.png width =""800"" height = ""200""></p>","","","","","","","","","","","",""
"","1385.0399999991641","sequential-stimulus-presentation","155","270250","0.0-32.0-1.1","SS1613141124604","trial","","40","800","2185.039999999164","images/stimuli/spore_stims/simple_13_B_b.gif","images/stimuli/spore_stims/simple_09_A_c.gif","","","","","8","simple_dissimilar","images/stimuli/spore_stims/simple_09_A_c.gif","middle","","","","",""
"","null","html-keyboard-response","156","271289","0.0-32.0-0.2","SS1613141124604","","","null","","","","","<p><img src= images/blank.png width =""200"" height = ""200"" style = ""float:right""></p><p><img src=images/blank.png width =""800"" height = ""200""></p>","","","","","","","","","","","",""
"","1259.9350000000559","sequential-stimulus-presentation","157","273362","0.0-32.0-1.2","SS1613141124604","trial","","40","800","2059.935000000056","images/stimuli/spore_stims/simple_13_B_b.gif","images/stimuli/spore_stims/simple_09_A_c.gif","","","","","8","simple_dissimilar","images/stimuli/spore_stims/simple_09_A_c.gif","middle","","","","",""
"","null","html-keyboard-response","158","274614","0.0-32.0-0.3","SS1613141124604","","","null","","","","","<p><img src= images/blank.png width =""200"" height = ""200"" style = ""float:right""></p><p><img src=images/blank.png width =""800"" height = ""200""></p>","","","","","","","","","","","",""
"","2797.3399999992107","sequential-stimulus-presentation","159","278267","0.0-32.0-1.3","SS1613141124604","trial","","40","800","3597.3399999992107","images/stimuli/spore_stims/simple_13_B_b.gif","images/stimuli/spore_stims/simple_09_A_c.gif","","","","","8","simple_dissimilar","images/stimuli/spore_stims/simple_13_B_b.gif","right","","","","",""
"","null","html-keyboard-response","160","279201","0.0-32.0-0.4","SS1613141124604","","","null","","","","","<p><img src= images/blank.png width =""200"" height = ""200"" style = ""float:right""></p><p><img src=images/blank.png width =""800"" height = ""200""></p>","","","","","","","","","","","",""
"","893.8699999998789","sequential-stimulus-presentation","161","280923","0.0-32.0-1.4","SS1613141124604","trial","","40","800","1693.869999999879","images/stimuli/spore_stims/simple_13_B_b.gif","images/stimuli/spore_stims/simple_09_A_c.gif","","","","","8","simple_dissimilar","images/stimuli/spore_stims/simple_09_A_c.gif","middle","","","","",""
"","null","html-keyboard-response","162","281919","0.0-32.0-0.5","SS1613141124604","","","null","","","","","<p><img src= images/blank.png width =""200"" height = ""200"" style = ""float:right""></p><p><img src=images/blank.png width =""800"" height = ""200""></p>","","","","","","","","","","","",""
"","666.3850000004168","sequential-stimulus-presentation","163","283415","0.0-32.0-1.5","SS1613141124604","trial","","40","800","1466.3850000004168","images/stimuli/spore_stims/simple_13_B_b.gif","images/stimuli/spore_stims/simple_09_A_c.gif","","","","","8","simple_dissimilar","images/stimuli/spore_stims/simple_09_A_c.gif","middle","","","","",""
"","null","html-keyboard-response","164","284414","0.0-32.0-0.6","SS1613141124604","","","null","","","","","<p><img src= images/blank.png width =""200"" height = ""200"" style = ""float:right""></p><p><img src=images/blank.png width =""800"" height = ""200""></p>","","","","","","","","","","","",""
"","1039.4099999993923","sequential-stimulus-presentation","165","286277","0.0-32.0-1.6","SS1613141124604","trial","","40","800","1839.4099999993923","images/stimuli/spore_stims/simple_13_B_b.gif","images/stimuli/spore_stims/simple_09_A_c.gif","","","","","8","simple_dissimilar","images/stimuli/spore_stims/simple_09_A_c.gif","middle","","","","",""
"","null","html-keyboard-response","166","287138","0.0-32.0-0.7","SS1613141124604","","","null","","","","","<p><img src= images/blank.png width =""200"" height = ""200"" style = ""float:right""></p><p><img src=images/blank.png width =""800"" height = ""200""></p>","","","","","","","","","","","",""
"","356.9200000001583","sequential-stimulus-presentation","167","288317","0.0-32.0-1.7","SS1613141124604","trial","","40","800","1156.9200000001583","images/stimuli/spore_stims/simple_13_B_b.gif","images/stimuli/spore_stims/simple_09_A_c.gif","","","","","8","simple_dissimilar","images/stimuli/spore_stims/simple_09_A_c.gif","middle","","","","",""
"","1029.169999999809","html-keyboard-response","168","289396","0.0-33.0","SS1613141124604","pref_question","","49","","","","","<video width ='960' height = '540' style='padding-top:8%' autoplay muted><source src='images/stimuli/wall_pref.mp4' type='video/mp4'></video>","1","left","25%","8","","","","","","","",""
"","2979.004999999248","sequential-stimulus-presentation","169","293186","0.0-34.0","SS1613141124604","pref_reveal","","40","800","3779.004999999248","null","null","","","","","8","","","","novel","","","",""
"","null","html-keyboard-response","170","294005","0.0-35.0-0.0","SS1613141124604","","","null","","","","","<p><img src= images/blank.png width =""200"" height = ""200"" style = ""float:right""></p><p><img src=images/blank.png width =""800"" height = ""200""></p>","","","","","","","","","","","",""
"","1850.3849999997765","sequential-stimulus-presentation","171","296681","0.0-35.0-1.0","SS1613141124604","trial","","40","800","2650.3849999997765","images/stimuli/spore_stims/complex_20_A_b.gif","images/stimuli/spore_stims/complex_20_B_b.gif","","","","","9","complex_similar","images/stimuli/spore_stims/complex_20_B_b.gif","right","","","","",""
"","null","html-keyboard-response","172","297894","0.0-35.0-0.1","SS1613141124604","","","null","","","","","<p><img src= images/blank.png width =""200"" height = ""200"" style = ""float:right""></p><p><img src=images/blank.png width =""800"" height = ""200""></p>","","","","","","","","","","","",""
"","1038.1849999994156","sequential-stimulus-presentation","173","299754","0.0-35.0-1.1","SS1613141124604","trial","","40","800","1838.1849999994156","images/stimuli/spore_stims/complex_20_A_b.gif","images/stimuli/spore_stims/complex_20_B_b.gif","","","","","9","complex_similar","images/stimuli/spore_stims/complex_20_B_b.gif","right","","","","",""
"","null","html-keyboard-response","174","300797","0.0-35.0-0.2","SS1613141124604","","","null","","","","","<p><img src= images/blank.png width =""200"" height = ""200"" style = ""float:right""></p><p><img src=images/blank.png width =""800"" height = ""200""></p>","","","","","","","","","","","",""
"","1046.3299999992014","sequential-stimulus-presentation","175","302667","0.0-35.0-1.2","SS1613141124604","trial","","40","800","1846.3299999992014","images/stimuli/spore_stims/complex_20_A_b.gif","images/stimuli/spore_stims/complex_20_B_b.gif","","","","","9","complex_similar","images/stimuli/spore_stims/complex_20_B_b.gif","right","","","","",""
"","null","html-keyboard-response","176","303974","0.0-35.0-0.3","SS1613141124604","","","null","","","","","<p><img src= images/blank.png width =""200"" height = ""200"" style = ""float:right""></p><p><img src=images/blank.png width =""800"" height = ""200""></p>","","","","","","","","","","","",""
"","1392.149999999674","sequential-stimulus-presentation","177","306179","0.0-35.0-1.3","SS1613141124604","trial","","40","800","2192.149999999674","images/stimuli/spore_stims/complex_20_A_b.gif","images/stimuli/spore_stims/complex_20_B_b.gif","","","","","9","complex_similar","images/stimuli/spore_stims/complex_20_A_b.gif","left","","","","",""
"","null","html-keyboard-response","178","307075","0.0-35.0-0.4","SS1613141124604","","","null","","","","","<p><img src= images/blank.png width =""200"" height = ""200"" style = ""float:right""></p><p><img src=images/blank.png width =""800"" height = ""200""></p>","","","","","","","","","","","",""
"","1245.5350000000326","sequential-stimulus-presentation","179","309143","0.0-35.0-1.4","SS1613141124604","trial","","40","800","2045.5350000000326","images/stimuli/spore_stims/complex_20_A_b.gif","images/stimuli/spore_stims/complex_20_B_b.gif","","","","","9","complex_similar","images/stimuli/spore_stims/complex_20_B_b.gif","right","","","","",""
"","null","html-keyboard-response","180","310253","0.0-35.0-0.5","SS1613141124604","","","null","","","","","<p><img src= images/blank.png width =""200"" height = ""200"" style = ""float:right""></p><p><img src=images/blank.png width =""800"" height = ""200""></p>","","","","","","","","","","","",""
"","554.3299999990268","sequential-stimulus-presentation","181","311637","0.0-35.0-1.5","SS1613141124604","trial","","40","800","1354.3299999990268","images/stimuli/spore_stims/complex_20_A_b.gif","images/stimuli/spore_stims/complex_20_B_b.gif","","","","","9","complex_similar","images/stimuli/spore_stims/complex_20_B_b.gif","right","","","","",""
"","null","html-keyboard-response","182","312623","0.0-35.0-0.6","SS1613141124604","","","null","","","","","<p><img src= images/blank.png width =""200"" height = ""200"" style = ""float:right""></p><p><img src=images/blank.png width =""800"" height = ""200""></p>","","","","","","","","","","","",""
"","416.4950000012759","sequential-stimulus-presentation","183","313864","0.0-35.0-1.6","SS1613141124604","trial","","40","800","1216.495000001276","images/stimuli/spore_stims/complex_20_A_b.gif","images/stimuli/spore_stims/complex_20_B_b.gif","","","","","9","complex_similar","images/stimuli/spore_stims/complex_20_B_b.gif","right","","","","",""
"","null","html-keyboard-response","184","315100","0.0-35.0-0.7","SS1613141124604","","","null","","","","","<p><img src= images/blank.png width =""200"" height = ""200"" style = ""float:right""></p><p><img src=images/blank.png width =""800"" height = ""200""></p>","","","","","","","","","","","",""
"","1148.73499999888","sequential-stimulus-presentation","185","317074","0.0-35.0-1.7","SS1613141124604","trial","","40","800","1948.73499999888","images/stimuli/spore_stims/complex_20_A_b.gif","images/stimuli/spore_stims/complex_20_B_b.gif","","","","","9","complex_similar","images/stimuli/spore_stims/complex_20_B_b.gif","right","","","","",""
"","1335.5700000010547","html-keyboard-response","186","318429","0.0-36.0","SS1613141124604","pref_question","","50","","","","","<video width ='960' height = '540' style='padding-top:8%' autoplay muted><source src='images/stimuli/wall_pref.mp4' type='video/mp4'></video>","2","middle","45%","9","","","","","","","",""
"","1661.1250000005239","sequential-stimulus-presentation","187","320908","0.0-37.0","SS1613141124604","pref_reveal","","40","800","2461.125000000524","null","null","","","","","9","","","","novel","","","",""
"","null","html-keyboard-response","188","321808","0.0-38.0-0.0","SS1613141124604","","","null","","","","","<p><img src= images/blank.png width =""200"" height = ""200"" style = ""float:right""></p><p><img src=images/blank.png width =""800"" height = ""200""></p>","","","","","","","","","","","",""
"","1880.2749999994994","sequential-stimulus-presentation","189","324573","0.0-38.0-1.0","SS1613141124604","trial","","40","800","2680.2749999994994","images/stimuli/spore_stims/simple_18_A_b.gif","images/stimuli/spore_stims/simple_18_B_b.gif","","","","","10","simple_similar","images/stimuli/spore_stims/simple_18_B_b.gif","left","","","","",""
"","null","html-keyboard-response","190","325590","0.0-38.0-0.1","SS1613141124604","","","null","","","","","<p><img src= images/blank.png width =""200"" height = ""200"" style = ""float:right""></p><p><img src=images/blank.png width =""800"" height = ""200""></p>","","","","","","","","","","","",""
"","44.83500000060303","sequential-stimulus-presentation","191","326463","0.0-38.0-1.1","SS1613141124604","trial","","40","800","844.835000000603","images/stimuli/spore_stims/simple_18_A_b.gif","images/stimuli/spore_stims/simple_18_B_b.gif","","","","","10","simple_similar","images/stimuli/spore_stims/simple_18_B_b.gif","left","","","","",""
"","null","html-keyboard-response","192","327672","0.0-38.0-0.2","SS1613141124604","","","null","","","","","<p><img src= images/blank.png width =""200"" height = ""200"" style = ""float:right""></p><p><img src=images/blank.png width =""800"" height = ""200""></p>","","","","","","","","","","","",""
"","1107.2650000005378","sequential-stimulus-presentation","193","329604","0.0-38.0-1.2","SS1613141124604","trial","","40","800","1907.2650000005378","images/stimuli/spore_stims/simple_18_A_b.gif","images/stimuli/spore_stims/simple_18_B_b.gif","","","","","10","simple_similar","images/stimuli/spore_stims/simple_18_A_b.gif","middle","","","","",""
"","null","html-keyboard-response","194","330549","0.0-38.0-0.3","SS1613141124604","","","null","","","","","<p><img src= images/blank.png width =""200"" height = ""200"" style = ""float:right""></p><p><img src=images/blank.png width =""800"" height = ""200""></p>","","","","","","","","","","","",""
"","893.739999999525","sequential-stimulus-presentation","195","332267","0.0-38.0-1.3","SS1613141124604","trial","","40","800","1693.739999999525","images/stimuli/spore_stims/simple_18_A_b.gif","images/stimuli/spore_stims/simple_18_B_b.gif","","","","","10","simple_similar","images/stimuli/spore_stims/simple_18_B_b.gif","left","","","","",""
"","null","html-keyboard-response","196","333264","0.0-38.0-0.4","SS1613141124604","","","null","","","","","<p><img src= images/blank.png width =""200"" height = ""200"" style = ""float:right""></p><p><img src=images/blank.png width =""800"" height = ""200""></p>","","","","","","","","","","","",""
"","619.9200000009732","sequential-stimulus-presentation","197","334709","0.0-38.0-1.4","SS1613141124604","trial","","40","800","1419.9200000009732","images/stimuli/spore_stims/simple_18_A_b.gif","images/stimuli/spore_stims/simple_18_B_b.gif","","","","","10","simple_similar","images/stimuli/spore_stims/simple_18_B_b.gif","left","","","","",""
"","null","html-keyboard-response","198","335535","0.0-38.0-0.5","SS1613141124604","","","null","","","","","<p><img src= images/blank.png width =""200"" height = ""200"" style = ""float:right""></p><p><img src=images/blank.png width =""800"" height = ""200""></p>","","","","","","","","","","","",""
"","323.4900000006892","sequential-stimulus-presentation","199","336687","0.0-38.0-1.5","SS1613141124604","trial","","40","800","1123.4900000006892","images/stimuli/spore_stims/simple_18_A_b.gif","images/stimuli/spore_stims/simple_18_B_b.gif","","","","","10","simple_similar","images/stimuli/spore_stims/simple_18_B_b.gif","left","","","","",""
"","null","html-keyboard-response","200","337779","0.0-38.0-0.6","SS1613141124604","","","null","","","","","<p><img src= images/blank.png width =""200"" height = ""200"" style = ""float:right""></p><p><img src=images/blank.png width =""800"" height = ""200""></p>","","","","","","","","","","","",""
"","267.53499999904307","sequential-stimulus-presentation","201","338881","0.0-38.0-1.6","SS1613141124604","trial","","40","800","1067.534999999043","images/stimuli/spore_stims/simple_18_A_b.gif","images/stimuli/spore_stims/simple_18_B_b.gif","","","","","10","simple_similar","images/stimuli/spore_stims/simple_18_B_b.gif","left","","","","",""
"","null","html-keyboard-response","202","339811","0.0-38.0-0.7","SS1613141124604","","","null","","","","","<p><img src= images/blank.png width =""200"" height = ""200"" style = ""float:right""></p><p><img src=images/blank.png width =""800"" height = ""200""></p>","","","","","","","","","","","",""
"","269.4700000011362","sequential-stimulus-presentation","203","340910","0.0-38.0-1.7","SS1613141124604","trial","","40","800","1069.4700000011362","images/stimuli/spore_stims/simple_18_A_b.gif","images/stimuli/spore_stims/simple_18_B_b.gif","","","","","10","simple_similar","images/stimuli/spore_stims/simple_18_B_b.gif","left","","","","",""
"","1168.4000000004307","html-keyboard-response","204","342090","0.0-39.0","SS1613141124604","pref_question","","51","","","","","<video width ='960' height = '540' style='padding-top:8%' autoplay muted><source src='images/stimuli/wall_pref.mp4' type='video/mp4'></video>","3","right","66%","10","","","","","","","",""
"","28.804999999934807","sequential-stimulus-presentation","205","342939","0.0-40.0","SS1613141124604","pref_reveal","","40","800","828.8049999999348","null","null","","","","","10","","","","novel","","","",""
"","null","html-keyboard-response","206","343929","0.0-41.0-0.0","SS1613141124604","","","null","","","","","<p><img src= images/blank.png width =""200"" height = ""200"" style = ""float:right""></p><p><img src=images/blank.png width =""800"" height = ""200""></p>","","","","","","","","","","","",""
"","1575.0950000001467","sequential-stimulus-presentation","207","346331","0.0-41.0-1.0","SS1613141124604","trial","","40","800","2375.0950000001467","images/stimuli/spore_stims/complex_07_B_c.gif","images/stimuli/spore_stims/complex_06_A_a.gif","","","","","11","complex_dissimilar","images/stimuli/spore_stims/complex_06_A_a.gif","left","","","","",""
"","null","html-keyboard-response","208","347604","0.0-41.0-0.1","SS1613141124604","","","null","","","","","<p><img src= images/blank.png width =""200"" height = ""200"" style = ""float:right""></p><p><img src=images/blank.png width =""800"" height = ""200""></p>","","","","","","","","","","","",""
"","1456.4200000003912","sequential-stimulus-presentation","209","349892","0.0-41.0-1.1","SS1613141124604","trial","","40","800","2256.420000000391","images/stimuli/spore_stims/complex_07_B_c.gif","images/stimuli/spore_stims/complex_06_A_a.gif","","","","","11","complex_dissimilar","images/stimuli/spore_stims/complex_06_A_a.gif","left","","","","",""
"","null","html-keyboard-response","210","350779","0.0-41.0-0.2","SS1613141124604","","","null","","","","","<p><img src= images/blank.png width =""200"" height = ""200"" style = ""float:right""></p><p><img src=images/blank.png width =""800"" height = ""200""></p>","","","","","","","","","","","",""
"","1648.1949999997742","sequential-stimulus-presentation","211","353256","0.0-41.0-1.2","SS1613141124604","trial","","40","800","2448.194999999774","images/stimuli/spore_stims/complex_07_B_c.gif","images/stimuli/spore_stims/complex_06_A_a.gif","","","","","11","complex_dissimilar","images/stimuli/spore_stims/complex_07_B_c.gif","right","","","","",""
"","null","html-keyboard-response","212","354542","0.0-41.0-0.3","SS1613141124604","","","null","","","","","<p><img src= images/blank.png width =""200"" height = ""200"" style = ""float:right""></p><p><img src=images/blank.png width =""800"" height = ""200""></p>","","","","","","","","","","","",""
"","316.75499999983003","sequential-stimulus-presentation","213","355687","0.0-41.0-1.3","SS1613141124604","trial","","40","800","1116.75499999983","images/stimuli/spore_stims/complex_07_B_c.gif","images/stimuli/spore_stims/complex_06_A_a.gif","","","","","11","complex_dissimilar","images/stimuli/spore_stims/complex_06_A_a.gif","left","","","","",""
"","null","html-keyboard-response","214","356641","0.0-41.0-0.4","SS1613141124604","","","null","","","","","<p><img src= images/blank.png width =""200"" height = ""200"" style = ""float:right""></p><p><img src=images/blank.png width =""800"" height = ""200""></p>","","","","","","","","","","","",""
"","157.69000000006054","sequential-stimulus-presentation","215","357624","0.0-41.0-1.4","SS1613141124604","trial","","40","800","957.6900000000605","images/stimuli/spore_stims/complex_07_B_c.gif","images/stimuli/spore_stims/complex_06_A_a.gif","","","","","11","complex_dissimilar","images/stimuli/spore_stims/complex_06_A_a.gif","left","","","","",""
"","null","html-keyboard-response","216","358899","0.0-41.0-0.5","SS1613141124604","","","null","","","","","<p><img src= images/blank.png width =""200"" height = ""200"" style = ""float:right""></p><p><img src=images/blank.png width =""800"" height = ""200""></p>","","","","","","","","","","","",""
"","1728.8550000011455","sequential-stimulus-presentation","217","361454","0.0-41.0-1.5","SS1613141124604","trial","","40","800","2528.8550000011455","images/stimuli/spore_stims/complex_07_B_c.gif","images/stimuli/spore_stims/complex_06_A_a.gif","","","","","11","complex_dissimilar","images/stimuli/spore_stims/complex_06_A_a.gif","left","","","","",""
"","null","html-keyboard-response","218","362427","0.0-41.0-0.6","SS1613141124604","","","null","","","","","<p><img src= images/blank.png width =""200"" height = ""200"" style = ""float:right""></p><p><img src=images/blank.png width =""800"" height = ""200""></p>","","","","","","","","","","","",""
"","2742.7500000012224","sequential-stimulus-presentation","219","365997","0.0-41.0-1.6","SS1613141124604","trial","","40","800","3542.7500000012224","images/stimuli/spore_stims/complex_07_B_c.gif","images/stimuli/spore_stims/complex_06_A_a.gif","","","","","11","complex_dissimilar","images/stimuli/spore_stims/complex_06_A_a.gif","left","","","","",""
"","null","html-keyboard-response","220","366907","0.0-41.0-0.7","SS1613141124604","","","null","","","","","<p><img src= images/blank.png width =""200"" height = ""200"" style = ""float:right""></p><p><img src=images/blank.png width =""800"" height = ""200""></p>","","","","","","","","","","","",""
"","1710.9550000004238","sequential-stimulus-presentation","221","369497","0.0-41.0-1.7","SS1613141124604","trial","","40","800","2510.9550000004238","images/stimuli/spore_stims/complex_07_B_c.gif","images/stimuli/spore_stims/complex_06_A_a.gif","","","","","11","complex_dissimilar","images/stimuli/spore_stims/complex_06_A_a.gif","left","","","","",""
"","1340.3099999995902","html-keyboard-response","222","370852","0.0-42.0","SS1613141124604","pref_question","","50","","","","","<video width ='960' height = '540' style='padding-top:8%' autoplay muted><source src='images/stimuli/wall_pref.mp4' type='video/mp4'></video>","2","middle","45%","11","","","","","","","",""
"","2348.9899999985937","sequential-stimulus-presentation","223","374015","0.0-43.0","SS1613141124604","pref_reveal","","40","800","3148.9899999985937","null","null","","","","","11","","","","novel","","","",""
"","null","html-keyboard-response","224","374870","0.0-44.0-0.0","SS1613141124604","","","null","","","","","<p><img src= images/blank.png width =""200"" height = ""200"" style = ""float:right""></p><p><img src=images/blank.png width =""800"" height = ""200""></p>","","","","","","","","","","","",""
"","2110.0700000006473","sequential-stimulus-presentation","225","377793","0.0-44.0-1.0","SS1613141124604","trial","","40","800","2910.0700000006473","images/stimuli/spore_stims/complex_04_A_c.gif","images/stimuli/spore_stims/complex_14_A_c.gif","","","","","12","complex_dissimilar","images/stimuli/spore_stims/complex_14_A_c.gif","left","","","","",""
"","null","html-keyboard-response","226","378821","0.0-44.0-0.1","SS1613141124604","","","null","","","","","<p><img src= images/blank.png width =""200"" height = ""200"" style = ""float:right""></p><p><img src=images/blank.png width =""800"" height = ""200""></p>","","","","","","","","","","","",""
"","2319.644999999611","sequential-stimulus-presentation","227","381974","0.0-44.0-1.1","SS1613141124604","trial","","40","800","3119.644999999611","images/stimuli/spore_stims/complex_04_A_c.gif","images/stimuli/spore_stims/complex_14_A_c.gif","","","","","12","complex_dissimilar","images/stimuli/spore_stims/complex_14_A_c.gif","left","","","","",""
"","null","html-keyboard-response","228","382880","0.0-44.0-0.2","SS1613141124604","","","null","","","","","<p><img src= images/blank.png width =""200"" height = ""200"" style = ""float:right""></p><p><img src=images/blank.png width =""800"" height = ""200""></p>","","","","","","","","","","","",""
"","747.9000000003143","sequential-stimulus-presentation","229","384457","0.0-44.0-1.2","SS1613141124604","trial","","40","800","1547.9000000003143","images/stimuli/spore_stims/complex_04_A_c.gif","images/stimuli/spore_stims/complex_14_A_c.gif","","","","","12","complex_dissimilar","images/stimuli/spore_stims/complex_14_A_c.gif","left","","","","",""
"","null","html-keyboard-response","230","385699","0.0-44.0-0.3","SS1613141124604","","","null","","","","","<p><img src= images/blank.png width =""200"" height = ""200"" style = ""float:right""></p><p><img src=images/blank.png width =""800"" height = ""200""></p>","","","","","","","","","","","",""
"","680.7499999995343","sequential-stimulus-presentation","231","387213","0.0-44.0-1.3","SS1613141124604","trial","","40","800","1480.7499999995343","images/stimuli/spore_stims/complex_04_A_c.gif","images/stimuli/spore_stims/complex_14_A_c.gif","","","","","12","complex_dissimilar","images/stimuli/spore_stims/complex_14_A_c.gif","left","","","","",""
"","null","html-keyboard-response","232","388249","0.0-44.0-0.4","SS1613141124604","","","null","","","","","<p><img src= images/blank.png width =""200"" height = ""200"" style = ""float:right""></p><p><img src=images/blank.png width =""800"" height = ""200""></p>","","","","","","","","","","","",""
"","596.1450000013574","sequential-stimulus-presentation","233","389669","0.0-44.0-1.4","SS1613141124604","trial","","40","800","1396.1450000013574","images/stimuli/spore_stims/complex_04_A_c.gif","images/stimuli/spore_stims/complex_14_A_c.gif","","","","","12","complex_dissimilar","images/stimuli/spore_stims/complex_14_A_c.gif","left","","","","",""
"","null","html-keyboard-response","234","390917","0.0-44.0-0.5","SS1613141124604","","","null","","","","","<p><img src= images/blank.png width =""200"" height = ""200"" style = ""float:right""></p><p><img src=images/blank.png width =""800"" height = ""200""></p>","","","","","","","","","","","",""
"","2029.3250000013504","sequential-stimulus-presentation","235","393761","0.0-44.0-1.5","SS1613141124604","trial","","40","800","2829.3250000013504","images/stimuli/spore_stims/complex_04_A_c.gif","images/stimuli/spore_stims/complex_14_A_c.gif","","","","","12","complex_dissimilar","images/stimuli/spore_stims/complex_04_A_c.gif","right","","","","",""
"","null","html-keyboard-response","236","394582","0.0-44.0-0.6","SS1613141124604","","","null","","","","","<p><img src= images/blank.png width =""200"" height = ""200"" style = ""float:right""></p><p><img src=images/blank.png width =""800"" height = ""200""></p>","","","","","","","","","","","",""
"","1595.1450000011246","sequential-stimulus-presentation","237","397007","0.0-44.0-1.6","SS1613141124604","trial","","40","800","2395.1450000011246","images/stimuli/spore_stims/complex_04_A_c.gif","images/stimuli/spore_stims/complex_14_A_c.gif","","","","","12","complex_dissimilar","images/stimuli/spore_stims/complex_14_A_c.gif","left","","","","",""
"","null","html-keyboard-response","238","397991","0.0-44.0-0.7","SS1613141124604","","","null","","","","","<p><img src= images/blank.png width =""200"" height = ""200"" style = ""float:right""></p><p><img src=images/blank.png width =""800"" height = ""200""></p>","","","","","","","","","","","",""
"","1528.0249999996158","sequential-stimulus-presentation","239","400348","0.0-44.0-1.7","SS1613141124604","trial","","40","800","2328.024999999616","images/stimuli/spore_stims/complex_04_A_c.gif","images/stimuli/spore_stims/complex_14_A_c.gif","","","","","12","complex_dissimilar","images/stimuli/spore_stims/complex_14_A_c.gif","left","","","","",""
"","1875.1699999993434","html-keyboard-response","240","402238","0.0-45.0","SS1613141124604","pref_question","","51","","","","","<video width ='960' height = '540' style='padding-top:8%' autoplay muted><source src='images/stimuli/wall_pref.mp4' type='video/mp4'></video>","3","right","66%","12","","","","","","","",""
"","142.4799999986426","sequential-stimulus-presentation","241","403198","0.0-46.0","SS1613141124604","pref_reveal","","40","800","942.4799999986426","null","null","","","","","12","","","","deviant","","","",""
"","null","html-keyboard-response","242","404491","0.0-47.0-0.0","SS1613141124604","","","null","","","","","<p><img src= images/blank.png width =""200"" height = ""200"" style = ""float:right""></p><p><img src=images/blank.png width =""800"" height = ""200""></p>","","","","","","","","","","","",""
"","642.0499999985914","sequential-stimulus-presentation","243","406029","0.0-47.0-1.0","SS1613141124604","trial","","40","800","1442.0499999985914","images/stimuli/spore_stims/simple_13_B_a.gif","images/stimuli/spore_stims/simple_13_A_a.gif","","","","","13","simple_similar","images/stimuli/spore_stims/simple_13_A_a.gif","right","","","","",""
"","null","html-keyboard-response","244","407229","0.0-47.0-0.1","SS1613141124604","","","null","","","","","<p><img src= images/blank.png width =""200"" height = ""200"" style = ""float:right""></p><p><img src=images/blank.png width =""800"" height = ""200""></p>","","","","","","","","","","","",""
"","971.5599999999395","sequential-stimulus-presentation","245","409032","0.0-47.0-1.1","SS1613141124604","trial","","40","800","1771.5599999999395","images/stimuli/spore_stims/simple_13_B_a.gif","images/stimuli/spore_stims/simple_13_A_a.gif","","","","","13","simple_similar","images/stimuli/spore_stims/simple_13_A_a.gif","right","","","","",""
"","null","html-keyboard-response","246","409888","0.0-47.0-0.2","SS1613141124604","","","null","","","","","<p><img src= images/blank.png width =""200"" height = ""200"" style = ""float:right""></p><p><img src=images/blank.png width =""800"" height = ""200""></p>","","","","","","","","","","","",""
"","541.9149999998044","sequential-stimulus-presentation","247","411252","0.0-47.0-1.2","SS1613141124604","trial","","40","800","1341.9149999998044","images/stimuli/spore_stims/simple_13_B_a.gif","images/stimuli/spore_stims/simple_13_A_a.gif","","","","","13","simple_similar","images/stimuli/spore_stims/simple_13_A_a.gif","right","","","","",""
"","null","html-keyboard-response","248","412161","0.0-47.0-0.3","SS1613141124604","","","null","","","","","<p><img src= images/blank.png width =""200"" height = ""200"" style = ""float:right""></p><p><img src=images/blank.png width =""800"" height = ""200""></p>","","","","","","","","","","","",""
"","139.1299999995972","sequential-stimulus-presentation","249","413129","0.0-47.0-1.3","SS1613141124604","trial","","40","800","939.1299999995972","images/stimuli/spore_stims/simple_13_B_a.gif","images/stimuli/spore_stims/simple_13_A_a.gif","","","","","13","simple_similar","images/stimuli/spore_stims/simple_13_B_a.gif","middle","","","","",""
"","null","html-keyboard-response","250","414261","0.0-47.0-0.4","SS1613141124604","","","null","","","","","<p><img src= images/blank.png width =""200"" height = ""200"" style = ""float:right""></p><p><img src=images/blank.png width =""800"" height = ""200""></p>","","","","","","","","","","","",""
"","271.1350000008824","sequential-stimulus-presentation","251","415366","0.0-47.0-1.4","SS1613141124604","trial","","40","800","1071.1350000008824","images/stimuli/spore_stims/simple_13_B_a.gif","images/stimuli/spore_stims/simple_13_A_a.gif","","","","","13","simple_similar","images/stimuli/spore_stims/simple_13_A_a.gif","right","","","","",""
"","null","html-keyboard-response","252","416614","0.0-47.0-0.5","SS1613141124604","","","null","","","","","<p><img src= images/blank.png width =""200"" height = ""200"" style = ""float:right""></p><p><img src=images/blank.png width =""800"" height = ""200""></p>","","","","","","","","","","","",""
"","665.3750000005239","sequential-stimulus-presentation","253","418115","0.0-47.0-1.5","SS1613141124604","trial","","40","800","1465.3750000005239","images/stimuli/spore_stims/simple_13_B_a.gif","images/stimuli/spore_stims/simple_13_A_a.gif","","","","","13","simple_similar","images/stimuli/spore_stims/simple_13_A_a.gif","right","","","","",""
"","null","html-keyboard-response","254","419301","0.0-47.0-0.6","SS1613141124604","","","null","","","","","<p><img src= images/blank.png width =""200"" height = ""200"" style = ""float:right""></p><p><img src=images/blank.png width =""800"" height = ""200""></p>","","","","","","","","","","","",""
"","489.93999999947846","sequential-stimulus-presentation","255","420619","0.0-47.0-1.6","SS1613141124604","trial","","40","800","1289.9399999994785","images/stimuli/spore_stims/simple_13_B_a.gif","images/stimuli/spore_stims/simple_13_A_a.gif","","","","","13","simple_similar","images/stimuli/spore_stims/simple_13_A_a.gif","right","","","","",""
"","null","html-keyboard-response","256","421914","0.0-47.0-0.7","SS1613141124604","","","null","","","","","<p><img src= images/blank.png width =""200"" height = ""200"" style = ""float:right""></p><p><img src=images/blank.png width =""800"" height = ""200""></p>","","","","","","","","","","","",""
"","453.84499999997206","sequential-stimulus-presentation","257","423199","0.0-47.0-1.7","SS1613141124604","trial","","40","800","1253.844999999972","images/stimuli/spore_stims/simple_13_B_a.gif","images/stimuli/spore_stims/simple_13_A_a.gif","","","","","13","simple_similar","images/stimuli/spore_stims/simple_13_A_a.gif","right","","","","",""
"","1303.324999998964","html-keyboard-response","258","424517","0.0-48.0","SS1613141124604","pref_question","","49","","","","","<video width ='960' height = '540' style='padding-top:8%' autoplay muted><source src='images/stimuli/wall_pref.mp4' type='video/mp4'></video>","1","left","25%","13","","","","","","","",""
"","1367.5700000003562","sequential-stimulus-presentation","259","426705","0.0-49.0","SS1613141124604","pref_reveal","","40","800","2167.5700000003562","null","null","","","","","13","","","","novel","","","",""
"","null","html-keyboard-response","260","427550","0.0-50.0-0.0","SS1613141124604","","","null","","","","","<p><img src= images/blank.png width =""200"" height = ""200"" style = ""float:right""></p><p><img src=images/blank.png width =""800"" height = ""200""></p>","","","","","","","","","","","",""
"","1168.1950000001816","sequential-stimulus-presentation","261","429589","0.0-50.0-1.0","SS1613141124604","trial","","40","800","1968.1950000001816","images/stimuli/spore_stims/simple_05_A_a.gif","images/stimuli/spore_stims/simple_05_B_a.gif","","","","","14","simple_similar","images/stimuli/spore_stims/simple_05_B_a.gif","middle","","","","",""
"","null","html-keyboard-response","262","430887","0.0-50.0-0.1","SS1613141124604","","","null","","","","","<p><img src= images/blank.png width =""200"" height = ""200"" style = ""float:right""></p><p><img src=images/blank.png width =""800"" height = ""200""></p>","","","","","","","","","","","",""
"","997.9100000000326","sequential-stimulus-presentation","263","432703","0.0-50.0-1.1","SS1613141124604","trial","","40","800","1797.9100000000326","images/stimuli/spore_stims/simple_05_A_a.gif","images/stimuli/spore_stims/simple_05_B_a.gif","","","","","14","simple_similar","images/stimuli/spore_stims/simple_05_B_a.gif","middle","","","","",""
"","null","html-keyboard-response","264","433664","0.0-50.0-0.2","SS1613141124604","","","null","","","","","<p><img src= images/blank.png width =""200"" height = ""200"" style = ""float:right""></p><p><img src=images/blank.png width =""800"" height = ""200""></p>","","","","","","","","","","","",""
"","1134.5599999985425","sequential-stimulus-presentation","265","435630","0.0-50.0-1.2","SS1613141124604","trial","","40","800","1934.5599999985425","images/stimuli/spore_stims/simple_05_A_a.gif","images/stimuli/spore_stims/simple_05_B_a.gif","","","","","14","simple_similar","images/stimuli/spore_stims/simple_05_A_a.gif","left","","","","",""
"","null","html-keyboard-response","266","436640","0.0-50.0-0.3","SS1613141124604","","","null","","","","","<p><img src= images/blank.png width =""200"" height = ""200"" style = ""float:right""></p><p><img src=images/blank.png width =""800"" height = ""200""></p>","","","","","","","","","","","",""
"","1000.1100000008591","sequential-stimulus-presentation","267","438471","0.0-50.0-1.3","SS1613141124604","trial","","40","800","1800.1100000008591","images/stimuli/spore_stims/simple_05_A_a.gif","images/stimuli/spore_stims/simple_05_B_a.gif","","","","","14","simple_similar","images/stimuli/spore_stims/simple_05_B_a.gif","middle","","","","",""
"","null","html-keyboard-response","268","439719","0.0-50.0-0.4","SS1613141124604","","","null","","","","","<p><img src= images/blank.png width =""200"" height = ""200"" style = ""float:right""></p><p><img src=images/blank.png width =""800"" height = ""200""></p>","","","","","","","","","","","",""
"","1191.9749999997439","sequential-stimulus-presentation","269","441742","0.0-50.0-1.4","SS1613141124604","trial","","40","800","1991.9749999997439","images/stimuli/spore_stims/simple_05_A_a.gif","images/stimuli/spore_stims/simple_05_B_a.gif","","","","","14","simple_similar","images/stimuli/spore_stims/simple_05_B_a.gif","middle","","","","",""
"","null","html-keyboard-response","270","442950","0.0-50.0-0.5","SS1613141124604","","","null","","","","","<p><img src= images/blank.png width =""200"" height = ""200"" style = ""float:right""></p><p><img src=images/blank.png width =""800"" height = ""200""></p>","","","","","","","","","","","",""
"","658.8100000008126","sequential-stimulus-presentation","271","444443","0.0-50.0-1.5","SS1613141124604","trial","","40","800","1458.8100000008126","images/stimuli/spore_stims/simple_05_A_a.gif","images/stimuli/spore_stims/simple_05_B_a.gif","","","","","14","simple_similar","images/stimuli/spore_stims/simple_05_B_a.gif","middle","","","","",""
"","null","html-keyboard-response","272","445533","0.0-50.0-0.6","SS1613141124604","","","null","","","","","<p><img src= images/blank.png width =""200"" height = ""200"" style = ""float:right""></p><p><img src=images/blank.png width =""800"" height = ""200""></p>","","","","","","","","","","","",""
"","738.4500000007683","sequential-stimulus-presentation","273","447102","0.0-50.0-1.6","SS1613141124604","trial","","40","800","1538.4500000007683","images/stimuli/spore_stims/simple_05_A_a.gif","images/stimuli/spore_stims/simple_05_B_a.gif","","","","","14","simple_similar","images/stimuli/spore_stims/simple_05_B_a.gif","middle","","","","",""
"","null","html-keyboard-response","274","448414","0.0-50.0-0.7","SS1613141124604","","","null","","","","","<p><img src= images/blank.png width =""200"" height = ""200"" style = ""float:right""></p><p><img src=images/blank.png width =""800"" height = ""200""></p>","","","","","","","","","","","",""
"","400.52499999909196","sequential-stimulus-presentation","275","449642","0.0-50.0-1.7","SS1613141124604","trial","","40","800","1200.524999999092","images/stimuli/spore_stims/simple_05_A_a.gif","images/stimuli/spore_stims/simple_05_B_a.gif","","","","","14","simple_similar","images/stimuli/spore_stims/simple_05_B_a.gif","middle","","","","",""
"","1061.040000000503","html-keyboard-response","276","450762","0.0-51.0","SS1613141124604","pref_question","","50","","","","","<video width ='960' height = '540' style='padding-top:8%' autoplay muted><source src='images/stimuli/wall_pref.mp4' type='video/mp4'></video>","2","middle","45%","14","","","","","","","",""
"","248.3149999989546","sequential-stimulus-presentation","277","451826","0.0-52.0","SS1613141124604","pref_reveal","","40","800","1048.3149999989546","null","null","","","","","14","","","","background","","","",""
"","null","html-keyboard-response","278","452992","0.0-53.0-0.0","SS1613141124604","","","null","","","","","<p><img src= images/blank.png width =""200"" height = ""200"" style = ""float:right""></p><p><img src=images/blank.png width =""800"" height = ""200""></p>","","","","","","","","","","","",""
"","1085.6549999989802","sequential-stimulus-presentation","279","454910","0.0-53.0-1.0","SS1613141124604","trial","","40","800","1885.6549999989802","images/stimuli/spore_stims/simple_07_A_d.gif","images/stimuli/spore_stims/simple_07_B_d.gif","","","","","15","simple_similar","images/stimuli/spore_stims/simple_07_B_d.gif","right","","","","",""
"","null","html-keyboard-response","280","455964","0.0-53.0-0.1","SS1613141124604","","","null","","","","","<p><img src= images/blank.png width =""200"" height = ""200"" style = ""float:right""></p><p><img src=images/blank.png width =""800"" height = ""200""></p>","","","","","","","","","","","",""
"","263.19999999937136","sequential-stimulus-presentation","281","457059","0.0-53.0-1.1","SS1613141124604","trial","","40","800","1063.1999999993714","images/stimuli/spore_stims/simple_07_A_d.gif","images/stimuli/spore_stims/simple_07_B_d.gif","","","","","15","simple_similar","images/stimuli/spore_stims/simple_07_B_d.gif","right","","","","",""
"","null","html-keyboard-response","282","458332","0.0-53.0-0.2","SS1613141124604","","","null","","","","","<p><img src= images/blank.png width =""200"" height = ""200"" style = ""float:right""></p><p><img src=images/blank.png width =""800"" height = ""200""></p>","","","","","","","","","","","",""
"","313.4000000008964","sequential-stimulus-presentation","283","459473","0.0-53.0-1.2","SS1613141124604","trial","","40","800","1113.4000000008964","images/stimuli/spore_stims/simple_07_A_d.gif","images/stimuli/spore_stims/simple_07_B_d.gif","","","","","15","simple_similar","images/stimuli/spore_stims/simple_07_B_d.gif","right","","","","",""
"","null","html-keyboard-response","284","460393","0.0-53.0-0.3","SS1613141124604","","","null","","","","","<p><img src= images/blank.png width =""200"" height = ""200"" style = ""float:right""></p><p><img src=images/blank.png width =""800"" height = ""200""></p>","","","","","","","","","","","",""
"","493.8450000008452","sequential-stimulus-presentation","285","461720","0.0-53.0-1.3","SS1613141124604","trial","","40","800","1293.8450000008452","images/stimuli/spore_stims/simple_07_A_d.gif","images/stimuli/spore_stims/simple_07_B_d.gif","","","","","15","simple_similar","images/stimuli/spore_stims/simple_07_B_d.gif","right","","","","",""
"","null","html-keyboard-response","286","462671","0.0-53.0-0.4","SS1613141124604","","","null","","","","","<p><img src= images/blank.png width =""200"" height = ""200"" style = ""float:right""></p><p><img src=images/blank.png width =""800"" height = ""200""></p>","","","","","","","","","","","",""
"","493.2050000006566","sequential-stimulus-presentation","287","463992","0.0-53.0-1.4","SS1613141124604","trial","","40","800","1293.2050000006566","images/stimuli/spore_stims/simple_07_A_d.gif","images/stimuli/spore_stims/simple_07_B_d.gif","","","","","15","simple_similar","images/stimuli/spore_stims/simple_07_B_d.gif","right","","","","",""
"","null","html-keyboard-response","288","464831","0.0-53.0-0.5","SS1613141124604","","","null","","","","","<p><img src= images/blank.png width =""200"" height = ""200"" style = ""float:right""></p><p><img src=images/blank.png width =""800"" height = ""200""></p>","","","","","","","","","","","",""
"","1358.365000000049","sequential-stimulus-presentation","289","467007","0.0-53.0-1.5","SS1613141124604","trial","","40","800","2158.365000000049","images/stimuli/spore_stims/simple_07_A_d.gif","images/stimuli/spore_stims/simple_07_B_d.gif","","","","","15","simple_similar","images/stimuli/spore_stims/simple_07_A_d.gif","left","","","","",""
"","null","html-keyboard-response","290","468007","0.0-53.0-0.6","SS1613141124604","","","null","","","","","<p><img src= images/blank.png width =""200"" height = ""200"" style = ""float:right""></p><p><img src=images/blank.png width =""800"" height = ""200""></p>","","","","","","","","","","","",""
"","254.82500000001164","sequential-stimulus-presentation","291","469079","0.0-53.0-1.6","SS1613141124604","trial","","40","800","1054.8250000000116","images/stimuli/spore_stims/simple_07_A_d.gif","images/stimuli/spore_stims/simple_07_B_d.gif","","","","","15","simple_similar","images/stimuli/spore_stims/simple_07_B_d.gif","right","","","","",""
"","null","html-keyboard-response","292","469975","0.0-53.0-0.7","SS1613141124604","","","null","","","","","<p><img src= images/blank.png width =""200"" height = ""200"" style = ""float:right""></p><p><img src=images/blank.png width =""800"" height = ""200""></p>","","","","","","","","","","","",""
"","458.9099999993341","sequential-stimulus-presentation","293","471251","0.0-53.0-1.7","SS1613141124604","trial","","40","800","1258.909999999334","images/stimuli/spore_stims/simple_07_A_d.gif","images/stimuli/spore_stims/simple_07_B_d.gif","","","","","15","simple_similar","images/stimuli/spore_stims/simple_07_B_d.gif","right","","","","",""
"","1012.6099999998114","html-keyboard-response","294","472282","0.0-54.0","SS1613141124604","pref_question","","50","","","","","<video width ='960' height = '540' style='padding-top:8%' autoplay muted><source src='images/stimuli/wall_pref.mp4' type='video/mp4'></video>","2","middle","45%","15","","","","","","","",""
"","2812.5849999996717","sequential-stimulus-presentation","295","475940","0.0-55.0","SS1613141124604","pref_reveal","","40","800","3612.5849999996717","null","null","","","","","15","","","","novel","","","",""
"","null","html-keyboard-response","296","476796","0.0-56.0-0.0","SS1613141124604","","","null","","","","","<p><img src= images/blank.png width =""200"" height = ""200"" style = ""float:right""></p><p><img src=images/blank.png width =""800"" height = ""200""></p>","","","","","","","","","","","",""
"","1316.275000001071","sequential-stimulus-presentation","297","478948","0.0-56.0-1.0","SS1613141124604","trial","","40","800","2116.275000001071","images/stimuli/spore_stims/complex_18_A_d.gif","images/stimuli/spore_stims/complex_18_B_d.gif","","","","","16","complex_similar","images/stimuli/spore_stims/complex_18_B_d.gif","left","","","","",""
"","null","html-keyboard-response","298","479830","0.0-56.0-0.1","SS1613141124604","","","null","","","","","<p><img src= images/blank.png width =""200"" height = ""200"" style = ""float:right""></p><p><img src=images/blank.png width =""800"" height = ""200""></p>","","","","","","","","","","","",""
"","1782.0749999991967","sequential-stimulus-presentation","299","482445","0.0-56.0-1.1","SS1613141124604","trial","","40","800","2582.0749999991967","images/stimuli/spore_stims/complex_18_A_d.gif","images/stimuli/spore_stims/complex_18_B_d.gif","","","","","16","complex_similar","images/stimuli/spore_stims/complex_18_B_d.gif","left","","","","",""
"","null","html-keyboard-response","300","483489","0.0-56.0-0.2","SS1613141124604","","","null","","","","","<p><img src= images/blank.png width =""200"" height = ""200"" style = ""float:right""></p><p><img src=images/blank.png width =""800"" height = ""200""></p>","","","","","","","","","","","",""
"","125.84000000060769","sequential-stimulus-presentation","301","484432","0.0-56.0-1.2","SS1613141124604","trial","","40","800","925.8400000006077","images/stimuli/spore_stims/complex_18_A_d.gif","images/stimuli/spore_stims/complex_18_B_d.gif","","","","","16","complex_similar","images/stimuli/spore_stims/complex_18_B_d.gif","left","","","","",""
"","null","html-keyboard-response","302","485471","0.0-56.0-0.3","SS1613141124604","","","null","","","","","<p><img src= images/blank.png width =""200"" height = ""200"" style = ""float:right""></p><p><img src=images/blank.png width =""800"" height = ""200""></p>","","","","","","","","","","","",""
"","1356.8599999998696","sequential-stimulus-presentation","303","487664","0.0-56.0-1.3","SS1613141124604","trial","","40","800","2156.8599999998696","images/stimuli/spore_stims/complex_18_A_d.gif","images/stimuli/spore_stims/complex_18_B_d.gif","","","","","16","complex_similar","images/stimuli/spore_stims/complex_18_B_d.gif","left","","","","",""
"","null","html-keyboard-response","304","488658","0.0-56.0-0.4","SS1613141124604","","","null","","","","","<p><img src= images/blank.png width =""200"" height = ""200"" style = ""float:right""></p><p><img src=images/blank.png width =""800"" height = ""200""></p>","","","","","","","","","","","",""
"","319.0099999992526","sequential-stimulus-presentation","305","489806","0.0-56.0-1.4","SS1613141124604","trial","","40","800","1119.0099999992526","images/stimuli/spore_stims/complex_18_A_d.gif","images/stimuli/spore_stims/complex_18_B_d.gif","","","","","16","complex_similar","images/stimuli/spore_stims/complex_18_B_d.gif","left","","","","",""
"","null","html-keyboard-response","306","490666","0.0-56.0-0.5","SS1613141124604","","","null","","","","","<p><img src= images/blank.png width =""200"" height = ""200"" style = ""float:right""></p><p><img src=images/blank.png width =""800"" height = ""200""></p>","","","","","","","","","","","",""
"","384.0600000003469","sequential-stimulus-presentation","307","491883","0.0-56.0-1.5","SS1613141124604","trial","","40","800","1184.060000000347","images/stimuli/spore_stims/complex_18_A_d.gif","images/stimuli/spore_stims/complex_18_B_d.gif","","","","","16","complex_similar","images/stimuli/spore_stims/complex_18_A_d.gif","middle","","","","",""
"","null","html-keyboard-response","308","492700","0.0-56.0-0.6","SS1613141124604","","","null","","","","","<p><img src= images/blank.png width =""200"" height = ""200"" style = ""float:right""></p><p><img src=images/blank.png width =""800"" height = ""200""></p>","","","","","","","","","","","",""
"","1392.3600000016158","sequential-stimulus-presentation","309","494972","0.0-56.0-1.6","SS1613141124604","trial","","40","800","2192.360000001616","images/stimuli/spore_stims/complex_18_A_d.gif","images/stimuli/spore_stims/complex_18_B_d.gif","","","","","16","complex_similar","images/stimuli/spore_stims/complex_18_B_d.gif","left","","","","",""
"","null","html-keyboard-response","310","496180","0.0-56.0-0.7","SS1613141124604","","","null","","","","","<p><img src= images/blank.png width =""200"" height = ""200"" style = ""float:right""></p><p><img src=images/blank.png width =""800"" height = ""200""></p>","","","","","","","","","","","",""
"","214.57500000001164","sequential-stimulus-presentation","311","497229","0.0-56.0-1.7","SS1613141124604","trial","","40","800","1014.5750000000116","images/stimuli/spore_stims/complex_18_A_d.gif","images/stimuli/spore_stims/complex_18_B_d.gif","","","","","16","complex_similar","images/stimuli/spore_stims/complex_18_B_d.gif","left","","","","",""
"","1744.2399999999907","html-keyboard-response","312","498989","0.0-57.0","SS1613141124604","pref_question","","51","","","","","<video width ='960' height = '540' style='padding-top:8%' autoplay muted><source src='images/stimuli/wall_pref.mp4' type='video/mp4'></video>","3","right","66%","16","","","","","","","",""
