"view_history","rt","trial_type","trial_index","time_elapsed","internal_node_id","subject","stimulus_type","trial_stimulus","key_press","minimum_viewing_duration","trial_looking_time","block_deviant","block_background","stimulus","wall_pref","location","location_percent","block_number","block_type","stimulus_displayed","position_displayed","stim_type_selected","responses","question_order","stimulus_left","stimulus_right"
"[{""page_index"":0,""viewing_time"":22362.089999951422}]","22363.360000075772","instructions","0","22366","0.0-0.0","SS1613168937460","","","","","","","","","","","","","","","","","","","",""
"[{""page_index"":0,""viewing_time"":25576.164999976754},{""page_index"":1,""viewing_time"":21281.810000073165}]","46858.580000000075","instructions","1","71230","0.0-1.0","SS1613168937460","instructions","","","","","","","","","","","","","","","","","","",""
"","7030.189999844879","sequential-stimulus-presentation","2","79095","0.0-2.0","SS1613168937460","","","40","800","7830.189999844879","null","null","","","","","","","","","","","","",""
"","8248.704999918118","sequential-stimulus-presentation","3","88205","0.0-3.0","SS1613168937460","","","40","800","9048.704999918118","null","null","","","","","","","","","","","","",""
"[{""page_index"":0,""viewing_time"":7653.924999991432}]","7654.589999932796","instructions","4","95861","0.0-4.0","SS1613168937460","instructions","","","","","","","","","","","","","","","","","","",""
"","16642.495000036433","html-keyboard-response","5","112511","0.0-5.0","SS1613168937460","instructions","","49","","","","","<video width ='960' height = '540' autoplay muted><source src='images/stimuli/wall_pref.mp4' type='video/mp4'></video>","1","left","25%","","","","","","","","",""
"","3569.134999997914","sequential-stimulus-presentation","6","116896","0.0-6.0","SS1613168937460","pref_reveal","","40","800","4369.134999997914","null","null","","","","","","","","","","","","",""
"[{""page_index"":0,""viewing_time"":12819.820000091568},{""page_index"":1,""viewing_time"":6877.734999870881},{""page_index"":2,""viewing_time"":2040.7150001265109},{""page_index"":3,""viewing_time"":1359.01500005275}]","23097.910000011325","instructions","7","139996","0.0-7.0","SS1613168937460","instructions","","","","","","","","","","","","","","","","","","",""
"","null","html-keyboard-response","8","140944","0.0-8.0-0.0","SS1613168937460","","","null","","","","","<p><img src= images/blank.png width =""200"" height = ""200"" style = ""float:right""></p><p><img src=images/blank.png width =""800"" height = ""200""></p>","","","","","","","","","","","",""
"","28580.894999904558","sequential-stimulus-presentation","9","170352","0.0-8.0-1.0","SS1613168937460","trial","","40","800","29380.894999904558","images/stimuli/spore_stims/complex_12_B_d.gif","images/stimuli/spore_stims/complex_12_A_d.gif","","","","","0","complex_similar","images/stimuli/spore_stims/complex_12_A_d.gif","left","","","","",""
"","null","html-keyboard-response","10","171395","0.0-8.0-0.1","SS1613168937460","","","null","","","","","<p><img src= images/blank.png width =""200"" height = ""200"" style = ""float:right""></p><p><img src=images/blank.png width =""800"" height = ""200""></p>","","","","","","","","","","","",""
"","3791.664999909699","sequential-stimulus-presentation","11","176016","0.0-8.0-1.1","SS1613168937460","trial","","40","800","4591.664999909699","images/stimuli/spore_stims/complex_12_B_d.gif","images/stimuli/spore_stims/complex_12_A_d.gif","","","","","0","complex_similar","images/stimuli/spore_stims/complex_12_A_d.gif","left","","","","",""
"","null","html-keyboard-response","12","176972","0.0-8.0-0.2","SS1613168937460","","","null","","","","","<p><img src= images/blank.png width =""200"" height = ""200"" style = ""float:right""></p><p><img src=images/blank.png width =""800"" height = ""200""></p>","","","","","","","","","","","",""
"","1726.6349999699742","sequential-stimulus-presentation","13","179510","0.0-8.0-1.2","SS1613168937460","trial","","40","800","2526.634999969974","images/stimuli/spore_stims/complex_12_B_d.gif","images/stimuli/spore_stims/complex_12_A_d.gif","","","","","0","complex_similar","images/stimuli/spore_stims/complex_12_A_d.gif","left","","","","",""
"","null","html-keyboard-response","14","180489","0.0-8.0-0.3","SS1613168937460","","","null","","","","","<p><img src= images/blank.png width =""200"" height = ""200"" style = ""float:right""></p><p><img src=images/blank.png width =""800"" height = ""200""></p>","","","","","","","","","","","",""
"","7474.915000144392","sequential-stimulus-presentation","15","188775","0.0-8.0-1.3","SS1613168937460","trial","","40","800","8274.915000144392","images/stimuli/spore_stims/complex_12_B_d.gif","images/stimuli/spore_stims/complex_12_A_d.gif","","","","","0","complex_similar","images/stimuli/spore_stims/complex_12_A_d.gif","left","","","","",""
"","null","html-keyboard-response","16","189922","0.0-8.0-0.4","SS1613168937460","","","null","","","","","<p><img src= images/blank.png width =""200"" height = ""200"" style = ""float:right""></p><p><img src=images/blank.png width =""800"" height = ""200""></p>","","","","","","","","","","","",""
"","3443.3749997988343","sequential-stimulus-presentation","17","194190","0.0-8.0-1.4","SS1613168937460","trial","","40","800","4243.374999798834","images/stimuli/spore_stims/complex_12_B_d.gif","images/stimuli/spore_stims/complex_12_A_d.gif","","","","","0","complex_similar","images/stimuli/spore_stims/complex_12_B_d.gif","middle","","","","",""
"","null","html-keyboard-response","18","195258","0.0-8.0-0.5","SS1613168937460","","","null","","","","","<p><img src= images/blank.png width =""200"" height = ""200"" style = ""float:right""></p><p><img src=images/blank.png width =""800"" height = ""200""></p>","","","","","","","","","","","",""
"","5250.205000163987","sequential-stimulus-presentation","19","201327","0.0-8.0-1.5","SS1613168937460","trial","","40","800","6050.205000163987","images/stimuli/spore_stims/complex_12_B_d.gif","images/stimuli/spore_stims/complex_12_A_d.gif","","","","","0","complex_similar","images/stimuli/spore_stims/complex_12_A_d.gif","left","","","","",""
"","null","html-keyboard-response","20","202440","0.0-8.0-0.6","SS1613168937460","","","null","","","","","<p><img src= images/blank.png width =""200"" height = ""200"" style = ""float:right""></p><p><img src=images/blank.png width =""800"" height = ""200""></p>","","","","","","","","","","","",""
"","50255.67000010051","sequential-stimulus-presentation","21","253519","0.0-8.0-1.6","SS1613168937460","trial","","40","800","51055.67000010051","images/stimuli/spore_stims/complex_12_B_d.gif","images/stimuli/spore_stims/complex_12_A_d.gif","","","","","0","complex_similar","images/stimuli/spore_stims/complex_12_A_d.gif","left","","","","",""
"","null","html-keyboard-response","22","254821","0.0-8.0-0.7","SS1613168937460","","","null","","","","","<p><img src= images/blank.png width =""200"" height = ""200"" style = ""float:right""></p><p><img src=images/blank.png width =""800"" height = ""200""></p>","","","","","","","","","","","",""
"","6135.790000203997","sequential-stimulus-presentation","23","261774","0.0-8.0-1.7","SS1613168937460","trial","","40","800","6935.790000203997","images/stimuli/spore_stims/complex_12_B_d.gif","images/stimuli/spore_stims/complex_12_A_d.gif","","","","","0","complex_similar","images/stimuli/spore_stims/complex_12_A_d.gif","left","","","","",""
"","2118.5600000899285","html-keyboard-response","24","263902","0.0-9.0","SS1613168937460","pref_question","","50","","","","","<video width ='960' height = '540' style='padding-top:8%' autoplay muted><source src='images/stimuli/wall_pref.mp4' type='video/mp4'></video>","2","middle","45%","0","","","","","","","",""
"","5702.154999831691","sequential-stimulus-presentation","25","270532","0.0-10.0","SS1613168937460","pref_reveal","","40","800","6502.154999831691","null","null","","","","","0","","","","deviant","","","",""
"","null","html-keyboard-response","26","271753","0.0-11.0-0.0","SS1613168937460","","","null","","","","","<p><img src= images/blank.png width =""200"" height = ""200"" style = ""float:right""></p><p><img src=images/blank.png width =""800"" height = ""200""></p>","","","","","","","","","","","",""
"","436.52500002644956","sequential-stimulus-presentation","27","273015","0.0-11.0-1.0","SS1613168937460","trial","","40","800","1236.5250000264496","images/stimuli/spore_stims/complex_09_B_a.gif","images/stimuli/spore_stims/complex_19_A_c.gif","","","","","1","complex_dissimilar","images/stimuli/spore_stims/complex_19_A_c.gif","left","","","","",""
"","null","html-keyboard-response","28","274311","0.0-11.0-0.1","SS1613168937460","","","null","","","","","<p><img src= images/blank.png width =""200"" height = ""200"" style = ""float:right""></p><p><img src=images/blank.png width =""800"" height = ""200""></p>","","","","","","","","","","","",""
"","49.41999982111156","sequential-stimulus-presentation","29","275199","0.0-11.0-1.1","SS1613168937460","trial","","40","800","849.4199998211116","images/stimuli/spore_stims/complex_09_B_a.gif","images/stimuli/spore_stims/complex_19_A_c.gif","","","","","1","complex_dissimilar","images/stimuli/spore_stims/complex_19_A_c.gif","left","","","","",""
"","null","html-keyboard-response","30","276109","0.0-11.0-0.2","SS1613168937460","","","null","","","","","<p><img src= images/blank.png width =""200"" height = ""200"" style = ""float:right""></p><p><img src=images/blank.png width =""800"" height = ""200""></p>","","","","","","","","","","","",""
"","79.89000016823411","sequential-stimulus-presentation","31","277203","0.0-11.0-1.2","SS1613168937460","trial","","40","800","879.8900001682341","images/stimuli/spore_stims/complex_09_B_a.gif","images/stimuli/spore_stims/complex_19_A_c.gif","","","","","1","complex_dissimilar","images/stimuli/spore_stims/complex_19_A_c.gif","left","","","","",""
"","null","html-keyboard-response","32","278266","0.0-11.0-0.3","SS1613168937460","","","null","","","","","<p><img src= images/blank.png width =""200"" height = ""200"" style = ""float:right""></p><p><img src=images/blank.png width =""800"" height = ""200""></p>","","","","","","","","","","","",""
"","123.11999988742173","sequential-stimulus-presentation","33","279221","0.0-11.0-1.3","SS1613168937460","trial","","40","800","923.1199998874217","images/stimuli/spore_stims/complex_09_B_a.gif","images/stimuli/spore_stims/complex_19_A_c.gif","","","","","1","complex_dissimilar","images/stimuli/spore_stims/complex_09_B_a.gif","middle","","","","",""
"","null","html-keyboard-response","34","280169","0.0-11.0-0.4","SS1613168937460","","","null","","","","","<p><img src= images/blank.png width =""200"" height = ""200"" style = ""float:right""></p><p><img src=images/blank.png width =""800"" height = ""200""></p>","","","","","","","","","","","",""
"","73.11500003561378","sequential-stimulus-presentation","35","281050","0.0-11.0-1.4","SS1613168937460","trial","","40","800","873.1150000356138","images/stimuli/spore_stims/complex_09_B_a.gif","images/stimuli/spore_stims/complex_19_A_c.gif","","","","","1","complex_dissimilar","images/stimuli/spore_stims/complex_19_A_c.gif","left","","","","",""
"","null","html-keyboard-response","36","282305","0.0-11.0-0.5","SS1613168937460","","","null","","","","","<p><img src= images/blank.png width =""200"" height = ""200"" style = ""float:right""></p><p><img src=images/blank.png width =""800"" height = ""200""></p>","","","","","","","","","","","",""
"","63.439999939873815","sequential-stimulus-presentation","37","283175","0.0-11.0-1.5","SS1613168937460","trial","","40","800","863.4399999398738","images/stimuli/spore_stims/complex_09_B_a.gif","images/stimuli/spore_stims/complex_19_A_c.gif","","","","","1","complex_dissimilar","images/stimuli/spore_stims/complex_19_A_c.gif","left","","","","",""
"","null","html-keyboard-response","38","284230","0.0-11.0-0.6","SS1613168937460","","","null","","","","","<p><img src= images/blank.png width =""200"" height = ""200"" style = ""float:right""></p><p><img src=images/blank.png width =""800"" height = ""200""></p>","","","","","","","","","","","",""
"","209.81499995104969","sequential-stimulus-presentation","39","285323","0.0-11.0-1.6","SS1613168937460","trial","","40","800","1009.8149999510497","images/stimuli/spore_stims/complex_09_B_a.gif","images/stimuli/spore_stims/complex_19_A_c.gif","","","","","1","complex_dissimilar","images/stimuli/spore_stims/complex_19_A_c.gif","left","","","","",""
"","null","html-keyboard-response","40","286350","0.0-11.0-0.7","SS1613168937460","","","null","","","","","<p><img src= images/blank.png width =""200"" height = ""200"" style = ""float:right""></p><p><img src=images/blank.png width =""800"" height = ""200""></p>","","","","","","","","","","","",""
"","1.2499999720603228","sequential-stimulus-presentation","41","287166","0.0-11.0-1.7","SS1613168937460","trial","","40","800","801.2499999720603","images/stimuli/spore_stims/complex_09_B_a.gif","images/stimuli/spore_stims/complex_19_A_c.gif","","","","","1","complex_dissimilar","images/stimuli/spore_stims/complex_19_A_c.gif","left","","","","",""
"","53.59499994665384","html-keyboard-response","42","287225","0.0-12.0","SS1613168937460","pref_question","","51","","","","","<video width ='960' height = '540' style='padding-top:8%' autoplay muted><source src='images/stimuli/wall_pref.mp4' type='video/mp4'></video>","3","right","66%","1","","","","","","","",""
"","175.96499994397163","sequential-stimulus-presentation","43","288230","0.0-13.0","SS1613168937460","pref_reveal","","40","800","975.9649999439716","null","null","","","","","1","","","","novel","","","",""
"","null","html-keyboard-response","44","289479","0.0-14.0-0.0","SS1613168937460","","","null","","","","","<p><img src= images/blank.png width =""200"" height = ""200"" style = ""float:right""></p><p><img src=images/blank.png width =""800"" height = ""200""></p>","","","","","","","","","","","",""
"","17.955000046640635","sequential-stimulus-presentation","45","290326","0.0-14.0-1.0","SS1613168937460","trial","","40","800","817.9550000466406","images/stimuli/spore_stims/simple_12_B_d.gif","images/stimuli/spore_stims/simple_12_A_d.gif","","","","","2","simple_similar","images/stimuli/spore_stims/simple_12_A_d.gif","left","","","","",""
"","null","html-keyboard-response","46","291180","0.0-14.0-0.1","SS1613168937460","","","null","","","","","<p><img src= images/blank.png width =""200"" height = ""200"" style = ""float:right""></p><p><img src=images/blank.png width =""800"" height = ""200""></p>","","","","","","","","","","","",""
"","111.97500000707805","sequential-stimulus-presentation","47","292104","0.0-14.0-1.1","SS1613168937460","trial","","40","800","911.975000007078","images/stimuli/spore_stims/simple_12_B_d.gif","images/stimuli/spore_stims/simple_12_A_d.gif","","","","","2","simple_similar","images/stimuli/spore_stims/simple_12_A_d.gif","left","","","","",""
"","null","html-keyboard-response","48","293099","0.0-14.0-0.2","SS1613168937460","","","null","","","","","<p><img src= images/blank.png width =""200"" height = ""200"" style = ""float:right""></p><p><img src=images/blank.png width =""800"" height = ""200""></p>","","","","","","","","","","","",""
"","138.0850002169609","sequential-stimulus-presentation","49","294055","0.0-14.0-1.2","SS1613168937460","trial","","40","800","938.0850002169609","images/stimuli/spore_stims/simple_12_B_d.gif","images/stimuli/spore_stims/simple_12_A_d.gif","","","","","2","simple_similar","images/stimuli/spore_stims/simple_12_A_d.gif","left","","","","",""
"","null","html-keyboard-response","50","295227","0.0-14.0-0.3","SS1613168937460","","","null","","","","","<p><img src= images/blank.png width =""200"" height = ""200"" style = ""float:right""></p><p><img src=images/blank.png width =""800"" height = ""200""></p>","","","","","","","","","","","",""
"","163.85500016622245","sequential-stimulus-presentation","51","296199","0.0-14.0-1.3","SS1613168937460","trial","","40","800","963.8550001662225","images/stimuli/spore_stims/simple_12_B_d.gif","images/stimuli/spore_stims/simple_12_A_d.gif","","","","","2","simple_similar","images/stimuli/spore_stims/simple_12_A_d.gif","left","","","","",""
"","null","html-keyboard-response","52","297024","0.0-14.0-0.4","SS1613168937460","","","null","","","","","<p><img src= images/blank.png width =""200"" height = ""200"" style = ""float:right""></p><p><img src=images/blank.png width =""800"" height = ""200""></p>","","","","","","","","","","","",""
"","67.19499989412725","sequential-stimulus-presentation","53","298004","0.0-14.0-1.4","SS1613168937460","trial","","40","800","867.1949998941272","images/stimuli/spore_stims/simple_12_B_d.gif","images/stimuli/spore_stims/simple_12_A_d.gif","","","","","2","simple_similar","images/stimuli/spore_stims/simple_12_A_d.gif","left","","","","",""
"","null","html-keyboard-response","54","299274","0.0-14.0-0.5","SS1613168937460","","","null","","","","","<p><img src= images/blank.png width =""200"" height = ""200"" style = ""float:right""></p><p><img src=images/blank.png width =""800"" height = ""200""></p>","","","","","","","","","","","",""
"","82.44000002741814","sequential-stimulus-presentation","55","300166","0.0-14.0-1.5","SS1613168937460","trial","","40","800","882.4400000274181","images/stimuli/spore_stims/simple_12_B_d.gif","images/stimuli/spore_stims/simple_12_A_d.gif","","","","","2","simple_similar","images/stimuli/spore_stims/simple_12_A_d.gif","left","","","","",""
"","null","html-keyboard-response","56","301311","0.0-14.0-0.6","SS1613168937460","","","null","","","","","<p><img src= images/blank.png width =""200"" height = ""200"" style = ""float:right""></p><p><img src=images/blank.png width =""800"" height = ""200""></p>","","","","","","","","","","","",""
"","175.4099999088794","sequential-stimulus-presentation","57","302300","0.0-14.0-1.6","SS1613168937460","trial","","40","800","975.4099999088794","images/stimuli/spore_stims/simple_12_B_d.gif","images/stimuli/spore_stims/simple_12_A_d.gif","","","","","2","simple_similar","images/stimuli/spore_stims/simple_12_A_d.gif","left","","","","",""
"","null","html-keyboard-response","58","303135","0.0-14.0-0.7","SS1613168937460","","","null","","","","","<p><img src= images/blank.png width =""200"" height = ""200"" style = ""float:right""></p><p><img src=images/blank.png width =""800"" height = ""200""></p>","","","","","","","","","","","",""
"","47.495000064373016","sequential-stimulus-presentation","59","304020","0.0-14.0-1.7","SS1613168937460","trial","","40","800","847.495000064373","images/stimuli/spore_stims/simple_12_B_d.gif","images/stimuli/spore_stims/simple_12_A_d.gif","","","","","2","simple_similar","images/stimuli/spore_stims/simple_12_B_d.gif","right","","","","",""
"","147.52000011503696","html-keyboard-response","60","304178","0.0-15.0","SS1613168937460","pref_question","","50","","","","","<video width ='960' height = '540' style='padding-top:8%' autoplay muted><source src='images/stimuli/wall_pref.mp4' type='video/mp4'></video>","2","middle","45%","2","","","","","","","",""
"","257.9950001090765","sequential-stimulus-presentation","61","305268","0.0-16.0","SS1613168937460","pref_reveal","","40","800","1057.9950001090765","null","null","","","","","2","","","","novel","","","",""
"","null","html-keyboard-response","62","306375","0.0-17.0-0.0","SS1613168937460","","","null","","","","","<p><img src= images/blank.png width =""200"" height = ""200"" style = ""float:right""></p><p><img src=images/blank.png width =""800"" height = ""200""></p>","","","","","","","","","","","",""
"","93.2050000410527","sequential-stimulus-presentation","63","307291","0.0-17.0-1.0","SS1613168937460","trial","","40","800","893.2050000410527","images/stimuli/spore_stims/simple_15_A_c.gif","images/stimuli/spore_stims/simple_03_A_d.gif","","","","","3","simple_dissimilar","images/stimuli/spore_stims/simple_03_A_d.gif","right","","","","",""
"","null","html-keyboard-response","64","308458","0.0-17.0-0.1","SS1613168937460","","","null","","","","","<p><img src= images/blank.png width =""200"" height = ""200"" style = ""float:right""></p><p><img src=images/blank.png width =""800"" height = ""200""></p>","","","","","","","","","","","",""
"","129.19999985024333","sequential-stimulus-presentation","65","309404","0.0-17.0-1.1","SS1613168937460","trial","","40","800","929.1999998502433","images/stimuli/spore_stims/simple_15_A_c.gif","images/stimuli/spore_stims/simple_03_A_d.gif","","","","","3","simple_dissimilar","images/stimuli/spore_stims/simple_03_A_d.gif","right","","","","",""
"","null","html-keyboard-response","66","310281","0.0-17.0-0.2","SS1613168937460","","","null","","","","","<p><img src= images/blank.png width =""200"" height = ""200"" style = ""float:right""></p><p><img src=images/blank.png width =""800"" height = ""200""></p>","","","","","","","","","","","",""
"","10.69999998435378","sequential-stimulus-presentation","67","311110","0.0-17.0-1.2","SS1613168937460","trial","","40","800","810.6999999843538","images/stimuli/spore_stims/simple_15_A_c.gif","images/stimuli/spore_stims/simple_03_A_d.gif","","","","","3","simple_dissimilar","images/stimuli/spore_stims/simple_03_A_d.gif","right","","","","",""
"","null","html-keyboard-response","68","312125","0.0-17.0-0.3","SS1613168937460","","","null","","","","","<p><img src= images/blank.png width =""200"" height = ""200"" style = ""float:right""></p><p><img src=images/blank.png width =""800"" height = ""200""></p>","","","","","","","","","","","",""
"","103.95999997854233","sequential-stimulus-presentation","69","313041","0.0-17.0-1.3","SS1613168937460","trial","","40","800","903.9599999785423","images/stimuli/spore_stims/simple_15_A_c.gif","images/stimuli/spore_stims/simple_03_A_d.gif","","","","","3","simple_dissimilar","images/stimuli/spore_stims/simple_03_A_d.gif","right","","","","",""
"","null","html-keyboard-response","70","314171","0.0-17.0-0.4","SS1613168937460","","","null","","","","","<p><img src= images/blank.png width =""200"" height = ""200"" style = ""float:right""></p><p><img src=images/blank.png width =""800"" height = ""200""></p>","","","","","","","","","","","",""
"","67.28999991901219","sequential-stimulus-presentation","71","315108","0.0-17.0-1.4","SS1613168937460","trial","","40","800","867.2899999190122","images/stimuli/spore_stims/simple_15_A_c.gif","images/stimuli/spore_stims/simple_03_A_d.gif","","","","","3","simple_dissimilar","images/stimuli/spore_stims/simple_03_A_d.gif","right","","","","",""
"","null","html-keyboard-response","72","316406","0.0-17.0-0.5","SS1613168937460","","","null","","","","","<p><img src= images/blank.png width =""200"" height = ""200"" style = ""float:right""></p><p><img src=images/blank.png width =""800"" height = ""200""></p>","","","","","","","","","","","",""
"","86.74499997869134","sequential-stimulus-presentation","73","317307","0.0-17.0-1.5","SS1613168937460","trial","","40","800","886.7449999786913","images/stimuli/spore_stims/simple_15_A_c.gif","images/stimuli/spore_stims/simple_03_A_d.gif","","","","","3","simple_dissimilar","images/stimuli/spore_stims/simple_03_A_d.gif","right","","","","",""
"","null","html-keyboard-response","74","318404","0.0-17.0-0.6","SS1613168937460","","","null","","","","","<p><img src= images/blank.png width =""200"" height = ""200"" style = ""float:right""></p><p><img src=images/blank.png width =""800"" height = ""200""></p>","","","","","","","","","","","",""
"","269.9700000230223","sequential-stimulus-presentation","75","319486","0.0-17.0-1.6","SS1613168937460","trial","","40","800","1069.9700000230223","images/stimuli/spore_stims/simple_15_A_c.gif","images/stimuli/spore_stims/simple_03_A_d.gif","","","","","3","simple_dissimilar","images/stimuli/spore_stims/simple_03_A_d.gif","right","","","","",""
"","null","html-keyboard-response","76","320751","0.0-17.0-0.7","SS1613168937460","","","null","","","","","<p><img src= images/blank.png width =""200"" height = ""200"" style = ""float:right""></p><p><img src=images/blank.png width =""800"" height = ""200""></p>","","","","","","","","","","","",""
"","37.28500008583069","sequential-stimulus-presentation","77","321606","0.0-17.0-1.7","SS1613168937460","trial","","40","800","837.2850000858307","images/stimuli/spore_stims/simple_15_A_c.gif","images/stimuli/spore_stims/simple_03_A_d.gif","","","","","3","simple_dissimilar","images/stimuli/spore_stims/simple_15_A_c.gif","left","","","","",""
"","13423.479999881238","html-keyboard-response","78","335062","0.0-18.0","SS1613168937460","pref_question","","51","","","","","<video width ='960' height = '540' style='padding-top:8%' autoplay muted><source src='images/stimuli/wall_pref.mp4' type='video/mp4'></video>","3","right","66%","3","","","","","","","",""
"","149.77000001817942","sequential-stimulus-presentation","79","336027","0.0-19.0","SS1613168937460","pref_reveal","","40","800","949.7700000181794","null","null","","","","","3","","","","background","","","",""
"","null","html-keyboard-response","80","336940","0.0-20.0-0.0","SS1613168937460","","","null","","","","","<p><img src= images/blank.png width =""200"" height = ""200"" style = ""float:right""></p><p><img src=images/blank.png width =""800"" height = ""200""></p>","","","","","","","","","","","",""
"","278.2699998933822","sequential-stimulus-presentation","81","338043","0.0-20.0-1.0","SS1613168937460","trial","","40","800","1078.2699998933822","images/stimuli/spore_stims/simple_11_B_d.gif","images/stimuli/spore_stims/simple_11_A_d.gif","","","","","4","simple_similar","images/stimuli/spore_stims/simple_11_A_d.gif","middle","","","","",""
"","null","html-keyboard-response","82","338935","0.0-20.0-0.1","SS1613168937460","","","null","","","","","<p><img src= images/blank.png width =""200"" height = ""200"" style = ""float:right""></p><p><img src=images/blank.png width =""800"" height = ""200""></p>","","","","","","","","","","","",""
"","174.97000005096197","sequential-stimulus-presentation","83","339942","0.0-20.0-1.1","SS1613168937460","trial","","40","800","974.970000050962","images/stimuli/spore_stims/simple_11_B_d.gif","images/stimuli/spore_stims/simple_11_A_d.gif","","","","","4","simple_similar","images/stimuli/spore_stims/simple_11_A_d.gif","middle","","","","",""
"","null","html-keyboard-response","84","341197","0.0-20.0-0.2","SS1613168937460","","","null","","","","","<p><img src= images/blank.png width =""200"" height = ""200"" style = ""float:right""></p><p><img src=images/blank.png width =""800"" height = ""200""></p>","","","","","","","","","","","",""
"","83.67999992333353","sequential-stimulus-presentation","85","342097","0.0-20.0-1.2","SS1613168937460","trial","","40","800","883.6799999233335","images/stimuli/spore_stims/simple_11_B_d.gif","images/stimuli/spore_stims/simple_11_A_d.gif","","","","","4","simple_similar","images/stimuli/spore_stims/simple_11_B_d.gif","left","","","","",""
"","null","html-keyboard-response","86","343369","0.0-20.0-0.3","SS1613168937460","","","null","","","","","<p><img src= images/blank.png width =""200"" height = ""200"" style = ""float:right""></p><p><img src=images/blank.png width =""800"" height = ""200""></p>","","","","","","","","","","","",""
"","164.17999984696507","sequential-stimulus-presentation","87","344422","0.0-20.0-1.3","SS1613168937460","trial","","40","800","964.1799998469651","images/stimuli/spore_stims/simple_11_B_d.gif","images/stimuli/spore_stims/simple_11_A_d.gif","","","","","4","simple_similar","images/stimuli/spore_stims/simple_11_A_d.gif","middle","","","","",""
"","null","html-keyboard-response","88","345636","0.0-20.0-0.4","SS1613168937460","","","null","","","","","<p><img src= images/blank.png width =""200"" height = ""200"" style = ""float:right""></p><p><img src=images/blank.png width =""800"" height = ""200""></p>","","","","","","","","","","","",""
"","70.88500005193055","sequential-stimulus-presentation","89","346533","0.0-20.0-1.4","SS1613168937460","trial","","40","800","870.8850000519305","images/stimuli/spore_stims/simple_11_B_d.gif","images/stimuli/spore_stims/simple_11_A_d.gif","","","","","4","simple_similar","images/stimuli/spore_stims/simple_11_A_d.gif","middle","","","","",""
"","null","html-keyboard-response","90","347640","0.0-20.0-0.5","SS1613168937460","","","null","","","","","<p><img src= images/blank.png width =""200"" height = ""200"" style = ""float:right""></p><p><img src=images/blank.png width =""800"" height = ""200""></p>","","","","","","","","","","","",""
"","2025.815000059083","sequential-stimulus-presentation","91","350488","0.0-20.0-1.5","SS1613168937460","trial","","40","800","2825.815000059083","images/stimuli/spore_stims/simple_11_B_d.gif","images/stimuli/spore_stims/simple_11_A_d.gif","","","","","4","simple_similar","images/stimuli/spore_stims/simple_11_A_d.gif","middle","","","","",""
"","null","html-keyboard-response","92","351357","0.0-20.0-0.6","SS1613168937460","","","null","","","","","<p><img src= images/blank.png width =""200"" height = ""200"" style = ""float:right""></p><p><img src=images/blank.png width =""800"" height = ""200""></p>","","","","","","","","","","","",""
"","152.8400001116097","sequential-stimulus-presentation","93","352382","0.0-20.0-1.6","SS1613168937460","trial","","40","800","952.8400001116097","images/stimuli/spore_stims/simple_11_B_d.gif","images/stimuli/spore_stims/simple_11_A_d.gif","","","","","4","simple_similar","images/stimuli/spore_stims/simple_11_A_d.gif","middle","","","","",""
"","null","html-keyboard-response","94","353197","0.0-20.0-0.7","SS1613168937460","","","null","","","","","<p><img src= images/blank.png width =""200"" height = ""200"" style = ""float:right""></p><p><img src=images/blank.png width =""800"" height = ""200""></p>","","","","","","","","","","","",""
"","636.5900000091642","sequential-stimulus-presentation","95","354664","0.0-20.0-1.7","SS1613168937460","trial","","40","800","1436.5900000091642","images/stimuli/spore_stims/simple_11_B_d.gif","images/stimuli/spore_stims/simple_11_A_d.gif","","","","","4","simple_similar","images/stimuli/spore_stims/simple_11_A_d.gif","middle","","","","",""
"","2568.0999998003244","html-keyboard-response","96","357238","0.0-21.0","SS1613168937460","pref_question","","50","","","","","<video width ='960' height = '540' style='padding-top:8%' autoplay muted><source src='images/stimuli/wall_pref.mp4' type='video/mp4'></video>","2","middle","45%","4","","","","","","","",""
"","266.17499999701977","sequential-stimulus-presentation","97","358313","0.0-22.0","SS1613168937460","pref_reveal","","40","800","1066.1749999970198","null","null","","","","","4","","","","background","","","",""
"","null","html-keyboard-response","98","359253","0.0-23.0-0.0","SS1613168937460","","","null","","","","","<p><img src= images/blank.png width =""200"" height = ""200"" style = ""float:right""></p><p><img src=images/blank.png width =""800"" height = ""200""></p>","","","","","","","","","","","",""
"","322.0200000796467","sequential-stimulus-presentation","99","360460","0.0-23.0-1.0","SS1613168937460","trial","","40","800","1122.0200000796467","images/stimuli/spore_stims/complex_15_B_c.gif","images/stimuli/spore_stims/complex_15_A_c.gif","","","","","5","complex_similar","images/stimuli/spore_stims/complex_15_A_c.gif","left","","","","",""
"","null","html-keyboard-response","100","361492","0.0-23.0-0.1","SS1613168937460","","","null","","","","","<p><img src= images/blank.png width =""200"" height = ""200"" style = ""float:right""></p><p><img src=images/blank.png width =""800"" height = ""200""></p>","","","","","","","","","","","",""
"","32.924999948590994","sequential-stimulus-presentation","101","362334","0.0-23.0-1.1","SS1613168937460","trial","","40","800","832.924999948591","images/stimuli/spore_stims/complex_15_B_c.gif","images/stimuli/spore_stims/complex_15_A_c.gif","","","","","5","complex_similar","images/stimuli/spore_stims/complex_15_A_c.gif","left","","","","",""
"","null","html-keyboard-response","102","363295","0.0-23.0-0.2","SS1613168937460","","","null","","","","","<p><img src= images/blank.png width =""200"" height = ""200"" style = ""float:right""></p><p><img src=images/blank.png width =""800"" height = ""200""></p>","","","","","","","","","","","",""
"","647.0700001809746","sequential-stimulus-presentation","103","364764","0.0-23.0-1.2","SS1613168937460","trial","","40","800","1447.0700001809746","images/stimuli/spore_stims/complex_15_B_c.gif","images/stimuli/spore_stims/complex_15_A_c.gif","","","","","5","complex_similar","images/stimuli/spore_stims/complex_15_A_c.gif","left","","","","",""
"","null","html-keyboard-response","104","365937","0.0-23.0-0.3","SS1613168937460","","","null","","","","","<p><img src= images/blank.png width =""200"" height = ""200"" style = ""float:right""></p><p><img src=images/blank.png width =""800"" height = ""200""></p>","","","","","","","","","","","",""
"","155.40500008501112","sequential-stimulus-presentation","105","366945","0.0-23.0-1.3","SS1613168937460","trial","","40","800","955.4050000850111","images/stimuli/spore_stims/complex_15_B_c.gif","images/stimuli/spore_stims/complex_15_A_c.gif","","","","","5","complex_similar","images/stimuli/spore_stims/complex_15_B_c.gif","middle","","","","",""
"","null","html-keyboard-response","106","367973","0.0-23.0-0.4","SS1613168937460","","","null","","","","","<p><img src= images/blank.png width =""200"" height = ""200"" style = ""float:right""></p><p><img src=images/blank.png width =""800"" height = ""200""></p>","","","","","","","","","","","",""
"","50.365000031888485","sequential-stimulus-presentation","107","368924","0.0-23.0-1.4","SS1613168937460","trial","","40","800","850.3650000318885","images/stimuli/spore_stims/complex_15_B_c.gif","images/stimuli/spore_stims/complex_15_A_c.gif","","","","","5","complex_similar","images/stimuli/spore_stims/complex_15_A_c.gif","left","","","","",""
"","null","html-keyboard-response","108","369910","0.0-23.0-0.5","SS1613168937460","","","null","","","","","<p><img src= images/blank.png width =""200"" height = ""200"" style = ""float:right""></p><p><img src=images/blank.png width =""800"" height = ""200""></p>","","","","","","","","","","","",""
"","500.1499999780208","sequential-stimulus-presentation","109","371228","0.0-23.0-1.5","SS1613168937460","trial","","40","800","1300.1499999780208","images/stimuli/spore_stims/complex_15_B_c.gif","images/stimuli/spore_stims/complex_15_A_c.gif","","","","","5","complex_similar","images/stimuli/spore_stims/complex_15_A_c.gif","left","","","","",""
"","null","html-keyboard-response","110","372124","0.0-23.0-0.6","SS1613168937460","","","null","","","","","<p><img src= images/blank.png width =""200"" height = ""200"" style = ""float:right""></p><p><img src=images/blank.png width =""800"" height = ""200""></p>","","","","","","","","","","","",""
"","67.63499998487532","sequential-stimulus-presentation","111","373004","0.0-23.0-1.6","SS1613168937460","trial","","40","800","867.6349999848753","images/stimuli/spore_stims/complex_15_B_c.gif","images/stimuli/spore_stims/complex_15_A_c.gif","","","","","5","complex_similar","images/stimuli/spore_stims/complex_15_A_c.gif","left","","","","",""
"","null","html-keyboard-response","112","374291","0.0-23.0-0.7","SS1613168937460","","","null","","","","","<p><img src= images/blank.png width =""200"" height = ""200"" style = ""float:right""></p><p><img src=images/blank.png width =""800"" height = ""200""></p>","","","","","","","","","","","",""
"","385.1999999023974","sequential-stimulus-presentation","113","375486","0.0-23.0-1.7","SS1613168937460","trial","","40","800","1185.1999999023974","images/stimuli/spore_stims/complex_15_B_c.gif","images/stimuli/spore_stims/complex_15_A_c.gif","","","","","5","complex_similar","images/stimuli/spore_stims/complex_15_A_c.gif","left","","","","",""
"","3129.8350000288337","html-keyboard-response","114","378622","0.0-24.0","SS1613168937460","pref_question","","51","","","","","<video width ='960' height = '540' style='padding-top:8%' autoplay muted><source src='images/stimuli/wall_pref.mp4' type='video/mp4'></video>","3","right","66%","5","","","","","","","",""
"","210.26499988511205","sequential-stimulus-presentation","115","379653","0.0-25.0","SS1613168937460","pref_reveal","","40","800","1010.264999885112","null","null","","","","","5","","","","novel","","","",""
"","null","html-keyboard-response","116","380835","0.0-26.0-0.0","SS1613168937460","","","null","","","","","<p><img src= images/blank.png width =""200"" height = ""200"" style = ""float:right""></p><p><img src=images/blank.png width =""800"" height = ""200""></p>","","","","","","","","","","","",""
"","340.2249999344349","sequential-stimulus-presentation","117","381999","0.0-26.0-1.0","SS1613168937460","trial","","40","800","1140.224999934435","images/stimuli/spore_stims/complex_11_B_d.gif","images/stimuli/spore_stims/complex_10_A_d.gif","","","","","6","complex_dissimilar","images/stimuli/spore_stims/complex_10_A_d.gif","left","","","","",""
"","null","html-keyboard-response","118","383041","0.0-26.0-0.1","SS1613168937460","","","null","","","","","<p><img src= images/blank.png width =""200"" height = ""200"" style = ""float:right""></p><p><img src=images/blank.png width =""800"" height = ""200""></p>","","","","","","","","","","","",""
"","53.2899999525398","sequential-stimulus-presentation","119","384081","0.0-26.0-1.1","SS1613168937460","trial","","40","800","853.2899999525398","images/stimuli/spore_stims/complex_11_B_d.gif","images/stimuli/spore_stims/complex_10_A_d.gif","","","","","6","complex_dissimilar","images/stimuli/spore_stims/complex_10_A_d.gif","left","","","","",""
"","null","html-keyboard-response","120","385018","0.0-26.0-0.2","SS1613168937460","","","null","","","","","<p><img src= images/blank.png width =""200"" height = ""200"" style = ""float:right""></p><p><img src=images/blank.png width =""800"" height = ""200""></p>","","","","","","","","","","","",""
"","413.569999858737","sequential-stimulus-presentation","121","386244","0.0-26.0-1.2","SS1613168937460","trial","","40","800","1213.569999858737","images/stimuli/spore_stims/complex_11_B_d.gif","images/stimuli/spore_stims/complex_10_A_d.gif","","","","","6","complex_dissimilar","images/stimuli/spore_stims/complex_10_A_d.gif","left","","","","",""
"","null","html-keyboard-response","122","387268","0.0-26.0-0.3","SS1613168937460","","","null","","","","","<p><img src= images/blank.png width =""200"" height = ""200"" style = ""float:right""></p><p><img src=images/blank.png width =""800"" height = ""200""></p>","","","","","","","","","","","",""
"","139.17499990202487","sequential-stimulus-presentation","123","388221","0.0-26.0-1.3","SS1613168937460","trial","","40","800","939.1749999020249","images/stimuli/spore_stims/complex_11_B_d.gif","images/stimuli/spore_stims/complex_10_A_d.gif","","","","","6","complex_dissimilar","images/stimuli/spore_stims/complex_10_A_d.gif","left","","","","",""
"","null","html-keyboard-response","124","389438","0.0-26.0-0.4","SS1613168937460","","","null","","","","","<p><img src= images/blank.png width =""200"" height = ""200"" style = ""float:right""></p><p><img src=images/blank.png width =""800"" height = ""200""></p>","","","","","","","","","","","",""
"","251.53500004671514","sequential-stimulus-presentation","125","390503","0.0-26.0-1.4","SS1613168937460","trial","","40","800","1051.5350000467151","images/stimuli/spore_stims/complex_11_B_d.gif","images/stimuli/spore_stims/complex_10_A_d.gif","","","","","6","complex_dissimilar","images/stimuli/spore_stims/complex_10_A_d.gif","left","","","","",""
"","null","html-keyboard-response","126","391312","0.0-26.0-0.5","SS1613168937460","","","null","","","","","<p><img src= images/blank.png width =""200"" height = ""200"" style = ""float:right""></p><p><img src=images/blank.png width =""800"" height = ""200""></p>","","","","","","","","","","","",""
"","21.629999857395887","sequential-stimulus-presentation","127","392181","0.0-26.0-1.5","SS1613168937460","trial","","40","800","821.6299998573959","images/stimuli/spore_stims/complex_11_B_d.gif","images/stimuli/spore_stims/complex_10_A_d.gif","","","","","6","complex_dissimilar","images/stimuli/spore_stims/complex_11_B_d.gif","right","","","","",""
"","null","html-keyboard-response","128","393306","0.0-26.0-0.6","SS1613168937460","","","null","","","","","<p><img src= images/blank.png width =""200"" height = ""200"" style = ""float:right""></p><p><img src=images/blank.png width =""800"" height = ""200""></p>","","","","","","","","","","","",""
"","421.0300000850111","sequential-stimulus-presentation","129","394549","0.0-26.0-1.6","SS1613168937460","trial","","40","800","1221.0300000850111","images/stimuli/spore_stims/complex_11_B_d.gif","images/stimuli/spore_stims/complex_10_A_d.gif","","","","","6","complex_dissimilar","images/stimuli/spore_stims/complex_10_A_d.gif","left","","","","",""
"","null","html-keyboard-response","130","395478","0.0-26.0-0.7","SS1613168937460","","","null","","","","","<p><img src= images/blank.png width =""200"" height = ""200"" style = ""float:right""></p><p><img src=images/blank.png width =""800"" height = ""200""></p>","","","","","","","","","","","",""
"","170.91999994590878","sequential-stimulus-presentation","131","396462","0.0-26.0-1.7","SS1613168937460","trial","","40","800","970.9199999459088","images/stimuli/spore_stims/complex_11_B_d.gif","images/stimuli/spore_stims/complex_10_A_d.gif","","","","","6","complex_dissimilar","images/stimuli/spore_stims/complex_10_A_d.gif","left","","","","",""
"","3132.9000000841916","html-keyboard-response","132","399606","0.0-27.0","SS1613168937460","pref_question","","50","","","","","<video width ='960' height = '540' style='padding-top:8%' autoplay muted><source src='images/stimuli/wall_pref.mp4' type='video/mp4'></video>","2","middle","45%","6","","","","","","","",""
"","191.2000000011176","sequential-stimulus-presentation","133","400614","0.0-28.0","SS1613168937460","pref_reveal","","40","800","991.2000000011176","null","null","","","","","6","","","","novel","","","",""
"","null","html-keyboard-response","134","401893","0.0-29.0-0.0","SS1613168937460","","","null","","","","","<p><img src= images/blank.png width =""200"" height = ""200"" style = ""float:right""></p><p><img src=images/blank.png width =""800"" height = ""200""></p>","","","","","","","","","","","",""
"","165.26499995961785","sequential-stimulus-presentation","135","402904","0.0-29.0-1.0","SS1613168937460","trial","","40","800","965.2649999596179","images/stimuli/spore_stims/simple_02_A_c.gif","images/stimuli/spore_stims/simple_05_A_b.gif","","","","","7","simple_dissimilar","images/stimuli/spore_stims/simple_05_A_b.gif","right","","","","",""
"","null","html-keyboard-response","136","403728","0.0-29.0-0.1","SS1613168937460","","","null","","","","","<p><img src= images/blank.png width =""200"" height = ""200"" style = ""float:right""></p><p><img src=images/blank.png width =""800"" height = ""200""></p>","","","","","","","","","","","",""
"","268.68999982252717","sequential-stimulus-presentation","137","404812","0.0-29.0-1.1","SS1613168937460","trial","","40","800","1068.6899998225272","images/stimuli/spore_stims/simple_02_A_c.gif","images/stimuli/spore_stims/simple_05_A_b.gif","","","","","7","simple_dissimilar","images/stimuli/spore_stims/simple_05_A_b.gif","right","","","","",""
"","null","html-keyboard-response","138","405636","0.0-29.0-0.2","SS1613168937460","","","null","","","","","<p><img src= images/blank.png width =""200"" height = ""200"" style = ""float:right""></p><p><img src=images/blank.png width =""800"" height = ""200""></p>","","","","","","","","","","","",""
"","116.73499993048608","sequential-stimulus-presentation","139","406600","0.0-29.0-1.2","SS1613168937460","trial","","40","800","916.7349999304861","images/stimuli/spore_stims/simple_02_A_c.gif","images/stimuli/spore_stims/simple_05_A_b.gif","","","","","7","simple_dissimilar","images/stimuli/spore_stims/simple_05_A_b.gif","right","","","","",""
"","null","html-keyboard-response","140","407428","0.0-29.0-0.3","SS1613168937460","","","null","","","","","<p><img src= images/blank.png width =""200"" height = ""200"" style = ""float:right""></p><p><img src=images/blank.png width =""800"" height = ""200""></p>","","","","","","","","","","","",""
"","257.3349999729544","sequential-stimulus-presentation","141","408516","0.0-29.0-1.3","SS1613168937460","trial","","40","800","1057.3349999729544","images/stimuli/spore_stims/simple_02_A_c.gif","images/stimuli/spore_stims/simple_05_A_b.gif","","","","","7","simple_dissimilar","images/stimuli/spore_stims/simple_02_A_c.gif","left","","","","",""
"","null","html-keyboard-response","142","409327","0.0-29.0-0.4","SS1613168937460","","","null","","","","","<p><img src= images/blank.png width =""200"" height = ""200"" style = ""float:right""></p><p><img src=images/blank.png width =""800"" height = ""200""></p>","","","","","","","","","","","",""
"","89.8499998729676","sequential-stimulus-presentation","143","410238","0.0-29.0-1.4","SS1613168937460","trial","","40","800","889.8499998729676","images/stimuli/spore_stims/simple_02_A_c.gif","images/stimuli/spore_stims/simple_05_A_b.gif","","","","","7","simple_dissimilar","images/stimuli/spore_stims/simple_05_A_b.gif","right","","","","",""
"","null","html-keyboard-response","144","411242","0.0-29.0-0.5","SS1613168937460","","","null","","","","","<p><img src= images/blank.png width =""200"" height = ""200"" style = ""float:right""></p><p><img src=images/blank.png width =""800"" height = ""200""></p>","","","","","","","","","","","",""
"","331.7750000860542","sequential-stimulus-presentation","145","412388","0.0-29.0-1.5","SS1613168937460","trial","","40","800","1131.7750000860542","images/stimuli/spore_stims/simple_02_A_c.gif","images/stimuli/spore_stims/simple_05_A_b.gif","","","","","7","simple_dissimilar","images/stimuli/spore_stims/simple_05_A_b.gif","right","","","","",""
"","null","html-keyboard-response","146","413616","0.0-29.0-0.6","SS1613168937460","","","null","","","","","<p><img src= images/blank.png width =""200"" height = ""200"" style = ""float:right""></p><p><img src=images/blank.png width =""800"" height = ""200""></p>","","","","","","","","","","","",""
"","50.94500002451241","sequential-stimulus-presentation","147","414485","0.0-29.0-1.6","SS1613168937460","trial","","40","800","850.9450000245124","images/stimuli/spore_stims/simple_02_A_c.gif","images/stimuli/spore_stims/simple_05_A_b.gif","","","","","7","simple_dissimilar","images/stimuli/spore_stims/simple_05_A_b.gif","right","","","","",""
"","null","html-keyboard-response","148","415770","0.0-29.0-0.7","SS1613168937460","","","null","","","","","<p><img src= images/blank.png width =""200"" height = ""200"" style = ""float:right""></p><p><img src=images/blank.png width =""800"" height = ""200""></p>","","","","","","","","","","","",""
"","260.43500006198883","sequential-stimulus-presentation","149","416854","0.0-29.0-1.7","SS1613168937460","trial","","40","800","1060.4350000619888","images/stimuli/spore_stims/simple_02_A_c.gif","images/stimuli/spore_stims/simple_05_A_b.gif","","","","","7","simple_dissimilar","images/stimuli/spore_stims/simple_05_A_b.gif","right","","","","",""
"","5440.670000156388","html-keyboard-response","150","422406","0.0-30.0","SS1613168937460","pref_question","","51","","","","","<video width ='960' height = '540' style='padding-top:8%' autoplay muted><source src='images/stimuli/wall_pref.mp4' type='video/mp4'></video>","3","right","66%","7","","","","","","","",""
"","2901.384999975562","sequential-stimulus-presentation","151","426118","0.0-31.0","SS1613168937460","pref_reveal","","40","800","3701.384999975562","null","null","","","","","7","","","","background","","","",""
"","null","html-keyboard-response","152","427242","0.0-32.0-0.0","SS1613168937460","","","null","","","","","<p><img src= images/blank.png width =""200"" height = ""200"" style = ""float:right""></p><p><img src=images/blank.png width =""800"" height = ""200""></p>","","","","","","","","","","","",""
"","6.0800001956522465","sequential-stimulus-presentation","153","428075","0.0-32.0-1.0","SS1613168937460","trial","","40","800","806.0800001956522","images/stimuli/spore_stims/simple_14_B_d.gif","images/stimuli/spore_stims/simple_14_A_d.gif","","","","","8","simple_similar","images/stimuli/spore_stims/simple_14_A_d.gif","right","","","","",""
"","null","html-keyboard-response","154","428940","0.0-32.0-0.1","SS1613168937460","","","null","","","","","<p><img src= images/blank.png width =""200"" height = ""200"" style = ""float:right""></p><p><img src=images/blank.png width =""800"" height = ""200""></p>","","","","","","","","","","","",""
"","134.39000002108514","sequential-stimulus-presentation","155","429942","0.0-32.0-1.1","SS1613168937460","trial","","40","800","934.3900000210851","images/stimuli/spore_stims/simple_14_B_d.gif","images/stimuli/spore_stims/simple_14_A_d.gif","","","","","8","simple_similar","images/stimuli/spore_stims/simple_14_A_d.gif","right","","","","",""
"","null","html-keyboard-response","156","430881","0.0-32.0-0.2","SS1613168937460","","","null","","","","","<p><img src= images/blank.png width =""200"" height = ""200"" style = ""float:right""></p><p><img src=images/blank.png width =""800"" height = ""200""></p>","","","","","","","","","","","",""
"","73.85999988764524","sequential-stimulus-presentation","157","431892","0.0-32.0-1.2","SS1613168937460","trial","","40","800","873.8599998876452","images/stimuli/spore_stims/simple_14_B_d.gif","images/stimuli/spore_stims/simple_14_A_d.gif","","","","","8","simple_similar","images/stimuli/spore_stims/simple_14_A_d.gif","right","","","","",""
"","null","html-keyboard-response","158","432796","0.0-32.0-0.3","SS1613168937460","","","null","","","","","<p><img src= images/blank.png width =""200"" height = ""200"" style = ""float:right""></p><p><img src=images/blank.png width =""800"" height = ""200""></p>","","","","","","","","","","","",""
"","62.99000000581145","sequential-stimulus-presentation","159","433699","0.0-32.0-1.3","SS1613168937460","trial","","40","800","862.9900000058115","images/stimuli/spore_stims/simple_14_B_d.gif","images/stimuli/spore_stims/simple_14_A_d.gif","","","","","8","simple_similar","images/stimuli/spore_stims/simple_14_A_d.gif","right","","","","",""
"","null","html-keyboard-response","160","434565","0.0-32.0-0.4","SS1613168937460","","","null","","","","","<p><img src= images/blank.png width =""200"" height = ""200"" style = ""float:right""></p><p><img src=images/blank.png width =""800"" height = ""200""></p>","","","","","","","","","","","",""
"","47.83500009216368","sequential-stimulus-presentation","161","435446","0.0-32.0-1.4","SS1613168937460","trial","","40","800","847.8350000921637","images/stimuli/spore_stims/simple_14_B_d.gif","images/stimuli/spore_stims/simple_14_A_d.gif","","","","","8","simple_similar","images/stimuli/spore_stims/simple_14_B_d.gif","middle","","","","",""
"","null","html-keyboard-response","162","436547","0.0-32.0-0.5","SS1613168937460","","","null","","","","","<p><img src= images/blank.png width =""200"" height = ""200"" style = ""float:right""></p><p><img src=images/blank.png width =""800"" height = ""200""></p>","","","","","","","","","","","",""
"","129.49500000104308","sequential-stimulus-presentation","163","437494","0.0-32.0-1.5","SS1613168937460","trial","","40","800","929.4950000010431","images/stimuli/spore_stims/simple_14_B_d.gif","images/stimuli/spore_stims/simple_14_A_d.gif","","","","","8","simple_similar","images/stimuli/spore_stims/simple_14_A_d.gif","right","","","","",""
"","null","html-keyboard-response","164","438517","0.0-32.0-0.6","SS1613168937460","","","null","","","","","<p><img src= images/blank.png width =""200"" height = ""200"" style = ""float:right""></p><p><img src=images/blank.png width =""800"" height = ""200""></p>","","","","","","","","","","","",""
"","168.0300000589341","sequential-stimulus-presentation","165","439503","0.0-32.0-1.6","SS1613168937460","trial","","40","800","968.0300000589341","images/stimuli/spore_stims/simple_14_B_d.gif","images/stimuli/spore_stims/simple_14_A_d.gif","","","","","8","simple_similar","images/stimuli/spore_stims/simple_14_A_d.gif","right","","","","",""
"","null","html-keyboard-response","166","440483","0.0-32.0-0.7","SS1613168937460","","","null","","","","","<p><img src= images/blank.png width =""200"" height = ""200"" style = ""float:right""></p><p><img src=images/blank.png width =""800"" height = ""200""></p>","","","","","","","","","","","",""
"","35.4850001167506","sequential-stimulus-presentation","167","441332","0.0-32.0-1.7","SS1613168937460","trial","","40","800","835.4850001167506","images/stimuli/spore_stims/simple_14_B_d.gif","images/stimuli/spore_stims/simple_14_A_d.gif","","","","","8","simple_similar","images/stimuli/spore_stims/simple_14_A_d.gif","right","","","","",""
"","5545.60499987565","html-keyboard-response","168","446885","0.0-33.0","SS1613168937460","pref_question","","50","","","","","<video width ='960' height = '540' style='padding-top:8%' autoplay muted><source src='images/stimuli/wall_pref.mp4' type='video/mp4'></video>","2","middle","45%","8","","","","","","","",""
"","4843.074999982491","sequential-stimulus-presentation","169","452592","0.0-34.0","SS1613168937460","pref_reveal","","40","800","5643.074999982491","null","null","","","","","8","","","","deviant","","","",""
"","null","html-keyboard-response","170","453780","0.0-35.0-0.0","SS1613168937460","","","null","","","","","<p><img src= images/blank.png width =""200"" height = ""200"" style = ""float:right""></p><p><img src=images/blank.png width =""800"" height = ""200""></p>","","","","","","","","","","","",""
"","219.97500001452863","sequential-stimulus-presentation","171","454816","0.0-35.0-1.0","SS1613168937460","trial","","40","800","1019.9750000145286","images/stimuli/spore_stims/simple_09_A_d.gif","images/stimuli/spore_stims/simple_08_B_c.gif","","","","","9","simple_dissimilar","images/stimuli/spore_stims/simple_08_B_c.gif","left","","","","",""
"","null","html-keyboard-response","172","456054","0.0-35.0-0.1","SS1613168937460","","","null","","","","","<p><img src= images/blank.png width =""200"" height = ""200"" style = ""float:right""></p><p><img src=images/blank.png width =""800"" height = ""200""></p>","","","","","","","","","","","",""
"","1.029999926686287","sequential-stimulus-presentation","173","456878","0.0-35.0-1.1","SS1613168937460","trial","","40","800","801.0299999266863","images/stimuli/spore_stims/simple_09_A_d.gif","images/stimuli/spore_stims/simple_08_B_c.gif","","","","","9","simple_dissimilar","images/stimuli/spore_stims/simple_08_B_c.gif","left","","","","",""
"","null","html-keyboard-response","174","457944","0.0-35.0-0.2","SS1613168937460","","","null","","","","","<p><img src= images/blank.png width =""200"" height = ""200"" style = ""float:right""></p><p><img src=images/blank.png width =""800"" height = ""200""></p>","","","","","","","","","","","",""
"","145.9749999921769","sequential-stimulus-presentation","175","458904","0.0-35.0-1.2","SS1613168937460","trial","","40","800","945.9749999921769","images/stimuli/spore_stims/simple_09_A_d.gif","images/stimuli/spore_stims/simple_08_B_c.gif","","","","","9","simple_dissimilar","images/stimuli/spore_stims/simple_08_B_c.gif","left","","","","",""
"","null","html-keyboard-response","176","460107","0.0-35.0-0.3","SS1613168937460","","","null","","","","","<p><img src= images/blank.png width =""200"" height = ""200"" style = ""float:right""></p><p><img src=images/blank.png width =""800"" height = ""200""></p>","","","","","","","","","","","",""
"","18.294999841600657","sequential-stimulus-presentation","177","461049","0.0-35.0-1.3","SS1613168937460","trial","","40","800","818.2949998416007","images/stimuli/spore_stims/simple_09_A_d.gif","images/stimuli/spore_stims/simple_08_B_c.gif","","","","","9","simple_dissimilar","images/stimuli/spore_stims/simple_08_B_c.gif","left","","","","",""
"","null","html-keyboard-response","178","461941","0.0-35.0-0.4","SS1613168937460","","","null","","","","","<p><img src= images/blank.png width =""200"" height = ""200"" style = ""float:right""></p><p><img src=images/blank.png width =""800"" height = ""200""></p>","","","","","","","","","","","",""
"","78.64999980665743","sequential-stimulus-presentation","179","462838","0.0-35.0-1.4","SS1613168937460","trial","","40","800","878.6499998066574","images/stimuli/spore_stims/simple_09_A_d.gif","images/stimuli/spore_stims/simple_08_B_c.gif","","","","","9","simple_dissimilar","images/stimuli/spore_stims/simple_08_B_c.gif","left","","","","",""
"","null","html-keyboard-response","180","463818","0.0-35.0-0.5","SS1613168937460","","","null","","","","","<p><img src= images/blank.png width =""200"" height = ""200"" style = ""float:right""></p><p><img src=images/blank.png width =""800"" height = ""200""></p>","","","","","","","","","","","",""
"","10.119999991729856","sequential-stimulus-presentation","181","464641","0.0-35.0-1.5","SS1613168937460","trial","","40","800","810.1199999917299","images/stimuli/spore_stims/simple_09_A_d.gif","images/stimuli/spore_stims/simple_08_B_c.gif","","","","","9","simple_dissimilar","images/stimuli/spore_stims/simple_08_B_c.gif","left","","","","",""
"","null","html-keyboard-response","182","465658","0.0-35.0-0.6","SS1613168937460","","","null","","","","","<p><img src= images/blank.png width =""200"" height = ""200"" style = ""float:right""></p><p><img src=images/blank.png width =""800"" height = ""200""></p>","","","","","","","","","","","",""
"","103.70000009424984","sequential-stimulus-presentation","183","466585","0.0-35.0-1.6","SS1613168937460","trial","","40","800","903.7000000942498","images/stimuli/spore_stims/simple_09_A_d.gif","images/stimuli/spore_stims/simple_08_B_c.gif","","","","","9","simple_dissimilar","images/stimuli/spore_stims/simple_08_B_c.gif","left","","","","",""
"","null","html-keyboard-response","184","467408","0.0-35.0-0.7","SS1613168937460","","","null","","","","","<p><img src= images/blank.png width =""200"" height = ""200"" style = ""float:right""></p><p><img src=images/blank.png width =""800"" height = ""200""></p>","","","","","","","","","","","",""
"","238.78499981947243","sequential-stimulus-presentation","185","468492","0.0-35.0-1.7","SS1613168937460","trial","","40","800","1038.7849998194724","images/stimuli/spore_stims/simple_09_A_d.gif","images/stimuli/spore_stims/simple_08_B_c.gif","","","","","9","simple_dissimilar","images/stimuli/spore_stims/simple_09_A_d.gif","middle","","","","",""
"","12602.750000078231","html-keyboard-response","186","481109","0.0-36.0","SS1613168937460","pref_question","","50","","","","","<video width ='960' height = '540' style='padding-top:8%' autoplay muted><source src='images/stimuli/wall_pref.mp4' type='video/mp4'></video>","2","middle","45%","9","","","","","","","",""
"","140.01500001177192","sequential-stimulus-presentation","187","482067","0.0-37.0","SS1613168937460","pref_reveal","","40","800","940.0150000117719","null","null","","","","","9","","","","deviant","","","",""
"","null","html-keyboard-response","188","483064","0.0-38.0-0.0","SS1613168937460","","","null","","","","","<p><img src= images/blank.png width =""200"" height = ""200"" style = ""float:right""></p><p><img src=images/blank.png width =""800"" height = ""200""></p>","","","","","","","","","","","",""
"","200.19000000320375","sequential-stimulus-presentation","189","484143","0.0-38.0-1.0","SS1613168937460","trial","","40","800","1000.1900000032037","images/stimuli/spore_stims/simple_10_A_c.gif","images/stimuli/spore_stims/simple_10_B_c.gif","","","","","10","simple_similar","images/stimuli/spore_stims/simple_10_B_c.gif","left","","","","",""
"","null","html-keyboard-response","190","485219","0.0-38.0-0.1","SS1613168937460","","","null","","","","","<p><img src= images/blank.png width =""200"" height = ""200"" style = ""float:right""></p><p><img src=images/blank.png width =""800"" height = ""200""></p>","","","","","","","","","","","",""
"","268.9699998591095","sequential-stimulus-presentation","191","486300","0.0-38.0-1.1","SS1613168937460","trial","","40","800","1068.9699998591095","images/stimuli/spore_stims/simple_10_A_c.gif","images/stimuli/spore_stims/simple_10_B_c.gif","","","","","10","simple_similar","images/stimuli/spore_stims/simple_10_B_c.gif","left","","","","",""
"","null","html-keyboard-response","192","487613","0.0-38.0-0.2","SS1613168937460","","","null","","","","","<p><img src= images/blank.png width =""200"" height = ""200"" style = ""float:right""></p><p><img src=images/blank.png width =""800"" height = ""200""></p>","","","","","","","","","","","",""
"","0.9849998168647289","sequential-stimulus-presentation","193","488433","0.0-38.0-1.2","SS1613168937460","trial","","40","800","800.9849998168647","images/stimuli/spore_stims/simple_10_A_c.gif","images/stimuli/spore_stims/simple_10_B_c.gif","","","","","10","simple_similar","images/stimuli/spore_stims/simple_10_B_c.gif","left","","","","",""
"","null","html-keyboard-response","194","489471","0.0-38.0-0.3","SS1613168937460","","","null","","","","","<p><img src= images/blank.png width =""200"" height = ""200"" style = ""float:right""></p><p><img src=images/blank.png width =""800"" height = ""200""></p>","","","","","","","","","","","",""
"","52.404999965801835","sequential-stimulus-presentation","195","490366","0.0-38.0-1.3","SS1613168937460","trial","","40","800","852.4049999658018","images/stimuli/spore_stims/simple_10_A_c.gif","images/stimuli/spore_stims/simple_10_B_c.gif","","","","","10","simple_similar","images/stimuli/spore_stims/simple_10_A_c.gif","right","","","","",""
"","null","html-keyboard-response","196","491278","0.0-38.0-0.4","SS1613168937460","","","null","","","","","<p><img src= images/blank.png width =""200"" height = ""200"" style = ""float:right""></p><p><img src=images/blank.png width =""800"" height = ""200""></p>","","","","","","","","","","","",""
"","211.60000003874302","sequential-stimulus-presentation","197","492308","0.0-38.0-1.4","SS1613168937460","trial","","40","800","1011.600000038743","images/stimuli/spore_stims/simple_10_A_c.gif","images/stimuli/spore_stims/simple_10_B_c.gif","","","","","10","simple_similar","images/stimuli/spore_stims/simple_10_B_c.gif","left","","","","",""
"","null","html-keyboard-response","198","493383","0.0-38.0-0.5","SS1613168937460","","","null","","","","","<p><img src= images/blank.png width =""200"" height = ""200"" style = ""float:right""></p><p><img src=images/blank.png width =""800"" height = ""200""></p>","","","","","","","","","","","",""
"","1039.6750001236796","sequential-stimulus-presentation","199","495245","0.0-38.0-1.5","SS1613168937460","trial","","40","800","1839.6750001236796","images/stimuli/spore_stims/simple_10_A_c.gif","images/stimuli/spore_stims/simple_10_B_c.gif","","","","","10","simple_similar","images/stimuli/spore_stims/simple_10_B_c.gif","left","","","","",""
"","null","html-keyboard-response","200","496186","0.0-38.0-0.6","SS1613168937460","","","null","","","","","<p><img src= images/blank.png width =""200"" height = ""200"" style = ""float:right""></p><p><img src=images/blank.png width =""800"" height = ""200""></p>","","","","","","","","","","","",""
"","356.41500004567206","sequential-stimulus-presentation","201","497356","0.0-38.0-1.6","SS1613168937460","trial","","40","800","1156.415000045672","images/stimuli/spore_stims/simple_10_A_c.gif","images/stimuli/spore_stims/simple_10_B_c.gif","","","","","10","simple_similar","images/stimuli/spore_stims/simple_10_B_c.gif","left","","","","",""
"","null","html-keyboard-response","202","498482","0.0-38.0-0.7","SS1613168937460","","","null","","","","","<p><img src= images/blank.png width =""200"" height = ""200"" style = ""float:right""></p><p><img src=images/blank.png width =""800"" height = ""200""></p>","","","","","","","","","","","",""
"","369.63500012643635","sequential-stimulus-presentation","203","499668","0.0-38.0-1.7","SS1613168937460","trial","","40","800","1169.6350001264364","images/stimuli/spore_stims/simple_10_A_c.gif","images/stimuli/spore_stims/simple_10_B_c.gif","","","","","10","simple_similar","images/stimuli/spore_stims/simple_10_B_c.gif","left","","","","",""
"","2274.8300000093877","html-keyboard-response","204","501951","0.0-39.0","SS1613168937460","pref_question","","50","","","","","<video width ='960' height = '540' style='padding-top:8%' autoplay muted><source src='images/stimuli/wall_pref.mp4' type='video/mp4'></video>","2","middle","45%","10","","","","","","","",""
"","541.0850001499057","sequential-stimulus-presentation","205","503343","0.0-40.0","SS1613168937460","pref_reveal","","40","800","1341.0850001499057","null","null","","","","","10","","","","novel","","","",""
"","null","html-keyboard-response","206","504352","0.0-41.0-0.0","SS1613168937460","","","null","","","","","<p><img src= images/blank.png width =""200"" height = ""200"" style = ""float:right""></p><p><img src=images/blank.png width =""800"" height = ""200""></p>","","","","","","","","","","","",""
"","364.06000005081296","sequential-stimulus-presentation","207","505541","0.0-41.0-1.0","SS1613168937460","trial","","40","800","1164.060000050813","images/stimuli/spore_stims/simple_07_A_b.gif","images/stimuli/spore_stims/simple_07_B_b.gif","","","","","11","simple_similar","images/stimuli/spore_stims/simple_07_B_b.gif","middle","","","","",""
"","null","html-keyboard-response","208","506444","0.0-41.0-0.1","SS1613168937460","","","null","","","","","<p><img src= images/blank.png width =""200"" height = ""200"" style = ""float:right""></p><p><img src=images/blank.png width =""800"" height = ""200""></p>","","","","","","","","","","","",""
"","114.41499995999038","sequential-stimulus-presentation","209","507376","0.0-41.0-1.1","SS1613168937460","trial","","40","800","914.4149999599904","images/stimuli/spore_stims/simple_07_A_b.gif","images/stimuli/spore_stims/simple_07_B_b.gif","","","","","11","simple_similar","images/stimuli/spore_stims/simple_07_B_b.gif","middle","","","","",""
"","null","html-keyboard-response","210","508689","0.0-41.0-0.2","SS1613168937460","","","null","","","","","<p><img src= images/blank.png width =""200"" height = ""200"" style = ""float:right""></p><p><img src=images/blank.png width =""800"" height = ""200""></p>","","","","","","","","","","","",""
"","248.5750000923872","sequential-stimulus-presentation","211","509787","0.0-41.0-1.2","SS1613168937460","trial","","40","800","1048.5750000923872","images/stimuli/spore_stims/simple_07_A_b.gif","images/stimuli/spore_stims/simple_07_B_b.gif","","","","","11","simple_similar","images/stimuli/spore_stims/simple_07_A_b.gif","left","","","","",""
"","null","html-keyboard-response","212","510898","0.0-41.0-0.3","SS1613168937460","","","null","","","","","<p><img src= images/blank.png width =""200"" height = ""200"" style = ""float:right""></p><p><img src=images/blank.png width =""800"" height = ""200""></p>","","","","","","","","","","","",""
"","302.52000014297664","sequential-stimulus-presentation","213","512015","0.0-41.0-1.3","SS1613168937460","trial","","40","800","1102.5200001429766","images/stimuli/spore_stims/simple_07_A_b.gif","images/stimuli/spore_stims/simple_07_B_b.gif","","","","","11","simple_similar","images/stimuli/spore_stims/simple_07_B_b.gif","middle","","","","",""
"","null","html-keyboard-response","214","512935","0.0-41.0-0.4","SS1613168937460","","","null","","","","","<p><img src= images/blank.png width =""200"" height = ""200"" style = ""float:right""></p><p><img src=images/blank.png width =""800"" height = ""200""></p>","","","","","","","","","","","",""
"","315.5749998986721","sequential-stimulus-presentation","215","514071","0.0-41.0-1.4","SS1613168937460","trial","","40","800","1115.574999898672","images/stimuli/spore_stims/simple_07_A_b.gif","images/stimuli/spore_stims/simple_07_B_b.gif","","","","","11","simple_similar","images/stimuli/spore_stims/simple_07_B_b.gif","middle","","","","",""
"","null","html-keyboard-response","216","514917","0.0-41.0-0.5","SS1613168937460","","","null","","","","","<p><img src= images/blank.png width =""200"" height = ""200"" style = ""float:right""></p><p><img src=images/blank.png width =""800"" height = ""200""></p>","","","","","","","","","","","",""
"","825.4549999255687","sequential-stimulus-presentation","217","516608","0.0-41.0-1.5","SS1613168937460","trial","","40","800","1625.4549999255687","images/stimuli/spore_stims/simple_07_A_b.gif","images/stimuli/spore_stims/simple_07_B_b.gif","","","","","11","simple_similar","images/stimuli/spore_stims/simple_07_B_b.gif","middle","","","","",""
"","null","html-keyboard-response","218","517758","0.0-41.0-0.6","SS1613168937460","","","null","","","","","<p><img src= images/blank.png width =""200"" height = ""200"" style = ""float:right""></p><p><img src=images/blank.png width =""800"" height = ""200""></p>","","","","","","","","","","","",""
"","545.2700001187623","sequential-stimulus-presentation","219","519134","0.0-41.0-1.6","SS1613168937460","trial","","40","800","1345.2700001187623","images/stimuli/spore_stims/simple_07_A_b.gif","images/stimuli/spore_stims/simple_07_B_b.gif","","","","","11","simple_similar","images/stimuli/spore_stims/simple_07_B_b.gif","middle","","","","",""
"","null","html-keyboard-response","220","520112","0.0-41.0-0.7","SS1613168937460","","","null","","","","","<p><img src= images/blank.png width =""200"" height = ""200"" style = ""float:right""></p><p><img src=images/blank.png width =""800"" height = ""200""></p>","","","","","","","","","","","",""
"","321.05499994941056","sequential-stimulus-presentation","221","521247","0.0-41.0-1.7","SS1613168937460","trial","","40","800","1121.0549999494106","images/stimuli/spore_stims/simple_07_A_b.gif","images/stimuli/spore_stims/simple_07_B_b.gif","","","","","11","simple_similar","images/stimuli/spore_stims/simple_07_B_b.gif","middle","","","","",""
"","11249.529999913648","html-keyboard-response","222","532536","0.0-42.0","SS1613168937460","pref_question","","98","","","","","<video width ='960' height = '540' style='padding-top:8%' autoplay muted><source src='images/stimuli/wall_pref.mp4' type='video/mp4'></video>","2","middle","45%","11","","","","","","","",""
"","320.17000019550323","sequential-stimulus-presentation","223","533673","0.0-43.0","SS1613168937460","pref_reveal","","40","800","1120.1700001955032","null","null","","","","","11","","","","background","","","",""
"","null","html-keyboard-response","224","534912","0.0-44.0-0.0","SS1613168937460","","","null","","","","","<p><img src= images/blank.png width =""200"" height = ""200"" style = ""float:right""></p><p><img src=images/blank.png width =""800"" height = ""200""></p>","","","","","","","","","","","",""
"","1331.6550001036376","sequential-stimulus-presentation","225","537068","0.0-44.0-1.0","SS1613168937460","trial","","40","800","2131.6550001036376","images/stimuli/spore_stims/complex_07_B_a.gif","images/stimuli/spore_stims/complex_07_A_a.gif","","","","","12","complex_similar","images/stimuli/spore_stims/complex_07_A_a.gif","right","","","","",""
"","null","html-keyboard-response","226","537980","0.0-44.0-0.1","SS1613168937460","","","null","","","","","<p><img src= images/blank.png width =""200"" height = ""200"" style = ""float:right""></p><p><img src=images/blank.png width =""800"" height = ""200""></p>","","","","","","","","","","","",""
"","254.98500000685453","sequential-stimulus-presentation","227","539056","0.0-44.0-1.1","SS1613168937460","trial","","40","800","1054.9850000068545","images/stimuli/spore_stims/complex_07_B_a.gif","images/stimuli/spore_stims/complex_07_A_a.gif","","","","","12","complex_similar","images/stimuli/spore_stims/complex_07_A_a.gif","right","","","","",""
"","null","html-keyboard-response","228","540248","0.0-44.0-0.2","SS1613168937460","","","null","","","","","<p><img src= images/blank.png width =""200"" height = ""200"" style = ""float:right""></p><p><img src=images/blank.png width =""800"" height = ""200""></p>","","","","","","","","","","","",""
"","95.93500010669231","sequential-stimulus-presentation","229","541165","0.0-44.0-1.2","SS1613168937460","trial","","40","800","895.9350001066923","images/stimuli/spore_stims/complex_07_B_a.gif","images/stimuli/spore_stims/complex_07_A_a.gif","","","","","12","complex_similar","images/stimuli/spore_stims/complex_07_A_a.gif","right","","","","",""
"","null","html-keyboard-response","230","541984","0.0-44.0-0.3","SS1613168937460","","","null","","","","","<p><img src= images/blank.png width =""200"" height = ""200"" style = ""float:right""></p><p><img src=images/blank.png width =""800"" height = ""200""></p>","","","","","","","","","","","",""
"","120.00499991700053","sequential-stimulus-presentation","231","543020","0.0-44.0-1.3","SS1613168937460","trial","","40","800","920.0049999170005","images/stimuli/spore_stims/complex_07_B_a.gif","images/stimuli/spore_stims/complex_07_A_a.gif","","","","","12","complex_similar","images/stimuli/spore_stims/complex_07_A_a.gif","right","","","","",""
"","null","html-keyboard-response","232","544267","0.0-44.0-0.4","SS1613168937460","","","null","","","","","<p><img src= images/blank.png width =""200"" height = ""200"" style = ""float:right""></p><p><img src=images/blank.png width =""800"" height = ""200""></p>","","","","","","","","","","","",""
"","167.93500003404915","sequential-stimulus-presentation","233","545287","0.0-44.0-1.4","SS1613168937460","trial","","40","800","967.9350000340492","images/stimuli/spore_stims/complex_07_B_a.gif","images/stimuli/spore_stims/complex_07_A_a.gif","","","","","12","complex_similar","images/stimuli/spore_stims/complex_07_B_a.gif","middle","","","","",""
"","null","html-keyboard-response","234","546502","0.0-44.0-0.5","SS1613168937460","","","null","","","","","<p><img src= images/blank.png width =""200"" height = ""200"" style = ""float:right""></p><p><img src=images/blank.png width =""800"" height = ""200""></p>","","","","","","","","","","","",""
"","291.43500002101064","sequential-stimulus-presentation","235","547612","0.0-44.0-1.5","SS1613168937460","trial","","40","800","1091.4350000210106","images/stimuli/spore_stims/complex_07_B_a.gif","images/stimuli/spore_stims/complex_07_A_a.gif","","","","","12","complex_similar","images/stimuli/spore_stims/complex_07_A_a.gif","right","","","","",""
"","null","html-keyboard-response","236","548615","0.0-44.0-0.6","SS1613168937460","","","null","","","","","<p><img src= images/blank.png width =""200"" height = ""200"" style = ""float:right""></p><p><img src=images/blank.png width =""800"" height = ""200""></p>","","","","","","","","","","","",""
"","383.9649998117238","sequential-stimulus-presentation","237","549814","0.0-44.0-1.6","SS1613168937460","trial","","40","800","1183.9649998117238","images/stimuli/spore_stims/complex_07_B_a.gif","images/stimuli/spore_stims/complex_07_A_a.gif","","","","","12","complex_similar","images/stimuli/spore_stims/complex_07_A_a.gif","right","","","","",""
"","null","html-keyboard-response","238","550998","0.0-44.0-0.7","SS1613168937460","","","null","","","","","<p><img src= images/blank.png width =""200"" height = ""200"" style = ""float:right""></p><p><img src=images/blank.png width =""800"" height = ""200""></p>","","","","","","","","","","","",""
"","95.66999995149672","sequential-stimulus-presentation","239","551920","0.0-44.0-1.7","SS1613168937460","trial","","40","800","895.6699999514967","images/stimuli/spore_stims/complex_07_B_a.gif","images/stimuli/spore_stims/complex_07_A_a.gif","","","","","12","complex_similar","images/stimuli/spore_stims/complex_07_A_a.gif","right","","","","",""
"","6214.165000012144","html-keyboard-response","240","558143","0.0-45.0","SS1613168937460","pref_question","","50","","","","","<video width ='960' height = '540' style='padding-top:8%' autoplay muted><source src='images/stimuli/wall_pref.mp4' type='video/mp4'></video>","2","middle","45%","12","","","","","","","",""
"","304.679999826476","sequential-stimulus-presentation","241","559258","0.0-46.0","SS1613168937460","pref_reveal","","40","800","1104.679999826476","null","null","","","","","12","","","","deviant","","","",""
"","null","html-keyboard-response","242","560420","0.0-47.0-0.0","SS1613168937460","","","null","","","","","<p><img src= images/blank.png width =""200"" height = ""200"" style = ""float:right""></p><p><img src=images/blank.png width =""800"" height = ""200""></p>","","","","","","","","","","","",""
"","127.23999982699752","sequential-stimulus-presentation","243","561379","0.0-47.0-1.0","SS1613168937460","trial","","40","800","927.2399998269975","images/stimuli/spore_stims/simple_20_A_d.gif","images/stimuli/spore_stims/simple_04_B_a.gif","","","","","13","simple_dissimilar","images/stimuli/spore_stims/simple_04_B_a.gif","middle","","","","",""
"","null","html-keyboard-response","244","562541","0.0-47.0-0.1","SS1613168937460","","","null","","","","","<p><img src= images/blank.png width =""200"" height = ""200"" style = ""float:right""></p><p><img src=images/blank.png width =""800"" height = ""200""></p>","","","","","","","","","","","",""
"","275.59000020846725","sequential-stimulus-presentation","245","563638","0.0-47.0-1.1","SS1613168937460","trial","","40","800","1075.5900002084672","images/stimuli/spore_stims/simple_20_A_d.gif","images/stimuli/spore_stims/simple_04_B_a.gif","","","","","13","simple_dissimilar","images/stimuli/spore_stims/simple_04_B_a.gif","middle","","","","",""
"","null","html-keyboard-response","246","564709","0.0-47.0-0.2","SS1613168937460","","","null","","","","","<p><img src= images/blank.png width =""200"" height = ""200"" style = ""float:right""></p><p><img src=images/blank.png width =""800"" height = ""200""></p>","","","","","","","","","","","",""
"","223.14999997615814","sequential-stimulus-presentation","247","565754","0.0-47.0-1.2","SS1613168937460","trial","","40","800","1023.1499999761581","images/stimuli/spore_stims/simple_20_A_d.gif","images/stimuli/spore_stims/simple_04_B_a.gif","","","","","13","simple_dissimilar","images/stimuli/spore_stims/simple_04_B_a.gif","middle","","","","",""
"","null","html-keyboard-response","248","566824","0.0-47.0-0.3","SS1613168937460","","","null","","","","","<p><img src= images/blank.png width =""200"" height = ""200"" style = ""float:right""></p><p><img src=images/blank.png width =""800"" height = ""200""></p>","","","","","","","","","","","",""
"","925.2400000113994","sequential-stimulus-presentation","249","568589","0.0-47.0-1.3","SS1613168937460","trial","","40","800","1725.2400000113994","images/stimuli/spore_stims/simple_20_A_d.gif","images/stimuli/spore_stims/simple_04_B_a.gif","","","","","13","simple_dissimilar","images/stimuli/spore_stims/simple_04_B_a.gif","middle","","","","",""
"","null","html-keyboard-response","250","569468","0.0-47.0-0.4","SS1613168937460","","","null","","","","","<p><img src= images/blank.png width =""200"" height = ""200"" style = ""float:right""></p><p><img src=images/blank.png width =""800"" height = ""200""></p>","","","","","","","","","","","",""
"","145.48499998636544","sequential-stimulus-presentation","251","570441","0.0-47.0-1.4","SS1613168937460","trial","","40","800","945.4849999863654","images/stimuli/spore_stims/simple_20_A_d.gif","images/stimuli/spore_stims/simple_04_B_a.gif","","","","","13","simple_dissimilar","images/stimuli/spore_stims/simple_04_B_a.gif","middle","","","","",""
"","null","html-keyboard-response","252","571251","0.0-47.0-0.5","SS1613168937460","","","null","","","","","<p><img src= images/blank.png width =""200"" height = ""200"" style = ""float:right""></p><p><img src=images/blank.png width =""800"" height = ""200""></p>","","","","","","","","","","","",""
"","177.1849999204278","sequential-stimulus-presentation","253","572252","0.0-47.0-1.5","SS1613168937460","trial","","40","800","977.1849999204278","images/stimuli/spore_stims/simple_20_A_d.gif","images/stimuli/spore_stims/simple_04_B_a.gif","","","","","13","simple_dissimilar","images/stimuli/spore_stims/simple_20_A_d.gif","right","","","","",""
"","null","html-keyboard-response","254","573176","0.0-47.0-0.6","SS1613168937460","","","null","","","","","<p><img src= images/blank.png width =""200"" height = ""200"" style = ""float:right""></p><p><img src=images/blank.png width =""800"" height = ""200""></p>","","","","","","","","","","","",""
"","231.48999991826713","sequential-stimulus-presentation","255","574224","0.0-47.0-1.6","SS1613168937460","trial","","40","800","1031.4899999182671","images/stimuli/spore_stims/simple_20_A_d.gif","images/stimuli/spore_stims/simple_04_B_a.gif","","","","","13","simple_dissimilar","images/stimuli/spore_stims/simple_04_B_a.gif","middle","","","","",""
"","null","html-keyboard-response","256","575401","0.0-47.0-0.7","SS1613168937460","","","null","","","","","<p><img src= images/blank.png width =""200"" height = ""200"" style = ""float:right""></p><p><img src=images/blank.png width =""800"" height = ""200""></p>","","","","","","","","","","","",""
"","1556.014999980107","sequential-stimulus-presentation","257","577842","0.0-47.0-1.7","SS1613168937460","trial","","40","800","2356.014999980107","images/stimuli/spore_stims/simple_20_A_d.gif","images/stimuli/spore_stims/simple_04_B_a.gif","","","","","13","simple_dissimilar","images/stimuli/spore_stims/simple_04_B_a.gif","middle","","","","",""
"","2492.3099998850375","html-keyboard-response","258","580342","0.0-48.0","SS1613168937460","pref_question","","99","","","","","<video width ='960' height = '540' style='padding-top:8%' autoplay muted><source src='images/stimuli/wall_pref.mp4' type='video/mp4'></video>","3","right","66%","13","","","","","","","",""
"","206.64500002749264","sequential-stimulus-presentation","259","581366","0.0-49.0","SS1613168937460","pref_reveal","","40","800","1006.6450000274926","null","null","","","","","13","","","","deviant","","","",""
"","null","html-keyboard-response","260","582341","0.0-50.0-0.0","SS1613168937460","","","null","","","","","<p><img src= images/blank.png width =""200"" height = ""200"" style = ""float:right""></p><p><img src=images/blank.png width =""800"" height = ""200""></p>","","","","","","","","","","","",""
"","217.075000051409","sequential-stimulus-presentation","261","583380","0.0-50.0-1.0","SS1613168937460","trial","","40","800","1017.075000051409","images/stimuli/spore_stims/complex_06_A_c.gif","images/stimuli/spore_stims/complex_05_B_c.gif","","","","","14","complex_dissimilar","images/stimuli/spore_stims/complex_05_B_c.gif","left","","","","",""
"","null","html-keyboard-response","262","584378","0.0-50.0-0.1","SS1613168937460","","","null","","","","","<p><img src= images/blank.png width =""200"" height = ""200"" style = ""float:right""></p><p><img src=images/blank.png width =""800"" height = ""200""></p>","","","","","","","","","","","",""
"","1328.474999871105","sequential-stimulus-presentation","263","586523","0.0-50.0-1.1","SS1613168937460","trial","","40","800","2128.474999871105","images/stimuli/spore_stims/complex_06_A_c.gif","images/stimuli/spore_stims/complex_05_B_c.gif","","","","","14","complex_dissimilar","images/stimuli/spore_stims/complex_05_B_c.gif","left","","","","",""
"","null","html-keyboard-response","264","587621","0.0-50.0-0.2","SS1613168937460","","","null","","","","","<p><img src= images/blank.png width =""200"" height = ""200"" style = ""float:right""></p><p><img src=images/blank.png width =""800"" height = ""200""></p>","","","","","","","","","","","",""
"","120.6549999769777","sequential-stimulus-presentation","265","588564","0.0-50.0-1.2","SS1613168937460","trial","","40","800","920.6549999769777","images/stimuli/spore_stims/complex_06_A_c.gif","images/stimuli/spore_stims/complex_05_B_c.gif","","","","","14","complex_dissimilar","images/stimuli/spore_stims/complex_05_B_c.gif","left","","","","",""
"","null","html-keyboard-response","266","589537","0.0-50.0-0.3","SS1613168937460","","","null","","","","","<p><img src= images/blank.png width =""200"" height = ""200"" style = ""float:right""></p><p><img src=images/blank.png width =""800"" height = ""200""></p>","","","","","","","","","","","",""
"","739.4349998794496","sequential-stimulus-presentation","267","591094","0.0-50.0-1.3","SS1613168937460","trial","","40","800","1539.4349998794496","images/stimuli/spore_stims/complex_06_A_c.gif","images/stimuli/spore_stims/complex_05_B_c.gif","","","","","14","complex_dissimilar","images/stimuli/spore_stims/complex_05_B_c.gif","left","","","","",""
"","null","html-keyboard-response","268","592383","0.0-50.0-0.4","SS1613168937460","","","null","","","","","<p><img src= images/blank.png width =""200"" height = ""200"" style = ""float:right""></p><p><img src=images/blank.png width =""800"" height = ""200""></p>","","","","","","","","","","","",""
"","199.1399999242276","sequential-stimulus-presentation","269","593415","0.0-50.0-1.4","SS1613168937460","trial","","40","800","999.1399999242276","images/stimuli/spore_stims/complex_06_A_c.gif","images/stimuli/spore_stims/complex_05_B_c.gif","","","","","14","complex_dissimilar","images/stimuli/spore_stims/complex_06_A_c.gif","middle","","","","",""
"","null","html-keyboard-response","270","594552","0.0-50.0-0.5","SS1613168937460","","","null","","","","","<p><img src= images/blank.png width =""200"" height = ""200"" style = ""float:right""></p><p><img src=images/blank.png width =""800"" height = ""200""></p>","","","","","","","","","","","",""
"","748.5150001011789","sequential-stimulus-presentation","271","596158","0.0-50.0-1.5","SS1613168937460","trial","","40","800","1548.5150001011789","images/stimuli/spore_stims/complex_06_A_c.gif","images/stimuli/spore_stims/complex_05_B_c.gif","","","","","14","complex_dissimilar","images/stimuli/spore_stims/complex_05_B_c.gif","left","","","","",""
"","null","html-keyboard-response","272","597389","0.0-50.0-0.6","SS1613168937460","","","null","","","","","<p><img src= images/blank.png width =""200"" height = ""200"" style = ""float:right""></p><p><img src=images/blank.png width =""800"" height = ""200""></p>","","","","","","","","","","","",""
"","187.46000016108155","sequential-stimulus-presentation","273","598406","0.0-50.0-1.6","SS1613168937460","trial","","40","800","987.4600001610816","images/stimuli/spore_stims/complex_06_A_c.gif","images/stimuli/spore_stims/complex_05_B_c.gif","","","","","14","complex_dissimilar","images/stimuli/spore_stims/complex_05_B_c.gif","left","","","","",""
"","null","html-keyboard-response","274","599563","0.0-50.0-0.7","SS1613168937460","","","null","","","","","<p><img src= images/blank.png width =""200"" height = ""200"" style = ""float:right""></p><p><img src=images/blank.png width =""800"" height = ""200""></p>","","","","","","","","","","","",""
"","1.4049999881535769","sequential-stimulus-presentation","275","600390","0.0-50.0-1.7","SS1613168937460","trial","","40","800","801.4049999881536","images/stimuli/spore_stims/complex_06_A_c.gif","images/stimuli/spore_stims/complex_05_B_c.gif","","","","","14","complex_dissimilar","images/stimuli/spore_stims/complex_05_B_c.gif","left","","","","",""
"","3393.519999925047","html-keyboard-response","276","603798","0.0-51.0","SS1613168937460","pref_question","","98","","","","","<video width ='960' height = '540' style='padding-top:8%' autoplay muted><source src='images/stimuli/wall_pref.mp4' type='video/mp4'></video>","2","middle","45%","14","","","","","","","",""
"","5.860000150278211","sequential-stimulus-presentation","277","604637","0.0-52.0","SS1613168937460","pref_reveal","","40","800","805.8600001502782","null","null","","","","","14","","","","deviant","","","",""
"","null","html-keyboard-response","278","605739","0.0-53.0-0.0","SS1613168937460","","","null","","","","","<p><img src= images/blank.png width =""200"" height = ""200"" style = ""float:right""></p><p><img src=images/blank.png width =""800"" height = ""200""></p>","","","","","","","","","","","",""
"","24.139999877661467","sequential-stimulus-presentation","279","606635","0.0-53.0-1.0","SS1613168937460","trial","","40","800","824.1399998776615","images/stimuli/spore_stims/complex_18_A_a.gif","images/stimuli/spore_stims/complex_18_B_a.gif","","","","","15","complex_similar","images/stimuli/spore_stims/complex_18_B_a.gif","left","","","","",""
"","null","html-keyboard-response","280","607559","0.0-53.0-0.1","SS1613168937460","","","null","","","","","<p><img src= images/blank.png width =""200"" height = ""200"" style = ""float:right""></p><p><img src=images/blank.png width =""800"" height = ""200""></p>","","","","","","","","","","","",""
"","246.13500013947487","sequential-stimulus-presentation","281","608638","0.0-53.0-1.1","SS1613168937460","trial","","40","800","1046.1350001394749","images/stimuli/spore_stims/complex_18_A_a.gif","images/stimuli/spore_stims/complex_18_B_a.gif","","","","","15","complex_similar","images/stimuli/spore_stims/complex_18_B_a.gif","left","","","","",""
"","null","html-keyboard-response","282","609797","0.0-53.0-0.2","SS1613168937460","","","null","","","","","<p><img src= images/blank.png width =""200"" height = ""200"" style = ""float:right""></p><p><img src=images/blank.png width =""800"" height = ""200""></p>","","","","","","","","","","","",""
"","654.2399998288602","sequential-stimulus-presentation","283","611277","0.0-53.0-1.2","SS1613168937460","trial","","40","800","1454.2399998288602","images/stimuli/spore_stims/complex_18_A_a.gif","images/stimuli/spore_stims/complex_18_B_a.gif","","","","","15","complex_similar","images/stimuli/spore_stims/complex_18_A_a.gif","right","","","","",""
"","null","html-keyboard-response","284","612485","0.0-53.0-0.3","SS1613168937460","","","null","","","","","<p><img src= images/blank.png width =""200"" height = ""200"" style = ""float:right""></p><p><img src=images/blank.png width =""800"" height = ""200""></p>","","","","","","","","","","","",""
"","300.8250000420958","sequential-stimulus-presentation","285","613603","0.0-53.0-1.3","SS1613168937460","trial","","40","800","1100.8250000420958","images/stimuli/spore_stims/complex_18_A_a.gif","images/stimuli/spore_stims/complex_18_B_a.gif","","","","","15","complex_similar","images/stimuli/spore_stims/complex_18_B_a.gif","left","","","","",""
"","null","html-keyboard-response","286","614622","0.0-53.0-0.4","SS1613168937460","","","null","","","","","<p><img src= images/blank.png width =""200"" height = ""200"" style = ""float:right""></p><p><img src=images/blank.png width =""800"" height = ""200""></p>","","","","","","","","","","","",""
"","33.49000005982816","sequential-stimulus-presentation","287","615478","0.0-53.0-1.4","SS1613168937460","trial","","40","800","833.4900000598282","images/stimuli/spore_stims/complex_18_A_a.gif","images/stimuli/spore_stims/complex_18_B_a.gif","","","","","15","complex_similar","images/stimuli/spore_stims/complex_18_B_a.gif","left","","","","",""
"","null","html-keyboard-response","288","616519","0.0-53.0-0.5","SS1613168937460","","","null","","","","","<p><img src= images/blank.png width =""200"" height = ""200"" style = ""float:right""></p><p><img src=images/blank.png width =""800"" height = ""200""></p>","","","","","","","","","","","",""
"","96.92499996162951","sequential-stimulus-presentation","289","617439","0.0-53.0-1.5","SS1613168937460","trial","","40","800","896.9249999616295","images/stimuli/spore_stims/complex_18_A_a.gif","images/stimuli/spore_stims/complex_18_B_a.gif","","","","","15","complex_similar","images/stimuli/spore_stims/complex_18_B_a.gif","left","","","","",""
"","null","html-keyboard-response","290","618798","0.0-53.0-0.6","SS1613168937460","","","null","","","","","<p><img src= images/blank.png width =""200"" height = ""200"" style = ""float:right""></p><p><img src=images/blank.png width =""800"" height = ""200""></p>","","","","","","","","","","","",""
"","79.39500012435019","sequential-stimulus-presentation","291","619723","0.0-53.0-1.6","SS1613168937460","trial","","40","800","879.3950001243502","images/stimuli/spore_stims/complex_18_A_a.gif","images/stimuli/spore_stims/complex_18_B_a.gif","","","","","15","complex_similar","images/stimuli/spore_stims/complex_18_B_a.gif","left","","","","",""
"","null","html-keyboard-response","292","620626","0.0-53.0-0.7","SS1613168937460","","","null","","","","","<p><img src= images/blank.png width =""200"" height = ""200"" style = ""float:right""></p><p><img src=images/blank.png width =""800"" height = ""200""></p>","","","","","","","","","","","",""
"","179.55499980598688","sequential-stimulus-presentation","293","621623","0.0-53.0-1.7","SS1613168937460","trial","","40","800","979.5549998059869","images/stimuli/spore_stims/complex_18_A_a.gif","images/stimuli/spore_stims/complex_18_B_a.gif","","","","","15","complex_similar","images/stimuli/spore_stims/complex_18_B_a.gif","left","","","","",""
"","4821.440000087023","html-keyboard-response","294","626453","0.0-54.0","SS1613168937460","pref_question","","98","","","","","<video width ='960' height = '540' style='padding-top:8%' autoplay muted><source src='images/stimuli/wall_pref.mp4' type='video/mp4'></video>","2","middle","45%","15","","","","","","","",""
"","15753.299999982119","sequential-stimulus-presentation","295","643028","0.0-55.0","SS1613168937460","pref_reveal","","40","800","16553.29999998212","null","null","","","","","15","","","","novel","","","",""
"","null","html-keyboard-response","296","643963","0.0-56.0-0.0","SS1613168937460","","","null","","","","","<p><img src= images/blank.png width =""200"" height = ""200"" style = ""float:right""></p><p><img src=images/blank.png width =""800"" height = ""200""></p>","","","","","","","","","","","",""
"","125.07000006735325","sequential-stimulus-presentation","297","644909","0.0-56.0-1.0","SS1613168937460","trial","","40","800","925.0700000673532","images/stimuli/spore_stims/complex_02_A_c.gif","images/stimuli/spore_stims/complex_14_A_b.gif","","","","","16","complex_dissimilar","images/stimuli/spore_stims/complex_14_A_b.gif","right","","","","",""
"","null","html-keyboard-response","298","645729","0.0-56.0-0.1","SS1613168937460","","","null","","","","","<p><img src= images/blank.png width =""200"" height = ""200"" style = ""float:right""></p><p><img src=images/blank.png width =""800"" height = ""200""></p>","","","","","","","","","","","",""
"","76.30500011146069","sequential-stimulus-presentation","299","646635","0.0-56.0-1.1","SS1613168937460","trial","","40","800","876.3050001114607","images/stimuli/spore_stims/complex_02_A_c.gif","images/stimuli/spore_stims/complex_14_A_b.gif","","","","","16","complex_dissimilar","images/stimuli/spore_stims/complex_14_A_b.gif","right","","","","",""
"","null","html-keyboard-response","300","647714","0.0-56.0-0.2","SS1613168937460","","","null","","","","","<p><img src= images/blank.png width =""200"" height = ""200"" style = ""float:right""></p><p><img src=images/blank.png width =""800"" height = ""200""></p>","","","","","","","","","","","",""
"","52.8549998998642","sequential-stimulus-presentation","301","648588","0.0-56.0-1.2","SS1613168937460","trial","","40","800","852.8549998998642","images/stimuli/spore_stims/complex_02_A_c.gif","images/stimuli/spore_stims/complex_14_A_b.gif","","","","","16","complex_dissimilar","images/stimuli/spore_stims/complex_14_A_b.gif","right","","","","",""
"","null","html-keyboard-response","302","649540","0.0-56.0-0.3","SS1613168937460","","","null","","","","","<p><img src= images/blank.png width =""200"" height = ""200"" style = ""float:right""></p><p><img src=images/blank.png width =""800"" height = ""200""></p>","","","","","","","","","","","",""
"","111.23999999836087","sequential-stimulus-presentation","303","650531","0.0-56.0-1.3","SS1613168937460","trial","","40","800","911.2399999983609","images/stimuli/spore_stims/complex_02_A_c.gif","images/stimuli/spore_stims/complex_14_A_b.gif","","","","","16","complex_dissimilar","images/stimuli/spore_stims/complex_14_A_b.gif","right","","","","",""
"","null","html-keyboard-response","304","651726","0.0-56.0-0.4","SS1613168937460","","","null","","","","","<p><img src= images/blank.png width =""200"" height = ""200"" style = ""float:right""></p><p><img src=images/blank.png width =""800"" height = ""200""></p>","","","","","","","","","","","",""
"","241.05000006966293","sequential-stimulus-presentation","305","652785","0.0-56.0-1.4","SS1613168937460","trial","","40","800","1041.050000069663","images/stimuli/spore_stims/complex_02_A_c.gif","images/stimuli/spore_stims/complex_14_A_b.gif","","","","","16","complex_dissimilar","images/stimuli/spore_stims/complex_14_A_b.gif","right","","","","",""
"","null","html-keyboard-response","306","654063","0.0-56.0-0.5","SS1613168937460","","","null","","","","","<p><img src= images/blank.png width =""200"" height = ""200"" style = ""float:right""></p><p><img src=images/blank.png width =""800"" height = ""200""></p>","","","","","","","","","","","",""
"","207.79499993659556","sequential-stimulus-presentation","307","655125","0.0-56.0-1.5","SS1613168937460","trial","","40","800","1007.7949999365956","images/stimuli/spore_stims/complex_02_A_c.gif","images/stimuli/spore_stims/complex_14_A_b.gif","","","","","16","complex_dissimilar","images/stimuli/spore_stims/complex_14_A_b.gif","right","","","","",""
"","null","html-keyboard-response","308","656053","0.0-56.0-0.6","SS1613168937460","","","null","","","","","<p><img src= images/blank.png width =""200"" height = ""200"" style = ""float:right""></p><p><img src=images/blank.png width =""800"" height = ""200""></p>","","","","","","","","","","","",""
"","144.43999994546175","sequential-stimulus-presentation","309","657026","0.0-56.0-1.6","SS1613168937460","trial","","40","800","944.4399999454618","images/stimuli/spore_stims/complex_02_A_c.gif","images/stimuli/spore_stims/complex_14_A_b.gif","","","","","16","complex_dissimilar","images/stimuli/spore_stims/complex_02_A_c.gif","left","","","","",""
"","null","html-keyboard-response","310","658104","0.0-56.0-0.7","SS1613168937460","","","null","","","","","<p><img src= images/blank.png width =""200"" height = ""200"" style = ""float:right""></p><p><img src=images/blank.png width =""800"" height = ""200""></p>","","","","","","","","","","","",""
"","166.41000006347895","sequential-stimulus-presentation","311","659141","0.0-56.0-1.7","SS1613168937460","trial","","40","800","966.410000063479","images/stimuli/spore_stims/complex_02_A_c.gif","images/stimuli/spore_stims/complex_14_A_b.gif","","","","","16","complex_dissimilar","images/stimuli/spore_stims/complex_14_A_b.gif","right","","","","",""
"","8215.89000010863","html-keyboard-response","312","667366","0.0-57.0","SS1613168937460","pref_question","","99","","","","","<video width ='960' height = '540' style='padding-top:8%' autoplay muted><source src='images/stimuli/wall_pref.mp4' type='video/mp4'></video>","3","right","66%","16","","","","","","","",""
