"view_history","rt","trial_type","trial_index","time_elapsed","internal_node_id","subject","stimulus_type","trial_stimulus","key_press","minimum_viewing_duration","trial_looking_time","block_deviant","block_background","stimulus","wall_pref","location","location_percent","block_number","block_type","stimulus_displayed","position_displayed","stim_type_selected","responses","question_order","stimulus_left","stimulus_right"
"[{""page_index"":0,""viewing_time"":33567.54499999806}]","33568.189999990864","instructions","0","33570","0.0-0.0","SS1613138288040","","","","","","","","","","","","","","","","","","","",""
"[{""page_index"":0,""viewing_time"":27563.509999992675},{""page_index"":1,""viewing_time"":6913.025000001653}]","34476.840000002994","instructions","1","70050","0.0-1.0","SS1613138288040","instructions","","","","","","","","","","","","","","","","","","",""
"","63402.69499999704","sequential-stimulus-presentation","2","134259","0.0-2.0","SS1613138288040","","","40","800","64202.69499999704","null","null","","","","","","","","","","","","",""
"","1619.0950000018347","sequential-stimulus-presentation","3","136683","0.0-3.0","SS1613138288040","","","40","800","2419.0950000018347","null","null","","","","","","","","","","","","",""
"[{""page_index"":0,""viewing_time"":4775.854999999865}]","4776.064999998198","instructions","4","141461","0.0-4.0","SS1613138288040","instructions","","","","","","","","","","","","","","","","","","",""
"","14005.8149999968","html-keyboard-response","5","155470","0.0-5.0","SS1613138288040","instructions","","49","","","","","<video width ='960' height = '540' autoplay muted><source src='images/stimuli/wall_pref.mp4' type='video/mp4'></video>","1","left","25%","","","","","","","","",""
"","3183.7800000066636","sequential-stimulus-presentation","6","159459","0.0-6.0","SS1613138288040","pref_reveal","","40","800","3983.7800000066636","null","null","","","","","","","","","","","","",""
"[{""page_index"":0,""viewing_time"":10196.219999997993},{""page_index"":1,""viewing_time"":4209.659999993164},{""page_index"":2,""viewing_time"":1239.1800000041258},{""page_index"":3,""viewing_time"":913.9250000007451}]","16559.1349999886","instructions","7","176020","0.0-7.0","SS1613138288040","instructions","","","","","","","","","","","","","","","","","","",""
"","null","html-keyboard-response","8","177197","0.0-8.0-0.0","SS1613138288040","","","null","","","","","<p><img src= images/blank.png width =""200"" height = ""200"" style = ""float:right""></p><p><img src=images/blank.png width =""800"" height = ""200""></p>","","","","","","","","","","","",""
"","2332.640000007814","sequential-stimulus-presentation","9","180334","0.0-8.0-1.0","SS1613138288040","trial","","40","800","3132.640000007814","images/stimuli/spore_stims/simple_03_A_a.gif","images/stimuli/spore_stims/simple_03_B_a.gif","","","","","0","simple_similar","images/stimuli/spore_stims/simple_03_B_a.gif","right","","","","",""
"","null","html-keyboard-response","10","181509","0.0-8.0-0.1","SS1613138288040","","","null","","","","","<p><img src= images/blank.png width =""200"" height = ""200"" style = ""float:right""></p><p><img src=images/blank.png width =""800"" height = ""200""></p>","","","","","","","","","","","",""
"","1092.5500000012107","sequential-stimulus-presentation","11","183410","0.0-8.0-1.1","SS1613138288040","trial","","40","800","1892.5500000012107","images/stimuli/spore_stims/simple_03_A_a.gif","images/stimuli/spore_stims/simple_03_B_a.gif","","","","","0","simple_similar","images/stimuli/spore_stims/simple_03_B_a.gif","right","","","","",""
"","null","html-keyboard-response","12","184594","0.0-8.0-0.2","SS1613138288040","","","null","","","","","<p><img src= images/blank.png width =""200"" height = ""200"" style = ""float:right""></p><p><img src=images/blank.png width =""800"" height = ""200""></p>","","","","","","","","","","","",""
"","3324.0050000022165","sequential-stimulus-presentation","13","188723","0.0-8.0-1.2","SS1613138288040","trial","","40","800","4124.005000002217","images/stimuli/spore_stims/simple_03_A_a.gif","images/stimuli/spore_stims/simple_03_B_a.gif","","","","","0","simple_similar","images/stimuli/spore_stims/simple_03_B_a.gif","right","","","","",""
"","null","html-keyboard-response","14","189802","0.0-8.0-0.3","SS1613138288040","","","null","","","","","<p><img src= images/blank.png width =""200"" height = ""200"" style = ""float:right""></p><p><img src=images/blank.png width =""800"" height = ""200""></p>","","","","","","","","","","","",""
"","1241.7349999886937","sequential-stimulus-presentation","15","191849","0.0-8.0-1.3","SS1613138288040","trial","","40","800","2041.7349999886937","images/stimuli/spore_stims/simple_03_A_a.gif","images/stimuli/spore_stims/simple_03_B_a.gif","","","","","0","simple_similar","images/stimuli/spore_stims/simple_03_B_a.gif","right","","","","",""
"","null","html-keyboard-response","16","192934","0.0-8.0-0.4","SS1613138288040","","","null","","","","","<p><img src= images/blank.png width =""200"" height = ""200"" style = ""float:right""></p><p><img src=images/blank.png width =""800"" height = ""200""></p>","","","","","","","","","","","",""
"","137.70500000100583","sequential-stimulus-presentation","17","193888","0.0-8.0-1.4","SS1613138288040","trial","","40","800","937.7050000010058","images/stimuli/spore_stims/simple_03_A_a.gif","images/stimuli/spore_stims/simple_03_B_a.gif","","","","","0","simple_similar","images/stimuli/spore_stims/simple_03_B_a.gif","right","","","","",""
"","null","html-keyboard-response","18","194954","0.0-8.0-0.5","SS1613138288040","","","null","","","","","<p><img src= images/blank.png width =""200"" height = ""200"" style = ""float:right""></p><p><img src=images/blank.png width =""800"" height = ""200""></p>","","","","","","","","","","","",""
"","1936.8550000071991","sequential-stimulus-presentation","19","197700","0.0-8.0-1.5","SS1613138288040","trial","","40","800","2736.855000007199","images/stimuli/spore_stims/simple_03_A_a.gif","images/stimuli/spore_stims/simple_03_B_a.gif","","","","","0","simple_similar","images/stimuli/spore_stims/simple_03_B_a.gif","right","","","","",""
"","null","html-keyboard-response","20","198777","0.0-8.0-0.6","SS1613138288040","","","null","","","","","<p><img src= images/blank.png width =""200"" height = ""200"" style = ""float:right""></p><p><img src=images/blank.png width =""800"" height = ""200""></p>","","","","","","","","","","","",""
"","3495.4750000033528","sequential-stimulus-presentation","21","203078","0.0-8.0-1.6","SS1613138288040","trial","","40","800","4295.475000003353","images/stimuli/spore_stims/simple_03_A_a.gif","images/stimuli/spore_stims/simple_03_B_a.gif","","","","","0","simple_similar","images/stimuli/spore_stims/simple_03_B_a.gif","right","","","","",""
"","null","html-keyboard-response","22","204094","0.0-8.0-0.7","SS1613138288040","","","null","","","","","<p><img src= images/blank.png width =""200"" height = ""200"" style = ""float:right""></p><p><img src=images/blank.png width =""800"" height = ""200""></p>","","","","","","","","","","","",""
"","2242.834999997285","sequential-stimulus-presentation","23","207163","0.0-8.0-1.7","SS1613138288040","trial","","40","800","3042.834999997285","images/stimuli/spore_stims/simple_03_A_a.gif","images/stimuli/spore_stims/simple_03_B_a.gif","","","","","0","simple_similar","images/stimuli/spore_stims/simple_03_A_a.gif","left","","","","",""
"","1532.4250000121538","html-keyboard-response","24","208700","0.0-9.0","SS1613138288040","pref_question","","51","","","","","<video width ='960' height = '540' style='padding-top:8%' autoplay muted><source src='images/stimuli/wall_pref.mp4' type='video/mp4'></video>","3","right","66%","0","","","","","","","",""
"","54.74999999569263","sequential-stimulus-presentation","25","209562","0.0-10.0","SS1613138288040","pref_reveal","","40","800","854.7499999956926","null","null","","","","","0","","","","background","","","",""
"","null","html-keyboard-response","26","210613","0.0-11.0-0.0","SS1613138288040","","","null","","","","","<p><img src= images/blank.png width =""200"" height = ""200"" style = ""float:right""></p><p><img src=images/blank.png width =""800"" height = ""200""></p>","","","","","","","","","","","",""
"","2506.9499999954132","sequential-stimulus-presentation","27","213932","0.0-11.0-1.0","SS1613138288040","trial","","40","800","3306.9499999954132","images/stimuli/spore_stims/simple_04_B_a.gif","images/stimuli/spore_stims/simple_04_A_a.gif","","","","","1","simple_similar","images/stimuli/spore_stims/simple_04_A_a.gif","right","","","","",""
"","null","html-keyboard-response","28","214852","0.0-11.0-0.1","SS1613138288040","","","null","","","","","<p><img src= images/blank.png width =""200"" height = ""200"" style = ""float:right""></p><p><img src=images/blank.png width =""800"" height = ""200""></p>","","","","","","","","","","","",""
"","672.6049999997485","sequential-stimulus-presentation","29","216331","0.0-11.0-1.1","SS1613138288040","trial","","40","800","1472.6049999997485","images/stimuli/spore_stims/simple_04_B_a.gif","images/stimuli/spore_stims/simple_04_A_a.gif","","","","","1","simple_similar","images/stimuli/spore_stims/simple_04_A_a.gif","right","","","","",""
"","null","html-keyboard-response","30","217522","0.0-11.0-0.2","SS1613138288040","","","null","","","","","<p><img src= images/blank.png width =""200"" height = ""200"" style = ""float:right""></p><p><img src=images/blank.png width =""800"" height = ""200""></p>","","","","","","","","","","","",""
"","794.1100000025472","sequential-stimulus-presentation","31","219121","0.0-11.0-1.2","SS1613138288040","trial","","40","800","1594.1100000025472","images/stimuli/spore_stims/simple_04_B_a.gif","images/stimuli/spore_stims/simple_04_A_a.gif","","","","","1","simple_similar","images/stimuli/spore_stims/simple_04_A_a.gif","right","","","","",""
"","null","html-keyboard-response","32","220216","0.0-11.0-0.3","SS1613138288040","","","null","","","","","<p><img src= images/blank.png width =""200"" height = ""200"" style = ""float:right""></p><p><img src=images/blank.png width =""800"" height = ""200""></p>","","","","","","","","","","","",""
"","2032.4450000043726","sequential-stimulus-presentation","33","223054","0.0-11.0-1.3","SS1613138288040","trial","","40","800","2832.4450000043726","images/stimuli/spore_stims/simple_04_B_a.gif","images/stimuli/spore_stims/simple_04_A_a.gif","","","","","1","simple_similar","images/stimuli/spore_stims/simple_04_A_a.gif","right","","","","",""
"","null","html-keyboard-response","34","223926","0.0-11.0-0.4","SS1613138288040","","","null","","","","","<p><img src= images/blank.png width =""200"" height = ""200"" style = ""float:right""></p><p><img src=images/blank.png width =""800"" height = ""200""></p>","","","","","","","","","","","",""
"","601.3099999981932","sequential-stimulus-presentation","35","225334","0.0-11.0-1.4","SS1613138288040","trial","","40","800","1401.3099999981932","images/stimuli/spore_stims/simple_04_B_a.gif","images/stimuli/spore_stims/simple_04_A_a.gif","","","","","1","simple_similar","images/stimuli/spore_stims/simple_04_A_a.gif","right","","","","",""
"","null","html-keyboard-response","36","226517","0.0-11.0-0.5","SS1613138288040","","","null","","","","","<p><img src= images/blank.png width =""200"" height = ""200"" style = ""float:right""></p><p><img src=images/blank.png width =""800"" height = ""200""></p>","","","","","","","","","","","",""
"","890.5200000008335","sequential-stimulus-presentation","37","228220","0.0-11.0-1.5","SS1613138288040","trial","","40","800","1690.5200000008335","images/stimuli/spore_stims/simple_04_B_a.gif","images/stimuli/spore_stims/simple_04_A_a.gif","","","","","1","simple_similar","images/stimuli/spore_stims/simple_04_A_a.gif","right","","","","",""
"","null","html-keyboard-response","38","229280","0.0-11.0-0.6","SS1613138288040","","","null","","","","","<p><img src= images/blank.png width =""200"" height = ""200"" style = ""float:right""></p><p><img src=images/blank.png width =""800"" height = ""200""></p>","","","","","","","","","","","",""
"","1944.904999996652","sequential-stimulus-presentation","39","232031","0.0-11.0-1.6","SS1613138288040","trial","","40","800","2744.904999996652","images/stimuli/spore_stims/simple_04_B_a.gif","images/stimuli/spore_stims/simple_04_A_a.gif","","","","","1","simple_similar","images/stimuli/spore_stims/simple_04_B_a.gif","middle","","","","",""
"","null","html-keyboard-response","40","233177","0.0-11.0-0.7","SS1613138288040","","","null","","","","","<p><img src= images/blank.png width =""200"" height = ""200"" style = ""float:right""></p><p><img src=images/blank.png width =""800"" height = ""200""></p>","","","","","","","","","","","",""
"","2432.614999997895","sequential-stimulus-presentation","41","236417","0.0-11.0-1.7","SS1613138288040","trial","","40","800","3232.614999997895","images/stimuli/spore_stims/simple_04_B_a.gif","images/stimuli/spore_stims/simple_04_A_a.gif","","","","","1","simple_similar","images/stimuli/spore_stims/simple_04_A_a.gif","right","","","","",""
"","2284.3549999961397","html-keyboard-response","42","238706","0.0-12.0","SS1613138288040","pref_question","","49","","","","","<video width ='960' height = '540' style='padding-top:8%' autoplay muted><source src='images/stimuli/wall_pref.mp4' type='video/mp4'></video>","1","left","25%","1","","","","","","","",""
"","84.46999998704996","sequential-stimulus-presentation","43","239601","0.0-13.0","SS1613138288040","pref_reveal","","40","800","884.46999998705","null","null","","","","","1","","","","novel","","","",""
"","null","html-keyboard-response","44","240412","0.0-14.0-0.0","SS1613138288040","","","null","","","","","<p><img src= images/blank.png width =""200"" height = ""200"" style = ""float:right""></p><p><img src=images/blank.png width =""800"" height = ""200""></p>","","","","","","","","","","","",""
"","3140.6299999944167","sequential-stimulus-presentation","45","244358","0.0-14.0-1.0","SS1613138288040","trial","","40","800","3940.6299999944167","images/stimuli/spore_stims/complex_19_B_d.gif","images/stimuli/spore_stims/complex_19_A_d.gif","","","","","2","complex_similar","images/stimuli/spore_stims/complex_19_A_d.gif","left","","","","",""
"","null","html-keyboard-response","46","245181","0.0-14.0-0.1","SS1613138288040","","","null","","","","","<p><img src= images/blank.png width =""200"" height = ""200"" style = ""float:right""></p><p><img src=images/blank.png width =""800"" height = ""200""></p>","","","","","","","","","","","",""
"","3909.5499999966705","sequential-stimulus-presentation","47","249898","0.0-14.0-1.1","SS1613138288040","trial","","40","800","4709.5499999966705","images/stimuli/spore_stims/complex_19_B_d.gif","images/stimuli/spore_stims/complex_19_A_d.gif","","","","","2","complex_similar","images/stimuli/spore_stims/complex_19_A_d.gif","left","","","","",""
"","null","html-keyboard-response","48","250712","0.0-14.0-0.2","SS1613138288040","","","null","","","","","<p><img src= images/blank.png width =""200"" height = ""200"" style = ""float:right""></p><p><img src=images/blank.png width =""800"" height = ""200""></p>","","","","","","","","","","","",""
"","4446.85500000196","sequential-stimulus-presentation","49","255965","0.0-14.0-1.2","SS1613138288040","trial","","40","800","5246.85500000196","images/stimuli/spore_stims/complex_19_B_d.gif","images/stimuli/spore_stims/complex_19_A_d.gif","","","","","2","complex_similar","images/stimuli/spore_stims/complex_19_A_d.gif","left","","","","",""
"","null","html-keyboard-response","50","257258","0.0-14.0-0.3","SS1613138288040","","","null","","","","","<p><img src= images/blank.png width =""200"" height = ""200"" style = ""float:right""></p><p><img src=images/blank.png width =""800"" height = ""200""></p>","","","","","","","","","","","",""
"","3441.1699999909615","sequential-stimulus-presentation","51","261506","0.0-14.0-1.3","SS1613138288040","trial","","40","800","4241.1699999909615","images/stimuli/spore_stims/complex_19_B_d.gif","images/stimuli/spore_stims/complex_19_A_d.gif","","","","","2","complex_similar","images/stimuli/spore_stims/complex_19_A_d.gif","left","","","","",""
"","null","html-keyboard-response","52","262689","0.0-14.0-0.4","SS1613138288040","","","null","","","","","<p><img src= images/blank.png width =""200"" height = ""200"" style = ""float:right""></p><p><img src=images/blank.png width =""800"" height = ""200""></p>","","","","","","","","","","","",""
"","5874.199999991106","sequential-stimulus-presentation","53","269371","0.0-14.0-1.4","SS1613138288040","trial","","40","800","6674.199999991106","images/stimuli/spore_stims/complex_19_B_d.gif","images/stimuli/spore_stims/complex_19_A_d.gif","","","","","2","complex_similar","images/stimuli/spore_stims/complex_19_A_d.gif","left","","","","",""
"","null","html-keyboard-response","54","270621","0.0-14.0-0.5","SS1613138288040","","","null","","","","","<p><img src= images/blank.png width =""200"" height = ""200"" style = ""float:right""></p><p><img src=images/blank.png width =""800"" height = ""200""></p>","","","","","","","","","","","",""
"","991.3400000077672","sequential-stimulus-presentation","55","272441","0.0-14.0-1.5","SS1613138288040","trial","","40","800","1791.3400000077672","images/stimuli/spore_stims/complex_19_B_d.gif","images/stimuli/spore_stims/complex_19_A_d.gif","","","","","2","complex_similar","images/stimuli/spore_stims/complex_19_A_d.gif","left","","","","",""
"","null","html-keyboard-response","56","273588","0.0-14.0-0.6","SS1613138288040","","","null","","","","","<p><img src= images/blank.png width =""200"" height = ""200"" style = ""float:right""></p><p><img src=images/blank.png width =""800"" height = ""200""></p>","","","","","","","","","","","",""
"","622.3499999905471","sequential-stimulus-presentation","57","275018","0.0-14.0-1.6","SS1613138288040","trial","","40","800","1422.349999990547","images/stimuli/spore_stims/complex_19_B_d.gif","images/stimuli/spore_stims/complex_19_A_d.gif","","","","","2","complex_similar","images/stimuli/spore_stims/complex_19_A_d.gif","left","","","","",""
"","null","html-keyboard-response","58","275974","0.0-14.0-0.7","SS1613138288040","","","null","","","","","<p><img src= images/blank.png width =""200"" height = ""200"" style = ""float:right""></p><p><img src=images/blank.png width =""800"" height = ""200""></p>","","","","","","","","","","","",""
"","2402.6149999990594","sequential-stimulus-presentation","59","279184","0.0-14.0-1.7","SS1613138288040","trial","","40","800","3202.6149999990594","images/stimuli/spore_stims/complex_19_B_d.gif","images/stimuli/spore_stims/complex_19_A_d.gif","","","","","2","complex_similar","images/stimuli/spore_stims/complex_19_B_d.gif","right","","","","",""
"","1662.9500000126427","html-keyboard-response","60","280855","0.0-15.0","SS1613138288040","pref_question","","50","","","","","<video width ='960' height = '540' style='padding-top:8%' autoplay muted><source src='images/stimuli/wall_pref.mp4' type='video/mp4'></video>","2","middle","45%","2","","","","","","","",""
"","4513.684999998077","sequential-stimulus-presentation","61","286185","0.0-16.0","SS1613138288040","pref_reveal","","40","800","5313.684999998077","null","null","","","","","2","","","","novel","","","",""
"","null","html-keyboard-response","62","287257","0.0-17.0-0.0","SS1613138288040","","","null","","","","","<p><img src= images/blank.png width =""200"" height = ""200"" style = ""float:right""></p><p><img src=images/blank.png width =""800"" height = ""200""></p>","","","","","","","","","","","",""
"","3476.699999999255","sequential-stimulus-presentation","63","291543","0.0-17.0-1.0","SS1613138288040","trial","","40","800","4276.699999999255","images/stimuli/spore_stims/simple_18_B_a.gif","images/stimuli/spore_stims/simple_08_A_d.gif","","","","","3","simple_dissimilar","images/stimuli/spore_stims/simple_08_A_d.gif","middle","","","","",""
"","null","html-keyboard-response","64","292492","0.0-17.0-0.1","SS1613138288040","","","null","","","","","<p><img src= images/blank.png width =""200"" height = ""200"" style = ""float:right""></p><p><img src=images/blank.png width =""800"" height = ""200""></p>","","","","","","","","","","","",""
"","651.9800000096438","sequential-stimulus-presentation","65","293957","0.0-17.0-1.1","SS1613138288040","trial","","40","800","1451.9800000096438","images/stimuli/spore_stims/simple_18_B_a.gif","images/stimuli/spore_stims/simple_08_A_d.gif","","","","","3","simple_dissimilar","images/stimuli/spore_stims/simple_08_A_d.gif","middle","","","","",""
"","null","html-keyboard-response","66","294982","0.0-17.0-0.2","SS1613138288040","","","null","","","","","<p><img src= images/blank.png width =""200"" height = ""200"" style = ""float:right""></p><p><img src=images/blank.png width =""800"" height = ""200""></p>","","","","","","","","","","","",""
"","69.87000000663102","sequential-stimulus-presentation","67","295864","0.0-17.0-1.2","SS1613138288040","trial","","40","800","869.870000006631","images/stimuli/spore_stims/simple_18_B_a.gif","images/stimuli/spore_stims/simple_08_A_d.gif","","","","","3","simple_dissimilar","images/stimuli/spore_stims/simple_08_A_d.gif","middle","","","","",""
"","null","html-keyboard-response","68","296807","0.0-17.0-0.3","SS1613138288040","","","null","","","","","<p><img src= images/blank.png width =""200"" height = ""200"" style = ""float:right""></p><p><img src=images/blank.png width =""800"" height = ""200""></p>","","","","","","","","","","","",""
"","739.7999999957392","sequential-stimulus-presentation","69","298352","0.0-17.0-1.3","SS1613138288040","trial","","40","800","1539.7999999957392","images/stimuli/spore_stims/simple_18_B_a.gif","images/stimuli/spore_stims/simple_08_A_d.gif","","","","","3","simple_dissimilar","images/stimuli/spore_stims/simple_08_A_d.gif","middle","","","","",""
"","null","html-keyboard-response","70","299505","0.0-17.0-0.4","SS1613138288040","","","null","","","","","<p><img src= images/blank.png width =""200"" height = ""200"" style = ""float:right""></p><p><img src=images/blank.png width =""800"" height = ""200""></p>","","","","","","","","","","","",""
"","375.14000000373926","sequential-stimulus-presentation","71","300687","0.0-17.0-1.4","SS1613138288040","trial","","40","800","1175.1400000037393","images/stimuli/spore_stims/simple_18_B_a.gif","images/stimuli/spore_stims/simple_08_A_d.gif","","","","","3","simple_dissimilar","images/stimuli/spore_stims/simple_08_A_d.gif","middle","","","","",""
"","null","html-keyboard-response","72","301891","0.0-17.0-0.5","SS1613138288040","","","null","","","","","<p><img src= images/blank.png width =""200"" height = ""200"" style = ""float:right""></p><p><img src=images/blank.png width =""800"" height = ""200""></p>","","","","","","","","","","","",""
"","1780.6649999984074","sequential-stimulus-presentation","73","304484","0.0-17.0-1.5","SS1613138288040","trial","","40","800","2580.6649999984074","images/stimuli/spore_stims/simple_18_B_a.gif","images/stimuli/spore_stims/simple_08_A_d.gif","","","","","3","simple_dissimilar","images/stimuli/spore_stims/simple_18_B_a.gif","right","","","","",""
"","null","html-keyboard-response","74","305466","0.0-17.0-0.6","SS1613138288040","","","null","","","","","<p><img src= images/blank.png width =""200"" height = ""200"" style = ""float:right""></p><p><img src=images/blank.png width =""800"" height = ""200""></p>","","","","","","","","","","","",""
"","113.78499999409541","sequential-stimulus-presentation","75","306392","0.0-17.0-1.6","SS1613138288040","trial","","40","800","913.7849999940954","images/stimuli/spore_stims/simple_18_B_a.gif","images/stimuli/spore_stims/simple_08_A_d.gif","","","","","3","simple_dissimilar","images/stimuli/spore_stims/simple_08_A_d.gif","middle","","","","",""
"","null","html-keyboard-response","76","307424","0.0-17.0-0.7","SS1613138288040","","","null","","","","","<p><img src= images/blank.png width =""200"" height = ""200"" style = ""float:right""></p><p><img src=images/blank.png width =""800"" height = ""200""></p>","","","","","","","","","","","",""
"","700.5350000108592","sequential-stimulus-presentation","77","308936","0.0-17.0-1.7","SS1613138288040","trial","","40","800","1500.5350000108592","images/stimuli/spore_stims/simple_18_B_a.gif","images/stimuli/spore_stims/simple_08_A_d.gif","","","","","3","simple_dissimilar","images/stimuli/spore_stims/simple_08_A_d.gif","middle","","","","",""
"","1625.8899999957066","html-keyboard-response","78","310569","0.0-18.0","SS1613138288040","pref_question","","49","","","","","<video width ='960' height = '540' style='padding-top:8%' autoplay muted><source src='images/stimuli/wall_pref.mp4' type='video/mp4'></video>","1","left","25%","3","","","","","","","",""
"","2643.0099999997765","sequential-stimulus-presentation","79","314020","0.0-19.0","SS1613138288040","pref_reveal","","40","800","3443.0099999997765","null","null","","","","","3","","","","novel","","","",""
"","null","html-keyboard-response","80","314957","0.0-20.0-0.0","SS1613138288040","","","null","","","","","<p><img src= images/blank.png width =""200"" height = ""200"" style = ""float:right""></p><p><img src=images/blank.png width =""800"" height = ""200""></p>","","","","","","","","","","","",""
"","2210.0849999987986","sequential-stimulus-presentation","81","317988","0.0-20.0-1.0","SS1613138288040","trial","","40","800","3010.0849999987986","images/stimuli/spore_stims/simple_07_B_c.gif","images/stimuli/spore_stims/simple_06_B_d.gif","","","","","4","simple_dissimilar","images/stimuli/spore_stims/simple_06_B_d.gif","middle","","","","",""
"","null","html-keyboard-response","82","319239","0.0-20.0-0.1","SS1613138288040","","","null","","","","","<p><img src= images/blank.png width =""200"" height = ""200"" style = ""float:right""></p><p><img src=images/blank.png width =""800"" height = ""200""></p>","","","","","","","","","","","",""
"","2771.3800000055926","sequential-stimulus-presentation","83","322820","0.0-20.0-1.1","SS1613138288040","trial","","40","800","3571.3800000055926","images/stimuli/spore_stims/simple_07_B_c.gif","images/stimuli/spore_stims/simple_06_B_d.gif","","","","","4","simple_dissimilar","images/stimuli/spore_stims/simple_06_B_d.gif","middle","","","","",""
"","null","html-keyboard-response","84","324003","0.0-20.0-0.2","SS1613138288040","","","null","","","","","<p><img src= images/blank.png width =""200"" height = ""200"" style = ""float:right""></p><p><img src=images/blank.png width =""800"" height = ""200""></p>","","","","","","","","","","","",""
"","1353.6650000023656","sequential-stimulus-presentation","85","326165","0.0-20.0-1.2","SS1613138288040","trial","","40","800","2153.6650000023656","images/stimuli/spore_stims/simple_07_B_c.gif","images/stimuli/spore_stims/simple_06_B_d.gif","","","","","4","simple_dissimilar","images/stimuli/spore_stims/simple_06_B_d.gif","middle","","","","",""
"","null","html-keyboard-response","86","327045","0.0-20.0-0.3","SS1613138288040","","","null","","","","","<p><img src= images/blank.png width =""200"" height = ""200"" style = ""float:right""></p><p><img src=images/blank.png width =""800"" height = ""200""></p>","","","","","","","","","","","",""
"","4126.585000005434","sequential-stimulus-presentation","87","331995","0.0-20.0-1.3","SS1613138288040","trial","","40","800","4926.585000005434","images/stimuli/spore_stims/simple_07_B_c.gif","images/stimuli/spore_stims/simple_06_B_d.gif","","","","","4","simple_dissimilar","images/stimuli/spore_stims/simple_06_B_d.gif","middle","","","","",""
"","null","html-keyboard-response","88","333268","0.0-20.0-0.4","SS1613138288040","","","null","","","","","<p><img src= images/blank.png width =""200"" height = ""200"" style = ""float:right""></p><p><img src=images/blank.png width =""800"" height = ""200""></p>","","","","","","","","","","","",""
"","830.8150000084424","sequential-stimulus-presentation","89","334911","0.0-20.0-1.4","SS1613138288040","trial","","40","800","1630.8150000084424","images/stimuli/spore_stims/simple_07_B_c.gif","images/stimuli/spore_stims/simple_06_B_d.gif","","","","","4","simple_dissimilar","images/stimuli/spore_stims/simple_06_B_d.gif","middle","","","","",""
"","null","html-keyboard-response","90","335991","0.0-20.0-0.5","SS1613138288040","","","null","","","","","<p><img src= images/blank.png width =""200"" height = ""200"" style = ""float:right""></p><p><img src=images/blank.png width =""800"" height = ""200""></p>","","","","","","","","","","","",""
"","1996.4800000016112","sequential-stimulus-presentation","91","338797","0.0-20.0-1.5","SS1613138288040","trial","","40","800","2796.480000001611","images/stimuli/spore_stims/simple_07_B_c.gif","images/stimuli/spore_stims/simple_06_B_d.gif","","","","","4","simple_dissimilar","images/stimuli/spore_stims/simple_06_B_d.gif","middle","","","","",""
"","null","html-keyboard-response","92","339643","0.0-20.0-0.6","SS1613138288040","","","null","","","","","<p><img src= images/blank.png width =""200"" height = ""200"" style = ""float:right""></p><p><img src=images/blank.png width =""800"" height = ""200""></p>","","","","","","","","","","","",""
"","4915.959999998449","sequential-stimulus-presentation","93","345378","0.0-20.0-1.6","SS1613138288040","trial","","40","800","5715.959999998449","images/stimuli/spore_stims/simple_07_B_c.gif","images/stimuli/spore_stims/simple_06_B_d.gif","","","","","4","simple_dissimilar","images/stimuli/spore_stims/simple_07_B_c.gif","left","","","","",""
"","null","html-keyboard-response","94","346190","0.0-20.0-0.7","SS1613138288040","","","null","","","","","<p><img src= images/blank.png width =""200"" height = ""200"" style = ""float:right""></p><p><img src=images/blank.png width =""800"" height = ""200""></p>","","","","","","","","","","","",""
"","129.014999998617","sequential-stimulus-presentation","95","347130","0.0-20.0-1.7","SS1613138288040","trial","","40","800","929.014999998617","images/stimuli/spore_stims/simple_07_B_c.gif","images/stimuli/spore_stims/simple_06_B_d.gif","","","","","4","simple_dissimilar","images/stimuli/spore_stims/simple_06_B_d.gif","middle","","","","",""
"","1651.7900000035297","html-keyboard-response","96","348803","0.0-21.0","SS1613138288040","pref_question","","51","","","","","<video width ='960' height = '540' style='padding-top:8%' autoplay muted><source src='images/stimuli/wall_pref.mp4' type='video/mp4'></video>","3","right","66%","4","","","","","","","",""
"","2629.9849999923026","sequential-stimulus-presentation","97","352252","0.0-22.0","SS1613138288040","pref_reveal","","40","800","3429.9849999923026","null","null","","","","","4","","","","novel","","","",""
"","null","html-keyboard-response","98","353300","0.0-23.0-0.0","SS1613138288040","","","null","","","","","<p><img src= images/blank.png width =""200"" height = ""200"" style = ""float:right""></p><p><img src=images/blank.png width =""800"" height = ""200""></p>","","","","","","","","","","","",""
"","2534.5150000066496","sequential-stimulus-presentation","99","356654","0.0-23.0-1.0","SS1613138288040","trial","","40","800","3334.5150000066496","images/stimuli/spore_stims/simple_18_A_a.gif","images/stimuli/spore_stims/simple_06_A_a.gif","","","","","5","simple_dissimilar","images/stimuli/spore_stims/simple_06_A_a.gif","left","","","","",""
"","null","html-keyboard-response","100","357934","0.0-23.0-0.1","SS1613138288040","","","null","","","","","<p><img src= images/blank.png width =""200"" height = ""200"" style = ""float:right""></p><p><img src=images/blank.png width =""800"" height = ""200""></p>","","","","","","","","","","","",""
"","2559.045000001788","sequential-stimulus-presentation","101","361304","0.0-23.0-1.1","SS1613138288040","trial","","40","800","3359.045000001788","images/stimuli/spore_stims/simple_18_A_a.gif","images/stimuli/spore_stims/simple_06_A_a.gif","","","","","5","simple_dissimilar","images/stimuli/spore_stims/simple_06_A_a.gif","left","","","","",""
"","null","html-keyboard-response","102","362144","0.0-23.0-0.2","SS1613138288040","","","null","","","","","<p><img src= images/blank.png width =""200"" height = ""200"" style = ""float:right""></p><p><img src=images/blank.png width =""800"" height = ""200""></p>","","","","","","","","","","","",""
"","2040.0900000095135","sequential-stimulus-presentation","103","365025","0.0-23.0-1.2","SS1613138288040","trial","","40","800","2840.0900000095135","images/stimuli/spore_stims/simple_18_A_a.gif","images/stimuli/spore_stims/simple_06_A_a.gif","","","","","5","simple_dissimilar","images/stimuli/spore_stims/simple_06_A_a.gif","left","","","","",""
"","null","html-keyboard-response","104","366220","0.0-23.0-0.3","SS1613138288040","","","null","","","","","<p><img src= images/blank.png width =""200"" height = ""200"" style = ""float:right""></p><p><img src=images/blank.png width =""800"" height = ""200""></p>","","","","","","","","","","","",""
"","2327.595000009751","sequential-stimulus-presentation","105","369369","0.0-23.0-1.3","SS1613138288040","trial","","40","800","3127.595000009751","images/stimuli/spore_stims/simple_18_A_a.gif","images/stimuli/spore_stims/simple_06_A_a.gif","","","","","5","simple_dissimilar","images/stimuli/spore_stims/simple_18_A_a.gif","middle","","","","",""
"","null","html-keyboard-response","106","370436","0.0-23.0-0.4","SS1613138288040","","","null","","","","","<p><img src= images/blank.png width =""200"" height = ""200"" style = ""float:right""></p><p><img src=images/blank.png width =""800"" height = ""200""></p>","","","","","","","","","","","",""
"","2833.5649999935413","sequential-stimulus-presentation","107","374090","0.0-23.0-1.4","SS1613138288040","trial","","40","800","3633.5649999935413","images/stimuli/spore_stims/simple_18_A_a.gif","images/stimuli/spore_stims/simple_06_A_a.gif","","","","","5","simple_dissimilar","images/stimuli/spore_stims/simple_06_A_a.gif","left","","","","",""
"","null","html-keyboard-response","108","375125","0.0-23.0-0.5","SS1613138288040","","","null","","","","","<p><img src= images/blank.png width =""200"" height = ""200"" style = ""float:right""></p><p><img src=images/blank.png width =""800"" height = ""200""></p>","","","","","","","","","","","",""
"","829.1650000028312","sequential-stimulus-presentation","109","376763","0.0-23.0-1.5","SS1613138288040","trial","","40","800","1629.1650000028312","images/stimuli/spore_stims/simple_18_A_a.gif","images/stimuli/spore_stims/simple_06_A_a.gif","","","","","5","simple_dissimilar","images/stimuli/spore_stims/simple_06_A_a.gif","left","","","","",""
"","null","html-keyboard-response","110","377816","0.0-23.0-0.6","SS1613138288040","","","null","","","","","<p><img src= images/blank.png width =""200"" height = ""200"" style = ""float:right""></p><p><img src=images/blank.png width =""800"" height = ""200""></p>","","","","","","","","","","","",""
"","79.01500001025852","sequential-stimulus-presentation","111","378703","0.0-23.0-1.6","SS1613138288040","trial","","40","800","879.0150000102585","images/stimuli/spore_stims/simple_18_A_a.gif","images/stimuli/spore_stims/simple_06_A_a.gif","","","","","5","simple_dissimilar","images/stimuli/spore_stims/simple_06_A_a.gif","left","","","","",""
"","null","html-keyboard-response","112","379829","0.0-23.0-0.7","SS1613138288040","","","null","","","","","<p><img src= images/blank.png width =""200"" height = ""200"" style = ""float:right""></p><p><img src=images/blank.png width =""800"" height = ""200""></p>","","","","","","","","","","","",""
"","586.2099999940256","sequential-stimulus-presentation","113","381229","0.0-23.0-1.7","SS1613138288040","trial","","40","800","1386.2099999940256","images/stimuli/spore_stims/simple_18_A_a.gif","images/stimuli/spore_stims/simple_06_A_a.gif","","","","","5","simple_dissimilar","images/stimuli/spore_stims/simple_06_A_a.gif","left","","","","",""
"","1977.614999996149","html-keyboard-response","114","383215","0.0-24.0","SS1613138288040","pref_question","","51","","","","","<video width ='960' height = '540' style='padding-top:8%' autoplay muted><source src='images/stimuli/wall_pref.mp4' type='video/mp4'></video>","3","right","66%","5","","","","","","","",""
"","4411.785000003874","sequential-stimulus-presentation","115","388440","0.0-25.0","SS1613138288040","pref_reveal","","40","800","5211.785000003874","null","null","","","","","5","","","","novel","","","",""
"","null","html-keyboard-response","116","389658","0.0-26.0-0.0","SS1613138288040","","","null","","","","","<p><img src= images/blank.png width =""200"" height = ""200"" style = ""float:right""></p><p><img src=images/blank.png width =""800"" height = ""200""></p>","","","","","","","","","","","",""
"","1165.0050000025658","sequential-stimulus-presentation","117","391633","0.0-26.0-1.0","SS1613138288040","trial","","40","800","1965.0050000025658","images/stimuli/spore_stims/complex_13_A_c.gif","images/stimuli/spore_stims/complex_13_B_c.gif","","","","","6","complex_similar","images/stimuli/spore_stims/complex_13_B_c.gif","middle","","","","",""
"","null","html-keyboard-response","118","392599","0.0-26.0-0.1","SS1613138288040","","","null","","","","","<p><img src= images/blank.png width =""200"" height = ""200"" style = ""float:right""></p><p><img src=images/blank.png width =""800"" height = ""200""></p>","","","","","","","","","","","",""
"","1017.1750000008615","sequential-stimulus-presentation","119","394427","0.0-26.0-1.1","SS1613138288040","trial","","40","800","1817.1750000008615","images/stimuli/spore_stims/complex_13_A_c.gif","images/stimuli/spore_stims/complex_13_B_c.gif","","","","","6","complex_similar","images/stimuli/spore_stims/complex_13_B_c.gif","middle","","","","",""
"","null","html-keyboard-response","120","395391","0.0-26.0-0.2","SS1613138288040","","","null","","","","","<p><img src= images/blank.png width =""200"" height = ""200"" style = ""float:right""></p><p><img src=images/blank.png width =""800"" height = ""200""></p>","","","","","","","","","","","",""
"","329.8649999924237","sequential-stimulus-presentation","121","396531","0.0-26.0-1.2","SS1613138288040","trial","","40","800","1129.8649999924237","images/stimuli/spore_stims/complex_13_A_c.gif","images/stimuli/spore_stims/complex_13_B_c.gif","","","","","6","complex_similar","images/stimuli/spore_stims/complex_13_B_c.gif","middle","","","","",""
"","null","html-keyboard-response","122","397591","0.0-26.0-0.3","SS1613138288040","","","null","","","","","<p><img src= images/blank.png width =""200"" height = ""200"" style = ""float:right""></p><p><img src=images/blank.png width =""800"" height = ""200""></p>","","","","","","","","","","","",""
"","662.1250000025611","sequential-stimulus-presentation","123","399063","0.0-26.0-1.3","SS1613138288040","trial","","40","800","1462.1250000025611","images/stimuli/spore_stims/complex_13_A_c.gif","images/stimuli/spore_stims/complex_13_B_c.gif","","","","","6","complex_similar","images/stimuli/spore_stims/complex_13_B_c.gif","middle","","","","",""
"","null","html-keyboard-response","124","400146","0.0-26.0-0.4","SS1613138288040","","","null","","","","","<p><img src= images/blank.png width =""200"" height = ""200"" style = ""float:right""></p><p><img src=images/blank.png width =""800"" height = ""200""></p>","","","","","","","","","","","",""
"","349.8749999998836","sequential-stimulus-presentation","125","401306","0.0-26.0-1.4","SS1613138288040","trial","","40","800","1149.8749999998836","images/stimuli/spore_stims/complex_13_A_c.gif","images/stimuli/spore_stims/complex_13_B_c.gif","","","","","6","complex_similar","images/stimuli/spore_stims/complex_13_B_c.gif","middle","","","","",""
"","null","html-keyboard-response","126","402129","0.0-26.0-0.5","SS1613138288040","","","null","","","","","<p><img src= images/blank.png width =""200"" height = ""200"" style = ""float:right""></p><p><img src=images/blank.png width =""800"" height = ""200""></p>","","","","","","","","","","","",""
"","1504.994999995688","sequential-stimulus-presentation","127","404450","0.0-26.0-1.5","SS1613138288040","trial","","40","800","2304.994999995688","images/stimuli/spore_stims/complex_13_A_c.gif","images/stimuli/spore_stims/complex_13_B_c.gif","","","","","6","complex_similar","images/stimuli/spore_stims/complex_13_A_c.gif","right","","","","",""
"","null","html-keyboard-response","128","405541","0.0-26.0-0.6","SS1613138288040","","","null","","","","","<p><img src= images/blank.png width =""200"" height = ""200"" style = ""float:right""></p><p><img src=images/blank.png width =""800"" height = ""200""></p>","","","","","","","","","","","",""
"","227.95500000938773","sequential-stimulus-presentation","129","406585","0.0-26.0-1.6","SS1613138288040","trial","","40","800","1027.9550000093877","images/stimuli/spore_stims/complex_13_A_c.gif","images/stimuli/spore_stims/complex_13_B_c.gif","","","","","6","complex_similar","images/stimuli/spore_stims/complex_13_B_c.gif","middle","","","","",""
"","null","html-keyboard-response","130","407530","0.0-26.0-0.7","SS1613138288040","","","null","","","","","<p><img src= images/blank.png width =""200"" height = ""200"" style = ""float:right""></p><p><img src=images/blank.png width =""800"" height = ""200""></p>","","","","","","","","","","","",""
"","547.6499999931548","sequential-stimulus-presentation","131","408889","0.0-26.0-1.7","SS1613138288040","trial","","40","800","1347.6499999931548","images/stimuli/spore_stims/complex_13_A_c.gif","images/stimuli/spore_stims/complex_13_B_c.gif","","","","","6","complex_similar","images/stimuli/spore_stims/complex_13_B_c.gif","middle","","","","",""
"","1305.4700000066077","html-keyboard-response","132","410209","0.0-27.0","SS1613138288040","pref_question","","49","","","","","<video width ='960' height = '540' style='padding-top:8%' autoplay muted><source src='images/stimuli/wall_pref.mp4' type='video/mp4'></video>","1","left","25%","6","","","","","","","",""
"","3381.955000004382","sequential-stimulus-presentation","133","414400","0.0-28.0","SS1613138288040","pref_reveal","","40","800","4181.955000004382","null","null","","","","","6","","","","novel","","","",""
"","null","html-keyboard-response","134","415658","0.0-29.0-0.0","SS1613138288040","","","null","","","","","<p><img src= images/blank.png width =""200"" height = ""200"" style = ""float:right""></p><p><img src=images/blank.png width =""800"" height = ""200""></p>","","","","","","","","","","","",""
"","2544.175000002724","sequential-stimulus-presentation","135","419015","0.0-29.0-1.0","SS1613138288040","trial","","40","800","3344.175000002724","images/stimuli/spore_stims/simple_13_A_b.gif","images/stimuli/spore_stims/simple_13_B_b.gif","","","","","7","simple_similar","images/stimuli/spore_stims/simple_13_B_b.gif","middle","","","","",""
"","null","html-keyboard-response","136","419851","0.0-29.0-0.1","SS1613138288040","","","null","","","","","<p><img src= images/blank.png width =""200"" height = ""200"" style = ""float:right""></p><p><img src=images/blank.png width =""800"" height = ""200""></p>","","","","","","","","","","","",""
"","949.334999997518","sequential-stimulus-presentation","137","421611","0.0-29.0-1.1","SS1613138288040","trial","","40","800","1749.334999997518","images/stimuli/spore_stims/simple_13_A_b.gif","images/stimuli/spore_stims/simple_13_B_b.gif","","","","","7","simple_similar","images/stimuli/spore_stims/simple_13_B_b.gif","middle","","","","",""
"","null","html-keyboard-response","138","422652","0.0-29.0-0.2","SS1613138288040","","","null","","","","","<p><img src= images/blank.png width =""200"" height = ""200"" style = ""float:right""></p><p><img src=images/blank.png width =""800"" height = ""200""></p>","","","","","","","","","","","",""
"","91.40499999921303","sequential-stimulus-presentation","139","423554","0.0-29.0-1.2","SS1613138288040","trial","","40","800","891.404999999213","images/stimuli/spore_stims/simple_13_A_b.gif","images/stimuli/spore_stims/simple_13_B_b.gif","","","","","7","simple_similar","images/stimuli/spore_stims/simple_13_B_b.gif","middle","","","","",""
"","null","html-keyboard-response","140","424513","0.0-29.0-0.3","SS1613138288040","","","null","","","","","<p><img src= images/blank.png width =""200"" height = ""200"" style = ""float:right""></p><p><img src=images/blank.png width =""800"" height = ""200""></p>","","","","","","","","","","","",""
"","1314.989999998943","sequential-stimulus-presentation","141","426638","0.0-29.0-1.3","SS1613138288040","trial","","40","800","2114.989999998943","images/stimuli/spore_stims/simple_13_A_b.gif","images/stimuli/spore_stims/simple_13_B_b.gif","","","","","7","simple_similar","images/stimuli/spore_stims/simple_13_B_b.gif","middle","","","","",""
"","null","html-keyboard-response","142","427836","0.0-29.0-0.4","SS1613138288040","","","null","","","","","<p><img src= images/blank.png width =""200"" height = ""200"" style = ""float:right""></p><p><img src=images/blank.png width =""800"" height = ""200""></p>","","","","","","","","","","","",""
"","2280.8250000089174","sequential-stimulus-presentation","143","430936","0.0-29.0-1.4","SS1613138288040","trial","","40","800","3080.8250000089174","images/stimuli/spore_stims/simple_13_A_b.gif","images/stimuli/spore_stims/simple_13_B_b.gif","","","","","7","simple_similar","images/stimuli/spore_stims/simple_13_B_b.gif","middle","","","","",""
"","null","html-keyboard-response","144","432052","0.0-29.0-0.5","SS1613138288040","","","null","","","","","<p><img src= images/blank.png width =""200"" height = ""200"" style = ""float:right""></p><p><img src=images/blank.png width =""800"" height = ""200""></p>","","","","","","","","","","","",""
"","1301.2949999974808","sequential-stimulus-presentation","145","434167","0.0-29.0-1.5","SS1613138288040","trial","","40","800","2101.2949999974808","images/stimuli/spore_stims/simple_13_A_b.gif","images/stimuli/spore_stims/simple_13_B_b.gif","","","","","7","simple_similar","images/stimuli/spore_stims/simple_13_A_b.gif","right","","","","",""
"","null","html-keyboard-response","146","435336","0.0-29.0-0.6","SS1613138288040","","","null","","","","","<p><img src= images/blank.png width =""200"" height = ""200"" style = ""float:right""></p><p><img src=images/blank.png width =""800"" height = ""200""></p>","","","","","","","","","","","",""
"","1079.0850000048522","sequential-stimulus-presentation","147","437226","0.0-29.0-1.6","SS1613138288040","trial","","40","800","1879.0850000048522","images/stimuli/spore_stims/simple_13_A_b.gif","images/stimuli/spore_stims/simple_13_B_b.gif","","","","","7","simple_similar","images/stimuli/spore_stims/simple_13_B_b.gif","middle","","","","",""
"","null","html-keyboard-response","148","438340","0.0-29.0-0.7","SS1613138288040","","","null","","","","","<p><img src= images/blank.png width =""200"" height = ""200"" style = ""float:right""></p><p><img src=images/blank.png width =""800"" height = ""200""></p>","","","","","","","","","","","",""
"","920.3700000070967","sequential-stimulus-presentation","149","440073","0.0-29.0-1.7","SS1613138288040","trial","","40","800","1720.3700000070967","images/stimuli/spore_stims/simple_13_A_b.gif","images/stimuli/spore_stims/simple_13_B_b.gif","","","","","7","simple_similar","images/stimuli/spore_stims/simple_13_B_b.gif","middle","","","","",""
"","1933.869999993476","html-keyboard-response","150","442027","0.0-30.0","SS1613138288040","pref_question","","49","","","","","<video width ='960' height = '540' style='padding-top:8%' autoplay muted><source src='images/stimuli/wall_pref.mp4' type='video/mp4'></video>","1","left","25%","7","","","","","","","",""
"","3897.9449999897042","sequential-stimulus-presentation","151","446744","0.0-31.0","SS1613138288040","pref_reveal","","40","800","4697.944999989704","null","null","","","","","7","","","","novel","","","",""
"","null","html-keyboard-response","152","448063","0.0-32.0-0.0","SS1613138288040","","","null","","","","","<p><img src= images/blank.png width =""200"" height = ""200"" style = ""float:right""></p><p><img src=images/blank.png width =""800"" height = ""200""></p>","","","","","","","","","","","",""
"","2879.209999999148","sequential-stimulus-presentation","153","451754","0.0-32.0-1.0","SS1613138288040","trial","","40","800","3679.209999999148","images/stimuli/spore_stims/complex_15_A_d.gif","images/stimuli/spore_stims/complex_17_A_c.gif","","","","","8","complex_dissimilar","images/stimuli/spore_stims/complex_17_A_c.gif","middle","","","","",""
"","null","html-keyboard-response","154","452738","0.0-32.0-0.1","SS1613138288040","","","null","","","","","<p><img src= images/blank.png width =""200"" height = ""200"" style = ""float:right""></p><p><img src=images/blank.png width =""800"" height = ""200""></p>","","","","","","","","","","","",""
"","3180.4299999930663","sequential-stimulus-presentation","155","456731","0.0-32.0-1.1","SS1613138288040","trial","","40","800","3980.4299999930663","images/stimuli/spore_stims/complex_15_A_d.gif","images/stimuli/spore_stims/complex_17_A_c.gif","","","","","8","complex_dissimilar","images/stimuli/spore_stims/complex_17_A_c.gif","middle","","","","",""
"","null","html-keyboard-response","156","457677","0.0-32.0-0.2","SS1613138288040","","","null","","","","","<p><img src= images/blank.png width =""200"" height = ""200"" style = ""float:right""></p><p><img src=images/blank.png width =""800"" height = ""200""></p>","","","","","","","","","","","",""
"","631.9150000053924","sequential-stimulus-presentation","157","459132","0.0-32.0-1.2","SS1613138288040","trial","","40","800","1431.9150000053924","images/stimuli/spore_stims/complex_15_A_d.gif","images/stimuli/spore_stims/complex_17_A_c.gif","","","","","8","complex_dissimilar","images/stimuli/spore_stims/complex_17_A_c.gif","middle","","","","",""
"","null","html-keyboard-response","158","460365","0.0-32.0-0.3","SS1613138288040","","","null","","","","","<p><img src= images/blank.png width =""200"" height = ""200"" style = ""float:right""></p><p><img src=images/blank.png width =""800"" height = ""200""></p>","","","","","","","","","","","",""
"","129.0000000008149","sequential-stimulus-presentation","159","461308","0.0-32.0-1.3","SS1613138288040","trial","","40","800","929.0000000008149","images/stimuli/spore_stims/complex_15_A_d.gif","images/stimuli/spore_stims/complex_17_A_c.gif","","","","","8","complex_dissimilar","images/stimuli/spore_stims/complex_17_A_c.gif","middle","","","","",""
"","null","html-keyboard-response","160","462383","0.0-32.0-0.4","SS1613138288040","","","null","","","","","<p><img src= images/blank.png width =""200"" height = ""200"" style = ""float:right""></p><p><img src=images/blank.png width =""800"" height = ""200""></p>","","","","","","","","","","","",""
"","1084.1650000074878","sequential-stimulus-presentation","161","464280","0.0-32.0-1.4","SS1613138288040","trial","","40","800","1884.1650000074878","images/stimuli/spore_stims/complex_15_A_d.gif","images/stimuli/spore_stims/complex_17_A_c.gif","","","","","8","complex_dissimilar","images/stimuli/spore_stims/complex_17_A_c.gif","middle","","","","",""
"","null","html-keyboard-response","162","465305","0.0-32.0-0.5","SS1613138288040","","","null","","","","","<p><img src= images/blank.png width =""200"" height = ""200"" style = ""float:right""></p><p><img src=images/blank.png width =""800"" height = ""200""></p>","","","","","","","","","","","",""
"","6.265000003622845","sequential-stimulus-presentation","163","466124","0.0-32.0-1.5","SS1613138288040","trial","","40","800","806.2650000036228","images/stimuli/spore_stims/complex_15_A_d.gif","images/stimuli/spore_stims/complex_17_A_c.gif","","","","","8","complex_dissimilar","images/stimuli/spore_stims/complex_15_A_d.gif","left","","","","",""
"","null","html-keyboard-response","164","467028","0.0-32.0-0.6","SS1613138288040","","","null","","","","","<p><img src= images/blank.png width =""200"" height = ""200"" style = ""float:right""></p><p><img src=images/blank.png width =""800"" height = ""200""></p>","","","","","","","","","","","",""
"","1180.5699999968056","sequential-stimulus-presentation","165","469021","0.0-32.0-1.6","SS1613138288040","trial","","40","800","1980.5699999968056","images/stimuli/spore_stims/complex_15_A_d.gif","images/stimuli/spore_stims/complex_17_A_c.gif","","","","","8","complex_dissimilar","images/stimuli/spore_stims/complex_17_A_c.gif","middle","","","","",""
"","null","html-keyboard-response","166","469838","0.0-32.0-0.7","SS1613138288040","","","null","","","","","<p><img src= images/blank.png width =""200"" height = ""200"" style = ""float:right""></p><p><img src=images/blank.png width =""800"" height = ""200""></p>","","","","","","","","","","","",""
"","9.684999997261912","sequential-stimulus-presentation","167","470662","0.0-32.0-1.7","SS1613138288040","trial","","40","800","809.6849999972619","images/stimuli/spore_stims/complex_15_A_d.gif","images/stimuli/spore_stims/complex_17_A_c.gif","","","","","8","complex_dissimilar","images/stimuli/spore_stims/complex_17_A_c.gif","middle","","","","",""
"","2104.2400000005728","html-keyboard-response","168","472783","0.0-33.0","SS1613138288040","pref_question","","51","","","","","<video width ='960' height = '540' style='padding-top:8%' autoplay muted><source src='images/stimuli/wall_pref.mp4' type='video/mp4'></video>","3","right","66%","8","","","","","","","",""
"","3233.4550000086892","sequential-stimulus-presentation","169","476838","0.0-34.0","SS1613138288040","pref_reveal","","40","800","4033.4550000086892","null","null","","","","","8","","","","novel","","","",""
"","null","html-keyboard-response","170","477681","0.0-35.0-0.0","SS1613138288040","","","null","","","","","<p><img src= images/blank.png width =""200"" height = ""200"" style = ""float:right""></p><p><img src=images/blank.png width =""800"" height = ""200""></p>","","","","","","","","","","","",""
"","2164.1600000002654","sequential-stimulus-presentation","171","480670","0.0-35.0-1.0","SS1613138288040","trial","","40","800","2964.1600000002654","images/stimuli/spore_stims/complex_20_A_a.gif","images/stimuli/spore_stims/complex_10_B_d.gif","","","","","9","complex_dissimilar","images/stimuli/spore_stims/complex_10_B_d.gif","right","","","","",""
"","null","html-keyboard-response","172","481833","0.0-35.0-0.1","SS1613138288040","","","null","","","","","<p><img src= images/blank.png width =""200"" height = ""200"" style = ""float:right""></p><p><img src=images/blank.png width =""800"" height = ""200""></p>","","","","","","","","","","","",""
"","431.86499999137595","sequential-stimulus-presentation","173","483085","0.0-35.0-1.1","SS1613138288040","trial","","40","800","1231.864999991376","images/stimuli/spore_stims/complex_20_A_a.gif","images/stimuli/spore_stims/complex_10_B_d.gif","","","","","9","complex_dissimilar","images/stimuli/spore_stims/complex_10_B_d.gif","right","","","","",""
"","null","html-keyboard-response","174","484237","0.0-35.0-0.2","SS1613138288040","","","null","","","","","<p><img src= images/blank.png width =""200"" height = ""200"" style = ""float:right""></p><p><img src=images/blank.png width =""800"" height = ""200""></p>","","","","","","","","","","","",""
"","9195.210000005318","sequential-stimulus-presentation","175","494265","0.0-35.0-1.2","SS1613138288040","trial","","40","800","9995.210000005318","images/stimuli/spore_stims/complex_20_A_a.gif","images/stimuli/spore_stims/complex_10_B_d.gif","","","","","9","complex_dissimilar","images/stimuli/spore_stims/complex_20_A_a.gif","left","","","","",""
"","null","html-keyboard-response","176","495378","0.0-35.0-0.3","SS1613138288040","","","null","","","","","<p><img src= images/blank.png width =""200"" height = ""200"" style = ""float:right""></p><p><img src=images/blank.png width =""800"" height = ""200""></p>","","","","","","","","","","","",""
"","2650.4649999988033","sequential-stimulus-presentation","177","498847","0.0-35.0-1.3","SS1613138288040","trial","","40","800","3450.4649999988033","images/stimuli/spore_stims/complex_20_A_a.gif","images/stimuli/spore_stims/complex_10_B_d.gif","","","","","9","complex_dissimilar","images/stimuli/spore_stims/complex_10_B_d.gif","right","","","","",""
"","null","html-keyboard-response","178","499897","0.0-35.0-0.4","SS1613138288040","","","null","","","","","<p><img src= images/blank.png width =""200"" height = ""200"" style = ""float:right""></p><p><img src=images/blank.png width =""800"" height = ""200""></p>","","","","","","","","","","","",""
"","853.0899999896064","sequential-stimulus-presentation","179","501562","0.0-35.0-1.4","SS1613138288040","trial","","40","800","1653.0899999896064","images/stimuli/spore_stims/complex_20_A_a.gif","images/stimuli/spore_stims/complex_10_B_d.gif","","","","","9","complex_dissimilar","images/stimuli/spore_stims/complex_10_B_d.gif","right","","","","",""
"","null","html-keyboard-response","180","502520","0.0-35.0-0.5","SS1613138288040","","","null","","","","","<p><img src= images/blank.png width =""200"" height = ""200"" style = ""float:right""></p><p><img src=images/blank.png width =""800"" height = ""200""></p>","","","","","","","","","","","",""
"","1922.8750000038417","sequential-stimulus-presentation","181","505265","0.0-35.0-1.5","SS1613138288040","trial","","40","800","2722.8750000038417","images/stimuli/spore_stims/complex_20_A_a.gif","images/stimuli/spore_stims/complex_10_B_d.gif","","","","","9","complex_dissimilar","images/stimuli/spore_stims/complex_10_B_d.gif","right","","","","",""
"","null","html-keyboard-response","182","506235","0.0-35.0-0.6","SS1613138288040","","","null","","","","","<p><img src= images/blank.png width =""200"" height = ""200"" style = ""float:right""></p><p><img src=images/blank.png width =""800"" height = ""200""></p>","","","","","","","","","","","",""
"","62.460000001010485","sequential-stimulus-presentation","183","507110","0.0-35.0-1.6","SS1613138288040","trial","","40","800","862.4600000010105","images/stimuli/spore_stims/complex_20_A_a.gif","images/stimuli/spore_stims/complex_10_B_d.gif","","","","","9","complex_dissimilar","images/stimuli/spore_stims/complex_10_B_d.gif","right","","","","",""
"","null","html-keyboard-response","184","508390","0.0-35.0-0.7","SS1613138288040","","","null","","","","","<p><img src= images/blank.png width =""200"" height = ""200"" style = ""float:right""></p><p><img src=images/blank.png width =""800"" height = ""200""></p>","","","","","","","","","","","",""
"","14.980000007199124","sequential-stimulus-presentation","185","509218","0.0-35.0-1.7","SS1613138288040","trial","","40","800","814.9800000071991","images/stimuli/spore_stims/complex_20_A_a.gif","images/stimuli/spore_stims/complex_10_B_d.gif","","","","","9","complex_dissimilar","images/stimuli/spore_stims/complex_10_B_d.gif","right","","","","",""
"","5315.200000011828","html-keyboard-response","186","514552","0.0-36.0","SS1613138288040","pref_question","","97","","","","","<video width ='960' height = '540' style='padding-top:8%' autoplay muted><source src='images/stimuli/wall_pref.mp4' type='video/mp4'></video>","1","left","25%","9","","","","","","","",""
"","167.93500000494532","sequential-stimulus-presentation","187","515534","0.0-37.0","SS1613138288040","pref_reveal","","40","800","967.9350000049453","null","null","","","","","9","","","","deviant","","","",""
"","null","html-keyboard-response","188","516735","0.0-38.0-0.0","SS1613138288040","","","null","","","","","<p><img src= images/blank.png width =""200"" height = ""200"" style = ""float:right""></p><p><img src=images/blank.png width =""800"" height = ""200""></p>","","","","","","","","","","","",""
"","345.3849999932572","sequential-stimulus-presentation","189","517893","0.0-38.0-1.0","SS1613138288040","trial","","40","800","1145.3849999932572","images/stimuli/spore_stims/complex_18_A_d.gif","images/stimuli/spore_stims/complex_18_B_d.gif","","","","","10","complex_similar","images/stimuli/spore_stims/complex_18_B_d.gif","right","","","","",""
"","null","html-keyboard-response","190","518730","0.0-38.0-0.1","SS1613138288040","","","null","","","","","<p><img src= images/blank.png width =""200"" height = ""200"" style = ""float:right""></p><p><img src=images/blank.png width =""800"" height = ""200""></p>","","","","","","","","","","","",""
"","1019.6199999918463","sequential-stimulus-presentation","191","520577","0.0-38.0-1.1","SS1613138288040","trial","","40","800","1819.6199999918463","images/stimuli/spore_stims/complex_18_A_d.gif","images/stimuli/spore_stims/complex_18_B_d.gif","","","","","10","complex_similar","images/stimuli/spore_stims/complex_18_B_d.gif","right","","","","",""
"","null","html-keyboard-response","192","521566","0.0-38.0-0.2","SS1613138288040","","","null","","","","","<p><img src= images/blank.png width =""200"" height = ""200"" style = ""float:right""></p><p><img src=images/blank.png width =""800"" height = ""200""></p>","","","","","","","","","","","",""
"","567.9049999889685","sequential-stimulus-presentation","193","522964","0.0-38.0-1.2","SS1613138288040","trial","","40","800","1367.9049999889685","images/stimuli/spore_stims/complex_18_A_d.gif","images/stimuli/spore_stims/complex_18_B_d.gif","","","","","10","complex_similar","images/stimuli/spore_stims/complex_18_A_d.gif","middle","","","","",""
"","null","html-keyboard-response","194","523982","0.0-38.0-0.3","SS1613138288040","","","null","","","","","<p><img src= images/blank.png width =""200"" height = ""200"" style = ""float:right""></p><p><img src=images/blank.png width =""800"" height = ""200""></p>","","","","","","","","","","","",""
"","152.74499999941327","sequential-stimulus-presentation","195","524949","0.0-38.0-1.3","SS1613138288040","trial","","40","800","952.7449999994133","images/stimuli/spore_stims/complex_18_A_d.gif","images/stimuli/spore_stims/complex_18_B_d.gif","","","","","10","complex_similar","images/stimuli/spore_stims/complex_18_B_d.gif","right","","","","",""
"","null","html-keyboard-response","196","525818","0.0-38.0-0.4","SS1613138288040","","","null","","","","","<p><img src= images/blank.png width =""200"" height = ""200"" style = ""float:right""></p><p><img src=images/blank.png width =""800"" height = ""200""></p>","","","","","","","","","","","",""
"","783.4600000060163","sequential-stimulus-presentation","197","527442","0.0-38.0-1.4","SS1613138288040","trial","","40","800","1583.4600000060163","images/stimuli/spore_stims/complex_18_A_d.gif","images/stimuli/spore_stims/complex_18_B_d.gif","","","","","10","complex_similar","images/stimuli/spore_stims/complex_18_B_d.gif","right","","","","",""
"","null","html-keyboard-response","198","528554","0.0-38.0-0.5","SS1613138288040","","","null","","","","","<p><img src= images/blank.png width =""200"" height = ""200"" style = ""float:right""></p><p><img src=images/blank.png width =""800"" height = ""200""></p>","","","","","","","","","","","",""
"","1754.6549999970011","sequential-stimulus-presentation","199","531130","0.0-38.0-1.5","SS1613138288040","trial","","40","800","2554.654999997001","images/stimuli/spore_stims/complex_18_A_d.gif","images/stimuli/spore_stims/complex_18_B_d.gif","","","","","10","complex_similar","images/stimuli/spore_stims/complex_18_B_d.gif","right","","","","",""
"","null","html-keyboard-response","200","532057","0.0-38.0-0.6","SS1613138288040","","","null","","","","","<p><img src= images/blank.png width =""200"" height = ""200"" style = ""float:right""></p><p><img src=images/blank.png width =""800"" height = ""200""></p>","","","","","","","","","","","",""
"","3168.630000000121","sequential-stimulus-presentation","201","536045","0.0-38.0-1.6","SS1613138288040","trial","","40","800","3968.630000000121","images/stimuli/spore_stims/complex_18_A_d.gif","images/stimuli/spore_stims/complex_18_B_d.gif","","","","","10","complex_similar","images/stimuli/spore_stims/complex_18_B_d.gif","right","","","","",""
"","null","html-keyboard-response","202","537037","0.0-38.0-0.7","SS1613138288040","","","null","","","","","<p><img src= images/blank.png width =""200"" height = ""200"" style = ""float:right""></p><p><img src=images/blank.png width =""800"" height = ""200""></p>","","","","","","","","","","","",""
"","80.65499999793246","sequential-stimulus-presentation","203","537936","0.0-38.0-1.7","SS1613138288040","trial","","40","800","880.6549999979325","images/stimuli/spore_stims/complex_18_A_d.gif","images/stimuli/spore_stims/complex_18_B_d.gif","","","","","10","complex_similar","images/stimuli/spore_stims/complex_18_B_d.gif","right","","","","",""
"","2926.405000005616","html-keyboard-response","204","540881","0.0-39.0","SS1613138288040","pref_question","","98","","","","","<video width ='960' height = '540' style='padding-top:8%' autoplay muted><source src='images/stimuli/wall_pref.mp4' type='video/mp4'></video>","2","middle","45%","10","","","","","","","",""
"","3095.9100000036415","sequential-stimulus-presentation","205","544793","0.0-40.0","SS1613138288040","pref_reveal","","40","800","3895.9100000036415","null","null","","","","","10","","","","deviant","","","",""
"","null","html-keyboard-response","206","545738","0.0-41.0-0.0","SS1613138288040","","","null","","","","","<p><img src= images/blank.png width =""200"" height = ""200"" style = ""float:right""></p><p><img src=images/blank.png width =""800"" height = ""200""></p>","","","","","","","","","","","",""
"","3509.909999993397","sequential-stimulus-presentation","207","550083","0.0-41.0-1.0","SS1613138288040","trial","","40","800","4309.909999993397","images/stimuli/spore_stims/simple_14_B_b.gif","images/stimuli/spore_stims/simple_14_A_b.gif","","","","","11","simple_similar","images/stimuli/spore_stims/simple_14_A_b.gif","right","","","","",""
"","null","html-keyboard-response","208","551367","0.0-41.0-0.1","SS1613138288040","","","null","","","","","<p><img src= images/blank.png width =""200"" height = ""200"" style = ""float:right""></p><p><img src=images/blank.png width =""800"" height = ""200""></p>","","","","","","","","","","","",""
"","676.210000005085","sequential-stimulus-presentation","209","552859","0.0-41.0-1.1","SS1613138288040","trial","","40","800","1476.210000005085","images/stimuli/spore_stims/simple_14_B_b.gif","images/stimuli/spore_stims/simple_14_A_b.gif","","","","","11","simple_similar","images/stimuli/spore_stims/simple_14_A_b.gif","right","","","","",""
"","null","html-keyboard-response","210","554066","0.0-41.0-0.2","SS1613138288040","","","null","","","","","<p><img src= images/blank.png width =""200"" height = ""200"" style = ""float:right""></p><p><img src=images/blank.png width =""800"" height = ""200""></p>","","","","","","","","","","","",""
"","1104.189999998198","sequential-stimulus-presentation","211","555996","0.0-41.0-1.2","SS1613138288040","trial","","40","800","1904.189999998198","images/stimuli/spore_stims/simple_14_B_b.gif","images/stimuli/spore_stims/simple_14_A_b.gif","","","","","11","simple_similar","images/stimuli/spore_stims/simple_14_A_b.gif","right","","","","",""
"","null","html-keyboard-response","212","556893","0.0-41.0-0.3","SS1613138288040","","","null","","","","","<p><img src= images/blank.png width =""200"" height = ""200"" style = ""float:right""></p><p><img src=images/blank.png width =""800"" height = ""200""></p>","","","","","","","","","","","",""
"","1048.9550000056624","sequential-stimulus-presentation","213","558756","0.0-41.0-1.3","SS1613138288040","trial","","40","800","1848.9550000056624","images/stimuli/spore_stims/simple_14_B_b.gif","images/stimuli/spore_stims/simple_14_A_b.gif","","","","","11","simple_similar","images/stimuli/spore_stims/simple_14_A_b.gif","right","","","","",""
"","null","html-keyboard-response","214","559857","0.0-41.0-0.4","SS1613138288040","","","null","","","","","<p><img src= images/blank.png width =""200"" height = ""200"" style = ""float:right""></p><p><img src=images/blank.png width =""800"" height = ""200""></p>","","","","","","","","","","","",""
"","798.5049999988405","sequential-stimulus-presentation","215","561482","0.0-41.0-1.4","SS1613138288040","trial","","40","800","1598.5049999988405","images/stimuli/spore_stims/simple_14_B_b.gif","images/stimuli/spore_stims/simple_14_A_b.gif","","","","","11","simple_similar","images/stimuli/spore_stims/simple_14_A_b.gif","right","","","","",""
"","null","html-keyboard-response","216","562479","0.0-41.0-0.5","SS1613138288040","","","null","","","","","<p><img src= images/blank.png width =""200"" height = ""200"" style = ""float:right""></p><p><img src=images/blank.png width =""800"" height = ""200""></p>","","","","","","","","","","","",""
"","390.9549999953015","sequential-stimulus-presentation","217","563695","0.0-41.0-1.5","SS1613138288040","trial","","40","800","1190.9549999953015","images/stimuli/spore_stims/simple_14_B_b.gif","images/stimuli/spore_stims/simple_14_A_b.gif","","","","","11","simple_similar","images/stimuli/spore_stims/simple_14_A_b.gif","right","","","","",""
"","null","html-keyboard-response","218","564620","0.0-41.0-0.6","SS1613138288040","","","null","","","","","<p><img src= images/blank.png width =""200"" height = ""200"" style = ""float:right""></p><p><img src=images/blank.png width =""800"" height = ""200""></p>","","","","","","","","","","","",""
"","390.09499999519903","sequential-stimulus-presentation","219","565825","0.0-41.0-1.6","SS1613138288040","trial","","40","800","1190.094999995199","images/stimuli/spore_stims/simple_14_B_b.gif","images/stimuli/spore_stims/simple_14_A_b.gif","","","","","11","simple_similar","images/stimuli/spore_stims/simple_14_A_b.gif","right","","","","",""
"","null","html-keyboard-response","220","566843","0.0-41.0-0.7","SS1613138288040","","","null","","","","","<p><img src= images/blank.png width =""200"" height = ""200"" style = ""float:right""></p><p><img src=images/blank.png width =""800"" height = ""200""></p>","","","","","","","","","","","",""
"","423.58499999681953","sequential-stimulus-presentation","221","568081","0.0-41.0-1.7","SS1613138288040","trial","","40","800","1223.5849999968195","images/stimuli/spore_stims/simple_14_B_b.gif","images/stimuli/spore_stims/simple_14_A_b.gif","","","","","11","simple_similar","images/stimuli/spore_stims/simple_14_B_b.gif","left","","","","",""
"","1860.9600000054343","html-keyboard-response","222","569955","0.0-42.0","SS1613138288040","pref_question","","98","","","","","<video width ='960' height = '540' style='padding-top:8%' autoplay muted><source src='images/stimuli/wall_pref.mp4' type='video/mp4'></video>","2","middle","45%","11","","","","","","","",""
"","8748.270000010962","sequential-stimulus-presentation","223","579519","0.0-43.0","SS1613138288040","pref_reveal","","40","800","9548.270000010962","null","null","","","","","11","","","","novel","","","",""
"","null","html-keyboard-response","224","580650","0.0-44.0-0.0","SS1613138288040","","","null","","","","","<p><img src= images/blank.png width =""200"" height = ""200"" style = ""float:right""></p><p><img src=images/blank.png width =""800"" height = ""200""></p>","","","","","","","","","","","",""
"","1713.9199999946868","sequential-stimulus-presentation","225","583182","0.0-44.0-1.0","SS1613138288040","trial","","40","800","2513.919999994687","images/stimuli/spore_stims/complex_05_B_d.gif","images/stimuli/spore_stims/complex_04_A_b.gif","","","","","12","complex_dissimilar","images/stimuli/spore_stims/complex_04_A_b.gif","middle","","","","",""
"","null","html-keyboard-response","226","584064","0.0-44.0-0.1","SS1613138288040","","","null","","","","","<p><img src= images/blank.png width =""200"" height = ""200"" style = ""float:right""></p><p><img src=images/blank.png width =""800"" height = ""200""></p>","","","","","","","","","","","",""
"","238.85999999765772","sequential-stimulus-presentation","227","585127","0.0-44.0-1.1","SS1613138288040","trial","","40","800","1038.8599999976577","images/stimuli/spore_stims/complex_05_B_d.gif","images/stimuli/spore_stims/complex_04_A_b.gif","","","","","12","complex_dissimilar","images/stimuli/spore_stims/complex_04_A_b.gif","middle","","","","",""
"","null","html-keyboard-response","228","586186","0.0-44.0-0.2","SS1613138288040","","","null","","","","","<p><img src= images/blank.png width =""200"" height = ""200"" style = ""float:right""></p><p><img src=images/blank.png width =""800"" height = ""200""></p>","","","","","","","","","","","",""
"","640.8549999905517","sequential-stimulus-presentation","229","587658","0.0-44.0-1.2","SS1613138288040","trial","","40","800","1440.8549999905517","images/stimuli/spore_stims/complex_05_B_d.gif","images/stimuli/spore_stims/complex_04_A_b.gif","","","","","12","complex_dissimilar","images/stimuli/spore_stims/complex_04_A_b.gif","middle","","","","",""
"","null","html-keyboard-response","230","588708","0.0-44.0-0.3","SS1613138288040","","","null","","","","","<p><img src= images/blank.png width =""200"" height = ""200"" style = ""float:right""></p><p><img src=images/blank.png width =""800"" height = ""200""></p>","","","","","","","","","","","",""
"","1195.67499999539","sequential-stimulus-presentation","231","590725","0.0-44.0-1.3","SS1613138288040","trial","","40","800","1995.67499999539","images/stimuli/spore_stims/complex_05_B_d.gif","images/stimuli/spore_stims/complex_04_A_b.gif","","","","","12","complex_dissimilar","images/stimuli/spore_stims/complex_04_A_b.gif","middle","","","","",""
"","null","html-keyboard-response","232","591554","0.0-44.0-0.4","SS1613138288040","","","null","","","","","<p><img src= images/blank.png width =""200"" height = ""200"" style = ""float:right""></p><p><img src=images/blank.png width =""800"" height = ""200""></p>","","","","","","","","","","","",""
"","202.2949999955017","sequential-stimulus-presentation","233","592571","0.0-44.0-1.4","SS1613138288040","trial","","40","800","1002.2949999955017","images/stimuli/spore_stims/complex_05_B_d.gif","images/stimuli/spore_stims/complex_04_A_b.gif","","","","","12","complex_dissimilar","images/stimuli/spore_stims/complex_04_A_b.gif","middle","","","","",""
"","null","html-keyboard-response","234","593685","0.0-44.0-0.5","SS1613138288040","","","null","","","","","<p><img src= images/blank.png width =""200"" height = ""200"" style = ""float:right""></p><p><img src=images/blank.png width =""800"" height = ""200""></p>","","","","","","","","","","","",""
"","7005.4999999993015","sequential-stimulus-presentation","235","601508","0.0-44.0-1.5","SS1613138288040","trial","","40","800","7805.4999999993015","images/stimuli/spore_stims/complex_05_B_d.gif","images/stimuli/spore_stims/complex_04_A_b.gif","","","","","12","complex_dissimilar","images/stimuli/spore_stims/complex_04_A_b.gif","middle","","","","",""
"","null","html-keyboard-response","236","602341","0.0-44.0-0.6","SS1613138288040","","","null","","","","","<p><img src= images/blank.png width =""200"" height = ""200"" style = ""float:right""></p><p><img src=images/blank.png width =""800"" height = ""200""></p>","","","","","","","","","","","",""
"","1032.8049999952782","sequential-stimulus-presentation","237","604190","0.0-44.0-1.6","SS1613138288040","trial","","40","800","1832.8049999952782","images/stimuli/spore_stims/complex_05_B_d.gif","images/stimuli/spore_stims/complex_04_A_b.gif","","","","","12","complex_dissimilar","images/stimuli/spore_stims/complex_05_B_d.gif","right","","","","",""
"","null","html-keyboard-response","238","605238","0.0-44.0-0.7","SS1613138288040","","","null","","","","","<p><img src= images/blank.png width =""200"" height = ""200"" style = ""float:right""></p><p><img src=images/blank.png width =""800"" height = ""200""></p>","","","","","","","","","","","",""
"","831.8799999979092","sequential-stimulus-presentation","239","606889","0.0-44.0-1.7","SS1613138288040","trial","","40","800","1631.8799999979092","images/stimuli/spore_stims/complex_05_B_d.gif","images/stimuli/spore_stims/complex_04_A_b.gif","","","","","12","complex_dissimilar","images/stimuli/spore_stims/complex_04_A_b.gif","middle","","","","",""
"","1489.239999995334","html-keyboard-response","240","608402","0.0-45.0","SS1613138288040","pref_question","","98","","","","","<video width ='960' height = '540' style='padding-top:8%' autoplay muted><source src='images/stimuli/wall_pref.mp4' type='video/mp4'></video>","2","middle","45%","12","","","","","","","",""
"","5038.549999997485","sequential-stimulus-presentation","241","614260","0.0-46.0","SS1613138288040","pref_reveal","","40","800","5838.549999997485","null","null","","","","","12","","","","background","","","",""
"","null","html-keyboard-response","242","615292","0.0-47.0-0.0","SS1613138288040","","","null","","","","","<p><img src= images/blank.png width =""200"" height = ""200"" style = ""float:right""></p><p><img src=images/blank.png width =""800"" height = ""200""></p>","","","","","","","","","","","",""
"","6637.300000002142","sequential-stimulus-presentation","243","622746","0.0-47.0-1.0","SS1613138288040","trial","","40","800","7437.300000002142","images/stimuli/spore_stims/complex_16_A_c.gif","images/stimuli/spore_stims/complex_16_B_c.gif","","","","","13","complex_similar","images/stimuli/spore_stims/complex_16_B_c.gif","middle","","","","",""
"","null","html-keyboard-response","244","623770","0.0-47.0-0.1","SS1613138288040","","","null","","","","","<p><img src= images/blank.png width =""200"" height = ""200"" style = ""float:right""></p><p><img src=images/blank.png width =""800"" height = ""200""></p>","","","","","","","","","","","",""
"","4009.959999995772","sequential-stimulus-presentation","245","628607","0.0-47.0-1.1","SS1613138288040","trial","","40","800","4809.959999995772","images/stimuli/spore_stims/complex_16_A_c.gif","images/stimuli/spore_stims/complex_16_B_c.gif","","","","","13","complex_similar","images/stimuli/spore_stims/complex_16_B_c.gif","middle","","","","",""
"","null","html-keyboard-response","246","629680","0.0-47.0-0.2","SS1613138288040","","","null","","","","","<p><img src= images/blank.png width =""200"" height = ""200"" style = ""float:right""></p><p><img src=images/blank.png width =""800"" height = ""200""></p>","","","","","","","","","","","",""
"","5485.829999990528","sequential-stimulus-presentation","247","635986","0.0-47.0-1.2","SS1613138288040","trial","","40","800","6285.829999990528","images/stimuli/spore_stims/complex_16_A_c.gif","images/stimuli/spore_stims/complex_16_B_c.gif","","","","","13","complex_similar","images/stimuli/spore_stims/complex_16_B_c.gif","middle","","","","",""
"","null","html-keyboard-response","248","636965","0.0-47.0-0.3","SS1613138288040","","","null","","","","","<p><img src= images/blank.png width =""200"" height = ""200"" style = ""float:right""></p><p><img src=images/blank.png width =""800"" height = ""200""></p>","","","","","","","","","","","",""
"","3096.2799999979325","sequential-stimulus-presentation","249","640878","0.0-47.0-1.3","SS1613138288040","trial","","40","800","3896.2799999979325","images/stimuli/spore_stims/complex_16_A_c.gif","images/stimuli/spore_stims/complex_16_B_c.gif","","","","","13","complex_similar","images/stimuli/spore_stims/complex_16_B_c.gif","middle","","","","",""
"","null","html-keyboard-response","250","641986","0.0-47.0-0.4","SS1613138288040","","","null","","","","","<p><img src= images/blank.png width =""200"" height = ""200"" style = ""float:right""></p><p><img src=images/blank.png width =""800"" height = ""200""></p>","","","","","","","","","","","",""
"","2804.6549999999115","sequential-stimulus-presentation","251","645621","0.0-47.0-1.4","SS1613138288040","trial","","40","800","3604.6549999999115","images/stimuli/spore_stims/complex_16_A_c.gif","images/stimuli/spore_stims/complex_16_B_c.gif","","","","","13","complex_similar","images/stimuli/spore_stims/complex_16_B_c.gif","middle","","","","",""
"","null","html-keyboard-response","252","646682","0.0-47.0-0.5","SS1613138288040","","","null","","","","","<p><img src= images/blank.png width =""200"" height = ""200"" style = ""float:right""></p><p><img src=images/blank.png width =""800"" height = ""200""></p>","","","","","","","","","","","",""
"","468.16499999840744","sequential-stimulus-presentation","253","647971","0.0-47.0-1.5","SS1613138288040","trial","","40","800","1268.1649999984074","images/stimuli/spore_stims/complex_16_A_c.gif","images/stimuli/spore_stims/complex_16_B_c.gif","","","","","13","complex_similar","images/stimuli/spore_stims/complex_16_B_c.gif","middle","","","","",""
"","null","html-keyboard-response","254","649057","0.0-47.0-0.6","SS1613138288040","","","null","","","","","<p><img src= images/blank.png width =""200"" height = ""200"" style = ""float:right""></p><p><img src=images/blank.png width =""800"" height = ""200""></p>","","","","","","","","","","","",""
"","4474.894999992102","sequential-stimulus-presentation","255","654351","0.0-47.0-1.6","SS1613138288040","trial","","40","800","5274.894999992102","images/stimuli/spore_stims/complex_16_A_c.gif","images/stimuli/spore_stims/complex_16_B_c.gif","","","","","13","complex_similar","images/stimuli/spore_stims/complex_16_A_c.gif","left","","","","",""
"","null","html-keyboard-response","256","655552","0.0-47.0-0.7","SS1613138288040","","","null","","","","","<p><img src= images/blank.png width =""200"" height = ""200"" style = ""float:right""></p><p><img src=images/blank.png width =""800"" height = ""200""></p>","","","","","","","","","","","",""
"","1846.2650000001304","sequential-stimulus-presentation","257","658232","0.0-47.0-1.7","SS1613138288040","trial","","40","800","2646.2650000001304","images/stimuli/spore_stims/complex_16_A_c.gif","images/stimuli/spore_stims/complex_16_B_c.gif","","","","","13","complex_similar","images/stimuli/spore_stims/complex_16_B_c.gif","middle","","","","",""
"","1948.7349999981234","html-keyboard-response","258","660246","0.0-48.0","SS1613138288040","pref_question","","97","","","","","<video width ='960' height = '540' style='padding-top:8%' autoplay muted><source src='images/stimuli/wall_pref.mp4' type='video/mp4'></video>","1","left","25%","13","","","","","","","",""
"","1319.1349999979138","sequential-stimulus-presentation","259","662398","0.0-49.0","SS1613138288040","pref_reveal","","40","800","2119.134999997914","null","null","","","","","13","","","","deviant","","","",""
"","null","html-keyboard-response","260","663688","0.0-50.0-0.0","SS1613138288040","","","null","","","","","<p><img src= images/blank.png width =""200"" height = ""200"" style = ""float:right""></p><p><img src=images/blank.png width =""800"" height = ""200""></p>","","","","","","","","","","","",""
"","915.8949999982724","sequential-stimulus-presentation","261","665435","0.0-50.0-1.0","SS1613138288040","trial","","40","800","1715.8949999982724","images/stimuli/spore_stims/complex_05_B_b.gif","images/stimuli/spore_stims/complex_05_A_b.gif","","","","","14","complex_similar","images/stimuli/spore_stims/complex_05_A_b.gif","middle","","","","",""
"","null","html-keyboard-response","262","666310","0.0-50.0-0.1","SS1613138288040","","","null","","","","","<p><img src= images/blank.png width =""200"" height = ""200"" style = ""float:right""></p><p><img src=images/blank.png width =""800"" height = ""200""></p>","","","","","","","","","","","",""
"","645.6700000126148","sequential-stimulus-presentation","263","667774","0.0-50.0-1.1","SS1613138288040","trial","","40","800","1445.6700000126148","images/stimuli/spore_stims/complex_05_B_b.gif","images/stimuli/spore_stims/complex_05_A_b.gif","","","","","14","complex_similar","images/stimuli/spore_stims/complex_05_A_b.gif","middle","","","","",""
"","null","html-keyboard-response","264","668699","0.0-50.0-0.2","SS1613138288040","","","null","","","","","<p><img src= images/blank.png width =""200"" height = ""200"" style = ""float:right""></p><p><img src=images/blank.png width =""800"" height = ""200""></p>","","","","","","","","","","","",""
"","152.5699999911012","sequential-stimulus-presentation","265","669671","0.0-50.0-1.2","SS1613138288040","trial","","40","800","952.5699999911012","images/stimuli/spore_stims/complex_05_B_b.gif","images/stimuli/spore_stims/complex_05_A_b.gif","","","","","14","complex_similar","images/stimuli/spore_stims/complex_05_A_b.gif","middle","","","","",""
"","null","html-keyboard-response","266","670720","0.0-50.0-0.3","SS1613138288040","","","null","","","","","<p><img src= images/blank.png width =""200"" height = ""200"" style = ""float:right""></p><p><img src=images/blank.png width =""800"" height = ""200""></p>","","","","","","","","","","","",""
"","1419.914999991306","sequential-stimulus-presentation","267","672962","0.0-50.0-1.3","SS1613138288040","trial","","40","800","2219.914999991306","images/stimuli/spore_stims/complex_05_B_b.gif","images/stimuli/spore_stims/complex_05_A_b.gif","","","","","14","complex_similar","images/stimuli/spore_stims/complex_05_B_b.gif","right","","","","",""
"","null","html-keyboard-response","268","673963","0.0-50.0-0.4","SS1613138288040","","","null","","","","","<p><img src= images/blank.png width =""200"" height = ""200"" style = ""float:right""></p><p><img src=images/blank.png width =""800"" height = ""200""></p>","","","","","","","","","","","",""
"","186.0000000015134","sequential-stimulus-presentation","269","674965","0.0-50.0-1.4","SS1613138288040","trial","","40","800","986.0000000015134","images/stimuli/spore_stims/complex_05_B_b.gif","images/stimuli/spore_stims/complex_05_A_b.gif","","","","","14","complex_similar","images/stimuli/spore_stims/complex_05_A_b.gif","middle","","","","",""
"","null","html-keyboard-response","270","675874","0.0-50.0-0.5","SS1613138288040","","","null","","","","","<p><img src= images/blank.png width =""200"" height = ""200"" style = ""float:right""></p><p><img src=images/blank.png width =""800"" height = ""200""></p>","","","","","","","","","","","",""
"","36.095000003115274","sequential-stimulus-presentation","271","676726","0.0-50.0-1.5","SS1613138288040","trial","","40","800","836.0950000031153","images/stimuli/spore_stims/complex_05_B_b.gif","images/stimuli/spore_stims/complex_05_A_b.gif","","","","","14","complex_similar","images/stimuli/spore_stims/complex_05_A_b.gif","middle","","","","",""
"","null","html-keyboard-response","272","677973","0.0-50.0-0.6","SS1613138288040","","","null","","","","","<p><img src= images/blank.png width =""200"" height = ""200"" style = ""float:right""></p><p><img src=images/blank.png width =""800"" height = ""200""></p>","","","","","","","","","","","",""
"","829.3499999999767","sequential-stimulus-presentation","273","679620","0.0-50.0-1.6","SS1613138288040","trial","","40","800","1629.3499999999767","images/stimuli/spore_stims/complex_05_B_b.gif","images/stimuli/spore_stims/complex_05_A_b.gif","","","","","14","complex_similar","images/stimuli/spore_stims/complex_05_A_b.gif","middle","","","","",""
"","null","html-keyboard-response","274","680478","0.0-50.0-0.7","SS1613138288040","","","null","","","","","<p><img src= images/blank.png width =""200"" height = ""200"" style = ""float:right""></p><p><img src=images/blank.png width =""800"" height = ""200""></p>","","","","","","","","","","","",""
"","5823.109999997541","sequential-stimulus-presentation","275","687118","0.0-50.0-1.7","SS1613138288040","trial","","40","800","6623.109999997541","images/stimuli/spore_stims/complex_05_B_b.gif","images/stimuli/spore_stims/complex_05_A_b.gif","","","","","14","complex_similar","images/stimuli/spore_stims/complex_05_A_b.gif","middle","","","","",""
"","1598.9149999950314","html-keyboard-response","276","688733","0.0-51.0","SS1613138288040","pref_question","","49","","","","","<video width ='960' height = '540' style='padding-top:8%' autoplay muted><source src='images/stimuli/wall_pref.mp4' type='video/mp4'></video>","1","left","25%","14","","","","","","","",""
"","7264.735000004293","sequential-stimulus-presentation","277","696827","0.0-52.0","SS1613138288040","pref_reveal","","40","800","8064.735000004293","null","null","","","","","14","","","","novel","","","",""
"","null","html-keyboard-response","278","697747","0.0-53.0-0.0","SS1613138288040","","","null","","","","","<p><img src= images/blank.png width =""200"" height = ""200"" style = ""float:right""></p><p><img src=images/blank.png width =""800"" height = ""200""></p>","","","","","","","","","","","",""
"","3006.5400000021327","sequential-stimulus-presentation","279","701578","0.0-53.0-1.0","SS1613138288040","trial","","40","800","3806.5400000021327","images/stimuli/spore_stims/complex_07_A_d.gif","images/stimuli/spore_stims/complex_17_B_b.gif","","","","","15","complex_dissimilar","images/stimuli/spore_stims/complex_17_B_b.gif","middle","","","","",""
"","null","html-keyboard-response","280","702458","0.0-53.0-0.1","SS1613138288040","","","null","","","","","<p><img src= images/blank.png width =""200"" height = ""200"" style = ""float:right""></p><p><img src=images/blank.png width =""800"" height = ""200""></p>","","","","","","","","","","","",""
"","2011.6700000071432","sequential-stimulus-presentation","281","705287","0.0-53.0-1.1","SS1613138288040","trial","","40","800","2811.6700000071432","images/stimuli/spore_stims/complex_07_A_d.gif","images/stimuli/spore_stims/complex_17_B_b.gif","","","","","15","complex_dissimilar","images/stimuli/spore_stims/complex_17_B_b.gif","middle","","","","",""
"","null","html-keyboard-response","282","706193","0.0-53.0-0.2","SS1613138288040","","","null","","","","","<p><img src= images/blank.png width =""200"" height = ""200"" style = ""float:right""></p><p><img src=images/blank.png width =""800"" height = ""200""></p>","","","","","","","","","","","",""
"","3411.770000006072","sequential-stimulus-presentation","283","710423","0.0-53.0-1.2","SS1613138288040","trial","","40","800","4211.770000006072","images/stimuli/spore_stims/complex_07_A_d.gif","images/stimuli/spore_stims/complex_17_B_b.gif","","","","","15","complex_dissimilar","images/stimuli/spore_stims/complex_17_B_b.gif","middle","","","","",""
"","null","html-keyboard-response","284","711446","0.0-53.0-0.3","SS1613138288040","","","null","","","","","<p><img src= images/blank.png width =""200"" height = ""200"" style = ""float:right""></p><p><img src=images/blank.png width =""800"" height = ""200""></p>","","","","","","","","","","","",""
"","3584.7199999989243","sequential-stimulus-presentation","285","715858","0.0-53.0-1.3","SS1613138288040","trial","","40","800","4384.719999998924","images/stimuli/spore_stims/complex_07_A_d.gif","images/stimuli/spore_stims/complex_17_B_b.gif","","","","","15","complex_dissimilar","images/stimuli/spore_stims/complex_17_B_b.gif","middle","","","","",""
"","null","html-keyboard-response","286","716761","0.0-53.0-0.4","SS1613138288040","","","null","","","","","<p><img src= images/blank.png width =""200"" height = ""200"" style = ""float:right""></p><p><img src=images/blank.png width =""800"" height = ""200""></p>","","","","","","","","","","","",""
"","578.4550000098534","sequential-stimulus-presentation","287","718162","0.0-53.0-1.4","SS1613138288040","trial","","40","800","1378.4550000098534","images/stimuli/spore_stims/complex_07_A_d.gif","images/stimuli/spore_stims/complex_17_B_b.gif","","","","","15","complex_dissimilar","images/stimuli/spore_stims/complex_17_B_b.gif","middle","","","","",""
"","null","html-keyboard-response","288","718996","0.0-53.0-0.5","SS1613138288040","","","null","","","","","<p><img src= images/blank.png width =""200"" height = ""200"" style = ""float:right""></p><p><img src=images/blank.png width =""800"" height = ""200""></p>","","","","","","","","","","","",""
"","4673.410000003059","sequential-stimulus-presentation","289","724492","0.0-53.0-1.5","SS1613138288040","trial","","40","800","5473.410000003059","images/stimuli/spore_stims/complex_07_A_d.gif","images/stimuli/spore_stims/complex_17_B_b.gif","","","","","15","complex_dissimilar","images/stimuli/spore_stims/complex_17_B_b.gif","middle","","","","",""
"","null","html-keyboard-response","290","725690","0.0-53.0-0.6","SS1613138288040","","","null","","","","","<p><img src= images/blank.png width =""200"" height = ""200"" style = ""float:right""></p><p><img src=images/blank.png width =""800"" height = ""200""></p>","","","","","","","","","","","",""
"","8905.554999990272","sequential-stimulus-presentation","291","735428","0.0-53.0-1.6","SS1613138288040","trial","","40","800","9705.554999990272","images/stimuli/spore_stims/complex_07_A_d.gif","images/stimuli/spore_stims/complex_17_B_b.gif","","","","","15","complex_dissimilar","images/stimuli/spore_stims/complex_17_B_b.gif","middle","","","","",""
"","null","html-keyboard-response","292","736752","0.0-53.0-0.7","SS1613138288040","","","null","","","","","<p><img src= images/blank.png width =""200"" height = ""200"" style = ""float:right""></p><p><img src=images/blank.png width =""800"" height = ""200""></p>","","","","","","","","","","","",""
"","6214.979999989737","sequential-stimulus-presentation","293","743788","0.0-53.0-1.7","SS1613138288040","trial","","40","800","7014.979999989737","images/stimuli/spore_stims/complex_07_A_d.gif","images/stimuli/spore_stims/complex_17_B_b.gif","","","","","15","complex_dissimilar","images/stimuli/spore_stims/complex_07_A_d.gif","left","","","","",""
"","8359.900000010384","html-keyboard-response","294","752170","0.0-54.0","SS1613138288040","pref_question","","49","","","","","<video width ='960' height = '540' style='padding-top:8%' autoplay muted><source src='images/stimuli/wall_pref.mp4' type='video/mp4'></video>","1","left","25%","15","","","","","","","",""
"","2142.3199999990175","sequential-stimulus-presentation","295","755158","0.0-55.0","SS1613138288040","pref_reveal","","40","800","2942.3199999990175","null","null","","","","","15","","","","deviant","","","",""
"","null","html-keyboard-response","296","756295","0.0-56.0-0.0","SS1613138288040","","","null","","","","","<p><img src= images/blank.png width =""200"" height = ""200"" style = ""float:right""></p><p><img src=images/blank.png width =""800"" height = ""200""></p>","","","","","","","","","","","",""
"","896.7649999976857","sequential-stimulus-presentation","297","758011","0.0-56.0-1.0","SS1613138288040","trial","","40","800","1696.7649999976857","images/stimuli/spore_stims/simple_11_B_a.gif","images/stimuli/spore_stims/simple_01_A_c.gif","","","","","16","simple_dissimilar","images/stimuli/spore_stims/simple_01_A_c.gif","right","","","","",""
"","null","html-keyboard-response","298","759008","0.0-56.0-0.1","SS1613138288040","","","null","","","","","<p><img src= images/blank.png width =""200"" height = ""200"" style = ""float:right""></p><p><img src=images/blank.png width =""800"" height = ""200""></p>","","","","","","","","","","","",""
"","7732.3750000068685","sequential-stimulus-presentation","299","767577","0.0-56.0-1.1","SS1613138288040","trial","","40","800","8532.375000006869","images/stimuli/spore_stims/simple_11_B_a.gif","images/stimuli/spore_stims/simple_01_A_c.gif","","","","","16","simple_dissimilar","images/stimuli/spore_stims/simple_01_A_c.gif","right","","","","",""
"","null","html-keyboard-response","300","768828","0.0-56.0-0.2","SS1613138288040","","","null","","","","","<p><img src= images/blank.png width =""200"" height = ""200"" style = ""float:right""></p><p><img src=images/blank.png width =""800"" height = ""200""></p>","","","","","","","","","","","",""
"","2666.784999993979","sequential-stimulus-presentation","301","772340","0.0-56.0-1.2","SS1613138288040","trial","","40","800","3466.784999993979","images/stimuli/spore_stims/simple_11_B_a.gif","images/stimuli/spore_stims/simple_01_A_c.gif","","","","","16","simple_dissimilar","images/stimuli/spore_stims/simple_01_A_c.gif","right","","","","",""
"","null","html-keyboard-response","302","773656","0.0-56.0-0.3","SS1613138288040","","","null","","","","","<p><img src= images/blank.png width =""200"" height = ""200"" style = ""float:right""></p><p><img src=images/blank.png width =""800"" height = ""200""></p>","","","","","","","","","","","",""
"","786.5750000055414","sequential-stimulus-presentation","303","775280","0.0-56.0-1.3","SS1613138288040","trial","","40","800","1586.5750000055414","images/stimuli/spore_stims/simple_11_B_a.gif","images/stimuli/spore_stims/simple_01_A_c.gif","","","","","16","simple_dissimilar","images/stimuli/spore_stims/simple_01_A_c.gif","right","","","","",""
"","null","html-keyboard-response","304","776482","0.0-56.0-0.4","SS1613138288040","","","null","","","","","<p><img src= images/blank.png width =""200"" height = ""200"" style = ""float:right""></p><p><img src=images/blank.png width =""800"" height = ""200""></p>","","","","","","","","","","","",""
"","4340.98000000813","sequential-stimulus-presentation","305","781643","0.0-56.0-1.4","SS1613138288040","trial","","40","800","5140.98000000813","images/stimuli/spore_stims/simple_11_B_a.gif","images/stimuli/spore_stims/simple_01_A_c.gif","","","","","16","simple_dissimilar","images/stimuli/spore_stims/simple_11_B_a.gif","left","","","","",""
"","null","html-keyboard-response","306","782523","0.0-56.0-0.5","SS1613138288040","","","null","","","","","<p><img src= images/blank.png width =""200"" height = ""200"" style = ""float:right""></p><p><img src=images/blank.png width =""800"" height = ""200""></p>","","","","","","","","","","","",""
"","6920.639999996638","sequential-stimulus-presentation","307","790261","0.0-56.0-1.5","SS1613138288040","trial","","40","800","7720.639999996638","images/stimuli/spore_stims/simple_11_B_a.gif","images/stimuli/spore_stims/simple_01_A_c.gif","","","","","16","simple_dissimilar","images/stimuli/spore_stims/simple_01_A_c.gif","right","","","","",""
"","null","html-keyboard-response","308","791271","0.0-56.0-0.6","SS1613138288040","","","null","","","","","<p><img src= images/blank.png width =""200"" height = ""200"" style = ""float:right""></p><p><img src=images/blank.png width =""800"" height = ""200""></p>","","","","","","","","","","","",""
"","1058.4400000079768","sequential-stimulus-presentation","309","793150","0.0-56.0-1.6","SS1613138288040","trial","","40","800","1858.4400000079768","images/stimuli/spore_stims/simple_11_B_a.gif","images/stimuli/spore_stims/simple_01_A_c.gif","","","","","16","simple_dissimilar","images/stimuli/spore_stims/simple_01_A_c.gif","right","","","","",""
"","null","html-keyboard-response","310","794016","0.0-56.0-0.7","SS1613138288040","","","null","","","","","<p><img src= images/blank.png width =""200"" height = ""200"" style = ""float:right""></p><p><img src=images/blank.png width =""800"" height = ""200""></p>","","","","","","","","","","","",""
"","68.65000000107102","sequential-stimulus-presentation","311","794925","0.0-56.0-1.7","SS1613138288040","trial","","40","800","868.650000001071","images/stimuli/spore_stims/simple_11_B_a.gif","images/stimuli/spore_stims/simple_01_A_c.gif","","","","","16","simple_dissimilar","images/stimuli/spore_stims/simple_01_A_c.gif","right","","","","",""
