"view_history","rt","trial_type","trial_index","time_elapsed","internal_node_id","subject","stimulus_type","trial_stimulus","key_press","minimum_viewing_duration","trial_looking_time","block_deviant","block_background","stimulus","wall_pref","location","location_percent","block_number","block_type","stimulus_displayed","position_displayed","stim_type_selected","responses","question_order","stimulus_left","stimulus_right"
"[{""page_index"":0,""viewing_time"":17806.27000000095}]","17806.755000026897","instructions","0","17808","0.0-0.0","SS1613138866427","","","","","","","","","","","","","","","","","","","",""
"[{""page_index"":0,""viewing_time"":14980.294999986654},{""page_index"":1,""viewing_time"":7271.770000021206}]","22252.229999983683","instructions","1","42062","0.0-1.0","SS1613138866427","instructions","","","","","","","","","","","","","","","","","","",""
"","8853.845000005094","sequential-stimulus-presentation","2","51720","0.0-2.0","SS1613138866427","","","40","800","9653.845000005094","null","null","","","","","","","","","","","","",""
"","6115.344999998342","sequential-stimulus-presentation","3","58640","0.0-3.0","SS1613138866427","","","40","800","6915.344999998342","null","null","","","","","","","","","","","","",""
"[{""page_index"":0,""viewing_time"":4251.785000000382}]","4251.94499999634","instructions","4","62893","0.0-4.0","SS1613138866427","instructions","","","","","","","","","","","","","","","","","","",""
"","15976.710000017192","html-keyboard-response","5","78872","0.0-5.0","SS1613138866427","instructions","","49","","","","","<video width ='960' height = '540' autoplay muted><source src='images/stimuli/wall_pref.mp4' type='video/mp4'></video>","1","left","25%","","","","","","","","",""
"","4866.394999990007","sequential-stimulus-presentation","6","84559","0.0-6.0","SS1613138866427","pref_reveal","","40","800","5666.394999990007","null","null","","","","","","","","","","","","",""
"[{""page_index"":0,""viewing_time"":10873.369999986608},{""page_index"":1,""viewing_time"":5712.044999992941},{""page_index"":2,""viewing_time"":3079.8000000067987},{""page_index"":3,""viewing_time"":1551.8800000136252}]","21217.290000000503","instructions","7","105779","0.0-7.0","SS1613138866427","instructions","","","","","","","","","","","","","","","","","","",""
"","null","html-keyboard-response","8","107095","0.0-8.0-0.0","SS1613138866427","","","null","","","","","<p><img src= images/blank.png width =""200"" height = ""200"" style = ""float:right""></p><p><img src=images/blank.png width =""800"" height = ""200""></p>","","","","","","","","","","","",""
"","4949.534999992466","sequential-stimulus-presentation","9","112850","0.0-8.0-1.0","SS1613138866427","trial","","40","800","5749.534999992466","images/stimuli/spore_stims/simple_12_A_d.gif","images/stimuli/spore_stims/simple_05_A_d.gif","","","","","0","simple_dissimilar","images/stimuli/spore_stims/simple_05_A_d.gif","right","","","","",""
"","null","html-keyboard-response","10","113715","0.0-8.0-0.1","SS1613138866427","","","null","","","","","<p><img src= images/blank.png width =""200"" height = ""200"" style = ""float:right""></p><p><img src=images/blank.png width =""800"" height = ""200""></p>","","","","","","","","","","","",""
"","4776.035000017146","sequential-stimulus-presentation","11","119304","0.0-8.0-1.1","SS1613138866427","trial","","40","800","5576.035000017146","images/stimuli/spore_stims/simple_12_A_d.gif","images/stimuli/spore_stims/simple_05_A_d.gif","","","","","0","simple_dissimilar","images/stimuli/spore_stims/simple_05_A_d.gif","right","","","","",""
"","null","html-keyboard-response","12","120493","0.0-8.0-0.2","SS1613138866427","","","null","","","","","<p><img src= images/blank.png width =""200"" height = ""200"" style = ""float:right""></p><p><img src=images/blank.png width =""800"" height = ""200""></p>","","","","","","","","","","","",""
"","6923.505000013392","sequential-stimulus-presentation","13","128226","0.0-8.0-1.2","SS1613138866427","trial","","40","800","7723.505000013392","images/stimuli/spore_stims/simple_12_A_d.gif","images/stimuli/spore_stims/simple_05_A_d.gif","","","","","0","simple_dissimilar","images/stimuli/spore_stims/simple_05_A_d.gif","right","","","","",""
"","null","html-keyboard-response","14","129311","0.0-8.0-0.3","SS1613138866427","","","null","","","","","<p><img src= images/blank.png width =""200"" height = ""200"" style = ""float:right""></p><p><img src=images/blank.png width =""800"" height = ""200""></p>","","","","","","","","","","","",""
"","7648.660000006203","sequential-stimulus-presentation","15","137778","0.0-8.0-1.3","SS1613138866427","trial","","40","800","8448.660000006203","images/stimuli/spore_stims/simple_12_A_d.gif","images/stimuli/spore_stims/simple_05_A_d.gif","","","","","0","simple_dissimilar","images/stimuli/spore_stims/simple_05_A_d.gif","right","","","","",""
"","null","html-keyboard-response","16","138611","0.0-8.0-0.4","SS1613138866427","","","null","","","","","<p><img src= images/blank.png width =""200"" height = ""200"" style = ""float:right""></p><p><img src=images/blank.png width =""800"" height = ""200""></p>","","","","","","","","","","","",""
"","3315.6249999883585","sequential-stimulus-presentation","17","142737","0.0-8.0-1.4","SS1613138866427","trial","","40","800","4115.6249999883585","images/stimuli/spore_stims/simple_12_A_d.gif","images/stimuli/spore_stims/simple_05_A_d.gif","","","","","0","simple_dissimilar","images/stimuli/spore_stims/simple_05_A_d.gif","right","","","","",""
"","null","html-keyboard-response","18","143807","0.0-8.0-0.5","SS1613138866427","","","null","","","","","<p><img src= images/blank.png width =""200"" height = ""200"" style = ""float:right""></p><p><img src=images/blank.png width =""800"" height = ""200""></p>","","","","","","","","","","","",""
"","5503.884999983711","sequential-stimulus-presentation","19","150121","0.0-8.0-1.5","SS1613138866427","trial","","40","800","6303.884999983711","images/stimuli/spore_stims/simple_12_A_d.gif","images/stimuli/spore_stims/simple_05_A_d.gif","","","","","0","simple_dissimilar","images/stimuli/spore_stims/simple_05_A_d.gif","right","","","","",""
"","null","html-keyboard-response","20","150960","0.0-8.0-0.6","SS1613138866427","","","null","","","","","<p><img src= images/blank.png width =""200"" height = ""200"" style = ""float:right""></p><p><img src=images/blank.png width =""800"" height = ""200""></p>","","","","","","","","","","","",""
"","6996.535000012955","sequential-stimulus-presentation","21","158771","0.0-8.0-1.6","SS1613138866427","trial","","40","800","7796.535000012955","images/stimuli/spore_stims/simple_12_A_d.gif","images/stimuli/spore_stims/simple_05_A_d.gif","","","","","0","simple_dissimilar","images/stimuli/spore_stims/simple_12_A_d.gif","middle","","","","",""
"","null","html-keyboard-response","22","160035","0.0-8.0-0.7","SS1613138866427","","","null","","","","","<p><img src= images/blank.png width =""200"" height = ""200"" style = ""float:right""></p><p><img src=images/blank.png width =""800"" height = ""200""></p>","","","","","","","","","","","",""
"","6877.030000003288","sequential-stimulus-presentation","23","167722","0.0-8.0-1.7","SS1613138866427","trial","","40","800","7677.030000003288","images/stimuli/spore_stims/simple_12_A_d.gif","images/stimuli/spore_stims/simple_05_A_d.gif","","","","","0","simple_dissimilar","images/stimuli/spore_stims/simple_05_A_d.gif","right","","","","",""
"","2301.2650000164285","html-keyboard-response","24","170026","0.0-9.0","SS1613138866427","pref_question","","49","","","","","<video width ='960' height = '540' style='padding-top:8%' autoplay muted><source src='images/stimuli/wall_pref.mp4' type='video/mp4'></video>","1","left","25%","0","","","","","","","",""
"","3705.3650000016205","sequential-stimulus-presentation","25","174546","0.0-10.0","SS1613138866427","pref_reveal","","40","800","4505.3650000016205","null","null","","","","","0","","","","novel","","","",""
"","null","html-keyboard-response","26","175704","0.0-11.0-0.0","SS1613138866427","","","null","","","","","<p><img src= images/blank.png width =""200"" height = ""200"" style = ""float:right""></p><p><img src=images/blank.png width =""800"" height = ""200""></p>","","","","","","","","","","","",""
"","6985.579999978654","sequential-stimulus-presentation","27","183499","0.0-11.0-1.0","SS1613138866427","trial","","40","800","7785.579999978654","images/stimuli/spore_stims/simple_13_B_c.gif","images/stimuli/spore_stims/simple_13_A_c.gif","","","","","1","simple_similar","images/stimuli/spore_stims/simple_13_A_c.gif","right","","","","",""
"","null","html-keyboard-response","28","184429","0.0-11.0-0.1","SS1613138866427","","","null","","","","","<p><img src= images/blank.png width =""200"" height = ""200"" style = ""float:right""></p><p><img src=images/blank.png width =""800"" height = ""200""></p>","","","","","","","","","","","",""
"","7193.355000024894","sequential-stimulus-presentation","29","192443","0.0-11.0-1.1","SS1613138866427","trial","","40","800","7993.355000024894","images/stimuli/spore_stims/simple_13_B_c.gif","images/stimuli/spore_stims/simple_13_A_c.gif","","","","","1","simple_similar","images/stimuli/spore_stims/simple_13_A_c.gif","right","","","","",""
"","null","html-keyboard-response","30","193679","0.0-11.0-0.2","SS1613138866427","","","null","","","","","<p><img src= images/blank.png width =""200"" height = ""200"" style = ""float:right""></p><p><img src=images/blank.png width =""800"" height = ""200""></p>","","","","","","","","","","","",""
"","5122.83499998739","sequential-stimulus-presentation","31","199611","0.0-11.0-1.2","SS1613138866427","trial","","40","800","5922.83499998739","images/stimuli/spore_stims/simple_13_B_c.gif","images/stimuli/spore_stims/simple_13_A_c.gif","","","","","1","simple_similar","images/stimuli/spore_stims/simple_13_A_c.gif","right","","","","",""
"","null","html-keyboard-response","32","200545","0.0-11.0-0.3","SS1613138866427","","","null","","","","","<p><img src= images/blank.png width =""200"" height = ""200"" style = ""float:right""></p><p><img src=images/blank.png width =""800"" height = ""200""></p>","","","","","","","","","","","",""
"","9858.055000018794","sequential-stimulus-presentation","33","211211","0.0-11.0-1.3","SS1613138866427","trial","","40","800","10658.055000018794","images/stimuli/spore_stims/simple_13_B_c.gif","images/stimuli/spore_stims/simple_13_A_c.gif","","","","","1","simple_similar","images/stimuli/spore_stims/simple_13_B_c.gif","middle","","","","",""
"","null","html-keyboard-response","34","212282","0.0-11.0-0.4","SS1613138866427","","","null","","","","","<p><img src= images/blank.png width =""200"" height = ""200"" style = ""float:right""></p><p><img src=images/blank.png width =""800"" height = ""200""></p>","","","","","","","","","","","",""
"","4136.2650000082795","sequential-stimulus-presentation","35","217242","0.0-11.0-1.4","SS1613138866427","trial","","40","800","4936.2650000082795","images/stimuli/spore_stims/simple_13_B_c.gif","images/stimuli/spore_stims/simple_13_A_c.gif","","","","","1","simple_similar","images/stimuli/spore_stims/simple_13_A_c.gif","right","","","","",""
"","null","html-keyboard-response","36","218447","0.0-11.0-0.5","SS1613138866427","","","null","","","","","<p><img src= images/blank.png width =""200"" height = ""200"" style = ""float:right""></p><p><img src=images/blank.png width =""800"" height = ""200""></p>","","","","","","","","","","","",""
"","8121.360000019195","sequential-stimulus-presentation","37","227380","0.0-11.0-1.5","SS1613138866427","trial","","40","800","8921.360000019195","images/stimuli/spore_stims/simple_13_B_c.gif","images/stimuli/spore_stims/simple_13_A_c.gif","","","","","1","simple_similar","images/stimuli/spore_stims/simple_13_A_c.gif","right","","","","",""
"","null","html-keyboard-response","38","228355","0.0-11.0-0.6","SS1613138866427","","","null","","","","","<p><img src= images/blank.png width =""200"" height = ""200"" style = ""float:right""></p><p><img src=images/blank.png width =""800"" height = ""200""></p>","","","","","","","","","","","",""
"","5555.4750000010245","sequential-stimulus-presentation","39","234715","0.0-11.0-1.6","SS1613138866427","trial","","40","800","6355.4750000010245","images/stimuli/spore_stims/simple_13_B_c.gif","images/stimuli/spore_stims/simple_13_A_c.gif","","","","","1","simple_similar","images/stimuli/spore_stims/simple_13_A_c.gif","right","","","","",""
"","null","html-keyboard-response","40","235763","0.0-11.0-0.7","SS1613138866427","","","null","","","","","<p><img src= images/blank.png width =""200"" height = ""200"" style = ""float:right""></p><p><img src=images/blank.png width =""800"" height = ""200""></p>","","","","","","","","","","","",""
"","5293.680000002496","sequential-stimulus-presentation","41","241868","0.0-11.0-1.7","SS1613138866427","trial","","40","800","6093.680000002496","images/stimuli/spore_stims/simple_13_B_c.gif","images/stimuli/spore_stims/simple_13_A_c.gif","","","","","1","simple_similar","images/stimuli/spore_stims/simple_13_A_c.gif","right","","","","",""
"","2186.935000005178","html-keyboard-response","42","244059","0.0-12.0","SS1613138866427","pref_question","","49","","","","","<video width ='960' height = '540' style='padding-top:8%' autoplay muted><source src='images/stimuli/wall_pref.mp4' type='video/mp4'></video>","1","left","25%","1","","","","","","","",""
"","4499.00000001071","sequential-stimulus-presentation","43","249371","0.0-13.0","SS1613138866427","pref_reveal","","40","800","5299.00000001071","null","null","","","","","1","","","","novel","","","",""
"","null","html-keyboard-response","44","250567","0.0-14.0-0.0","SS1613138866427","","","null","","","","","<p><img src= images/blank.png width =""200"" height = ""200"" style = ""float:right""></p><p><img src=images/blank.png width =""800"" height = ""200""></p>","","","","","","","","","","","",""
"","4362.475000001723","sequential-stimulus-presentation","45","255740","0.0-14.0-1.0","SS1613138866427","trial","","40","800","5162.475000001723","images/stimuli/spore_stims/simple_04_A_a.gif","images/stimuli/spore_stims/simple_04_B_a.gif","","","","","2","simple_similar","images/stimuli/spore_stims/simple_04_B_a.gif","right","","","","",""
"","null","html-keyboard-response","46","256918","0.0-14.0-0.1","SS1613138866427","","","null","","","","","<p><img src= images/blank.png width =""200"" height = ""200"" style = ""float:right""></p><p><img src=images/blank.png width =""800"" height = ""200""></p>","","","","","","","","","","","",""
"","5581.865000014659","sequential-stimulus-presentation","47","263307","0.0-14.0-1.1","SS1613138866427","trial","","40","800","6381.865000014659","images/stimuli/spore_stims/simple_04_A_a.gif","images/stimuli/spore_stims/simple_04_B_a.gif","","","","","2","simple_similar","images/stimuli/spore_stims/simple_04_B_a.gif","right","","","","",""
"","null","html-keyboard-response","48","264262","0.0-14.0-0.2","SS1613138866427","","","null","","","","","<p><img src= images/blank.png width =""200"" height = ""200"" style = ""float:right""></p><p><img src=images/blank.png width =""800"" height = ""200""></p>","","","","","","","","","","","",""
"","5661.424999998417","sequential-stimulus-presentation","49","270733","0.0-14.0-1.2","SS1613138866427","trial","","40","800","6461.424999998417","images/stimuli/spore_stims/simple_04_A_a.gif","images/stimuli/spore_stims/simple_04_B_a.gif","","","","","2","simple_similar","images/stimuli/spore_stims/simple_04_B_a.gif","right","","","","",""
"","null","html-keyboard-response","50","271558","0.0-14.0-0.3","SS1613138866427","","","null","","","","","<p><img src= images/blank.png width =""200"" height = ""200"" style = ""float:right""></p><p><img src=images/blank.png width =""800"" height = ""200""></p>","","","","","","","","","","","",""
"","6786.590000003343","sequential-stimulus-presentation","51","279156","0.0-14.0-1.3","SS1613138866427","trial","","40","800","7586.590000003343","images/stimuli/spore_stims/simple_04_A_a.gif","images/stimuli/spore_stims/simple_04_B_a.gif","","","","","2","simple_similar","images/stimuli/spore_stims/simple_04_A_a.gif","left","","","","",""
"","null","html-keyboard-response","52","280258","0.0-14.0-0.4","SS1613138866427","","","null","","","","","<p><img src= images/blank.png width =""200"" height = ""200"" style = ""float:right""></p><p><img src=images/blank.png width =""800"" height = ""200""></p>","","","","","","","","","","","",""
"","2640.5700000177603","sequential-stimulus-presentation","53","283709","0.0-14.0-1.4","SS1613138866427","trial","","40","800","3440.5700000177603","images/stimuli/spore_stims/simple_04_A_a.gif","images/stimuli/spore_stims/simple_04_B_a.gif","","","","","2","simple_similar","images/stimuli/spore_stims/simple_04_B_a.gif","right","","","","",""
"","null","html-keyboard-response","54","284724","0.0-14.0-0.5","SS1613138866427","","","null","","","","","<p><img src= images/blank.png width =""200"" height = ""200"" style = ""float:right""></p><p><img src=images/blank.png width =""800"" height = ""200""></p>","","","","","","","","","","","",""
"","2773.444999998901","sequential-stimulus-presentation","55","288308","0.0-14.0-1.5","SS1613138866427","trial","","40","800","3573.444999998901","images/stimuli/spore_stims/simple_04_A_a.gif","images/stimuli/spore_stims/simple_04_B_a.gif","","","","","2","simple_similar","images/stimuli/spore_stims/simple_04_B_a.gif","right","","","","",""
"","null","html-keyboard-response","56","289383","0.0-14.0-0.6","SS1613138866427","","","null","","","","","<p><img src= images/blank.png width =""200"" height = ""200"" style = ""float:right""></p><p><img src=images/blank.png width =""800"" height = ""200""></p>","","","","","","","","","","","",""
"","2320.0749999959953","sequential-stimulus-presentation","57","292508","0.0-14.0-1.6","SS1613138866427","trial","","40","800","3120.0749999959953","images/stimuli/spore_stims/simple_04_A_a.gif","images/stimuli/spore_stims/simple_04_B_a.gif","","","","","2","simple_similar","images/stimuli/spore_stims/simple_04_B_a.gif","right","","","","",""
"","null","html-keyboard-response","58","293524","0.0-14.0-0.7","SS1613138866427","","","null","","","","","<p><img src= images/blank.png width =""200"" height = ""200"" style = ""float:right""></p><p><img src=images/blank.png width =""800"" height = ""200""></p>","","","","","","","","","","","",""
"","2837.870000017574","sequential-stimulus-presentation","59","297173","0.0-14.0-1.7","SS1613138866427","trial","","40","800","3637.870000017574","images/stimuli/spore_stims/simple_04_A_a.gif","images/stimuli/spore_stims/simple_04_B_a.gif","","","","","2","simple_similar","images/stimuli/spore_stims/simple_04_B_a.gif","right","","","","",""
"","2282.69999998156","html-keyboard-response","60","299460","0.0-15.0","SS1613138866427","pref_question","","50","","","","","<video width ='960' height = '540' style='padding-top:8%' autoplay muted><source src='images/stimuli/wall_pref.mp4' type='video/mp4'></video>","2","middle","45%","2","","","","","","","",""
"","6771.319999999832","sequential-stimulus-presentation","61","307044","0.0-16.0","SS1613138866427","pref_reveal","","40","800","7571.319999999832","null","null","","","","","2","","","","novel","","","",""
"","null","html-keyboard-response","62","307928","0.0-17.0-0.0","SS1613138866427","","","null","","","","","<p><img src= images/blank.png width =""200"" height = ""200"" style = ""float:right""></p><p><img src=images/blank.png width =""800"" height = ""200""></p>","","","","","","","","","","","",""
"","6443.885000015143","sequential-stimulus-presentation","63","315189","0.0-17.0-1.0","SS1613138866427","trial","","40","800","7243.885000015143","images/stimuli/spore_stims/simple_11_B_b.gif","images/stimuli/spore_stims/simple_07_B_b.gif","","","","","3","simple_dissimilar","images/stimuli/spore_stims/simple_07_B_b.gif","middle","","","","",""
"","null","html-keyboard-response","64","316065","0.0-17.0-0.1","SS1613138866427","","","null","","","","","<p><img src= images/blank.png width =""200"" height = ""200"" style = ""float:right""></p><p><img src=images/blank.png width =""800"" height = ""200""></p>","","","","","","","","","","","",""
"","5459.135000011884","sequential-stimulus-presentation","65","322333","0.0-17.0-1.1","SS1613138866427","trial","","40","800","6259.135000011884","images/stimuli/spore_stims/simple_11_B_b.gif","images/stimuli/spore_stims/simple_07_B_b.gif","","","","","3","simple_dissimilar","images/stimuli/spore_stims/simple_07_B_b.gif","middle","","","","",""
"","null","html-keyboard-response","66","323573","0.0-17.0-0.2","SS1613138866427","","","null","","","","","<p><img src= images/blank.png width =""200"" height = ""200"" style = ""float:right""></p><p><img src=images/blank.png width =""800"" height = ""200""></p>","","","","","","","","","","","",""
"","6557.730000000447","sequential-stimulus-presentation","67","330941","0.0-17.0-1.2","SS1613138866427","trial","","40","800","7357.730000000447","images/stimuli/spore_stims/simple_11_B_b.gif","images/stimuli/spore_stims/simple_07_B_b.gif","","","","","3","simple_dissimilar","images/stimuli/spore_stims/simple_11_B_b.gif","right","","","","",""
"","null","html-keyboard-response","68","331809","0.0-17.0-0.3","SS1613138866427","","","null","","","","","<p><img src= images/blank.png width =""200"" height = ""200"" style = ""float:right""></p><p><img src=images/blank.png width =""800"" height = ""200""></p>","","","","","","","","","","","",""
"","1795.5200000142213","sequential-stimulus-presentation","69","334412","0.0-17.0-1.3","SS1613138866427","trial","","40","800","2595.5200000142213","images/stimuli/spore_stims/simple_11_B_b.gif","images/stimuli/spore_stims/simple_07_B_b.gif","","","","","3","simple_dissimilar","images/stimuli/spore_stims/simple_07_B_b.gif","middle","","","","",""
"","null","html-keyboard-response","70","335544","0.0-17.0-0.4","SS1613138866427","","","null","","","","","<p><img src= images/blank.png width =""200"" height = ""200"" style = ""float:right""></p><p><img src=images/blank.png width =""800"" height = ""200""></p>","","","","","","","","","","","",""
"","1059.6300000033807","sequential-stimulus-presentation","71","337413","0.0-17.0-1.4","SS1613138866427","trial","","40","800","1859.6300000033807","images/stimuli/spore_stims/simple_11_B_b.gif","images/stimuli/spore_stims/simple_07_B_b.gif","","","","","3","simple_dissimilar","images/stimuli/spore_stims/simple_07_B_b.gif","middle","","","","",""
"","null","html-keyboard-response","72","338548","0.0-17.0-0.5","SS1613138866427","","","null","","","","","<p><img src= images/blank.png width =""200"" height = ""200"" style = ""float:right""></p><p><img src=images/blank.png width =""800"" height = ""200""></p>","","","","","","","","","","","",""
"","701.9549999968149","sequential-stimulus-presentation","73","340085","0.0-17.0-1.5","SS1613138866427","trial","","40","800","1501.9549999968149","images/stimuli/spore_stims/simple_11_B_b.gif","images/stimuli/spore_stims/simple_07_B_b.gif","","","","","3","simple_dissimilar","images/stimuli/spore_stims/simple_07_B_b.gif","middle","","","","",""
"","null","html-keyboard-response","74","341040","0.0-17.0-0.6","SS1613138866427","","","null","","","","","<p><img src= images/blank.png width =""200"" height = ""200"" style = ""float:right""></p><p><img src=images/blank.png width =""800"" height = ""200""></p>","","","","","","","","","","","",""
"","791.735000006156","sequential-stimulus-presentation","75","342646","0.0-17.0-1.6","SS1613138866427","trial","","40","800","1591.735000006156","images/stimuli/spore_stims/simple_11_B_b.gif","images/stimuli/spore_stims/simple_07_B_b.gif","","","","","3","simple_dissimilar","images/stimuli/spore_stims/simple_07_B_b.gif","middle","","","","",""
"","null","html-keyboard-response","76","343672","0.0-17.0-0.7","SS1613138866427","","","null","","","","","<p><img src= images/blank.png width =""200"" height = ""200"" style = ""float:right""></p><p><img src=images/blank.png width =""800"" height = ""200""></p>","","","","","","","","","","","",""
"","688.9099999971222","sequential-stimulus-presentation","77","345181","0.0-17.0-1.7","SS1613138866427","trial","","40","800","1488.9099999971222","images/stimuli/spore_stims/simple_11_B_b.gif","images/stimuli/spore_stims/simple_07_B_b.gif","","","","","3","simple_dissimilar","images/stimuli/spore_stims/simple_07_B_b.gif","middle","","","","",""
"","1971.350000007078","html-keyboard-response","78","347157","0.0-18.0","SS1613138866427","pref_question","","49","","","","","<video width ='960' height = '540' style='padding-top:8%' autoplay muted><source src='images/stimuli/wall_pref.mp4' type='video/mp4'></video>","1","left","25%","3","","","","","","","",""
"","5545.110000006389","sequential-stimulus-presentation","79","353526","0.0-19.0","SS1613138866427","pref_reveal","","40","800","6345.110000006389","null","null","","","","","3","","","","novel","","","",""
"","null","html-keyboard-response","80","354802","0.0-20.0-0.0","SS1613138866427","","","null","","","","","<p><img src= images/blank.png width =""200"" height = ""200"" style = ""float:right""></p><p><img src=images/blank.png width =""800"" height = ""200""></p>","","","","","","","","","","","",""
"","3685.9150000091176","sequential-stimulus-presentation","81","359309","0.0-20.0-1.0","SS1613138866427","trial","","40","800","4485.915000009118","images/stimuli/spore_stims/simple_16_B_c.gif","images/stimuli/spore_stims/simple_08_A_a.gif","","","","","4","simple_dissimilar","images/stimuli/spore_stims/simple_08_A_a.gif","right","","","","",""
"","null","html-keyboard-response","82","360312","0.0-20.0-0.1","SS1613138866427","","","null","","","","","<p><img src= images/blank.png width =""200"" height = ""200"" style = ""float:right""></p><p><img src=images/blank.png width =""800"" height = ""200""></p>","","","","","","","","","","","",""
"","3536.9600000267383","sequential-stimulus-presentation","83","364655","0.0-20.0-1.1","SS1613138866427","trial","","40","800","4336.960000026738","images/stimuli/spore_stims/simple_16_B_c.gif","images/stimuli/spore_stims/simple_08_A_a.gif","","","","","4","simple_dissimilar","images/stimuli/spore_stims/simple_08_A_a.gif","right","","","","",""
"","null","html-keyboard-response","84","365640","0.0-20.0-0.2","SS1613138866427","","","null","","","","","<p><img src= images/blank.png width =""200"" height = ""200"" style = ""float:right""></p><p><img src=images/blank.png width =""800"" height = ""200""></p>","","","","","","","","","","","",""
"","1927.4750000040513","sequential-stimulus-presentation","85","368382","0.0-20.0-1.2","SS1613138866427","trial","","40","800","2727.4750000040513","images/stimuli/spore_stims/simple_16_B_c.gif","images/stimuli/spore_stims/simple_08_A_a.gif","","","","","4","simple_dissimilar","images/stimuli/spore_stims/simple_08_A_a.gif","right","","","","",""
"","null","html-keyboard-response","86","369570","0.0-20.0-0.3","SS1613138866427","","","null","","","","","<p><img src= images/blank.png width =""200"" height = ""200"" style = ""float:right""></p><p><img src=images/blank.png width =""800"" height = ""200""></p>","","","","","","","","","","","",""
"","5282.119999988936","sequential-stimulus-presentation","87","375663","0.0-20.0-1.3","SS1613138866427","trial","","40","800","6082.119999988936","images/stimuli/spore_stims/simple_16_B_c.gif","images/stimuli/spore_stims/simple_08_A_a.gif","","","","","4","simple_dissimilar","images/stimuli/spore_stims/simple_16_B_c.gif","middle","","","","",""
"","null","html-keyboard-response","88","376522","0.0-20.0-0.4","SS1613138866427","","","null","","","","","<p><img src= images/blank.png width =""200"" height = ""200"" style = ""float:right""></p><p><img src=images/blank.png width =""800"" height = ""200""></p>","","","","","","","","","","","",""
"","4599.140000005718","sequential-stimulus-presentation","89","381942","0.0-20.0-1.4","SS1613138866427","trial","","40","800","5399.140000005718","images/stimuli/spore_stims/simple_16_B_c.gif","images/stimuli/spore_stims/simple_08_A_a.gif","","","","","4","simple_dissimilar","images/stimuli/spore_stims/simple_08_A_a.gif","right","","","","",""
"","null","html-keyboard-response","90","382932","0.0-20.0-0.5","SS1613138866427","","","null","","","","","<p><img src= images/blank.png width =""200"" height = ""200"" style = ""float:right""></p><p><img src=images/blank.png width =""800"" height = ""200""></p>","","","","","","","","","","","",""
"","3001.9000000029337","sequential-stimulus-presentation","91","386743","0.0-20.0-1.5","SS1613138866427","trial","","40","800","3801.9000000029337","images/stimuli/spore_stims/simple_16_B_c.gif","images/stimuli/spore_stims/simple_08_A_a.gif","","","","","4","simple_dissimilar","images/stimuli/spore_stims/simple_08_A_a.gif","right","","","","",""
"","null","html-keyboard-response","92","387851","0.0-20.0-0.6","SS1613138866427","","","null","","","","","<p><img src= images/blank.png width =""200"" height = ""200"" style = ""float:right""></p><p><img src=images/blank.png width =""800"" height = ""200""></p>","","","","","","","","","","","",""
"","863.1549999990966","sequential-stimulus-presentation","93","389526","0.0-20.0-1.6","SS1613138866427","trial","","40","800","1663.1549999990966","images/stimuli/spore_stims/simple_16_B_c.gif","images/stimuli/spore_stims/simple_08_A_a.gif","","","","","4","simple_dissimilar","images/stimuli/spore_stims/simple_08_A_a.gif","right","","","","",""
"","null","html-keyboard-response","94","390710","0.0-20.0-0.7","SS1613138866427","","","null","","","","","<p><img src= images/blank.png width =""200"" height = ""200"" style = ""float:right""></p><p><img src=images/blank.png width =""800"" height = ""200""></p>","","","","","","","","","","","",""
"","770.18500000122","sequential-stimulus-presentation","95","392287","0.0-20.0-1.7","SS1613138866427","trial","","40","800","1570.18500000122","images/stimuli/spore_stims/simple_16_B_c.gif","images/stimuli/spore_stims/simple_08_A_a.gif","","","","","4","simple_dissimilar","images/stimuli/spore_stims/simple_08_A_a.gif","right","","","","",""
"","2352.825000009034","html-keyboard-response","96","394646","0.0-21.0","SS1613138866427","pref_question","","49","","","","","<video width ='960' height = '540' style='padding-top:8%' autoplay muted><source src='images/stimuli/wall_pref.mp4' type='video/mp4'></video>","1","left","25%","4","","","","","","","",""
"","3223.0649999983143","sequential-stimulus-presentation","97","398688","0.0-22.0","SS1613138866427","pref_reveal","","40","800","4023.0649999983143","null","null","","","","","4","","","","novel","","","",""
"","null","html-keyboard-response","98","399908","0.0-23.0-0.0","SS1613138866427","","","null","","","","","<p><img src= images/blank.png width =""200"" height = ""200"" style = ""float:right""></p><p><img src=images/blank.png width =""800"" height = ""200""></p>","","","","","","","","","","","",""
"","4349.520000017947","sequential-stimulus-presentation","99","405079","0.0-23.0-1.0","SS1613138866427","trial","","40","800","5149.520000017947","images/stimuli/spore_stims/simple_12_B_a.gif","images/stimuli/spore_stims/simple_02_A_d.gif","","","","","5","simple_dissimilar","images/stimuli/spore_stims/simple_02_A_d.gif","middle","","","","",""
"","null","html-keyboard-response","100","406241","0.0-23.0-0.1","SS1613138866427","","","null","","","","","<p><img src= images/blank.png width =""200"" height = ""200"" style = ""float:right""></p><p><img src=images/blank.png width =""800"" height = ""200""></p>","","","","","","","","","","","",""
"","3311.3050000101794","sequential-stimulus-presentation","101","410360","0.0-23.0-1.1","SS1613138866427","trial","","40","800","4111.305000010179","images/stimuli/spore_stims/simple_12_B_a.gif","images/stimuli/spore_stims/simple_02_A_d.gif","","","","","5","simple_dissimilar","images/stimuli/spore_stims/simple_02_A_d.gif","middle","","","","",""
"","null","html-keyboard-response","102","411292","0.0-23.0-0.2","SS1613138866427","","","null","","","","","<p><img src= images/blank.png width =""200"" height = ""200"" style = ""float:right""></p><p><img src=images/blank.png width =""800"" height = ""200""></p>","","","","","","","","","","","",""
"","6338.099999993574","sequential-stimulus-presentation","103","418455","0.0-23.0-1.2","SS1613138866427","trial","","40","800","7138.099999993574","images/stimuli/spore_stims/simple_12_B_a.gif","images/stimuli/spore_stims/simple_02_A_d.gif","","","","","5","simple_dissimilar","images/stimuli/spore_stims/simple_12_B_a.gif","right","","","","",""
"","null","html-keyboard-response","104","419635","0.0-23.0-0.3","SS1613138866427","","","null","","","","","<p><img src= images/blank.png width =""200"" height = ""200"" style = ""float:right""></p><p><img src=images/blank.png width =""800"" height = ""200""></p>","","","","","","","","","","","",""
"","1832.8500000061467","sequential-stimulus-presentation","105","422287","0.0-23.0-1.3","SS1613138866427","trial","","40","800","2632.8500000061467","images/stimuli/spore_stims/simple_12_B_a.gif","images/stimuli/spore_stims/simple_02_A_d.gif","","","","","5","simple_dissimilar","images/stimuli/spore_stims/simple_02_A_d.gif","middle","","","","",""
"","null","html-keyboard-response","106","423273","0.0-23.0-0.4","SS1613138866427","","","null","","","","","<p><img src= images/blank.png width =""200"" height = ""200"" style = ""float:right""></p><p><img src=images/blank.png width =""800"" height = ""200""></p>","","","","","","","","","","","",""
"","887.6700000255369","sequential-stimulus-presentation","107","424983","0.0-23.0-1.4","SS1613138866427","trial","","40","800","1687.6700000255369","images/stimuli/spore_stims/simple_12_B_a.gif","images/stimuli/spore_stims/simple_02_A_d.gif","","","","","5","simple_dissimilar","images/stimuli/spore_stims/simple_02_A_d.gif","middle","","","","",""
"","null","html-keyboard-response","108","426152","0.0-23.0-0.5","SS1613138866427","","","null","","","","","<p><img src= images/blank.png width =""200"" height = ""200"" style = ""float:right""></p><p><img src=images/blank.png width =""800"" height = ""200""></p>","","","","","","","","","","","",""
"","701.0750000190455","sequential-stimulus-presentation","109","427663","0.0-23.0-1.5","SS1613138866427","trial","","40","800","1501.0750000190455","images/stimuli/spore_stims/simple_12_B_a.gif","images/stimuli/spore_stims/simple_02_A_d.gif","","","","","5","simple_dissimilar","images/stimuli/spore_stims/simple_02_A_d.gif","middle","","","","",""
"","null","html-keyboard-response","110","428634","0.0-23.0-0.6","SS1613138866427","","","null","","","","","<p><img src= images/blank.png width =""200"" height = ""200"" style = ""float:right""></p><p><img src=images/blank.png width =""800"" height = ""200""></p>","","","","","","","","","","","",""
"","1032.854999997653","sequential-stimulus-presentation","111","430487","0.0-23.0-1.6","SS1613138866427","trial","","40","800","1832.854999997653","images/stimuli/spore_stims/simple_12_B_a.gif","images/stimuli/spore_stims/simple_02_A_d.gif","","","","","5","simple_dissimilar","images/stimuli/spore_stims/simple_02_A_d.gif","middle","","","","",""
"","null","html-keyboard-response","112","431415","0.0-23.0-0.7","SS1613138866427","","","null","","","","","<p><img src= images/blank.png width =""200"" height = ""200"" style = ""float:right""></p><p><img src=images/blank.png width =""800"" height = ""200""></p>","","","","","","","","","","","",""
"","870.9950000047684","sequential-stimulus-presentation","113","433096","0.0-23.0-1.7","SS1613138866427","trial","","40","800","1670.9950000047684","images/stimuli/spore_stims/simple_12_B_a.gif","images/stimuli/spore_stims/simple_02_A_d.gif","","","","","5","simple_dissimilar","images/stimuli/spore_stims/simple_02_A_d.gif","middle","","","","",""
"","1682.8650000097696","html-keyboard-response","114","434800","0.0-24.0","SS1613138866427","pref_question","","49","","","","","<video width ='960' height = '540' style='padding-top:8%' autoplay muted><source src='images/stimuli/wall_pref.mp4' type='video/mp4'></video>","1","left","25%","5","","","","","","","",""
"","5709.944999980507","sequential-stimulus-presentation","115","441328","0.0-25.0","SS1613138866427","pref_reveal","","40","800","6509.944999980507","null","null","","","","","5","","","","novel","","","",""
"","null","html-keyboard-response","116","442584","0.0-26.0-0.0","SS1613138866427","","","null","","","","","<p><img src= images/blank.png width =""200"" height = ""200"" style = ""float:right""></p><p><img src=images/blank.png width =""800"" height = ""200""></p>","","","","","","","","","","","",""
"","5073.644999996759","sequential-stimulus-presentation","117","448480","0.0-26.0-1.0","SS1613138866427","trial","","40","800","5873.644999996759","images/stimuli/spore_stims/simple_01_A_b.gif","images/stimuli/spore_stims/simple_01_B_b.gif","","","","","6","simple_similar","images/stimuli/spore_stims/simple_01_B_b.gif","middle","","","","",""
"","null","html-keyboard-response","118","449778","0.0-26.0-0.1","SS1613138866427","","","null","","","","","<p><img src= images/blank.png width =""200"" height = ""200"" style = ""float:right""></p><p><img src=images/blank.png width =""800"" height = ""200""></p>","","","","","","","","","","","",""
"","2863.084999989951","sequential-stimulus-presentation","119","453463","0.0-26.0-1.1","SS1613138866427","trial","","40","800","3663.084999989951","images/stimuli/spore_stims/simple_01_A_b.gif","images/stimuli/spore_stims/simple_01_B_b.gif","","","","","6","simple_similar","images/stimuli/spore_stims/simple_01_B_b.gif","middle","","","","",""
"","null","html-keyboard-response","120","454525","0.0-26.0-0.2","SS1613138866427","","","null","","","","","<p><img src= images/blank.png width =""200"" height = ""200"" style = ""float:right""></p><p><img src=images/blank.png width =""800"" height = ""200""></p>","","","","","","","","","","","",""
"","1601.9650000089314","sequential-stimulus-presentation","121","456935","0.0-26.0-1.2","SS1613138866427","trial","","40","800","2401.9650000089314","images/stimuli/spore_stims/simple_01_A_b.gif","images/stimuli/spore_stims/simple_01_B_b.gif","","","","","6","simple_similar","images/stimuli/spore_stims/simple_01_B_b.gif","middle","","","","",""
"","null","html-keyboard-response","122","458101","0.0-26.0-0.3","SS1613138866427","","","null","","","","","<p><img src= images/blank.png width =""200"" height = ""200"" style = ""float:right""></p><p><img src=images/blank.png width =""800"" height = ""200""></p>","","","","","","","","","","","",""
"","1053.5899999958929","sequential-stimulus-presentation","123","459968","0.0-26.0-1.3","SS1613138866427","trial","","40","800","1853.5899999958929","images/stimuli/spore_stims/simple_01_A_b.gif","images/stimuli/spore_stims/simple_01_B_b.gif","","","","","6","simple_similar","images/stimuli/spore_stims/simple_01_B_b.gif","middle","","","","",""
"","null","html-keyboard-response","124","461063","0.0-26.0-0.4","SS1613138866427","","","null","","","","","<p><img src= images/blank.png width =""200"" height = ""200"" style = ""float:right""></p><p><img src=images/blank.png width =""800"" height = ""200""></p>","","","","","","","","","","","",""
"","2493.4899999934714","sequential-stimulus-presentation","125","464391","0.0-26.0-1.4","SS1613138866427","trial","","40","800","3293.4899999934714","images/stimuli/spore_stims/simple_01_A_b.gif","images/stimuli/spore_stims/simple_01_B_b.gif","","","","","6","simple_similar","images/stimuli/spore_stims/simple_01_B_b.gif","middle","","","","",""
"","null","html-keyboard-response","126","465422","0.0-26.0-0.5","SS1613138866427","","","null","","","","","<p><img src= images/blank.png width =""200"" height = ""200"" style = ""float:right""></p><p><img src=images/blank.png width =""800"" height = ""200""></p>","","","","","","","","","","","",""
"","2147.4549999984447","sequential-stimulus-presentation","127","468391","0.0-26.0-1.5","SS1613138866427","trial","","40","800","2947.4549999984447","images/stimuli/spore_stims/simple_01_A_b.gif","images/stimuli/spore_stims/simple_01_B_b.gif","","","","","6","simple_similar","images/stimuli/spore_stims/simple_01_B_b.gif","middle","","","","",""
"","null","html-keyboard-response","128","469386","0.0-26.0-0.6","SS1613138866427","","","null","","","","","<p><img src= images/blank.png width =""200"" height = ""200"" style = ""float:right""></p><p><img src=images/blank.png width =""800"" height = ""200""></p>","","","","","","","","","","","",""
"","2429.900000017369","sequential-stimulus-presentation","129","472624","0.0-26.0-1.6","SS1613138866427","trial","","40","800","3229.900000017369","images/stimuli/spore_stims/simple_01_A_b.gif","images/stimuli/spore_stims/simple_01_B_b.gif","","","","","6","simple_similar","images/stimuli/spore_stims/simple_01_A_b.gif","left","","","","",""
"","null","html-keyboard-response","130","473449","0.0-26.0-0.7","SS1613138866427","","","null","","","","","<p><img src= images/blank.png width =""200"" height = ""200"" style = ""float:right""></p><p><img src=images/blank.png width =""800"" height = ""200""></p>","","","","","","","","","","","",""
"","2386.5200000000186","sequential-stimulus-presentation","131","476647","0.0-26.0-1.7","SS1613138866427","trial","","40","800","3186.5200000000186","images/stimuli/spore_stims/simple_01_A_b.gif","images/stimuli/spore_stims/simple_01_B_b.gif","","","","","6","simple_similar","images/stimuli/spore_stims/simple_01_B_b.gif","middle","","","","",""
"","1985.1099999796133","html-keyboard-response","132","478639","0.0-27.0","SS1613138866427","pref_question","","49","","","","","<video width ='960' height = '540' style='padding-top:8%' autoplay muted><source src='images/stimuli/wall_pref.mp4' type='video/mp4'></video>","1","left","25%","6","","","","","","","",""
"","3147.880000004079","sequential-stimulus-presentation","133","482600","0.0-28.0","SS1613138866427","pref_reveal","","40","800","3947.880000004079","null","null","","","","","6","","","","deviant","","","",""
"","null","html-keyboard-response","134","483913","0.0-29.0-0.0","SS1613138866427","","","null","","","","","<p><img src= images/blank.png width =""200"" height = ""200"" style = ""float:right""></p><p><img src=images/blank.png width =""800"" height = ""200""></p>","","","","","","","","","","","",""
"","5664.080000016838","sequential-stimulus-presentation","135","490385","0.0-29.0-1.0","SS1613138866427","trial","","40","800","6464.080000016838","images/stimuli/spore_stims/complex_20_A_b.gif","images/stimuli/spore_stims/complex_03_B_c.gif","","","","","7","complex_dissimilar","images/stimuli/spore_stims/complex_03_B_c.gif","middle","","","","",""
"","null","html-keyboard-response","136","491611","0.0-29.0-0.1","SS1613138866427","","","null","","","","","<p><img src= images/blank.png width =""200"" height = ""200"" style = ""float:right""></p><p><img src=images/blank.png width =""800"" height = ""200""></p>","","","","","","","","","","","",""
"","2128.039999981411","sequential-stimulus-presentation","137","494552","0.0-29.0-1.1","SS1613138866427","trial","","40","800","2928.039999981411","images/stimuli/spore_stims/complex_20_A_b.gif","images/stimuli/spore_stims/complex_03_B_c.gif","","","","","7","complex_dissimilar","images/stimuli/spore_stims/complex_03_B_c.gif","middle","","","","",""
"","null","html-keyboard-response","138","495471","0.0-29.0-0.2","SS1613138866427","","","null","","","","","<p><img src= images/blank.png width =""200"" height = ""200"" style = ""float:right""></p><p><img src=images/blank.png width =""800"" height = ""200""></p>","","","","","","","","","","","",""
"","1186.2200000032317","sequential-stimulus-presentation","139","497472","0.0-29.0-1.2","SS1613138866427","trial","","40","800","1986.2200000032317","images/stimuli/spore_stims/complex_20_A_b.gif","images/stimuli/spore_stims/complex_03_B_c.gif","","","","","7","complex_dissimilar","images/stimuli/spore_stims/complex_03_B_c.gif","middle","","","","",""
"","null","html-keyboard-response","140","498344","0.0-29.0-0.3","SS1613138866427","","","null","","","","","<p><img src= images/blank.png width =""200"" height = ""200"" style = ""float:right""></p><p><img src=images/blank.png width =""800"" height = ""200""></p>","","","","","","","","","","","",""
"","1800.054999999702","sequential-stimulus-presentation","141","500952","0.0-29.0-1.3","SS1613138866427","trial","","40","800","2600.054999999702","images/stimuli/spore_stims/complex_20_A_b.gif","images/stimuli/spore_stims/complex_03_B_c.gif","","","","","7","complex_dissimilar","images/stimuli/spore_stims/complex_03_B_c.gif","middle","","","","",""
"","null","html-keyboard-response","142","502215","0.0-29.0-0.4","SS1613138866427","","","null","","","","","<p><img src= images/blank.png width =""200"" height = ""200"" style = ""float:right""></p><p><img src=images/blank.png width =""800"" height = ""200""></p>","","","","","","","","","","","",""
"","1711.2049999996088","sequential-stimulus-presentation","143","504752","0.0-29.0-1.4","SS1613138866427","trial","","40","800","2511.204999999609","images/stimuli/spore_stims/complex_20_A_b.gif","images/stimuli/spore_stims/complex_03_B_c.gif","","","","","7","complex_dissimilar","images/stimuli/spore_stims/complex_20_A_b.gif","left","","","","",""
"","null","html-keyboard-response","144","505596","0.0-29.0-0.5","SS1613138866427","","","null","","","","","<p><img src= images/blank.png width =""200"" height = ""200"" style = ""float:right""></p><p><img src=images/blank.png width =""800"" height = ""200""></p>","","","","","","","","","","","",""
"","1493.5050000203773","sequential-stimulus-presentation","145","507912","0.0-29.0-1.5","SS1613138866427","trial","","40","800","2293.5050000203773","images/stimuli/spore_stims/complex_20_A_b.gif","images/stimuli/spore_stims/complex_03_B_c.gif","","","","","7","complex_dissimilar","images/stimuli/spore_stims/complex_03_B_c.gif","middle","","","","",""
"","null","html-keyboard-response","146","509036","0.0-29.0-0.6","SS1613138866427","","","null","","","","","<p><img src= images/blank.png width =""200"" height = ""200"" style = ""float:right""></p><p><img src=images/blank.png width =""800"" height = ""200""></p>","","","","","","","","","","","",""
"","1085.9599999967031","sequential-stimulus-presentation","147","510944","0.0-29.0-1.6","SS1613138866427","trial","","40","800","1885.9599999967031","images/stimuli/spore_stims/complex_20_A_b.gif","images/stimuli/spore_stims/complex_03_B_c.gif","","","","","7","complex_dissimilar","images/stimuli/spore_stims/complex_03_B_c.gif","middle","","","","",""
"","null","html-keyboard-response","148","512056","0.0-29.0-0.7","SS1613138866427","","","null","","","","","<p><img src= images/blank.png width =""200"" height = ""200"" style = ""float:right""></p><p><img src=images/blank.png width =""800"" height = ""200""></p>","","","","","","","","","","","",""
"","1230.619999987539","sequential-stimulus-presentation","149","514097","0.0-29.0-1.7","SS1613138866427","trial","","40","800","2030.619999987539","images/stimuli/spore_stims/complex_20_A_b.gif","images/stimuli/spore_stims/complex_03_B_c.gif","","","","","7","complex_dissimilar","images/stimuli/spore_stims/complex_03_B_c.gif","middle","","","","",""
"","1663.9349999895785","html-keyboard-response","150","515768","0.0-30.0","SS1613138866427","pref_question","","49","","","","","<video width ='960' height = '540' style='padding-top:8%' autoplay muted><source src='images/stimuli/wall_pref.mp4' type='video/mp4'></video>","1","left","25%","7","","","","","","","",""
"","4950.530000001891","sequential-stimulus-presentation","151","521528","0.0-31.0","SS1613138866427","pref_reveal","","40","800","5750.530000001891","null","null","","","","","7","","","","deviant","","","",""
"","null","html-keyboard-response","152","522787","0.0-32.0-0.0","SS1613138866427","","","null","","","","","<p><img src= images/blank.png width =""200"" height = ""200"" style = ""float:right""></p><p><img src=images/blank.png width =""800"" height = ""200""></p>","","","","","","","","","","","",""
"","1516.8399999965914","sequential-stimulus-presentation","153","525114","0.0-32.0-1.0","SS1613138866427","trial","","40","800","2316.8399999965914","images/stimuli/spore_stims/complex_15_A_b.gif","images/stimuli/spore_stims/complex_15_B_b.gif","","","","","8","complex_similar","images/stimuli/spore_stims/complex_15_B_b.gif","left","","","","",""
"","null","html-keyboard-response","154","526182","0.0-32.0-0.1","SS1613138866427","","","null","","","","","<p><img src= images/blank.png width =""200"" height = ""200"" style = ""float:right""></p><p><img src=images/blank.png width =""800"" height = ""200""></p>","","","","","","","","","","","",""
"","1192.3899999819696","sequential-stimulus-presentation","155","528184","0.0-32.0-1.1","SS1613138866427","trial","","40","800","1992.3899999819696","images/stimuli/spore_stims/complex_15_A_b.gif","images/stimuli/spore_stims/complex_15_B_b.gif","","","","","8","complex_similar","images/stimuli/spore_stims/complex_15_B_b.gif","left","","","","",""
"","null","html-keyboard-response","156","529274","0.0-32.0-0.2","SS1613138866427","","","null","","","","","<p><img src= images/blank.png width =""200"" height = ""200"" style = ""float:right""></p><p><img src=images/blank.png width =""800"" height = ""200""></p>","","","","","","","","","","","",""
"","423.8150000164751","sequential-stimulus-presentation","157","530521","0.0-32.0-1.2","SS1613138866427","trial","","40","800","1223.815000016475","images/stimuli/spore_stims/complex_15_A_b.gif","images/stimuli/spore_stims/complex_15_B_b.gif","","","","","8","complex_similar","images/stimuli/spore_stims/complex_15_B_b.gif","left","","","","",""
"","null","html-keyboard-response","158","531423","0.0-32.0-0.3","SS1613138866427","","","null","","","","","<p><img src= images/blank.png width =""200"" height = ""200"" style = ""float:right""></p><p><img src=images/blank.png width =""800"" height = ""200""></p>","","","","","","","","","","","",""
"","933.0000000190921","sequential-stimulus-presentation","159","533169","0.0-32.0-1.3","SS1613138866427","trial","","40","800","1733.000000019092","images/stimuli/spore_stims/complex_15_A_b.gif","images/stimuli/spore_stims/complex_15_B_b.gif","","","","","8","complex_similar","images/stimuli/spore_stims/complex_15_B_b.gif","left","","","","",""
"","null","html-keyboard-response","160","534143","0.0-32.0-0.4","SS1613138866427","","","null","","","","","<p><img src= images/blank.png width =""200"" height = ""200"" style = ""float:right""></p><p><img src=images/blank.png width =""800"" height = ""200""></p>","","","","","","","","","","","",""
"","439.17500000679865","sequential-stimulus-presentation","161","535394","0.0-32.0-1.4","SS1613138866427","trial","","40","800","1239.1750000067987","images/stimuli/spore_stims/complex_15_A_b.gif","images/stimuli/spore_stims/complex_15_B_b.gif","","","","","8","complex_similar","images/stimuli/spore_stims/complex_15_B_b.gif","left","","","","",""
"","null","html-keyboard-response","162","536414","0.0-32.0-0.5","SS1613138866427","","","null","","","","","<p><img src= images/blank.png width =""200"" height = ""200"" style = ""float:right""></p><p><img src=images/blank.png width =""800"" height = ""200""></p>","","","","","","","","","","","",""
"","876.9150000007357","sequential-stimulus-presentation","163","538105","0.0-32.0-1.5","SS1613138866427","trial","","40","800","1676.9150000007357","images/stimuli/spore_stims/complex_15_A_b.gif","images/stimuli/spore_stims/complex_15_B_b.gif","","","","","8","complex_similar","images/stimuli/spore_stims/complex_15_B_b.gif","left","","","","",""
"","null","html-keyboard-response","164","539085","0.0-32.0-0.6","SS1613138866427","","","null","","","","","<p><img src= images/blank.png width =""200"" height = ""200"" style = ""float:right""></p><p><img src=images/blank.png width =""800"" height = ""200""></p>","","","","","","","","","","","",""
"","3380.9849999961443","sequential-stimulus-presentation","165","543281","0.0-32.0-1.6","SS1613138866427","trial","","40","800","4180.984999996144","images/stimuli/spore_stims/complex_15_A_b.gif","images/stimuli/spore_stims/complex_15_B_b.gif","","","","","8","complex_similar","images/stimuli/spore_stims/complex_15_A_b.gif","right","","","","",""
"","null","html-keyboard-response","166","544188","0.0-32.0-0.7","SS1613138866427","","","null","","","","","<p><img src= images/blank.png width =""200"" height = ""200"" style = ""float:right""></p><p><img src=images/blank.png width =""800"" height = ""200""></p>","","","","","","","","","","","",""
"","1996.9599999894854","sequential-stimulus-presentation","167","546994","0.0-32.0-1.7","SS1613138866427","trial","","40","800","2796.9599999894854","images/stimuli/spore_stims/complex_15_A_b.gif","images/stimuli/spore_stims/complex_15_B_b.gif","","","","","8","complex_similar","images/stimuli/spore_stims/complex_15_B_b.gif","left","","","","",""
"","1816.755000007106","html-keyboard-response","168","548817","0.0-33.0","SS1613138866427","pref_question","","50","","","","","<video width ='960' height = '540' style='padding-top:8%' autoplay muted><source src='images/stimuli/wall_pref.mp4' type='video/mp4'></video>","2","middle","45%","8","","","","","","","",""
"","3962.919999990845","sequential-stimulus-presentation","169","553601","0.0-34.0","SS1613138866427","pref_reveal","","40","800","4762.919999990845","null","null","","","","","8","","","","novel","","","",""
"","null","html-keyboard-response","170","554608","0.0-35.0-0.0","SS1613138866427","","","null","","","","","<p><img src= images/blank.png width =""200"" height = ""200"" style = ""float:right""></p><p><img src=images/blank.png width =""800"" height = ""200""></p>","","","","","","","","","","","",""
"","2999.0249999973457","sequential-stimulus-presentation","171","558418","0.0-35.0-1.0","SS1613138866427","trial","","40","800","3799.0249999973457","images/stimuli/spore_stims/complex_18_B_c.gif","images/stimuli/spore_stims/complex_11_B_b.gif","","","","","9","complex_dissimilar","images/stimuli/spore_stims/complex_11_B_b.gif","middle","","","","",""
"","null","html-keyboard-response","172","559307","0.0-35.0-0.1","SS1613138866427","","","null","","","","","<p><img src= images/blank.png width =""200"" height = ""200"" style = ""float:right""></p><p><img src=images/blank.png width =""800"" height = ""200""></p>","","","","","","","","","","","",""
"","2358.60499998671","sequential-stimulus-presentation","173","562489","0.0-35.0-1.1","SS1613138866427","trial","","40","800","3158.60499998671","images/stimuli/spore_stims/complex_18_B_c.gif","images/stimuli/spore_stims/complex_11_B_b.gif","","","","","9","complex_dissimilar","images/stimuli/spore_stims/complex_11_B_b.gif","middle","","","","",""
"","null","html-keyboard-response","174","563707","0.0-35.0-0.2","SS1613138866427","","","null","","","","","<p><img src= images/blank.png width =""200"" height = ""200"" style = ""float:right""></p><p><img src=images/blank.png width =""800"" height = ""200""></p>","","","","","","","","","","","",""
"","3235.565000009956","sequential-stimulus-presentation","175","567753","0.0-35.0-1.2","SS1613138866427","trial","","40","800","4035.565000009956","images/stimuli/spore_stims/complex_18_B_c.gif","images/stimuli/spore_stims/complex_11_B_b.gif","","","","","9","complex_dissimilar","images/stimuli/spore_stims/complex_18_B_c.gif","left","","","","",""
"","null","html-keyboard-response","176","568895","0.0-35.0-0.3","SS1613138866427","","","null","","","","","<p><img src= images/blank.png width =""200"" height = ""200"" style = ""float:right""></p><p><img src=images/blank.png width =""800"" height = ""200""></p>","","","","","","","","","","","",""
"","1623.6450000142213","sequential-stimulus-presentation","177","571330","0.0-35.0-1.3","SS1613138866427","trial","","40","800","2423.6450000142213","images/stimuli/spore_stims/complex_18_B_c.gif","images/stimuli/spore_stims/complex_11_B_b.gif","","","","","9","complex_dissimilar","images/stimuli/spore_stims/complex_11_B_b.gif","middle","","","","",""
"","null","html-keyboard-response","178","572381","0.0-35.0-0.4","SS1613138866427","","","null","","","","","<p><img src= images/blank.png width =""200"" height = ""200"" style = ""float:right""></p><p><img src=images/blank.png width =""800"" height = ""200""></p>","","","","","","","","","","","",""
"","790.3949999890756","sequential-stimulus-presentation","179","573993","0.0-35.0-1.4","SS1613138866427","trial","","40","800","1590.3949999890756","images/stimuli/spore_stims/complex_18_B_c.gif","images/stimuli/spore_stims/complex_11_B_b.gif","","","","","9","complex_dissimilar","images/stimuli/spore_stims/complex_11_B_b.gif","middle","","","","",""
"","null","html-keyboard-response","180","574949","0.0-35.0-0.5","SS1613138866427","","","null","","","","","<p><img src= images/blank.png width =""200"" height = ""200"" style = ""float:right""></p><p><img src=images/blank.png width =""800"" height = ""200""></p>","","","","","","","","","","","",""
"","400.8650000032503","sequential-stimulus-presentation","181","576162","0.0-35.0-1.5","SS1613138866427","trial","","40","800","1200.8650000032503","images/stimuli/spore_stims/complex_18_B_c.gif","images/stimuli/spore_stims/complex_11_B_b.gif","","","","","9","complex_dissimilar","images/stimuli/spore_stims/complex_11_B_b.gif","middle","","","","",""
"","null","html-keyboard-response","182","577457","0.0-35.0-0.6","SS1613138866427","","","null","","","","","<p><img src= images/blank.png width =""200"" height = ""200"" style = ""float:right""></p><p><img src=images/blank.png width =""800"" height = ""200""></p>","","","","","","","","","","","",""
"","376.7550000047777","sequential-stimulus-presentation","183","578658","0.0-35.0-1.6","SS1613138866427","trial","","40","800","1176.7550000047777","images/stimuli/spore_stims/complex_18_B_c.gif","images/stimuli/spore_stims/complex_11_B_b.gif","","","","","9","complex_dissimilar","images/stimuli/spore_stims/complex_11_B_b.gif","middle","","","","",""
"","null","html-keyboard-response","184","579617","0.0-35.0-0.7","SS1613138866427","","","null","","","","","<p><img src= images/blank.png width =""200"" height = ""200"" style = ""float:right""></p><p><img src=images/blank.png width =""800"" height = ""200""></p>","","","","","","","","","","","",""
"","405.3750000020955","sequential-stimulus-presentation","185","580834","0.0-35.0-1.7","SS1613138866427","trial","","40","800","1205.3750000020955","images/stimuli/spore_stims/complex_18_B_c.gif","images/stimuli/spore_stims/complex_11_B_b.gif","","","","","9","complex_dissimilar","images/stimuli/spore_stims/complex_11_B_b.gif","middle","","","","",""
"","1624.8299999861047","html-keyboard-response","186","582467","0.0-36.0","SS1613138866427","pref_question","","51","","","","","<video width ='960' height = '540' style='padding-top:8%' autoplay muted><source src='images/stimuli/wall_pref.mp4' type='video/mp4'></video>","3","right","66%","9","","","","","","","",""
"","3630.0650000048336","sequential-stimulus-presentation","187","586906","0.0-37.0","SS1613138866427","pref_reveal","","40","800","4430.065000004834","null","null","","","","","9","","","","novel","","","",""
"","null","html-keyboard-response","188","587811","0.0-38.0-0.0","SS1613138866427","","","null","","","","","<p><img src= images/blank.png width =""200"" height = ""200"" style = ""float:right""></p><p><img src=images/blank.png width =""800"" height = ""200""></p>","","","","","","","","","","","",""
"","4627.030000003288","sequential-stimulus-presentation","189","593259","0.0-38.0-1.0","SS1613138866427","trial","","40","800","5427.030000003288","images/stimuli/spore_stims/complex_05_B_b.gif","images/stimuli/spore_stims/complex_14_B_a.gif","","","","","10","complex_dissimilar","images/stimuli/spore_stims/complex_14_B_a.gif","left","","","","",""
"","null","html-keyboard-response","190","594285","0.0-38.0-0.1","SS1613138866427","","","null","","","","","<p><img src= images/blank.png width =""200"" height = ""200"" style = ""float:right""></p><p><img src=images/blank.png width =""800"" height = ""200""></p>","","","","","","","","","","","",""
"","4547.970000014175","sequential-stimulus-presentation","191","599658","0.0-38.0-1.1","SS1613138866427","trial","","40","800","5347.970000014175","images/stimuli/spore_stims/complex_05_B_b.gif","images/stimuli/spore_stims/complex_14_B_a.gif","","","","","10","complex_dissimilar","images/stimuli/spore_stims/complex_14_B_a.gif","left","","","","",""
"","null","html-keyboard-response","192","600951","0.0-38.0-0.2","SS1613138866427","","","null","","","","","<p><img src= images/blank.png width =""200"" height = ""200"" style = ""float:right""></p><p><img src=images/blank.png width =""800"" height = ""200""></p>","","","","","","","","","","","",""
"","3227.3649999988265","sequential-stimulus-presentation","193","604987","0.0-38.0-1.2","SS1613138866427","trial","","40","800","4027.3649999988265","images/stimuli/spore_stims/complex_05_B_b.gif","images/stimuli/spore_stims/complex_14_B_a.gif","","","","","10","complex_dissimilar","images/stimuli/spore_stims/complex_14_B_a.gif","left","","","","",""
"","null","html-keyboard-response","194","606118","0.0-38.0-0.3","SS1613138866427","","","null","","","","","<p><img src= images/blank.png width =""200"" height = ""200"" style = ""float:right""></p><p><img src=images/blank.png width =""800"" height = ""200""></p>","","","","","","","","","","","",""
"","4177.965000009863","sequential-stimulus-presentation","195","611107","0.0-38.0-1.3","SS1613138866427","trial","","40","800","4977.965000009863","images/stimuli/spore_stims/complex_05_B_b.gif","images/stimuli/spore_stims/complex_14_B_a.gif","","","","","10","complex_dissimilar","images/stimuli/spore_stims/complex_05_B_b.gif","right","","","","",""
"","null","html-keyboard-response","196","611932","0.0-38.0-0.4","SS1613138866427","","","null","","","","","<p><img src= images/blank.png width =""200"" height = ""200"" style = ""float:right""></p><p><img src=images/blank.png width =""800"" height = ""200""></p>","","","","","","","","","","","",""
"","1442.990000010468","sequential-stimulus-presentation","197","614186","0.0-38.0-1.4","SS1613138866427","trial","","40","800","2242.990000010468","images/stimuli/spore_stims/complex_05_B_b.gif","images/stimuli/spore_stims/complex_14_B_a.gif","","","","","10","complex_dissimilar","images/stimuli/spore_stims/complex_14_B_a.gif","left","","","","",""
"","null","html-keyboard-response","198","615237","0.0-38.0-0.5","SS1613138866427","","","null","","","","","<p><img src= images/blank.png width =""200"" height = ""200"" style = ""float:right""></p><p><img src=images/blank.png width =""800"" height = ""200""></p>","","","","","","","","","","","",""
"","485.5749999987893","sequential-stimulus-presentation","199","616531","0.0-38.0-1.5","SS1613138866427","trial","","40","800","1285.5749999987893","images/stimuli/spore_stims/complex_05_B_b.gif","images/stimuli/spore_stims/complex_14_B_a.gif","","","","","10","complex_dissimilar","images/stimuli/spore_stims/complex_14_B_a.gif","left","","","","",""
"","null","html-keyboard-response","200","617712","0.0-38.0-0.6","SS1613138866427","","","null","","","","","<p><img src= images/blank.png width =""200"" height = ""200"" style = ""float:right""></p><p><img src=images/blank.png width =""800"" height = ""200""></p>","","","","","","","","","","","",""
"","391.04499999666587","sequential-stimulus-presentation","201","618915","0.0-38.0-1.6","SS1613138866427","trial","","40","800","1191.0449999966659","images/stimuli/spore_stims/complex_05_B_b.gif","images/stimuli/spore_stims/complex_14_B_a.gif","","","","","10","complex_dissimilar","images/stimuli/spore_stims/complex_14_B_a.gif","left","","","","",""
"","null","html-keyboard-response","202","620180","0.0-38.0-0.7","SS1613138866427","","","null","","","","","<p><img src= images/blank.png width =""200"" height = ""200"" style = ""float:right""></p><p><img src=images/blank.png width =""800"" height = ""200""></p>","","","","","","","","","","","",""
"","418.760000000475","sequential-stimulus-presentation","203","621411","0.0-38.0-1.7","SS1613138866427","trial","","40","800","1218.760000000475","images/stimuli/spore_stims/complex_05_B_b.gif","images/stimuli/spore_stims/complex_14_B_a.gif","","","","","10","complex_dissimilar","images/stimuli/spore_stims/complex_14_B_a.gif","left","","","","",""
"","1511.190000019269","html-keyboard-response","204","622931","0.0-39.0","SS1613138866427","pref_question","","50","","","","","<video width ='960' height = '540' style='padding-top:8%' autoplay muted><source src='images/stimuli/wall_pref.mp4' type='video/mp4'></video>","2","middle","45%","10","","","","","","","",""
"","2231.7199999815784","sequential-stimulus-presentation","205","625971","0.0-40.0","SS1613138866427","pref_reveal","","40","800","3031.7199999815784","null","null","","","","","10","","","","novel","","","",""
"","null","html-keyboard-response","206","627276","0.0-41.0-0.0","SS1613138866427","","","null","","","","","<p><img src= images/blank.png width =""200"" height = ""200"" style = ""float:right""></p><p><img src=images/blank.png width =""800"" height = ""200""></p>","","","","","","","","","","","",""
"","803.474999993341","sequential-stimulus-presentation","207","628900","0.0-41.0-1.0","SS1613138866427","trial","","40","800","1603.474999993341","images/stimuli/spore_stims/complex_05_A_d.gif","images/stimuli/spore_stims/complex_01_B_a.gif","","","","","11","complex_dissimilar","images/stimuli/spore_stims/complex_01_B_a.gif","right","","","","",""
"","null","html-keyboard-response","208","630200","0.0-41.0-0.1","SS1613138866427","","","null","","","","","<p><img src= images/blank.png width =""200"" height = ""200"" style = ""float:right""></p><p><img src=images/blank.png width =""800"" height = ""200""></p>","","","","","","","","","","","",""
"","519.9900000006892","sequential-stimulus-presentation","209","631531","0.0-41.0-1.1","SS1613138866427","trial","","40","800","1319.9900000006892","images/stimuli/spore_stims/complex_05_A_d.gif","images/stimuli/spore_stims/complex_01_B_a.gif","","","","","11","complex_dissimilar","images/stimuli/spore_stims/complex_01_B_a.gif","right","","","","",""
"","null","html-keyboard-response","210","632754","0.0-41.0-0.2","SS1613138866427","","","null","","","","","<p><img src= images/blank.png width =""200"" height = ""200"" style = ""float:right""></p><p><img src=images/blank.png width =""800"" height = ""200""></p>","","","","","","","","","","","",""
"","961.8650000193156","sequential-stimulus-presentation","211","634531","0.0-41.0-1.2","SS1613138866427","trial","","40","800","1761.8650000193156","images/stimuli/spore_stims/complex_05_A_d.gif","images/stimuli/spore_stims/complex_01_B_a.gif","","","","","11","complex_dissimilar","images/stimuli/spore_stims/complex_05_A_d.gif","left","","","","",""
"","null","html-keyboard-response","212","635601","0.0-41.0-0.3","SS1613138866427","","","null","","","","","<p><img src= images/blank.png width =""200"" height = ""200"" style = ""float:right""></p><p><img src=images/blank.png width =""800"" height = ""200""></p>","","","","","","","","","","","",""
"","982.1650000230875","sequential-stimulus-presentation","213","637403","0.0-41.0-1.3","SS1613138866427","trial","","40","800","1782.1650000230875","images/stimuli/spore_stims/complex_05_A_d.gif","images/stimuli/spore_stims/complex_01_B_a.gif","","","","","11","complex_dissimilar","images/stimuli/spore_stims/complex_01_B_a.gif","right","","","","",""
"","null","html-keyboard-response","214","638424","0.0-41.0-0.4","SS1613138866427","","","null","","","","","<p><img src= images/blank.png width =""200"" height = ""200"" style = ""float:right""></p><p><img src=images/blank.png width =""800"" height = ""200""></p>","","","","","","","","","","","",""
"","864.2850000178441","sequential-stimulus-presentation","215","640101","0.0-41.0-1.4","SS1613138866427","trial","","40","800","1664.2850000178441","images/stimuli/spore_stims/complex_05_A_d.gif","images/stimuli/spore_stims/complex_01_B_a.gif","","","","","11","complex_dissimilar","images/stimuli/spore_stims/complex_01_B_a.gif","right","","","","",""
"","null","html-keyboard-response","216","640978","0.0-41.0-0.5","SS1613138866427","","","null","","","","","<p><img src= images/blank.png width =""200"" height = ""200"" style = ""float:right""></p><p><img src=images/blank.png width =""800"" height = ""200""></p>","","","","","","","","","","","",""
"","899.4550000061281","sequential-stimulus-presentation","217","642699","0.0-41.0-1.5","SS1613138866427","trial","","40","800","1699.455000006128","images/stimuli/spore_stims/complex_05_A_d.gif","images/stimuli/spore_stims/complex_01_B_a.gif","","","","","11","complex_dissimilar","images/stimuli/spore_stims/complex_01_B_a.gif","right","","","","",""
"","null","html-keyboard-response","218","643542","0.0-41.0-0.6","SS1613138866427","","","null","","","","","<p><img src= images/blank.png width =""200"" height = ""200"" style = ""float:right""></p><p><img src=images/blank.png width =""800"" height = ""200""></p>","","","","","","","","","","","",""
"","748.0999999970663","sequential-stimulus-presentation","219","645099","0.0-41.0-1.6","SS1613138866427","trial","","40","800","1548.0999999970663","images/stimuli/spore_stims/complex_05_A_d.gif","images/stimuli/spore_stims/complex_01_B_a.gif","","","","","11","complex_dissimilar","images/stimuli/spore_stims/complex_01_B_a.gif","right","","","","",""
"","null","html-keyboard-response","220","646028","0.0-41.0-0.7","SS1613138866427","","","null","","","","","<p><img src= images/blank.png width =""200"" height = ""200"" style = ""float:right""></p><p><img src=images/blank.png width =""800"" height = ""200""></p>","","","","","","","","","","","",""
"","506.15500001003966","sequential-stimulus-presentation","221","647347","0.0-41.0-1.7","SS1613138866427","trial","","40","800","1306.1550000100397","images/stimuli/spore_stims/complex_05_A_d.gif","images/stimuli/spore_stims/complex_01_B_a.gif","","","","","11","complex_dissimilar","images/stimuli/spore_stims/complex_01_B_a.gif","right","","","","",""
"","2015.1749999786261","html-keyboard-response","222","649371","0.0-42.0","SS1613138866427","pref_question","","50","","","","","<video width ='960' height = '540' style='padding-top:8%' autoplay muted><source src='images/stimuli/wall_pref.mp4' type='video/mp4'></video>","2","middle","45%","11","","","","","","","",""
"","1665.2450000110548","sequential-stimulus-presentation","223","651852","0.0-43.0","SS1613138866427","pref_reveal","","40","800","2465.245000011055","null","null","","","","","11","","","","novel","","","",""
"","null","html-keyboard-response","224","652732","0.0-44.0-0.0","SS1613138866427","","","null","","","","","<p><img src= images/blank.png width =""200"" height = ""200"" style = ""float:right""></p><p><img src=images/blank.png width =""800"" height = ""200""></p>","","","","","","","","","","","",""
"","2528.6849999974947","sequential-stimulus-presentation","225","656084","0.0-44.0-1.0","SS1613138866427","trial","","40","800","3328.6849999974947","images/stimuli/spore_stims/complex_10_B_d.gif","images/stimuli/spore_stims/complex_10_A_d.gif","","","","","12","complex_similar","images/stimuli/spore_stims/complex_10_A_d.gif","right","","","","",""
"","null","html-keyboard-response","226","657206","0.0-44.0-0.1","SS1613138866427","","","null","","","","","<p><img src= images/blank.png width =""200"" height = ""200"" style = ""float:right""></p><p><img src=images/blank.png width =""800"" height = ""200""></p>","","","","","","","","","","","",""
"","1359.4250000023749","sequential-stimulus-presentation","227","659387","0.0-44.0-1.1","SS1613138866427","trial","","40","800","2159.425000002375","images/stimuli/spore_stims/complex_10_B_d.gif","images/stimuli/spore_stims/complex_10_A_d.gif","","","","","12","complex_similar","images/stimuli/spore_stims/complex_10_A_d.gif","right","","","","",""
"","null","html-keyboard-response","228","660331","0.0-44.0-0.2","SS1613138866427","","","null","","","","","<p><img src= images/blank.png width =""200"" height = ""200"" style = ""float:right""></p><p><img src=images/blank.png width =""800"" height = ""200""></p>","","","","","","","","","","","",""
"","1144.4849999970756","sequential-stimulus-presentation","229","662299","0.0-44.0-1.2","SS1613138866427","trial","","40","800","1944.4849999970756","images/stimuli/spore_stims/complex_10_B_d.gif","images/stimuli/spore_stims/complex_10_A_d.gif","","","","","12","complex_similar","images/stimuli/spore_stims/complex_10_A_d.gif","right","","","","",""
"","null","html-keyboard-response","230","663242","0.0-44.0-0.3","SS1613138866427","","","null","","","","","<p><img src= images/blank.png width =""200"" height = ""200"" style = ""float:right""></p><p><img src=images/blank.png width =""800"" height = ""200""></p>","","","","","","","","","","","",""
"","929.3949999846518","sequential-stimulus-presentation","231","664996","0.0-44.0-1.3","SS1613138866427","trial","","40","800","1729.3949999846518","images/stimuli/spore_stims/complex_10_B_d.gif","images/stimuli/spore_stims/complex_10_A_d.gif","","","","","12","complex_similar","images/stimuli/spore_stims/complex_10_A_d.gif","right","","","","",""
"","null","html-keyboard-response","232","665864","0.0-44.0-0.4","SS1613138866427","","","null","","","","","<p><img src= images/blank.png width =""200"" height = ""200"" style = ""float:right""></p><p><img src=images/blank.png width =""800"" height = ""200""></p>","","","","","","","","","","","",""
"","922.5099999748636","sequential-stimulus-presentation","233","667604","0.0-44.0-1.4","SS1613138866427","trial","","40","800","1722.5099999748636","images/stimuli/spore_stims/complex_10_B_d.gif","images/stimuli/spore_stims/complex_10_A_d.gif","","","","","12","complex_similar","images/stimuli/spore_stims/complex_10_B_d.gif","left","","","","",""
"","null","html-keyboard-response","234","668469","0.0-44.0-0.5","SS1613138866427","","","null","","","","","<p><img src= images/blank.png width =""200"" height = ""200"" style = ""float:right""></p><p><img src=images/blank.png width =""800"" height = ""200""></p>","","","","","","","","","","","",""
"","811.1649999918882","sequential-stimulus-presentation","235","670091","0.0-44.0-1.5","SS1613138866427","trial","","40","800","1611.1649999918882","images/stimuli/spore_stims/complex_10_B_d.gif","images/stimuli/spore_stims/complex_10_A_d.gif","","","","","12","complex_similar","images/stimuli/spore_stims/complex_10_A_d.gif","right","","","","",""
"","null","html-keyboard-response","236","671208","0.0-44.0-0.6","SS1613138866427","","","null","","","","","<p><img src= images/blank.png width =""200"" height = ""200"" style = ""float:right""></p><p><img src=images/blank.png width =""800"" height = ""200""></p>","","","","","","","","","","","",""
"","1884.8149999976158","sequential-stimulus-presentation","237","673917","0.0-44.0-1.6","SS1613138866427","trial","","40","800","2684.814999997616","images/stimuli/spore_stims/complex_10_B_d.gif","images/stimuli/spore_stims/complex_10_A_d.gif","","","","","12","complex_similar","images/stimuli/spore_stims/complex_10_A_d.gif","right","","","","",""
"","null","html-keyboard-response","238","674870","0.0-44.0-0.7","SS1613138866427","","","null","","","","","<p><img src= images/blank.png width =""200"" height = ""200"" style = ""float:right""></p><p><img src=images/blank.png width =""800"" height = ""200""></p>","","","","","","","","","","","",""
"","1148.9249999867752","sequential-stimulus-presentation","239","676836","0.0-44.0-1.7","SS1613138866427","trial","","40","800","1948.9249999867752","images/stimuli/spore_stims/complex_10_B_d.gif","images/stimuli/spore_stims/complex_10_A_d.gif","","","","","12","complex_similar","images/stimuli/spore_stims/complex_10_A_d.gif","right","","","","",""
"","1726.1599999910686","html-keyboard-response","240","678572","0.0-45.0","SS1613138866427","pref_question","","49","","","","","<video width ='960' height = '540' style='padding-top:8%' autoplay muted><source src='images/stimuli/wall_pref.mp4' type='video/mp4'></video>","1","left","25%","12","","","","","","","",""
"","1786.9850000133738","sequential-stimulus-presentation","241","681180","0.0-46.0","SS1613138866427","pref_reveal","","40","800","2586.985000013374","null","null","","","","","12","","","","deviant","","","",""
"","null","html-keyboard-response","242","682177","0.0-47.0-0.0","SS1613138866427","","","null","","","","","<p><img src= images/blank.png width =""200"" height = ""200"" style = ""float:right""></p><p><img src=images/blank.png width =""800"" height = ""200""></p>","","","","","","","","","","","",""
"","986.5400000126101","sequential-stimulus-presentation","243","683973","0.0-47.0-1.0","SS1613138866427","trial","","40","800","1786.54000001261","images/stimuli/spore_stims/complex_16_A_b.gif","images/stimuli/spore_stims/complex_16_B_b.gif","","","","","13","complex_similar","images/stimuli/spore_stims/complex_16_B_b.gif","left","","","","",""
"","null","html-keyboard-response","244","684805","0.0-47.0-0.1","SS1613138866427","","","null","","","","","<p><img src= images/blank.png width =""200"" height = ""200"" style = ""float:right""></p><p><img src=images/blank.png width =""800"" height = ""200""></p>","","","","","","","","","","","",""
"","1229.9950000015087","sequential-stimulus-presentation","245","686860","0.0-47.0-1.1","SS1613138866427","trial","","40","800","2029.9950000015087","images/stimuli/spore_stims/complex_16_A_b.gif","images/stimuli/spore_stims/complex_16_B_b.gif","","","","","13","complex_similar","images/stimuli/spore_stims/complex_16_B_b.gif","left","","","","",""
"","null","html-keyboard-response","246","687933","0.0-47.0-0.2","SS1613138866427","","","null","","","","","<p><img src= images/blank.png width =""200"" height = ""200"" style = ""float:right""></p><p><img src=images/blank.png width =""800"" height = ""200""></p>","","","","","","","","","","","",""
"","1111.9900000048801","sequential-stimulus-presentation","247","689869","0.0-47.0-1.2","SS1613138866427","trial","","40","800","1911.9900000048801","images/stimuli/spore_stims/complex_16_A_b.gif","images/stimuli/spore_stims/complex_16_B_b.gif","","","","","13","complex_similar","images/stimuli/spore_stims/complex_16_B_b.gif","left","","","","",""
"","null","html-keyboard-response","248","691105","0.0-47.0-0.3","SS1613138866427","","","null","","","","","<p><img src= images/blank.png width =""200"" height = ""200"" style = ""float:right""></p><p><img src=images/blank.png width =""800"" height = ""200""></p>","","","","","","","","","","","",""
"","1575.3700000059325","sequential-stimulus-presentation","249","693501","0.0-47.0-1.3","SS1613138866427","trial","","40","800","2375.3700000059325","images/stimuli/spore_stims/complex_16_A_b.gif","images/stimuli/spore_stims/complex_16_B_b.gif","","","","","13","complex_similar","images/stimuli/spore_stims/complex_16_B_b.gif","left","","","","",""
"","null","html-keyboard-response","250","694349","0.0-47.0-0.4","SS1613138866427","","","null","","","","","<p><img src= images/blank.png width =""200"" height = ""200"" style = ""float:right""></p><p><img src=images/blank.png width =""800"" height = ""200""></p>","","","","","","","","","","","",""
"","1718.2249999896158","sequential-stimulus-presentation","251","696878","0.0-47.0-1.4","SS1613138866427","trial","","40","800","2518.2249999896158","images/stimuli/spore_stims/complex_16_A_b.gif","images/stimuli/spore_stims/complex_16_B_b.gif","","","","","13","complex_similar","images/stimuli/spore_stims/complex_16_B_b.gif","left","","","","",""
"","null","html-keyboard-response","252","697945","0.0-47.0-0.5","SS1613138866427","","","null","","","","","<p><img src= images/blank.png width =""200"" height = ""200"" style = ""float:right""></p><p><img src=images/blank.png width =""800"" height = ""200""></p>","","","","","","","","","","","",""
"","2875.9849999914877","sequential-stimulus-presentation","253","701646","0.0-47.0-1.5","SS1613138866427","trial","","40","800","3675.9849999914877","images/stimuli/spore_stims/complex_16_A_b.gif","images/stimuli/spore_stims/complex_16_B_b.gif","","","","","13","complex_similar","images/stimuli/spore_stims/complex_16_B_b.gif","left","","","","",""
"","null","html-keyboard-response","254","702770","0.0-47.0-0.6","SS1613138866427","","","null","","","","","<p><img src= images/blank.png width =""200"" height = ""200"" style = ""float:right""></p><p><img src=images/blank.png width =""800"" height = ""200""></p>","","","","","","","","","","","",""
"","5344.715000013821","sequential-stimulus-presentation","255","708926","0.0-47.0-1.6","SS1613138866427","trial","","40","800","6144.715000013821","images/stimuli/spore_stims/complex_16_A_b.gif","images/stimuli/spore_stims/complex_16_B_b.gif","","","","","13","complex_similar","images/stimuli/spore_stims/complex_16_B_b.gif","left","","","","",""
"","null","html-keyboard-response","256","710088","0.0-47.0-0.7","SS1613138866427","","","null","","","","","<p><img src= images/blank.png width =""200"" height = ""200"" style = ""float:right""></p><p><img src=images/blank.png width =""800"" height = ""200""></p>","","","","","","","","","","","",""
"","705.534999986412","sequential-stimulus-presentation","257","711605","0.0-47.0-1.7","SS1613138866427","trial","","40","800","1505.534999986412","images/stimuli/spore_stims/complex_16_A_b.gif","images/stimuli/spore_stims/complex_16_B_b.gif","","","","","13","complex_similar","images/stimuli/spore_stims/complex_16_A_b.gif","middle","","","","",""
"","3430.8449999953154","html-keyboard-response","258","715045","0.0-48.0","SS1613138866427","pref_question","","49","","","","","<video width ='960' height = '540' style='padding-top:8%' autoplay muted><source src='images/stimuli/wall_pref.mp4' type='video/mp4'></video>","1","left","25%","13","","","","","","","",""
"","1750.1549999869894","sequential-stimulus-presentation","259","717614","0.0-49.0","SS1613138866427","pref_reveal","","40","800","2550.1549999869894","null","null","","","","","13","","","","background","","","",""
"","null","html-keyboard-response","260","718838","0.0-50.0-0.0","SS1613138866427","","","null","","","","","<p><img src= images/blank.png width =""200"" height = ""200"" style = ""float:right""></p><p><img src=images/blank.png width =""800"" height = ""200""></p>","","","","","","","","","","","",""
"","1011.804999987362","sequential-stimulus-presentation","261","720662","0.0-50.0-1.0","SS1613138866427","trial","","40","800","1811.804999987362","images/stimuli/spore_stims/complex_17_B_b.gif","images/stimuli/spore_stims/complex_04_A_c.gif","","","","","14","complex_dissimilar","images/stimuli/spore_stims/complex_04_A_c.gif","middle","","","","",""
"","null","html-keyboard-response","262","721754","0.0-50.0-0.1","SS1613138866427","","","null","","","","","<p><img src= images/blank.png width =""200"" height = ""200"" style = ""float:right""></p><p><img src=images/blank.png width =""800"" height = ""200""></p>","","","","","","","","","","","",""
"","990.8749999885913","sequential-stimulus-presentation","263","723565","0.0-50.0-1.1","SS1613138866427","trial","","40","800","1790.8749999885913","images/stimuli/spore_stims/complex_17_B_b.gif","images/stimuli/spore_stims/complex_04_A_c.gif","","","","","14","complex_dissimilar","images/stimuli/spore_stims/complex_04_A_c.gif","middle","","","","",""
"","null","html-keyboard-response","264","724450","0.0-50.0-0.2","SS1613138866427","","","null","","","","","<p><img src= images/blank.png width =""200"" height = ""200"" style = ""float:right""></p><p><img src=images/blank.png width =""800"" height = ""200""></p>","","","","","","","","","","","",""
"","1338.0250000045635","sequential-stimulus-presentation","265","726614","0.0-50.0-1.2","SS1613138866427","trial","","40","800","2138.0250000045635","images/stimuli/spore_stims/complex_17_B_b.gif","images/stimuli/spore_stims/complex_04_A_c.gif","","","","","14","complex_dissimilar","images/stimuli/spore_stims/complex_04_A_c.gif","middle","","","","",""
"","null","html-keyboard-response","266","727530","0.0-50.0-0.3","SS1613138866427","","","null","","","","","<p><img src= images/blank.png width =""200"" height = ""200"" style = ""float:right""></p><p><img src=images/blank.png width =""800"" height = ""200""></p>","","","","","","","","","","","",""
"","1059.125000028871","sequential-stimulus-presentation","267","729414","0.0-50.0-1.3","SS1613138866427","trial","","40","800","1859.125000028871","images/stimuli/spore_stims/complex_17_B_b.gif","images/stimuli/spore_stims/complex_04_A_c.gif","","","","","14","complex_dissimilar","images/stimuli/spore_stims/complex_04_A_c.gif","middle","","","","",""
"","null","html-keyboard-response","268","730283","0.0-50.0-0.4","SS1613138866427","","","null","","","","","<p><img src= images/blank.png width =""200"" height = ""200"" style = ""float:right""></p><p><img src=images/blank.png width =""800"" height = ""200""></p>","","","","","","","","","","","",""
"","331.78500001668","sequential-stimulus-presentation","269","731439","0.0-50.0-1.4","SS1613138866427","trial","","40","800","1131.78500001668","images/stimuli/spore_stims/complex_17_B_b.gif","images/stimuli/spore_stims/complex_04_A_c.gif","","","","","14","complex_dissimilar","images/stimuli/spore_stims/complex_04_A_c.gif","middle","","","","",""
"","null","html-keyboard-response","270","732615","0.0-50.0-0.5","SS1613138866427","","","null","","","","","<p><img src= images/blank.png width =""200"" height = ""200"" style = ""float:right""></p><p><img src=images/blank.png width =""800"" height = ""200""></p>","","","","","","","","","","","",""
"","264.6999999997206","sequential-stimulus-presentation","271","733701","0.0-50.0-1.5","SS1613138866427","trial","","40","800","1064.6999999997206","images/stimuli/spore_stims/complex_17_B_b.gif","images/stimuli/spore_stims/complex_04_A_c.gif","","","","","14","complex_dissimilar","images/stimuli/spore_stims/complex_04_A_c.gif","middle","","","","",""
"","null","html-keyboard-response","272","734787","0.0-50.0-0.6","SS1613138866427","","","null","","","","","<p><img src= images/blank.png width =""200"" height = ""200"" style = ""float:right""></p><p><img src=images/blank.png width =""800"" height = ""200""></p>","","","","","","","","","","","",""
"","286.5649999876041","sequential-stimulus-presentation","273","735894","0.0-50.0-1.6","SS1613138866427","trial","","40","800","1086.564999987604","images/stimuli/spore_stims/complex_17_B_b.gif","images/stimuli/spore_stims/complex_04_A_c.gif","","","","","14","complex_dissimilar","images/stimuli/spore_stims/complex_04_A_c.gif","middle","","","","",""
"","null","html-keyboard-response","274","737025","0.0-50.0-0.7","SS1613138866427","","","null","","","","","<p><img src= images/blank.png width =""200"" height = ""200"" style = ""float:right""></p><p><img src=images/blank.png width =""800"" height = ""200""></p>","","","","","","","","","","","",""
"","939.1250000044238","sequential-stimulus-presentation","275","738774","0.0-50.0-1.7","SS1613138866427","trial","","40","800","1739.1250000044238","images/stimuli/spore_stims/complex_17_B_b.gif","images/stimuli/spore_stims/complex_04_A_c.gif","","","","","14","complex_dissimilar","images/stimuli/spore_stims/complex_17_B_b.gif","left","","","","",""
"","1648.6250000016298","html-keyboard-response","276","740430","0.0-51.0","SS1613138866427","pref_question","","51","","","","","<video width ='960' height = '540' style='padding-top:8%' autoplay muted><source src='images/stimuli/wall_pref.mp4' type='video/mp4'></video>","3","right","66%","14","","","","","","","",""
"","1276.530000002822","sequential-stimulus-presentation","277","742519","0.0-52.0","SS1613138866427","pref_reveal","","40","800","2076.530000002822","null","null","","","","","14","","","","novel","","","",""
"","null","html-keyboard-response","278","743403","0.0-53.0-0.0","SS1613138866427","","","null","","","","","<p><img src= images/blank.png width =""200"" height = ""200"" style = ""float:right""></p><p><img src=images/blank.png width =""800"" height = ""200""></p>","","","","","","","","","","","",""
"","401.92999999271706","sequential-stimulus-presentation","279","744630","0.0-53.0-1.0","SS1613138866427","trial","","40","800","1201.929999992717","images/stimuli/spore_stims/simple_18_A_a.gif","images/stimuli/spore_stims/simple_18_B_a.gif","","","","","15","simple_similar","images/stimuli/spore_stims/simple_18_B_a.gif","middle","","","","",""
"","null","html-keyboard-response","280","745468","0.0-53.0-0.1","SS1613138866427","","","null","","","","","<p><img src= images/blank.png width =""200"" height = ""200"" style = ""float:right""></p><p><img src=images/blank.png width =""800"" height = ""200""></p>","","","","","","","","","","","",""
"","731.9549999956507","sequential-stimulus-presentation","281","747023","0.0-53.0-1.1","SS1613138866427","trial","","40","800","1531.9549999956507","images/stimuli/spore_stims/simple_18_A_a.gif","images/stimuli/spore_stims/simple_18_B_a.gif","","","","","15","simple_similar","images/stimuli/spore_stims/simple_18_B_a.gif","middle","","","","",""
"","null","html-keyboard-response","282","748205","0.0-53.0-0.2","SS1613138866427","","","null","","","","","<p><img src= images/blank.png width =""200"" height = ""200"" style = ""float:right""></p><p><img src=images/blank.png width =""800"" height = ""200""></p>","","","","","","","","","","","",""
"","673.4900000155903","sequential-stimulus-presentation","283","749702","0.0-53.0-1.2","SS1613138866427","trial","","40","800","1473.4900000155903","images/stimuli/spore_stims/simple_18_A_a.gif","images/stimuli/spore_stims/simple_18_B_a.gif","","","","","15","simple_similar","images/stimuli/spore_stims/simple_18_B_a.gif","middle","","","","",""
"","null","html-keyboard-response","284","750586","0.0-53.0-0.3","SS1613138866427","","","null","","","","","<p><img src= images/blank.png width =""200"" height = ""200"" style = ""float:right""></p><p><img src=images/blank.png width =""800"" height = ""200""></p>","","","","","","","","","","","",""
"","753.3800000092015","sequential-stimulus-presentation","285","752166","0.0-53.0-1.3","SS1613138866427","trial","","40","800","1553.3800000092015","images/stimuli/spore_stims/simple_18_A_a.gif","images/stimuli/spore_stims/simple_18_B_a.gif","","","","","15","simple_similar","images/stimuli/spore_stims/simple_18_B_a.gif","middle","","","","",""
"","null","html-keyboard-response","286","753145","0.0-53.0-0.4","SS1613138866427","","","null","","","","","<p><img src= images/blank.png width =""200"" height = ""200"" style = ""float:right""></p><p><img src=images/blank.png width =""800"" height = ""200""></p>","","","","","","","","","","","",""
"","689.3599999893922","sequential-stimulus-presentation","287","754647","0.0-53.0-1.4","SS1613138866427","trial","","40","800","1489.3599999893922","images/stimuli/spore_stims/simple_18_A_a.gif","images/stimuli/spore_stims/simple_18_B_a.gif","","","","","15","simple_similar","images/stimuli/spore_stims/simple_18_B_a.gif","middle","","","","",""
"","null","html-keyboard-response","288","755590","0.0-53.0-0.5","SS1613138866427","","","null","","","","","<p><img src= images/blank.png width =""200"" height = ""200"" style = ""float:right""></p><p><img src=images/blank.png width =""800"" height = ""200""></p>","","","","","","","","","","","",""
"","624.6049999899697","sequential-stimulus-presentation","289","757038","0.0-53.0-1.5","SS1613138866427","trial","","40","800","1424.6049999899697","images/stimuli/spore_stims/simple_18_A_a.gif","images/stimuli/spore_stims/simple_18_B_a.gif","","","","","15","simple_similar","images/stimuli/spore_stims/simple_18_B_a.gif","middle","","","","",""
"","null","html-keyboard-response","290","758320","0.0-53.0-0.6","SS1613138866427","","","null","","","","","<p><img src= images/blank.png width =""200"" height = ""200"" style = ""float:right""></p><p><img src=images/blank.png width =""800"" height = ""200""></p>","","","","","","","","","","","",""
"","359.41999999340624","sequential-stimulus-presentation","291","759486","0.0-53.0-1.6","SS1613138866427","trial","","40","800","1159.4199999934062","images/stimuli/spore_stims/simple_18_A_a.gif","images/stimuli/spore_stims/simple_18_B_a.gif","","","","","15","simple_similar","images/stimuli/spore_stims/simple_18_B_a.gif","middle","","","","",""
"","null","html-keyboard-response","292","760775","0.0-53.0-0.7","SS1613138866427","","","null","","","","","<p><img src= images/blank.png width =""200"" height = ""200"" style = ""float:right""></p><p><img src=images/blank.png width =""800"" height = ""200""></p>","","","","","","","","","","","",""
"","644.4699999992736","sequential-stimulus-presentation","293","762230","0.0-53.0-1.7","SS1613138866427","trial","","40","800","1444.4699999992736","images/stimuli/spore_stims/simple_18_A_a.gif","images/stimuli/spore_stims/simple_18_B_a.gif","","","","","15","simple_similar","images/stimuli/spore_stims/simple_18_A_a.gif","right","","","","",""
"","1558.8949999946635","html-keyboard-response","294","763798","0.0-54.0","SS1613138866427","pref_question","","51","","","","","<video width ='960' height = '540' style='padding-top:8%' autoplay muted><source src='images/stimuli/wall_pref.mp4' type='video/mp4'></video>","3","right","66%","15","","","","","","","",""
"","1027.5799999944866","sequential-stimulus-presentation","295","765647","0.0-55.0","SS1613138866427","pref_reveal","","40","800","1827.5799999944866","null","null","","","","","15","","","","deviant","","","",""
"","null","html-keyboard-response","296","766729","0.0-56.0-0.0","SS1613138866427","","","null","","","","","<p><img src= images/blank.png width =""200"" height = ""200"" style = ""float:right""></p><p><img src=images/blank.png width =""800"" height = ""200""></p>","","","","","","","","","","","",""
"","1053.0650000146125","sequential-stimulus-presentation","297","769325","0.0-56.0-1.0","SS1613138866427","trial","","40","800","1853.0650000146125","images/stimuli/spore_stims/complex_12_B_c.gif","images/stimuli/spore_stims/complex_12_A_c.gif","","","","","16","complex_similar","images/stimuli/spore_stims/complex_12_A_c.gif","middle","","","","",""
"","null","html-keyboard-response","298","770255","0.0-56.0-0.1","SS1613138866427","","","null","","","","","<p><img src= images/blank.png width =""200"" height = ""200"" style = ""float:right""></p><p><img src=images/blank.png width =""800"" height = ""200""></p>","","","","","","","","","","","",""
"","377.7399999962654","sequential-stimulus-presentation","299","771446","0.0-56.0-1.1","SS1613138866427","trial","","40","800","1177.7399999962654","images/stimuli/spore_stims/complex_12_B_c.gif","images/stimuli/spore_stims/complex_12_A_c.gif","","","","","16","complex_similar","images/stimuli/spore_stims/complex_12_A_c.gif","middle","","","","",""
"","null","html-keyboard-response","300","772280","0.0-56.0-0.2","SS1613138866427","","","null","","","","","<p><img src= images/blank.png width =""200"" height = ""200"" style = ""float:right""></p><p><img src=images/blank.png width =""800"" height = ""200""></p>","","","","","","","","","","","",""
"","518.96499999566","sequential-stimulus-presentation","301","773614","0.0-56.0-1.2","SS1613138866427","trial","","40","800","1318.96499999566","images/stimuli/spore_stims/complex_12_B_c.gif","images/stimuli/spore_stims/complex_12_A_c.gif","","","","","16","complex_similar","images/stimuli/spore_stims/complex_12_B_c.gif","right","","","","",""
"","null","html-keyboard-response","302","774644","0.0-56.0-0.3","SS1613138866427","","","null","","","","","<p><img src= images/blank.png width =""200"" height = ""200"" style = ""float:right""></p><p><img src=images/blank.png width =""800"" height = ""200""></p>","","","","","","","","","","","",""
"","331.1099999991711","sequential-stimulus-presentation","303","775799","0.0-56.0-1.3","SS1613138866427","trial","","40","800","1131.1099999991711","images/stimuli/spore_stims/complex_12_B_c.gif","images/stimuli/spore_stims/complex_12_A_c.gif","","","","","16","complex_similar","images/stimuli/spore_stims/complex_12_A_c.gif","middle","","","","",""
"","null","html-keyboard-response","304","776899","0.0-56.0-0.4","SS1613138866427","","","null","","","","","<p><img src= images/blank.png width =""200"" height = ""200"" style = ""float:right""></p><p><img src=images/blank.png width =""800"" height = ""200""></p>","","","","","","","","","","","",""
"","7.429999997839332","sequential-stimulus-presentation","305","777734","0.0-56.0-1.4","SS1613138866427","trial","","40","800","807.4299999978393","images/stimuli/spore_stims/complex_12_B_c.gif","images/stimuli/spore_stims/complex_12_A_c.gif","","","","","16","complex_similar","images/stimuli/spore_stims/complex_12_A_c.gif","middle","","","","",""
"","null","html-keyboard-response","306","779003","0.0-56.0-0.5","SS1613138866427","","","null","","","","","<p><img src= images/blank.png width =""200"" height = ""200"" style = ""float:right""></p><p><img src=images/blank.png width =""800"" height = ""200""></p>","","","","","","","","","","","",""
"","417.23000002093613","sequential-stimulus-presentation","307","780246","0.0-56.0-1.5","SS1613138866427","trial","","40","800","1217.2300000209361","images/stimuli/spore_stims/complex_12_B_c.gif","images/stimuli/spore_stims/complex_12_A_c.gif","","","","","16","complex_similar","images/stimuli/spore_stims/complex_12_A_c.gif","middle","","","","",""
"","null","html-keyboard-response","308","781090","0.0-56.0-0.6","SS1613138866427","","","null","","","","","<p><img src= images/blank.png width =""200"" height = ""200"" style = ""float:right""></p><p><img src=images/blank.png width =""800"" height = ""200""></p>","","","","","","","","","","","",""
"","547.244999994291","sequential-stimulus-presentation","309","782463","0.0-56.0-1.6","SS1613138866427","trial","","40","800","1347.244999994291","images/stimuli/spore_stims/complex_12_B_c.gif","images/stimuli/spore_stims/complex_12_A_c.gif","","","","","16","complex_similar","images/stimuli/spore_stims/complex_12_A_c.gif","middle","","","","",""
"","null","html-keyboard-response","310","783549","0.0-56.0-0.7","SS1613138866427","","","null","","","","","<p><img src= images/blank.png width =""200"" height = ""200"" style = ""float:right""></p><p><img src=images/blank.png width =""800"" height = ""200""></p>","","","","","","","","","","","",""
"","330.1999999966938","sequential-stimulus-presentation","311","784703","0.0-56.0-1.7","SS1613138866427","trial","","40","800","1130.1999999966938","images/stimuli/spore_stims/complex_12_B_c.gif","images/stimuli/spore_stims/complex_12_A_c.gif","","","","","16","complex_similar","images/stimuli/spore_stims/complex_12_A_c.gif","middle","","","","",""
"","1838.0799999868032","html-keyboard-response","312","786559","0.0-57.0","SS1613138866427","pref_question","","49","","","","","<video width ='960' height = '540' style='padding-top:8%' autoplay muted><source src='images/stimuli/wall_pref.mp4' type='video/mp4'></video>","1","left","25%","16","","","","","","","",""
