"view_history","rt","trial_type","trial_index","time_elapsed","internal_node_id","subject","stimulus_type","trial_stimulus","key_press","minimum_viewing_duration","trial_looking_time","block_deviant","block_background","stimulus","wall_pref","location","location_percent","block_number","block_type","stimulus_displayed","position_displayed","stim_type_selected","responses","question_order","stimulus_left","stimulus_right"
"[{""page_index"":0,""viewing_time"":5467.000000004191}]","5467.214999996941","instructions","0","5468","0.0-0.0","SS1613175394989","","","","","","","","","","","","","","","","","","","",""
"[{""page_index"":0,""viewing_time"":3598.679999995511},{""page_index"":1,""viewing_time"":12063.339999993332}]","15662.169999995967","instructions","1","23132","0.0-1.0","SS1613175394989","instructions","","","","","","","","","","","","","","","","","","",""
"","9268.524999992223","sequential-stimulus-presentation","2","33206","0.0-2.0","SS1613175394989","","","40","800","10068.524999992223","null","null","","","","","","","","","","","","",""
"","3941.7300000059186","sequential-stimulus-presentation","3","37957","0.0-3.0","SS1613175394989","","","40","800","4741.730000005919","null","null","","","","","","","","","","","","",""
"[{""page_index"":0,""viewing_time"":3143.2950000016717}]","3143.4250000020256","instructions","4","41101","0.0-4.0","SS1613175394989","instructions","","","","","","","","","","","","","","","","","","",""
"","91830.30500001041","html-keyboard-response","5","132932","0.0-5.0","SS1613175394989","instructions","","49","","","","","<video width ='960' height = '540' autoplay muted><source src='images/stimuli/wall_pref.mp4' type='video/mp4'></video>","1","left","25%","","","","","","","","",""
"","2739.965000000666","sequential-stimulus-presentation","6","136476","0.0-6.0","SS1613175394989","pref_reveal","","40","800","3539.965000000666","null","null","","","","","","","","","","","","",""
"[{""page_index"":0,""viewing_time"":12543.835000004037},{""page_index"":1,""viewing_time"":2191.565000000992},{""page_index"":2,""viewing_time"":1159.944999992149},{""page_index"":3,""viewing_time"":1119.5900000020629}]","17015.13499999419","instructions","7","153492","0.0-7.0","SS1613175394989","instructions","","","","","","","","","","","","","","","","","","",""
"","null","html-keyboard-response","8","154683","0.0-8.0-0.0","SS1613175394989","","","null","","","","","<p><img src= images/blank.png width =""200"" height = ""200"" style = ""float:right""></p><p><img src=images/blank.png width =""800"" height = ""200""></p>","","","","","","","","","","","",""
"","2567.0550000068033","sequential-stimulus-presentation","9","158052","0.0-8.0-1.0","SS1613175394989","trial","","40","800","3367.0550000068033","images/stimuli/spore_stims/complex_01_A_c.gif","images/stimuli/spore_stims/complex_01_B_c.gif","","","","","0","complex_similar","images/stimuli/spore_stims/complex_01_B_c.gif","right","","","","",""
"","null","html-keyboard-response","10","159246","0.0-8.0-0.1","SS1613175394989","","","null","","","","","<p><img src= images/blank.png width =""200"" height = ""200"" style = ""float:right""></p><p><img src=images/blank.png width =""800"" height = ""200""></p>","","","","","","","","","","","",""
"","643.6200000025565","sequential-stimulus-presentation","11","160701","0.0-8.0-1.1","SS1613175394989","trial","","40","800","1443.6200000025565","images/stimuli/spore_stims/complex_01_A_c.gif","images/stimuli/spore_stims/complex_01_B_c.gif","","","","","0","complex_similar","images/stimuli/spore_stims/complex_01_B_c.gif","right","","","","",""
"","null","html-keyboard-response","12","161557","0.0-8.0-0.2","SS1613175394989","","","null","","","","","<p><img src= images/blank.png width =""200"" height = ""200"" style = ""float:right""></p><p><img src=images/blank.png width =""800"" height = ""200""></p>","","","","","","","","","","","",""
"","508.4050000004936","sequential-stimulus-presentation","13","162868","0.0-8.0-1.2","SS1613175394989","trial","","40","800","1308.4050000004936","images/stimuli/spore_stims/complex_01_A_c.gif","images/stimuli/spore_stims/complex_01_B_c.gif","","","","","0","complex_similar","images/stimuli/spore_stims/complex_01_B_c.gif","right","","","","",""
"","null","html-keyboard-response","14","163681","0.0-8.0-0.3","SS1613175394989","","","null","","","","","<p><img src= images/blank.png width =""200"" height = ""200"" style = ""float:right""></p><p><img src=images/blank.png width =""800"" height = ""200""></p>","","","","","","","","","","","",""
"","678.7899999908404","sequential-stimulus-presentation","15","165165","0.0-8.0-1.3","SS1613175394989","trial","","40","800","1478.7899999908404","images/stimuli/spore_stims/complex_01_A_c.gif","images/stimuli/spore_stims/complex_01_B_c.gif","","","","","0","complex_similar","images/stimuli/spore_stims/complex_01_A_c.gif","left","","","","",""
"","null","html-keyboard-response","16","166184","0.0-8.0-0.4","SS1613175394989","","","null","","","","","<p><img src= images/blank.png width =""200"" height = ""200"" style = ""float:right""></p><p><img src=images/blank.png width =""800"" height = ""200""></p>","","","","","","","","","","","",""
"","1841.6549999965355","sequential-stimulus-presentation","17","168829","0.0-8.0-1.4","SS1613175394989","trial","","40","800","2641.6549999965355","images/stimuli/spore_stims/complex_01_A_c.gif","images/stimuli/spore_stims/complex_01_B_c.gif","","","","","0","complex_similar","images/stimuli/spore_stims/complex_01_B_c.gif","right","","","","",""
"","null","html-keyboard-response","18","169967","0.0-8.0-0.5","SS1613175394989","","","null","","","","","<p><img src= images/blank.png width =""200"" height = ""200"" style = ""float:right""></p><p><img src=images/blank.png width =""800"" height = ""200""></p>","","","","","","","","","","","",""
"","1119.2650000011781","sequential-stimulus-presentation","19","171901","0.0-8.0-1.5","SS1613175394989","trial","","40","800","1919.2650000011781","images/stimuli/spore_stims/complex_01_A_c.gif","images/stimuli/spore_stims/complex_01_B_c.gif","","","","","0","complex_similar","images/stimuli/spore_stims/complex_01_B_c.gif","right","","","","",""
"","null","html-keyboard-response","20","172778","0.0-8.0-0.6","SS1613175394989","","","null","","","","","<p><img src= images/blank.png width =""200"" height = ""200"" style = ""float:right""></p><p><img src=images/blank.png width =""800"" height = ""200""></p>","","","","","","","","","","","",""
"","1023.8249999965774","sequential-stimulus-presentation","21","174605","0.0-8.0-1.6","SS1613175394989","trial","","40","800","1823.8249999965774","images/stimuli/spore_stims/complex_01_A_c.gif","images/stimuli/spore_stims/complex_01_B_c.gif","","","","","0","complex_similar","images/stimuli/spore_stims/complex_01_B_c.gif","right","","","","",""
"","null","html-keyboard-response","22","175462","0.0-8.0-0.7","SS1613175394989","","","null","","","","","<p><img src= images/blank.png width =""200"" height = ""200"" style = ""float:right""></p><p><img src=images/blank.png width =""800"" height = ""200""></p>","","","","","","","","","","","",""
"","1561.2450000044191","sequential-stimulus-presentation","23","177837","0.0-8.0-1.7","SS1613175394989","trial","","40","800","2361.245000004419","images/stimuli/spore_stims/complex_01_A_c.gif","images/stimuli/spore_stims/complex_01_B_c.gif","","","","","0","complex_similar","images/stimuli/spore_stims/complex_01_B_c.gif","right","","","","",""
"","3829.79499999783","html-keyboard-response","24","181668","0.0-9.0","SS1613175394989","pref_question","","51","","","","","<video width ='960' height = '540' style='padding-top:8%' autoplay muted><source src='images/stimuli/wall_pref.mp4' type='video/mp4'></video>","3","right","66%","0","","","","","","","",""
"","1871.22499999532","sequential-stimulus-presentation","25","184349","0.0-10.0","SS1613175394989","pref_reveal","","40","800","2671.22499999532","null","null","","","","","0","","","","background","","","",""
"","null","html-keyboard-response","26","185347","0.0-11.0-0.0","SS1613175394989","","","null","","","","","<p><img src= images/blank.png width =""200"" height = ""200"" style = ""float:right""></p><p><img src=images/blank.png width =""800"" height = ""200""></p>","","","","","","","","","","","",""
"","1282.2799999994459","sequential-stimulus-presentation","27","187444","0.0-11.0-1.0","SS1613175394989","trial","","40","800","2082.279999999446","images/stimuli/spore_stims/complex_19_B_b.gif","images/stimuli/spore_stims/complex_16_A_b.gif","","","","","1","complex_dissimilar","images/stimuli/spore_stims/complex_16_A_b.gif","middle","","","","",""
"","null","html-keyboard-response","28","188724","0.0-11.0-0.1","SS1613175394989","","","null","","","","","<p><img src= images/blank.png width =""200"" height = ""200"" style = ""float:right""></p><p><img src=images/blank.png width =""800"" height = ""200""></p>","","","","","","","","","","","",""
"","740.9849999967264","sequential-stimulus-presentation","29","190268","0.0-11.0-1.1","SS1613175394989","trial","","40","800","1540.9849999967264","images/stimuli/spore_stims/complex_19_B_b.gif","images/stimuli/spore_stims/complex_16_A_b.gif","","","","","1","complex_dissimilar","images/stimuli/spore_stims/complex_16_A_b.gif","middle","","","","",""
"","null","html-keyboard-response","30","191257","0.0-11.0-0.2","SS1613175394989","","","null","","","","","<p><img src= images/blank.png width =""200"" height = ""200"" style = ""float:right""></p><p><img src=images/blank.png width =""800"" height = ""200""></p>","","","","","","","","","","","",""
"","1464.479999995092","sequential-stimulus-presentation","31","193540","0.0-11.0-1.2","SS1613175394989","trial","","40","800","2264.479999995092","images/stimuli/spore_stims/complex_19_B_b.gif","images/stimuli/spore_stims/complex_16_A_b.gif","","","","","1","complex_dissimilar","images/stimuli/spore_stims/complex_19_B_b.gif","right","","","","",""
"","null","html-keyboard-response","32","194401","0.0-11.0-0.3","SS1613175394989","","","null","","","","","<p><img src= images/blank.png width =""200"" height = ""200"" style = ""float:right""></p><p><img src=images/blank.png width =""800"" height = ""200""></p>","","","","","","","","","","","",""
"","868.6500000039814","sequential-stimulus-presentation","33","196085","0.0-11.0-1.3","SS1613175394989","trial","","40","800","1668.6500000039814","images/stimuli/spore_stims/complex_19_B_b.gif","images/stimuli/spore_stims/complex_16_A_b.gif","","","","","1","complex_dissimilar","images/stimuli/spore_stims/complex_16_A_b.gif","middle","","","","",""
"","null","html-keyboard-response","34","197329","0.0-11.0-0.4","SS1613175394989","","","null","","","","","<p><img src= images/blank.png width =""200"" height = ""200"" style = ""float:right""></p><p><img src=images/blank.png width =""800"" height = ""200""></p>","","","","","","","","","","","",""
"","655.7150000007823","sequential-stimulus-presentation","35","198788","0.0-11.0-1.4","SS1613175394989","trial","","40","800","1455.7150000007823","images/stimuli/spore_stims/complex_19_B_b.gif","images/stimuli/spore_stims/complex_16_A_b.gif","","","","","1","complex_dissimilar","images/stimuli/spore_stims/complex_16_A_b.gif","middle","","","","",""
"","null","html-keyboard-response","36","199640","0.0-11.0-0.5","SS1613175394989","","","null","","","","","<p><img src= images/blank.png width =""200"" height = ""200"" style = ""float:right""></p><p><img src=images/blank.png width =""800"" height = ""200""></p>","","","","","","","","","","","",""
"","830.1650000066729","sequential-stimulus-presentation","37","201285","0.0-11.0-1.5","SS1613175394989","trial","","40","800","1630.165000006673","images/stimuli/spore_stims/complex_19_B_b.gif","images/stimuli/spore_stims/complex_16_A_b.gif","","","","","1","complex_dissimilar","images/stimuli/spore_stims/complex_16_A_b.gif","middle","","","","",""
"","null","html-keyboard-response","38","202246","0.0-11.0-0.6","SS1613175394989","","","null","","","","","<p><img src= images/blank.png width =""200"" height = ""200"" style = ""float:right""></p><p><img src=images/blank.png width =""800"" height = ""200""></p>","","","","","","","","","","","",""
"","719.1549999988638","sequential-stimulus-presentation","39","203780","0.0-11.0-1.6","SS1613175394989","trial","","40","800","1519.1549999988638","images/stimuli/spore_stims/complex_19_B_b.gif","images/stimuli/spore_stims/complex_16_A_b.gif","","","","","1","complex_dissimilar","images/stimuli/spore_stims/complex_16_A_b.gif","middle","","","","",""
"","null","html-keyboard-response","40","204939","0.0-11.0-0.7","SS1613175394989","","","null","","","","","<p><img src= images/blank.png width =""200"" height = ""200"" style = ""float:right""></p><p><img src=images/blank.png width =""800"" height = ""200""></p>","","","","","","","","","","","",""
"","729.0800000046147","sequential-stimulus-presentation","41","206484","0.0-11.0-1.7","SS1613175394989","trial","","40","800","1529.0800000046147","images/stimuli/spore_stims/complex_19_B_b.gif","images/stimuli/spore_stims/complex_16_A_b.gif","","","","","1","complex_dissimilar","images/stimuli/spore_stims/complex_16_A_b.gif","middle","","","","",""
"","2268.8800000032643","html-keyboard-response","42","208756","0.0-12.0","SS1613175394989","pref_question","","50","","","","","<video width ='960' height = '540' style='padding-top:8%' autoplay muted><source src='images/stimuli/wall_pref.mp4' type='video/mp4'></video>","2","middle","45%","1","","","","","","","",""
"","832.5000000040745","sequential-stimulus-presentation","43","210397","0.0-13.0","SS1613175394989","pref_reveal","","40","800","1632.5000000040745","null","null","","","","","1","","","","background","","","",""
"","null","html-keyboard-response","44","211335","0.0-14.0-0.0","SS1613175394989","","","null","","","","","<p><img src= images/blank.png width =""200"" height = ""200"" style = ""float:right""></p><p><img src=images/blank.png width =""800"" height = ""200""></p>","","","","","","","","","","","",""
"","1249.2400000046473","sequential-stimulus-presentation","45","213388","0.0-14.0-1.0","SS1613175394989","trial","","40","800","2049.2400000046473","images/stimuli/spore_stims/simple_20_A_a.gif","images/stimuli/spore_stims/simple_06_A_a.gif","","","","","2","simple_dissimilar","images/stimuli/spore_stims/simple_06_A_a.gif","middle","","","","",""
"","null","html-keyboard-response","46","214589","0.0-14.0-0.1","SS1613175394989","","","null","","","","","<p><img src= images/blank.png width =""200"" height = ""200"" style = ""float:right""></p><p><img src=images/blank.png width =""800"" height = ""200""></p>","","","","","","","","","","","",""
"","558.6500000063097","sequential-stimulus-presentation","47","215965","0.0-14.0-1.1","SS1613175394989","trial","","40","800","1358.6500000063097","images/stimuli/spore_stims/simple_20_A_a.gif","images/stimuli/spore_stims/simple_06_A_a.gif","","","","","2","simple_dissimilar","images/stimuli/spore_stims/simple_06_A_a.gif","middle","","","","",""
"","null","html-keyboard-response","48","216932","0.0-14.0-0.2","SS1613175394989","","","null","","","","","<p><img src= images/blank.png width =""200"" height = ""200"" style = ""float:right""></p><p><img src=images/blank.png width =""800"" height = ""200""></p>","","","","","","","","","","","",""
"","23.655000011785887","sequential-stimulus-presentation","49","217773","0.0-14.0-1.2","SS1613175394989","trial","","40","800","823.6550000117859","images/stimuli/spore_stims/simple_20_A_a.gif","images/stimuli/spore_stims/simple_06_A_a.gif","","","","","2","simple_dissimilar","images/stimuli/spore_stims/simple_06_A_a.gif","middle","","","","",""
"","null","html-keyboard-response","50","218608","0.0-14.0-0.3","SS1613175394989","","","null","","","","","<p><img src= images/blank.png width =""200"" height = ""200"" style = ""float:right""></p><p><img src=images/blank.png width =""800"" height = ""200""></p>","","","","","","","","","","","",""
"","528.7800000078278","sequential-stimulus-presentation","51","219940","0.0-14.0-1.3","SS1613175394989","trial","","40","800","1328.7800000078278","images/stimuli/spore_stims/simple_20_A_a.gif","images/stimuli/spore_stims/simple_06_A_a.gif","","","","","2","simple_dissimilar","images/stimuli/spore_stims/simple_06_A_a.gif","middle","","","","",""
"","null","html-keyboard-response","52","220892","0.0-14.0-0.4","SS1613175394989","","","null","","","","","<p><img src= images/blank.png width =""200"" height = ""200"" style = ""float:right""></p><p><img src=images/blank.png width =""800"" height = ""200""></p>","","","","","","","","","","","",""
"","1357.1249999949941","sequential-stimulus-presentation","53","223052","0.0-14.0-1.4","SS1613175394989","trial","","40","800","2157.124999994994","images/stimuli/spore_stims/simple_20_A_a.gif","images/stimuli/spore_stims/simple_06_A_a.gif","","","","","2","simple_dissimilar","images/stimuli/spore_stims/simple_06_A_a.gif","middle","","","","",""
"","null","html-keyboard-response","54","224158","0.0-14.0-0.5","SS1613175394989","","","null","","","","","<p><img src= images/blank.png width =""200"" height = ""200"" style = ""float:right""></p><p><img src=images/blank.png width =""800"" height = ""200""></p>","","","","","","","","","","","",""
"","1966.5999999997439","sequential-stimulus-presentation","55","226941","0.0-14.0-1.5","SS1613175394989","trial","","40","800","2766.599999999744","images/stimuli/spore_stims/simple_20_A_a.gif","images/stimuli/spore_stims/simple_06_A_a.gif","","","","","2","simple_dissimilar","images/stimuli/spore_stims/simple_20_A_a.gif","left","","","","",""
"","null","html-keyboard-response","56","227919","0.0-14.0-0.6","SS1613175394989","","","null","","","","","<p><img src= images/blank.png width =""200"" height = ""200"" style = ""float:right""></p><p><img src=images/blank.png width =""800"" height = ""200""></p>","","","","","","","","","","","",""
"","693.6599999899045","sequential-stimulus-presentation","57","229420","0.0-14.0-1.6","SS1613175394989","trial","","40","800","1493.6599999899045","images/stimuli/spore_stims/simple_20_A_a.gif","images/stimuli/spore_stims/simple_06_A_a.gif","","","","","2","simple_dissimilar","images/stimuli/spore_stims/simple_06_A_a.gif","middle","","","","",""
"","null","html-keyboard-response","58","230557","0.0-14.0-0.7","SS1613175394989","","","null","","","","","<p><img src= images/blank.png width =""200"" height = ""200"" style = ""float:right""></p><p><img src=images/blank.png width =""800"" height = ""200""></p>","","","","","","","","","","","",""
"","645.2549999958137","sequential-stimulus-presentation","59","232005","0.0-14.0-1.7","SS1613175394989","trial","","40","800","1445.2549999958137","images/stimuli/spore_stims/simple_20_A_a.gif","images/stimuli/spore_stims/simple_06_A_a.gif","","","","","2","simple_dissimilar","images/stimuli/spore_stims/simple_06_A_a.gif","middle","","","","",""
"","1533.4399999992456","html-keyboard-response","60","233540","0.0-15.0","SS1613175394989","pref_question","","50","","","","","<video width ='960' height = '540' style='padding-top:8%' autoplay muted><source src='images/stimuli/wall_pref.mp4' type='video/mp4'></video>","2","middle","45%","2","","","","","","","",""
"","825.6899999978486","sequential-stimulus-presentation","61","235172","0.0-16.0","SS1613175394989","pref_reveal","","40","800","1625.6899999978486","null","null","","","","","2","","","","background","","","",""
"","null","html-keyboard-response","62","236466","0.0-17.0-0.0","SS1613175394989","","","null","","","","","<p><img src= images/blank.png width =""200"" height = ""200"" style = ""float:right""></p><p><img src=images/blank.png width =""800"" height = ""200""></p>","","","","","","","","","","","",""
"","837.1849999966798","sequential-stimulus-presentation","63","238124","0.0-17.0-1.0","SS1613175394989","trial","","40","800","1637.1849999966798","images/stimuli/spore_stims/complex_08_B_d.gif","images/stimuli/spore_stims/complex_06_B_a.gif","","","","","3","complex_dissimilar","images/stimuli/spore_stims/complex_06_B_a.gif","middle","","","","",""
"","null","html-keyboard-response","64","239312","0.0-17.0-0.1","SS1613175394989","","","null","","","","","<p><img src= images/blank.png width =""200"" height = ""200"" style = ""float:right""></p><p><img src=images/blank.png width =""800"" height = ""200""></p>","","","","","","","","","","","",""
"","845.0100000045495","sequential-stimulus-presentation","65","240973","0.0-17.0-1.1","SS1613175394989","trial","","40","800","1645.0100000045495","images/stimuli/spore_stims/complex_08_B_d.gif","images/stimuli/spore_stims/complex_06_B_a.gif","","","","","3","complex_dissimilar","images/stimuli/spore_stims/complex_06_B_a.gif","middle","","","","",""
"","null","html-keyboard-response","66","242025","0.0-17.0-0.2","SS1613175394989","","","null","","","","","<p><img src= images/blank.png width =""200"" height = ""200"" style = ""float:right""></p><p><img src=images/blank.png width =""800"" height = ""200""></p>","","","","","","","","","","","",""
"","689.8049999872455","sequential-stimulus-presentation","67","243533","0.0-17.0-1.2","SS1613175394989","trial","","40","800","1489.8049999872455","images/stimuli/spore_stims/complex_08_B_d.gif","images/stimuli/spore_stims/complex_06_B_a.gif","","","","","3","complex_dissimilar","images/stimuli/spore_stims/complex_06_B_a.gif","middle","","","","",""
"","null","html-keyboard-response","68","244828","0.0-17.0-0.3","SS1613175394989","","","null","","","","","<p><img src= images/blank.png width =""200"" height = ""200"" style = ""float:right""></p><p><img src=images/blank.png width =""800"" height = ""200""></p>","","","","","","","","","","","",""
"","4309.459999989485","sequential-stimulus-presentation","69","249940","0.0-17.0-1.3","SS1613175394989","trial","","40","800","5109.459999989485","images/stimuli/spore_stims/complex_08_B_d.gif","images/stimuli/spore_stims/complex_06_B_a.gif","","","","","3","complex_dissimilar","images/stimuli/spore_stims/complex_06_B_a.gif","middle","","","","",""
"","null","html-keyboard-response","70","251189","0.0-17.0-0.4","SS1613175394989","","","null","","","","","<p><img src= images/blank.png width =""200"" height = ""200"" style = ""float:right""></p><p><img src=images/blank.png width =""800"" height = ""200""></p>","","","","","","","","","","","",""
"","3316.334999995888","sequential-stimulus-presentation","71","255325","0.0-17.0-1.4","SS1613175394989","trial","","40","800","4116.334999995888","images/stimuli/spore_stims/complex_08_B_d.gif","images/stimuli/spore_stims/complex_06_B_a.gif","","","","","3","complex_dissimilar","images/stimuli/spore_stims/complex_08_B_d.gif","left","","","","",""
"","null","html-keyboard-response","72","256504","0.0-17.0-0.5","SS1613175394989","","","null","","","","","<p><img src= images/blank.png width =""200"" height = ""200"" style = ""float:right""></p><p><img src=images/blank.png width =""800"" height = ""200""></p>","","","","","","","","","","","",""
"","968.0299999890849","sequential-stimulus-presentation","73","258277","0.0-17.0-1.5","SS1613175394989","trial","","40","800","1768.029999989085","images/stimuli/spore_stims/complex_08_B_d.gif","images/stimuli/spore_stims/complex_06_B_a.gif","","","","","3","complex_dissimilar","images/stimuli/spore_stims/complex_06_B_a.gif","middle","","","","",""
"","null","html-keyboard-response","74","259349","0.0-17.0-0.6","SS1613175394989","","","null","","","","","<p><img src= images/blank.png width =""200"" height = ""200"" style = ""float:right""></p><p><img src=images/blank.png width =""800"" height = ""200""></p>","","","","","","","","","","","",""
"","1617.7949999982957","sequential-stimulus-presentation","75","261772","0.0-17.0-1.6","SS1613175394989","trial","","40","800","2417.7949999982957","images/stimuli/spore_stims/complex_08_B_d.gif","images/stimuli/spore_stims/complex_06_B_a.gif","","","","","3","complex_dissimilar","images/stimuli/spore_stims/complex_06_B_a.gif","middle","","","","",""
"","null","html-keyboard-response","76","262806","0.0-17.0-0.7","SS1613175394989","","","null","","","","","<p><img src= images/blank.png width =""200"" height = ""200"" style = ""float:right""></p><p><img src=images/blank.png width =""800"" height = ""200""></p>","","","","","","","","","","","",""
"","958.90500000678","sequential-stimulus-presentation","77","264580","0.0-17.0-1.7","SS1613175394989","trial","","40","800","1758.90500000678","images/stimuli/spore_stims/complex_08_B_d.gif","images/stimuli/spore_stims/complex_06_B_a.gif","","","","","3","complex_dissimilar","images/stimuli/spore_stims/complex_06_B_a.gif","middle","","","","",""
"","2920.154999999795","html-keyboard-response","78","267508","0.0-18.0","SS1613175394989","pref_question","","49","","","","","<video width ='960' height = '540' style='padding-top:8%' autoplay muted><source src='images/stimuli/wall_pref.mp4' type='video/mp4'></video>","1","left","25%","3","","","","","","","",""
"","3015.740000002552","sequential-stimulus-presentation","79","271341","0.0-19.0","SS1613175394989","pref_reveal","","40","800","3815.740000002552","null","null","","","","","3","","","","deviant","","","",""
"","null","html-keyboard-response","80","272463","0.0-20.0-0.0","SS1613175394989","","","null","","","","","<p><img src= images/blank.png width =""200"" height = ""200"" style = ""float:right""></p><p><img src=images/blank.png width =""800"" height = ""200""></p>","","","","","","","","","","","",""
"","1292.4700000003213","sequential-stimulus-presentation","81","274572","0.0-20.0-1.0","SS1613175394989","trial","","40","800","2092.4700000003213","images/stimuli/spore_stims/complex_02_B_c.gif","images/stimuli/spore_stims/complex_06_A_a.gif","","","","","4","complex_dissimilar","images/stimuli/spore_stims/complex_06_A_a.gif","left","","","","",""
"","null","html-keyboard-response","82","275755","0.0-20.0-0.1","SS1613175394989","","","null","","","","","<p><img src= images/blank.png width =""200"" height = ""200"" style = ""float:right""></p><p><img src=images/blank.png width =""800"" height = ""200""></p>","","","","","","","","","","","",""
"","1042.8149999934249","sequential-stimulus-presentation","83","277605","0.0-20.0-1.1","SS1613175394989","trial","","40","800","1842.8149999934249","images/stimuli/spore_stims/complex_02_B_c.gif","images/stimuli/spore_stims/complex_06_A_a.gif","","","","","4","complex_dissimilar","images/stimuli/spore_stims/complex_06_A_a.gif","left","","","","",""
"","null","html-keyboard-response","84","278728","0.0-20.0-0.2","SS1613175394989","","","null","","","","","<p><img src= images/blank.png width =""200"" height = ""200"" style = ""float:right""></p><p><img src=images/blank.png width =""800"" height = ""200""></p>","","","","","","","","","","","",""
"","935.0350000022445","sequential-stimulus-presentation","85","280468","0.0-20.0-1.2","SS1613175394989","trial","","40","800","1735.0350000022445","images/stimuli/spore_stims/complex_02_B_c.gif","images/stimuli/spore_stims/complex_06_A_a.gif","","","","","4","complex_dissimilar","images/stimuli/spore_stims/complex_02_B_c.gif","right","","","","",""
"","null","html-keyboard-response","86","281395","0.0-20.0-0.3","SS1613175394989","","","null","","","","","<p><img src= images/blank.png width =""200"" height = ""200"" style = ""float:right""></p><p><img src=images/blank.png width =""800"" height = ""200""></p>","","","","","","","","","","","",""
"","1087.4899999907939","sequential-stimulus-presentation","87","283300","0.0-20.0-1.3","SS1613175394989","trial","","40","800","1887.4899999907939","images/stimuli/spore_stims/complex_02_B_c.gif","images/stimuli/spore_stims/complex_06_A_a.gif","","","","","4","complex_dissimilar","images/stimuli/spore_stims/complex_06_A_a.gif","left","","","","",""
"","null","html-keyboard-response","88","284520","0.0-20.0-0.4","SS1613175394989","","","null","","","","","<p><img src= images/blank.png width =""200"" height = ""200"" style = ""float:right""></p><p><img src=images/blank.png width =""800"" height = ""200""></p>","","","","","","","","","","","",""
"","1104.1850000037812","sequential-stimulus-presentation","89","286428","0.0-20.0-1.4","SS1613175394989","trial","","40","800","1904.1850000037812","images/stimuli/spore_stims/complex_02_B_c.gif","images/stimuli/spore_stims/complex_06_A_a.gif","","","","","4","complex_dissimilar","images/stimuli/spore_stims/complex_06_A_a.gif","left","","","","",""
"","null","html-keyboard-response","90","287346","0.0-20.0-0.5","SS1613175394989","","","null","","","","","<p><img src= images/blank.png width =""200"" height = ""200"" style = ""float:right""></p><p><img src=images/blank.png width =""800"" height = ""200""></p>","","","","","","","","","","","",""
"","904.4699999940349","sequential-stimulus-presentation","91","289069","0.0-20.0-1.5","SS1613175394989","trial","","40","800","1704.4699999940349","images/stimuli/spore_stims/complex_02_B_c.gif","images/stimuli/spore_stims/complex_06_A_a.gif","","","","","4","complex_dissimilar","images/stimuli/spore_stims/complex_06_A_a.gif","left","","","","",""
"","null","html-keyboard-response","92","290238","0.0-20.0-0.6","SS1613175394989","","","null","","","","","<p><img src= images/blank.png width =""200"" height = ""200"" style = ""float:right""></p><p><img src=images/blank.png width =""800"" height = ""200""></p>","","","","","","","","","","","",""
"","960.0700000009965","sequential-stimulus-presentation","93","292004","0.0-20.0-1.6","SS1613175394989","trial","","40","800","1760.0700000009965","images/stimuli/spore_stims/complex_02_B_c.gif","images/stimuli/spore_stims/complex_06_A_a.gif","","","","","4","complex_dissimilar","images/stimuli/spore_stims/complex_06_A_a.gif","left","","","","",""
"","null","html-keyboard-response","94","292857","0.0-20.0-0.7","SS1613175394989","","","null","","","","","<p><img src= images/blank.png width =""200"" height = ""200"" style = ""float:right""></p><p><img src=images/blank.png width =""800"" height = ""200""></p>","","","","","","","","","","","",""
"","802.190000002156","sequential-stimulus-presentation","95","294476","0.0-20.0-1.7","SS1613175394989","trial","","40","800","1602.190000002156","images/stimuli/spore_stims/complex_02_B_c.gif","images/stimuli/spore_stims/complex_06_A_a.gif","","","","","4","complex_dissimilar","images/stimuli/spore_stims/complex_06_A_a.gif","left","","","","",""
"","1349.6400000003632","html-keyboard-response","96","295828","0.0-21.0","SS1613175394989","pref_question","","51","","","","","<video width ='960' height = '540' style='padding-top:8%' autoplay muted><source src='images/stimuli/wall_pref.mp4' type='video/mp4'></video>","3","right","66%","4","","","","","","","",""
"","910.1099999970756","sequential-stimulus-presentation","97","297548","0.0-22.0","SS1613175394989","pref_reveal","","40","800","1710.1099999970756","null","null","","","","","4","","","","deviant","","","",""
"","null","html-keyboard-response","98","298367","0.0-23.0-0.0","SS1613175394989","","","null","","","","","<p><img src= images/blank.png width =""200"" height = ""200"" style = ""float:right""></p><p><img src=images/blank.png width =""800"" height = ""200""></p>","","","","","","","","","","","",""
"","781.9750000053318","sequential-stimulus-presentation","99","299964","0.0-23.0-1.0","SS1613175394989","trial","","40","800","1581.9750000053318","images/stimuli/spore_stims/simple_18_A_d.gif","images/stimuli/spore_stims/simple_18_B_d.gif","","","","","5","simple_similar","images/stimuli/spore_stims/simple_18_B_d.gif","right","","","","",""
"","null","html-keyboard-response","100","300802","0.0-23.0-0.1","SS1613175394989","","","null","","","","","<p><img src= images/blank.png width =""200"" height = ""200"" style = ""float:right""></p><p><img src=images/blank.png width =""800"" height = ""200""></p>","","","","","","","","","","","",""
"","772.3100000002887","sequential-stimulus-presentation","101","302380","0.0-23.0-1.1","SS1613175394989","trial","","40","800","1572.3100000002887","images/stimuli/spore_stims/simple_18_A_d.gif","images/stimuli/spore_stims/simple_18_B_d.gif","","","","","5","simple_similar","images/stimuli/spore_stims/simple_18_B_d.gif","right","","","","",""
"","null","html-keyboard-response","102","303213","0.0-23.0-0.2","SS1613175394989","","","null","","","","","<p><img src= images/blank.png width =""200"" height = ""200"" style = ""float:right""></p><p><img src=images/blank.png width =""800"" height = ""200""></p>","","","","","","","","","","","",""
"","1078.204999997979","sequential-stimulus-presentation","103","305108","0.0-23.0-1.2","SS1613175394989","trial","","40","800","1878.204999997979","images/stimuli/spore_stims/simple_18_A_d.gif","images/stimuli/spore_stims/simple_18_B_d.gif","","","","","5","simple_similar","images/stimuli/spore_stims/simple_18_B_d.gif","right","","","","",""
"","null","html-keyboard-response","104","306278","0.0-23.0-0.3","SS1613175394989","","","null","","","","","<p><img src= images/blank.png width =""200"" height = ""200"" style = ""float:right""></p><p><img src=images/blank.png width =""800"" height = ""200""></p>","","","","","","","","","","","",""
"","588.4249999944586","sequential-stimulus-presentation","105","307684","0.0-23.0-1.3","SS1613175394989","trial","","40","800","1388.4249999944586","images/stimuli/spore_stims/simple_18_A_d.gif","images/stimuli/spore_stims/simple_18_B_d.gif","","","","","5","simple_similar","images/stimuli/spore_stims/simple_18_B_d.gif","right","","","","",""
"","null","html-keyboard-response","106","308873","0.0-23.0-0.4","SS1613175394989","","","null","","","","","<p><img src= images/blank.png width =""200"" height = ""200"" style = ""float:right""></p><p><img src=images/blank.png width =""800"" height = ""200""></p>","","","","","","","","","","","",""
"","775.1549999957206","sequential-stimulus-presentation","107","310469","0.0-23.0-1.4","SS1613175394989","trial","","40","800","1575.1549999957206","images/stimuli/spore_stims/simple_18_A_d.gif","images/stimuli/spore_stims/simple_18_B_d.gif","","","","","5","simple_similar","images/stimuli/spore_stims/simple_18_B_d.gif","right","","","","",""
"","null","html-keyboard-response","108","311675","0.0-23.0-0.5","SS1613175394989","","","null","","","","","<p><img src= images/blank.png width =""200"" height = ""200"" style = ""float:right""></p><p><img src=images/blank.png width =""800"" height = ""200""></p>","","","","","","","","","","","",""
"","2870.999999999185","sequential-stimulus-presentation","109","315364","0.0-23.0-1.5","SS1613175394989","trial","","40","800","3670.999999999185","images/stimuli/spore_stims/simple_18_A_d.gif","images/stimuli/spore_stims/simple_18_B_d.gif","","","","","5","simple_similar","images/stimuli/spore_stims/simple_18_A_d.gif","left","","","","",""
"","null","html-keyboard-response","110","316667","0.0-23.0-0.6","SS1613175394989","","","null","","","","","<p><img src= images/blank.png width =""200"" height = ""200"" style = ""float:right""></p><p><img src=images/blank.png width =""800"" height = ""200""></p>","","","","","","","","","","","",""
"","440.5899999983376","sequential-stimulus-presentation","111","317924","0.0-23.0-1.6","SS1613175394989","trial","","40","800","1240.5899999983376","images/stimuli/spore_stims/simple_18_A_d.gif","images/stimuli/spore_stims/simple_18_B_d.gif","","","","","5","simple_similar","images/stimuli/spore_stims/simple_18_B_d.gif","right","","","","",""
"","null","html-keyboard-response","112","319120","0.0-23.0-0.7","SS1613175394989","","","null","","","","","<p><img src= images/blank.png width =""200"" height = ""200"" style = ""float:right""></p><p><img src=images/blank.png width =""800"" height = ""200""></p>","","","","","","","","","","","",""
"","3068.359999990207","sequential-stimulus-presentation","113","323005","0.0-23.0-1.7","SS1613175394989","trial","","40","800","3868.359999990207","images/stimuli/spore_stims/simple_18_A_d.gif","images/stimuli/spore_stims/simple_18_B_d.gif","","","","","5","simple_similar","images/stimuli/spore_stims/simple_18_B_d.gif","right","","","","",""
"","1180.5199999944307","html-keyboard-response","114","324188","0.0-24.0","SS1613175394989","pref_question","","51","","","","","<video width ='960' height = '540' style='padding-top:8%' autoplay muted><source src='images/stimuli/wall_pref.mp4' type='video/mp4'></video>","3","right","66%","5","","","","","","","",""
"","851.2100000079954","sequential-stimulus-presentation","115","325852","0.0-25.0","SS1613175394989","pref_reveal","","40","800","1651.2100000079954","null","null","","","","","5","","","","background","","","",""
"","null","html-keyboard-response","116","326707","0.0-26.0-0.0","SS1613175394989","","","null","","","","","<p><img src= images/blank.png width =""200"" height = ""200"" style = ""float:right""></p><p><img src=images/blank.png width =""800"" height = ""200""></p>","","","","","","","","","","","",""
"","1217.094999999972","sequential-stimulus-presentation","117","328740","0.0-26.0-1.0","SS1613175394989","trial","","40","800","2017.094999999972","images/stimuli/spore_stims/complex_15_A_b.gif","images/stimuli/spore_stims/complex_15_B_b.gif","","","","","6","complex_similar","images/stimuli/spore_stims/complex_15_B_b.gif","middle","","","","",""
"","null","html-keyboard-response","118","329690","0.0-26.0-0.1","SS1613175394989","","","null","","","","","<p><img src= images/blank.png width =""200"" height = ""200"" style = ""float:right""></p><p><img src=images/blank.png width =""800"" height = ""200""></p>","","","","","","","","","","","",""
"","477.25999999966007","sequential-stimulus-presentation","119","330972","0.0-26.0-1.1","SS1613175394989","trial","","40","800","1277.25999999966","images/stimuli/spore_stims/complex_15_A_b.gif","images/stimuli/spore_stims/complex_15_B_b.gif","","","","","6","complex_similar","images/stimuli/spore_stims/complex_15_B_b.gif","middle","","","","",""
"","null","html-keyboard-response","120","331965","0.0-26.0-0.2","SS1613175394989","","","null","","","","","<p><img src= images/blank.png width =""200"" height = ""200"" style = ""float:right""></p><p><img src=images/blank.png width =""800"" height = ""200""></p>","","","","","","","","","","","",""
"","1130.7949999900302","sequential-stimulus-presentation","121","333901","0.0-26.0-1.2","SS1613175394989","trial","","40","800","1930.7949999900302","images/stimuli/spore_stims/complex_15_A_b.gif","images/stimuli/spore_stims/complex_15_B_b.gif","","","","","6","complex_similar","images/stimuli/spore_stims/complex_15_A_b.gif","left","","","","",""
"","null","html-keyboard-response","122","335051","0.0-26.0-0.3","SS1613175394989","","","null","","","","","<p><img src= images/blank.png width =""200"" height = ""200"" style = ""float:right""></p><p><img src=images/blank.png width =""800"" height = ""200""></p>","","","","","","","","","","","",""
"","813.1199999916134","sequential-stimulus-presentation","123","336684","0.0-26.0-1.3","SS1613175394989","trial","","40","800","1613.1199999916134","images/stimuli/spore_stims/complex_15_A_b.gif","images/stimuli/spore_stims/complex_15_B_b.gif","","","","","6","complex_similar","images/stimuli/spore_stims/complex_15_B_b.gif","middle","","","","",""
"","null","html-keyboard-response","124","337521","0.0-26.0-0.4","SS1613175394989","","","null","","","","","<p><img src= images/blank.png width =""200"" height = ""200"" style = ""float:right""></p><p><img src=images/blank.png width =""800"" height = ""200""></p>","","","","","","","","","","","",""
"","738.6649999971269","sequential-stimulus-presentation","125","339076","0.0-26.0-1.4","SS1613175394989","trial","","40","800","1538.6649999971269","images/stimuli/spore_stims/complex_15_A_b.gif","images/stimuli/spore_stims/complex_15_B_b.gif","","","","","6","complex_similar","images/stimuli/spore_stims/complex_15_B_b.gif","middle","","","","",""
"","null","html-keyboard-response","126","340365","0.0-26.0-0.5","SS1613175394989","","","null","","","","","<p><img src= images/blank.png width =""200"" height = ""200"" style = ""float:right""></p><p><img src=images/blank.png width =""800"" height = ""200""></p>","","","","","","","","","","","",""
"","487.78999999922235","sequential-stimulus-presentation","127","341661","0.0-26.0-1.5","SS1613175394989","trial","","40","800","1287.7899999992223","images/stimuli/spore_stims/complex_15_A_b.gif","images/stimuli/spore_stims/complex_15_B_b.gif","","","","","6","complex_similar","images/stimuli/spore_stims/complex_15_B_b.gif","middle","","","","",""
"","null","html-keyboard-response","128","342921","0.0-26.0-0.6","SS1613175394989","","","null","","","","","<p><img src= images/blank.png width =""200"" height = ""200"" style = ""float:right""></p><p><img src=images/blank.png width =""800"" height = ""200""></p>","","","","","","","","","","","",""
"","561.0000000015134","sequential-stimulus-presentation","129","344300","0.0-26.0-1.6","SS1613175394989","trial","","40","800","1361.0000000015134","images/stimuli/spore_stims/complex_15_A_b.gif","images/stimuli/spore_stims/complex_15_B_b.gif","","","","","6","complex_similar","images/stimuli/spore_stims/complex_15_B_b.gif","middle","","","","",""
"","null","html-keyboard-response","130","345135","0.0-26.0-0.7","SS1613175394989","","","null","","","","","<p><img src= images/blank.png width =""200"" height = ""200"" style = ""float:right""></p><p><img src=images/blank.png width =""800"" height = ""200""></p>","","","","","","","","","","","",""
"","793.0350000096951","sequential-stimulus-presentation","131","346740","0.0-26.0-1.7","SS1613175394989","trial","","40","800","1593.035000009695","images/stimuli/spore_stims/complex_15_A_b.gif","images/stimuli/spore_stims/complex_15_B_b.gif","","","","","6","complex_similar","images/stimuli/spore_stims/complex_15_B_b.gif","middle","","","","",""
"","1532.8350000054343","html-keyboard-response","132","348276","0.0-27.0","SS1613175394989","pref_question","","49","","","","","<video width ='960' height = '540' style='padding-top:8%' autoplay muted><source src='images/stimuli/wall_pref.mp4' type='video/mp4'></video>","1","left","25%","6","","","","","","","",""
"","1097.3599999997532","sequential-stimulus-presentation","133","350180","0.0-28.0","SS1613175394989","pref_reveal","","40","800","1897.3599999997532","null","null","","","","","6","","","","deviant","","","",""
"","null","html-keyboard-response","134","351232","0.0-29.0-0.0","SS1613175394989","","","null","","","","","<p><img src= images/blank.png width =""200"" height = ""200"" style = ""float:right""></p><p><img src=images/blank.png width =""800"" height = ""200""></p>","","","","","","","","","","","",""
"","852.7949999988778","sequential-stimulus-presentation","135","352901","0.0-29.0-1.0","SS1613175394989","trial","","40","800","1652.7949999988778","images/stimuli/spore_stims/simple_08_A_c.gif","images/stimuli/spore_stims/simple_11_A_a.gif","","","","","7","simple_dissimilar","images/stimuli/spore_stims/simple_11_A_a.gif","right","","","","",""
"","null","html-keyboard-response","136","353841","0.0-29.0-0.1","SS1613175394989","","","null","","","","","<p><img src= images/blank.png width =""200"" height = ""200"" style = ""float:right""></p><p><img src=images/blank.png width =""800"" height = ""200""></p>","","","","","","","","","","","",""
"","1012.9400000005262","sequential-stimulus-presentation","137","355669","0.0-29.0-1.1","SS1613175394989","trial","","40","800","1812.9400000005262","images/stimuli/spore_stims/simple_08_A_c.gif","images/stimuli/spore_stims/simple_11_A_a.gif","","","","","7","simple_dissimilar","images/stimuli/spore_stims/simple_11_A_a.gif","right","","","","",""
"","null","html-keyboard-response","138","356683","0.0-29.0-0.2","SS1613175394989","","","null","","","","","<p><img src= images/blank.png width =""200"" height = ""200"" style = ""float:right""></p><p><img src=images/blank.png width =""800"" height = ""200""></p>","","","","","","","","","","","",""
"","926.0150000045542","sequential-stimulus-presentation","139","358412","0.0-29.0-1.2","SS1613175394989","trial","","40","800","1726.0150000045542","images/stimuli/spore_stims/simple_08_A_c.gif","images/stimuli/spore_stims/simple_11_A_a.gif","","","","","7","simple_dissimilar","images/stimuli/spore_stims/simple_11_A_a.gif","right","","","","",""
"","null","html-keyboard-response","140","359401","0.0-29.0-0.3","SS1613175394989","","","null","","","","","<p><img src= images/blank.png width =""200"" height = ""200"" style = ""float:right""></p><p><img src=images/blank.png width =""800"" height = ""200""></p>","","","","","","","","","","","",""
"","951.2499999982538","sequential-stimulus-presentation","141","361157","0.0-29.0-1.3","SS1613175394989","trial","","40","800","1751.2499999982538","images/stimuli/spore_stims/simple_08_A_c.gif","images/stimuli/spore_stims/simple_11_A_a.gif","","","","","7","simple_dissimilar","images/stimuli/spore_stims/simple_11_A_a.gif","right","","","","",""
"","null","html-keyboard-response","142","362067","0.0-29.0-0.4","SS1613175394989","","","null","","","","","<p><img src= images/blank.png width =""200"" height = ""200"" style = ""float:right""></p><p><img src=images/blank.png width =""800"" height = ""200""></p>","","","","","","","","","","","",""
"","1697.3800000123447","sequential-stimulus-presentation","143","364573","0.0-29.0-1.4","SS1613175394989","trial","","40","800","2497.3800000123447","images/stimuli/spore_stims/simple_08_A_c.gif","images/stimuli/spore_stims/simple_11_A_a.gif","","","","","7","simple_dissimilar","images/stimuli/spore_stims/simple_08_A_c.gif","left","","","","",""
"","null","html-keyboard-response","144","365500","0.0-29.0-0.5","SS1613175394989","","","null","","","","","<p><img src= images/blank.png width =""200"" height = ""200"" style = ""float:right""></p><p><img src=images/blank.png width =""800"" height = ""200""></p>","","","","","","","","","","","",""
"","549.7100000065984","sequential-stimulus-presentation","145","366869","0.0-29.0-1.5","SS1613175394989","trial","","40","800","1349.7100000065984","images/stimuli/spore_stims/simple_08_A_c.gif","images/stimuli/spore_stims/simple_11_A_a.gif","","","","","7","simple_dissimilar","images/stimuli/spore_stims/simple_11_A_a.gif","right","","","","",""
"","null","html-keyboard-response","146","367680","0.0-29.0-0.6","SS1613175394989","","","null","","","","","<p><img src= images/blank.png width =""200"" height = ""200"" style = ""float:right""></p><p><img src=images/blank.png width =""800"" height = ""200""></p>","","","","","","","","","","","",""
"","576.7300000006799","sequential-stimulus-presentation","147","369060","0.0-29.0-1.6","SS1613175394989","trial","","40","800","1376.7300000006799","images/stimuli/spore_stims/simple_08_A_c.gif","images/stimuli/spore_stims/simple_11_A_a.gif","","","","","7","simple_dissimilar","images/stimuli/spore_stims/simple_11_A_a.gif","right","","","","",""
"","null","html-keyboard-response","148","369960","0.0-29.0-0.7","SS1613175394989","","","null","","","","","<p><img src= images/blank.png width =""200"" height = ""200"" style = ""float:right""></p><p><img src=images/blank.png width =""800"" height = ""200""></p>","","","","","","","","","","","",""
"","1475.6449999986216","sequential-stimulus-presentation","149","372252","0.0-29.0-1.7","SS1613175394989","trial","","40","800","2275.6449999986216","images/stimuli/spore_stims/simple_08_A_c.gif","images/stimuli/spore_stims/simple_11_A_a.gif","","","","","7","simple_dissimilar","images/stimuli/spore_stims/simple_11_A_a.gif","right","","","","",""
"","1741.2899999908404","html-keyboard-response","150","373996","0.0-30.0","SS1613175394989","pref_question","","51","","","","","<video width ='960' height = '540' style='padding-top:8%' autoplay muted><source src='images/stimuli/wall_pref.mp4' type='video/mp4'></video>","3","right","66%","7","","","","","","","",""
"","802.2849999979371","sequential-stimulus-presentation","151","375612","0.0-31.0","SS1613175394989","pref_reveal","","40","800","1602.2849999979371","null","null","","","","","7","","","","background","","","",""
"","null","html-keyboard-response","152","376621","0.0-32.0-0.0","SS1613175394989","","","null","","","","","<p><img src= images/blank.png width =""200"" height = ""200"" style = ""float:right""></p><p><img src=images/blank.png width =""800"" height = ""200""></p>","","","","","","","","","","","",""
"","1034.3949999951292","sequential-stimulus-presentation","153","378460","0.0-32.0-1.0","SS1613175394989","trial","","40","800","1834.3949999951292","images/stimuli/spore_stims/simple_19_B_a.gif","images/stimuli/spore_stims/simple_19_A_d.gif","","","","","8","simple_dissimilar","images/stimuli/spore_stims/simple_19_A_d.gif","middle","","","","",""
"","null","html-keyboard-response","154","379411","0.0-32.0-0.1","SS1613175394989","","","null","","","","","<p><img src= images/blank.png width =""200"" height = ""200"" style = ""float:right""></p><p><img src=images/blank.png width =""800"" height = ""200""></p>","","","","","","","","","","","",""
"","1030.3400000120746","sequential-stimulus-presentation","155","381260","0.0-32.0-1.1","SS1613175394989","trial","","40","800","1830.3400000120746","images/stimuli/spore_stims/simple_19_B_a.gif","images/stimuli/spore_stims/simple_19_A_d.gif","","","","","8","simple_dissimilar","images/stimuli/spore_stims/simple_19_A_d.gif","middle","","","","",""
"","null","html-keyboard-response","156","382090","0.0-32.0-0.2","SS1613175394989","","","null","","","","","<p><img src= images/blank.png width =""200"" height = ""200"" style = ""float:right""></p><p><img src=images/blank.png width =""800"" height = ""200""></p>","","","","","","","","","","","",""
"","685.2450000005774","sequential-stimulus-presentation","157","383580","0.0-32.0-1.2","SS1613175394989","trial","","40","800","1485.2450000005774","images/stimuli/spore_stims/simple_19_B_a.gif","images/stimuli/spore_stims/simple_19_A_d.gif","","","","","8","simple_dissimilar","images/stimuli/spore_stims/simple_19_A_d.gif","middle","","","","",""
"","null","html-keyboard-response","158","384776","0.0-32.0-0.3","SS1613175394989","","","null","","","","","<p><img src= images/blank.png width =""200"" height = ""200"" style = ""float:right""></p><p><img src=images/blank.png width =""800"" height = ""200""></p>","","","","","","","","","","","",""
"","1057.8300000051968","sequential-stimulus-presentation","159","386653","0.0-32.0-1.3","SS1613175394989","trial","","40","800","1857.8300000051968","images/stimuli/spore_stims/simple_19_B_a.gif","images/stimuli/spore_stims/simple_19_A_d.gif","","","","","8","simple_dissimilar","images/stimuli/spore_stims/simple_19_A_d.gif","middle","","","","",""
"","null","html-keyboard-response","160","387710","0.0-32.0-0.4","SS1613175394989","","","null","","","","","<p><img src= images/blank.png width =""200"" height = ""200"" style = ""float:right""></p><p><img src=images/blank.png width =""800"" height = ""200""></p>","","","","","","","","","","","",""
"","1133.6449999944307","sequential-stimulus-presentation","161","389661","0.0-32.0-1.4","SS1613175394989","trial","","40","800","1933.6449999944307","images/stimuli/spore_stims/simple_19_B_a.gif","images/stimuli/spore_stims/simple_19_A_d.gif","","","","","8","simple_dissimilar","images/stimuli/spore_stims/simple_19_B_a.gif","right","","","","",""
"","null","html-keyboard-response","162","390474","0.0-32.0-0.5","SS1613175394989","","","null","","","","","<p><img src= images/blank.png width =""200"" height = ""200"" style = ""float:right""></p><p><img src=images/blank.png width =""800"" height = ""200""></p>","","","","","","","","","","","",""
"","394.35999999113847","sequential-stimulus-presentation","163","391684","0.0-32.0-1.5","SS1613175394989","trial","","40","800","1194.3599999911385","images/stimuli/spore_stims/simple_19_B_a.gif","images/stimuli/spore_stims/simple_19_A_d.gif","","","","","8","simple_dissimilar","images/stimuli/spore_stims/simple_19_A_d.gif","middle","","","","",""
"","null","html-keyboard-response","164","392833","0.0-32.0-0.6","SS1613175394989","","","null","","","","","<p><img src= images/blank.png width =""200"" height = ""200"" style = ""float:right""></p><p><img src=images/blank.png width =""800"" height = ""200""></p>","","","","","","","","","","","",""
"","671.4499999943655","sequential-stimulus-presentation","165","394308","0.0-32.0-1.6","SS1613175394989","trial","","40","800","1471.4499999943655","images/stimuli/spore_stims/simple_19_B_a.gif","images/stimuli/spore_stims/simple_19_A_d.gif","","","","","8","simple_dissimilar","images/stimuli/spore_stims/simple_19_A_d.gif","middle","","","","",""
"","null","html-keyboard-response","166","395246","0.0-32.0-0.7","SS1613175394989","","","null","","","","","<p><img src= images/blank.png width =""200"" height = ""200"" style = ""float:right""></p><p><img src=images/blank.png width =""800"" height = ""200""></p>","","","","","","","","","","","",""
"","1406.4199999993434","sequential-stimulus-presentation","167","397460","0.0-32.0-1.7","SS1613175394989","trial","","40","800","2206.4199999993434","images/stimuli/spore_stims/simple_19_B_a.gif","images/stimuli/spore_stims/simple_19_A_d.gif","","","","","8","simple_dissimilar","images/stimuli/spore_stims/simple_19_A_d.gif","middle","","","","",""
"","2021.1450000060722","html-keyboard-response","168","399484","0.0-33.0","SS1613175394989","pref_question","","51","","","","","<video width ='960' height = '540' style='padding-top:8%' autoplay muted><source src='images/stimuli/wall_pref.mp4' type='video/mp4'></video>","3","right","66%","8","","","","","","","",""
"","959.5350000017788","sequential-stimulus-presentation","169","401252","0.0-34.0","SS1613175394989","pref_reveal","","40","800","1759.5350000017788","null","null","","","","","8","","","","deviant","","","",""
"","null","html-keyboard-response","170","402513","0.0-35.0-0.0","SS1613175394989","","","null","","","","","<p><img src= images/blank.png width =""200"" height = ""200"" style = ""float:right""></p><p><img src=images/blank.png width =""800"" height = ""200""></p>","","","","","","","","","","","",""
"","349.80999999970663","sequential-stimulus-presentation","171","403668","0.0-35.0-1.0","SS1613175394989","trial","","40","800","1149.8099999997066","images/stimuli/spore_stims/simple_17_B_c.gif","images/stimuli/spore_stims/simple_17_A_c.gif","","","","","9","simple_similar","images/stimuli/spore_stims/simple_17_A_c.gif","middle","","","","",""
"","null","html-keyboard-response","172","404646","0.0-35.0-0.1","SS1613175394989","","","null","","","","","<p><img src= images/blank.png width =""200"" height = ""200"" style = ""float:right""></p><p><img src=images/blank.png width =""800"" height = ""200""></p>","","","","","","","","","","","",""
"","834.7450000001118","sequential-stimulus-presentation","173","406284","0.0-35.0-1.1","SS1613175394989","trial","","40","800","1634.7450000001118","images/stimuli/spore_stims/simple_17_B_c.gif","images/stimuli/spore_stims/simple_17_A_c.gif","","","","","9","simple_similar","images/stimuli/spore_stims/simple_17_A_c.gif","middle","","","","",""
"","null","html-keyboard-response","174","407507","0.0-35.0-0.2","SS1613175394989","","","null","","","","","<p><img src= images/blank.png width =""200"" height = ""200"" style = ""float:right""></p><p><img src=images/blank.png width =""800"" height = ""200""></p>","","","","","","","","","","","",""
"","1473.2749999966472","sequential-stimulus-presentation","175","409789","0.0-35.0-1.2","SS1613175394989","trial","","40","800","2273.2749999966472","images/stimuli/spore_stims/simple_17_B_c.gif","images/stimuli/spore_stims/simple_17_A_c.gif","","","","","9","simple_similar","images/stimuli/spore_stims/simple_17_A_c.gif","middle","","","","",""
"","null","html-keyboard-response","176","410671","0.0-35.0-0.3","SS1613175394989","","","null","","","","","<p><img src= images/blank.png width =""200"" height = ""200"" style = ""float:right""></p><p><img src=images/blank.png width =""800"" height = ""200""></p>","","","","","","","","","","","",""
"","634.0950000012526","sequential-stimulus-presentation","177","412124","0.0-35.0-1.3","SS1613175394989","trial","","40","800","1434.0950000012526","images/stimuli/spore_stims/simple_17_B_c.gif","images/stimuli/spore_stims/simple_17_A_c.gif","","","","","9","simple_similar","images/stimuli/spore_stims/simple_17_A_c.gif","middle","","","","",""
"","null","html-keyboard-response","178","413061","0.0-35.0-0.4","SS1613175394989","","","null","","","","","<p><img src= images/blank.png width =""200"" height = ""200"" style = ""float:right""></p><p><img src=images/blank.png width =""800"" height = ""200""></p>","","","","","","","","","","","",""
"","896.7600000032689","sequential-stimulus-presentation","179","414764","0.0-35.0-1.4","SS1613175394989","trial","","40","800","1696.760000003269","images/stimuli/spore_stims/simple_17_B_c.gif","images/stimuli/spore_stims/simple_17_A_c.gif","","","","","9","simple_similar","images/stimuli/spore_stims/simple_17_A_c.gif","middle","","","","",""
"","null","html-keyboard-response","180","415847","0.0-35.0-0.5","SS1613175394989","","","null","","","","","<p><img src= images/blank.png width =""200"" height = ""200"" style = ""float:right""></p><p><img src=images/blank.png width =""800"" height = ""200""></p>","","","","","","","","","","","",""
"","2527.190000007977","sequential-stimulus-presentation","181","419188","0.0-35.0-1.5","SS1613175394989","trial","","40","800","3327.190000007977","images/stimuli/spore_stims/simple_17_B_c.gif","images/stimuli/spore_stims/simple_17_A_c.gif","","","","","9","simple_similar","images/stimuli/spore_stims/simple_17_B_c.gif","right","","","","",""
"","null","html-keyboard-response","182","420271","0.0-35.0-0.6","SS1613175394989","","","null","","","","","<p><img src= images/blank.png width =""200"" height = ""200"" style = ""float:right""></p><p><img src=images/blank.png width =""800"" height = ""200""></p>","","","","","","","","","","","",""
"","451.78499999747146","sequential-stimulus-presentation","183","421539","0.0-35.0-1.6","SS1613175394989","trial","","40","800","1251.7849999974715","images/stimuli/spore_stims/simple_17_B_c.gif","images/stimuli/spore_stims/simple_17_A_c.gif","","","","","9","simple_similar","images/stimuli/spore_stims/simple_17_A_c.gif","middle","","","","",""
"","null","html-keyboard-response","184","422521","0.0-35.0-0.7","SS1613175394989","","","null","","","","","<p><img src= images/blank.png width =""200"" height = ""200"" style = ""float:right""></p><p><img src=images/blank.png width =""800"" height = ""200""></p>","","","","","","","","","","","",""
"","456.94499999808613","sequential-stimulus-presentation","185","423796","0.0-35.0-1.7","SS1613175394989","trial","","40","800","1256.9449999980861","images/stimuli/spore_stims/simple_17_B_c.gif","images/stimuli/spore_stims/simple_17_A_c.gif","","","","","9","simple_similar","images/stimuli/spore_stims/simple_17_A_c.gif","middle","","","","",""
"","835.3550000028918","html-keyboard-response","186","424636","0.0-36.0","SS1613175394989","pref_question","","51","","","","","<video width ='960' height = '540' style='padding-top:8%' autoplay muted><source src='images/stimuli/wall_pref.mp4' type='video/mp4'></video>","3","right","66%","9","","","","","","","",""
"","691.4850000030128","sequential-stimulus-presentation","187","426132","0.0-37.0","SS1613175394989","pref_reveal","","40","800","1491.4850000030128","null","null","","","","","9","","","","deviant","","","",""
"","null","html-keyboard-response","188","427034","0.0-38.0-0.0","SS1613175394989","","","null","","","","","<p><img src= images/blank.png width =""200"" height = ""200"" style = ""float:right""></p><p><img src=images/blank.png width =""800"" height = ""200""></p>","","","","","","","","","","","",""
"","697.6450000074692","sequential-stimulus-presentation","189","428548","0.0-38.0-1.0","SS1613175394989","trial","","40","800","1497.6450000074692","images/stimuli/spore_stims/complex_17_B_a.gif","images/stimuli/spore_stims/complex_17_A_a.gif","","","","","10","complex_similar","images/stimuli/spore_stims/complex_17_A_a.gif","middle","","","","",""
"","null","html-keyboard-response","190","429382","0.0-38.0-0.1","SS1613175394989","","","null","","","","","<p><img src= images/blank.png width =""200"" height = ""200"" style = ""float:right""></p><p><img src=images/blank.png width =""800"" height = ""200""></p>","","","","","","","","","","","",""
"","556.6650000109803","sequential-stimulus-presentation","191","430756","0.0-38.0-1.1","SS1613175394989","trial","","40","800","1356.6650000109803","images/stimuli/spore_stims/complex_17_B_a.gif","images/stimuli/spore_stims/complex_17_A_a.gif","","","","","10","complex_similar","images/stimuli/spore_stims/complex_17_A_a.gif","middle","","","","",""
"","null","html-keyboard-response","192","431728","0.0-38.0-0.2","SS1613175394989","","","null","","","","","<p><img src= images/blank.png width =""200"" height = ""200"" style = ""float:right""></p><p><img src=images/blank.png width =""800"" height = ""200""></p>","","","","","","","","","","","",""
"","481.23999999370426","sequential-stimulus-presentation","193","433028","0.0-38.0-1.2","SS1613175394989","trial","","40","800","1281.2399999937043","images/stimuli/spore_stims/complex_17_B_a.gif","images/stimuli/spore_stims/complex_17_A_a.gif","","","","","10","complex_similar","images/stimuli/spore_stims/complex_17_A_a.gif","middle","","","","",""
"","null","html-keyboard-response","194","434182","0.0-38.0-0.3","SS1613175394989","","","null","","","","","<p><img src= images/blank.png width =""200"" height = ""200"" style = ""float:right""></p><p><img src=images/blank.png width =""800"" height = ""200""></p>","","","","","","","","","","","",""
"","478.5550000087824","sequential-stimulus-presentation","195","435468","0.0-38.0-1.3","SS1613175394989","trial","","40","800","1278.5550000087824","images/stimuli/spore_stims/complex_17_B_a.gif","images/stimuli/spore_stims/complex_17_A_a.gif","","","","","10","complex_similar","images/stimuli/spore_stims/complex_17_A_a.gif","middle","","","","",""
"","null","html-keyboard-response","196","436589","0.0-38.0-0.4","SS1613175394989","","","null","","","","","<p><img src= images/blank.png width =""200"" height = ""200"" style = ""float:right""></p><p><img src=images/blank.png width =""800"" height = ""200""></p>","","","","","","","","","","","",""
"","505.63500000862405","sequential-stimulus-presentation","197","437900","0.0-38.0-1.4","SS1613175394989","trial","","40","800","1305.635000008624","images/stimuli/spore_stims/complex_17_B_a.gif","images/stimuli/spore_stims/complex_17_A_a.gif","","","","","10","complex_similar","images/stimuli/spore_stims/complex_17_A_a.gif","middle","","","","",""
"","null","html-keyboard-response","198","439132","0.0-38.0-0.5","SS1613175394989","","","null","","","","","<p><img src= images/blank.png width =""200"" height = ""200"" style = ""float:right""></p><p><img src=images/blank.png width =""800"" height = ""200""></p>","","","","","","","","","","","",""
"","1556.2900000077207","sequential-stimulus-presentation","199","441508","0.0-38.0-1.5","SS1613175394989","trial","","40","800","2356.2900000077207","images/stimuli/spore_stims/complex_17_B_a.gif","images/stimuli/spore_stims/complex_17_A_a.gif","","","","","10","complex_similar","images/stimuli/spore_stims/complex_17_B_a.gif","right","","","","",""
"","null","html-keyboard-response","200","442663","0.0-38.0-0.6","SS1613175394989","","","null","","","","","<p><img src= images/blank.png width =""200"" height = ""200"" style = ""float:right""></p><p><img src=images/blank.png width =""800"" height = ""200""></p>","","","","","","","","","","","",""
"","466.8650000094203","sequential-stimulus-presentation","201","443948","0.0-38.0-1.6","SS1613175394989","trial","","40","800","1266.8650000094203","images/stimuli/spore_stims/complex_17_B_a.gif","images/stimuli/spore_stims/complex_17_A_a.gif","","","","","10","complex_similar","images/stimuli/spore_stims/complex_17_A_a.gif","middle","","","","",""
"","null","html-keyboard-response","202","444871","0.0-38.0-0.7","SS1613175394989","","","null","","","","","<p><img src= images/blank.png width =""200"" height = ""200"" style = ""float:right""></p><p><img src=images/blank.png width =""800"" height = ""200""></p>","","","","","","","","","","","",""
"","377.4450000055367","sequential-stimulus-presentation","203","446052","0.0-38.0-1.7","SS1613175394989","trial","","40","800","1177.4450000055367","images/stimuli/spore_stims/complex_17_B_a.gif","images/stimuli/spore_stims/complex_17_A_a.gif","","","","","10","complex_similar","images/stimuli/spore_stims/complex_17_A_a.gif","middle","","","","",""
"","1059.4350000028498","html-keyboard-response","204","447116","0.0-39.0","SS1613175394989","pref_question","","51","","","","","<video width ='960' height = '540' style='padding-top:8%' autoplay muted><source src='images/stimuli/wall_pref.mp4' type='video/mp4'></video>","3","right","66%","10","","","","","","","",""
"","541.5550000034273","sequential-stimulus-presentation","205","448468","0.0-40.0","SS1613175394989","pref_reveal","","40","800","1341.5550000034273","null","null","","","","","10","","","","deviant","","","",""
"","null","html-keyboard-response","206","449446","0.0-41.0-0.0","SS1613175394989","","","null","","","","","<p><img src= images/blank.png width =""200"" height = ""200"" style = ""float:right""></p><p><img src=images/blank.png width =""800"" height = ""200""></p>","","","","","","","","","","","",""
"","645.1200000010431","sequential-stimulus-presentation","207","450908","0.0-41.0-1.0","SS1613175394989","trial","","40","800","1445.120000001043","images/stimuli/spore_stims/complex_07_B_d.gif","images/stimuli/spore_stims/complex_05_A_d.gif","","","","","11","complex_dissimilar","images/stimuli/spore_stims/complex_05_A_d.gif","right","","","","",""
"","null","html-keyboard-response","208","451908","0.0-41.0-0.1","SS1613175394989","","","null","","","","","<p><img src= images/blank.png width =""200"" height = ""200"" style = ""float:right""></p><p><img src=images/blank.png width =""800"" height = ""200""></p>","","","","","","","","","","","",""
"","442.4399999988964","sequential-stimulus-presentation","209","453156","0.0-41.0-1.1","SS1613175394989","trial","","40","800","1242.4399999988964","images/stimuli/spore_stims/complex_07_B_d.gif","images/stimuli/spore_stims/complex_05_A_d.gif","","","","","11","complex_dissimilar","images/stimuli/spore_stims/complex_05_A_d.gif","right","","","","",""
"","null","html-keyboard-response","210","454466","0.0-41.0-0.2","SS1613175394989","","","null","","","","","<p><img src= images/blank.png width =""200"" height = ""200"" style = ""float:right""></p><p><img src=images/blank.png width =""800"" height = ""200""></p>","","","","","","","","","","","",""
"","483.84500000975095","sequential-stimulus-presentation","211","455764","0.0-41.0-1.2","SS1613175394989","trial","","40","800","1283.845000009751","images/stimuli/spore_stims/complex_07_B_d.gif","images/stimuli/spore_stims/complex_05_A_d.gif","","","","","11","complex_dissimilar","images/stimuli/spore_stims/complex_07_B_d.gif","middle","","","","",""
"","null","html-keyboard-response","212","456862","0.0-41.0-0.3","SS1613175394989","","","null","","","","","<p><img src= images/blank.png width =""200"" height = ""200"" style = ""float:right""></p><p><img src=images/blank.png width =""800"" height = ""200""></p>","","","","","","","","","","","",""
"","354.7300000063842","sequential-stimulus-presentation","213","458036","0.0-41.0-1.3","SS1613175394989","trial","","40","800","1154.7300000063842","images/stimuli/spore_stims/complex_07_B_d.gif","images/stimuli/spore_stims/complex_05_A_d.gif","","","","","11","complex_dissimilar","images/stimuli/spore_stims/complex_05_A_d.gif","right","","","","",""
"","null","html-keyboard-response","214","458966","0.0-41.0-0.4","SS1613175394989","","","null","","","","","<p><img src= images/blank.png width =""200"" height = ""200"" style = ""float:right""></p><p><img src=images/blank.png width =""800"" height = ""200""></p>","","","","","","","","","","","",""
"","969.2899999936344","sequential-stimulus-presentation","215","460740","0.0-41.0-1.4","SS1613175394989","trial","","40","800","1769.2899999936344","images/stimuli/spore_stims/complex_07_B_d.gif","images/stimuli/spore_stims/complex_05_A_d.gif","","","","","11","complex_dissimilar","images/stimuli/spore_stims/complex_05_A_d.gif","right","","","","",""
"","null","html-keyboard-response","216","461812","0.0-41.0-0.5","SS1613175394989","","","null","","","","","<p><img src= images/blank.png width =""200"" height = ""200"" style = ""float:right""></p><p><img src=images/blank.png width =""800"" height = ""200""></p>","","","","","","","","","","","",""
"","461.3400000089314","sequential-stimulus-presentation","217","463092","0.0-41.0-1.5","SS1613175394989","trial","","40","800","1261.3400000089314","images/stimuli/spore_stims/complex_07_B_d.gif","images/stimuli/spore_stims/complex_05_A_d.gif","","","","","11","complex_dissimilar","images/stimuli/spore_stims/complex_05_A_d.gif","right","","","","",""
"","null","html-keyboard-response","218","464387","0.0-41.0-0.6","SS1613175394989","","","null","","","","","<p><img src= images/blank.png width =""200"" height = ""200"" style = ""float:right""></p><p><img src=images/blank.png width =""800"" height = ""200""></p>","","","","","","","","","","","",""
"","417.92000000714324","sequential-stimulus-presentation","219","465613","0.0-41.0-1.6","SS1613175394989","trial","","40","800","1217.9200000071432","images/stimuli/spore_stims/complex_07_B_d.gif","images/stimuli/spore_stims/complex_05_A_d.gif","","","","","11","complex_dissimilar","images/stimuli/spore_stims/complex_05_A_d.gif","right","","","","",""
"","null","html-keyboard-response","220","466674","0.0-41.0-0.7","SS1613175394989","","","null","","","","","<p><img src= images/blank.png width =""200"" height = ""200"" style = ""float:right""></p><p><img src=images/blank.png width =""800"" height = ""200""></p>","","","","","","","","","","","",""
"","472.6349999982631","sequential-stimulus-presentation","221","467965","0.0-41.0-1.7","SS1613175394989","trial","","40","800","1272.634999998263","images/stimuli/spore_stims/complex_07_B_d.gif","images/stimuli/spore_stims/complex_05_A_d.gif","","","","","11","complex_dissimilar","images/stimuli/spore_stims/complex_05_A_d.gif","right","","","","",""
"","876.075000007404","html-keyboard-response","222","468844","0.0-42.0","SS1613175394989","pref_question","","51","","","","","<video width ='960' height = '540' style='padding-top:8%' autoplay muted><source src='images/stimuli/wall_pref.mp4' type='video/mp4'></video>","3","right","66%","11","","","","","","","",""
"","769.3200000067009","sequential-stimulus-presentation","223","470420","0.0-43.0","SS1613175394989","pref_reveal","","40","800","1569.3200000067009","null","null","","","","","11","","","","background","","","",""
"","null","html-keyboard-response","224","471275","0.0-44.0-0.0","SS1613175394989","","","null","","","","","<p><img src= images/blank.png width =""200"" height = ""200"" style = ""float:right""></p><p><img src=images/blank.png width =""800"" height = ""200""></p>","","","","","","","","","","","",""
"","503.39499999245163","sequential-stimulus-presentation","225","472597","0.0-44.0-1.0","SS1613175394989","trial","","40","800","1303.3949999924516","images/stimuli/spore_stims/simple_14_A_b.gif","images/stimuli/spore_stims/simple_14_B_b.gif","","","","","12","simple_similar","images/stimuli/spore_stims/simple_14_B_b.gif","left","","","","",""
"","null","html-keyboard-response","226","473753","0.0-44.0-0.1","SS1613175394989","","","null","","","","","<p><img src= images/blank.png width =""200"" height = ""200"" style = ""float:right""></p><p><img src=images/blank.png width =""800"" height = ""200""></p>","","","","","","","","","","","",""
"","510.0499999971362","sequential-stimulus-presentation","227","475068","0.0-44.0-1.1","SS1613175394989","trial","","40","800","1310.0499999971362","images/stimuli/spore_stims/simple_14_A_b.gif","images/stimuli/spore_stims/simple_14_B_b.gif","","","","","12","simple_similar","images/stimuli/spore_stims/simple_14_B_b.gif","left","","","","",""
"","null","html-keyboard-response","228","476001","0.0-44.0-0.2","SS1613175394989","","","null","","","","","<p><img src= images/blank.png width =""200"" height = ""200"" style = ""float:right""></p><p><img src=images/blank.png width =""800"" height = ""200""></p>","","","","","","","","","","","",""
"","506.6450000012992","sequential-stimulus-presentation","229","477325","0.0-44.0-1.2","SS1613175394989","trial","","40","800","1306.6450000012992","images/stimuli/spore_stims/simple_14_A_b.gif","images/stimuli/spore_stims/simple_14_B_b.gif","","","","","12","simple_similar","images/stimuli/spore_stims/simple_14_B_b.gif","left","","","","",""
"","null","html-keyboard-response","230","478358","0.0-44.0-0.3","SS1613175394989","","","null","","","","","<p><img src= images/blank.png width =""200"" height = ""200"" style = ""float:right""></p><p><img src=images/blank.png width =""800"" height = ""200""></p>","","","","","","","","","","","",""
"","462.41000000736676","sequential-stimulus-presentation","231","479637","0.0-44.0-1.3","SS1613175394989","trial","","40","800","1262.4100000073668","images/stimuli/spore_stims/simple_14_A_b.gif","images/stimuli/spore_stims/simple_14_B_b.gif","","","","","12","simple_similar","images/stimuli/spore_stims/simple_14_B_b.gif","left","","","","",""
"","null","html-keyboard-response","232","480680","0.0-44.0-0.4","SS1613175394989","","","null","","","","","<p><img src= images/blank.png width =""200"" height = ""200"" style = ""float:right""></p><p><img src=images/blank.png width =""800"" height = ""200""></p>","","","","","","","","","","","",""
"","332.2950000001583","sequential-stimulus-presentation","233","481828","0.0-44.0-1.4","SS1613175394989","trial","","40","800","1132.2950000001583","images/stimuli/spore_stims/simple_14_A_b.gif","images/stimuli/spore_stims/simple_14_B_b.gif","","","","","12","simple_similar","images/stimuli/spore_stims/simple_14_B_b.gif","left","","","","",""
"","null","html-keyboard-response","234","482872","0.0-44.0-0.5","SS1613175394989","","","null","","","","","<p><img src= images/blank.png width =""200"" height = ""200"" style = ""float:right""></p><p><img src=images/blank.png width =""800"" height = ""200""></p>","","","","","","","","","","","",""
"","412.1000000013737","sequential-stimulus-presentation","235","484101","0.0-44.0-1.5","SS1613175394989","trial","","40","800","1212.1000000013737","images/stimuli/spore_stims/simple_14_A_b.gif","images/stimuli/spore_stims/simple_14_B_b.gif","","","","","12","simple_similar","images/stimuli/spore_stims/simple_14_A_b.gif","middle","","","","",""
"","null","html-keyboard-response","236","485317","0.0-44.0-0.6","SS1613175394989","","","null","","","","","<p><img src= images/blank.png width =""200"" height = ""200"" style = ""float:right""></p><p><img src=images/blank.png width =""800"" height = ""200""></p>","","","","","","","","","","","",""
"","2089.3400000059046","sequential-stimulus-presentation","237","488220","0.0-44.0-1.6","SS1613175394989","trial","","40","800","2889.3400000059046","images/stimuli/spore_stims/simple_14_A_b.gif","images/stimuli/spore_stims/simple_14_B_b.gif","","","","","12","simple_similar","images/stimuli/spore_stims/simple_14_B_b.gif","left","","","","",""
"","null","html-keyboard-response","238","489094","0.0-44.0-0.7","SS1613175394989","","","null","","","","","<p><img src= images/blank.png width =""200"" height = ""200"" style = ""float:right""></p><p><img src=images/blank.png width =""800"" height = ""200""></p>","","","","","","","","","","","",""
"","457.3600000003353","sequential-stimulus-presentation","239","490365","0.0-44.0-1.7","SS1613175394989","trial","","40","800","1257.3600000003353","images/stimuli/spore_stims/simple_14_A_b.gif","images/stimuli/spore_stims/simple_14_B_b.gif","","","","","12","simple_similar","images/stimuli/spore_stims/simple_14_B_b.gif","left","","","","",""
"","1780.0799999968149","html-keyboard-response","240","492149","0.0-45.0","SS1613175394989","pref_question","","49","","","","","<video width ='960' height = '540' style='padding-top:8%' autoplay muted><source src='images/stimuli/wall_pref.mp4' type='video/mp4'></video>","1","left","25%","12","","","","","","","",""
"","756.4199999906123","sequential-stimulus-presentation","241","493725","0.0-46.0","SS1613175394989","pref_reveal","","40","800","1556.4199999906123","null","null","","","","","12","","","","background","","","",""
"","null","html-keyboard-response","242","494953","0.0-47.0-0.0","SS1613175394989","","","null","","","","","<p><img src= images/blank.png width =""200"" height = ""200"" style = ""float:right""></p><p><img src=images/blank.png width =""800"" height = ""200""></p>","","","","","","","","","","","",""
"","550.5649999977322","sequential-stimulus-presentation","243","496308","0.0-47.0-1.0","SS1613175394989","trial","","40","800","1350.5649999977322","images/stimuli/spore_stims/simple_12_B_a.gif","images/stimuli/spore_stims/simple_01_A_c.gif","","","","","13","simple_dissimilar","images/stimuli/spore_stims/simple_01_A_c.gif","middle","","","","",""
"","null","html-keyboard-response","244","497240","0.0-47.0-0.1","SS1613175394989","","","null","","","","","<p><img src= images/blank.png width =""200"" height = ""200"" style = ""float:right""></p><p><img src=images/blank.png width =""800"" height = ""200""></p>","","","","","","","","","","","",""
"","571.0249999974621","sequential-stimulus-presentation","245","498620","0.0-47.0-1.1","SS1613175394989","trial","","40","800","1371.0249999974621","images/stimuli/spore_stims/simple_12_B_a.gif","images/stimuli/spore_stims/simple_01_A_c.gif","","","","","13","simple_dissimilar","images/stimuli/spore_stims/simple_01_A_c.gif","middle","","","","",""
"","null","html-keyboard-response","246","499807","0.0-47.0-0.2","SS1613175394989","","","null","","","","","<p><img src= images/blank.png width =""200"" height = ""200"" style = ""float:right""></p><p><img src=images/blank.png width =""800"" height = ""200""></p>","","","","","","","","","","","",""
"","491.21999999624677","sequential-stimulus-presentation","247","501117","0.0-47.0-1.2","SS1613175394989","trial","","40","800","1291.2199999962468","images/stimuli/spore_stims/simple_12_B_a.gif","images/stimuli/spore_stims/simple_01_A_c.gif","","","","","13","simple_dissimilar","images/stimuli/spore_stims/simple_01_A_c.gif","middle","","","","",""
"","null","html-keyboard-response","248","502326","0.0-47.0-0.3","SS1613175394989","","","null","","","","","<p><img src= images/blank.png width =""200"" height = ""200"" style = ""float:right""></p><p><img src=images/blank.png width =""800"" height = ""200""></p>","","","","","","","","","","","",""
"","2634.214999998221","sequential-stimulus-presentation","249","505765","0.0-47.0-1.3","SS1613175394989","trial","","40","800","3434.214999998221","images/stimuli/spore_stims/simple_12_B_a.gif","images/stimuli/spore_stims/simple_01_A_c.gif","","","","","13","simple_dissimilar","images/stimuli/spore_stims/simple_01_A_c.gif","middle","","","","",""
"","null","html-keyboard-response","250","506643","0.0-47.0-0.4","SS1613175394989","","","null","","","","","<p><img src= images/blank.png width =""200"" height = ""200"" style = ""float:right""></p><p><img src=images/blank.png width =""800"" height = ""200""></p>","","","","","","","","","","","",""
"","675.3299999982119","sequential-stimulus-presentation","251","508125","0.0-47.0-1.4","SS1613175394989","trial","","40","800","1475.3299999982119","images/stimuli/spore_stims/simple_12_B_a.gif","images/stimuli/spore_stims/simple_01_A_c.gif","","","","","13","simple_dissimilar","images/stimuli/spore_stims/simple_01_A_c.gif","middle","","","","",""
"","null","html-keyboard-response","252","509371","0.0-47.0-0.5","SS1613175394989","","","null","","","","","<p><img src= images/blank.png width =""200"" height = ""200"" style = ""float:right""></p><p><img src=images/blank.png width =""800"" height = ""200""></p>","","","","","","","","","","","",""
"","1614.4849999982398","sequential-stimulus-presentation","253","511805","0.0-47.0-1.5","SS1613175394989","trial","","40","800","2414.48499999824","images/stimuli/spore_stims/simple_12_B_a.gif","images/stimuli/spore_stims/simple_01_A_c.gif","","","","","13","simple_dissimilar","images/stimuli/spore_stims/simple_12_B_a.gif","right","","","","",""
"","null","html-keyboard-response","254","512795","0.0-47.0-0.6","SS1613175394989","","","null","","","","","<p><img src= images/blank.png width =""200"" height = ""200"" style = ""float:right""></p><p><img src=images/blank.png width =""800"" height = ""200""></p>","","","","","","","","","","","",""
"","436.67999999888707","sequential-stimulus-presentation","255","514036","0.0-47.0-1.6","SS1613175394989","trial","","40","800","1236.679999998887","images/stimuli/spore_stims/simple_12_B_a.gif","images/stimuli/spore_stims/simple_01_A_c.gif","","","","","13","simple_dissimilar","images/stimuli/spore_stims/simple_01_A_c.gif","middle","","","","",""
"","null","html-keyboard-response","256","515027","0.0-47.0-0.7","SS1613175394989","","","null","","","","","<p><img src= images/blank.png width =""200"" height = ""200"" style = ""float:right""></p><p><img src=images/blank.png width =""800"" height = ""200""></p>","","","","","","","","","","","",""
"","484.8050000000512","sequential-stimulus-presentation","257","516333","0.0-47.0-1.7","SS1613175394989","trial","","40","800","1284.8050000000512","images/stimuli/spore_stims/simple_12_B_a.gif","images/stimuli/spore_stims/simple_01_A_c.gif","","","","","13","simple_dissimilar","images/stimuli/spore_stims/simple_01_A_c.gif","middle","","","","",""
"","2674.8200000001816","html-keyboard-response","258","519012","0.0-48.0","SS1613175394989","pref_question","","50","","","","","<video width ='960' height = '540' style='padding-top:8%' autoplay muted><source src='images/stimuli/wall_pref.mp4' type='video/mp4'></video>","2","middle","45%","13","","","","","","","",""
"","991.3799999922048","sequential-stimulus-presentation","259","520820","0.0-49.0","SS1613175394989","pref_reveal","","40","800","1791.3799999922048","null","null","","","","","13","","","","background","","","",""
"","null","html-keyboard-response","260","521990","0.0-50.0-0.0","SS1613175394989","","","null","","","","","<p><img src= images/blank.png width =""200"" height = ""200"" style = ""float:right""></p><p><img src=images/blank.png width =""800"" height = ""200""></p>","","","","","","","","","","","",""
"","1469.6850000036648","sequential-stimulus-presentation","261","524276","0.0-50.0-1.0","SS1613175394989","trial","","40","800","2269.6850000036648","images/stimuli/spore_stims/simple_15_B_c.gif","images/stimuli/spore_stims/simple_15_A_c.gif","","","","","14","simple_similar","images/stimuli/spore_stims/simple_15_A_c.gif","left","","","","",""
"","null","html-keyboard-response","262","525418","0.0-50.0-0.1","SS1613175394989","","","null","","","","","<p><img src= images/blank.png width =""200"" height = ""200"" style = ""float:right""></p><p><img src=images/blank.png width =""800"" height = ""200""></p>","","","","","","","","","","","",""
"","52.58499999763444","sequential-stimulus-presentation","263","526284","0.0-50.0-1.1","SS1613175394989","trial","","40","800","852.5849999976344","images/stimuli/spore_stims/simple_15_B_c.gif","images/stimuli/spore_stims/simple_15_A_c.gif","","","","","14","simple_similar","images/stimuli/spore_stims/simple_15_A_c.gif","left","","","","",""
"","null","html-keyboard-response","264","527471","0.0-50.0-0.2","SS1613175394989","","","null","","","","","<p><img src= images/blank.png width =""200"" height = ""200"" style = ""float:right""></p><p><img src=images/blank.png width =""800"" height = ""200""></p>","","","","","","","","","","","",""
"","505.60000000405125","sequential-stimulus-presentation","265","528780","0.0-50.0-1.2","SS1613175394989","trial","","40","800","1305.6000000040513","images/stimuli/spore_stims/simple_15_B_c.gif","images/stimuli/spore_stims/simple_15_A_c.gif","","","","","14","simple_similar","images/stimuli/spore_stims/simple_15_A_c.gif","left","","","","",""
"","null","html-keyboard-response","266","529940","0.0-50.0-0.3","SS1613175394989","","","null","","","","","<p><img src= images/blank.png width =""200"" height = ""200"" style = ""float:right""></p><p><img src=images/blank.png width =""800"" height = ""200""></p>","","","","","","","","","","","",""
"","531.3750000059372","sequential-stimulus-presentation","267","531284","0.0-50.0-1.3","SS1613175394989","trial","","40","800","1331.3750000059372","images/stimuli/spore_stims/simple_15_B_c.gif","images/stimuli/spore_stims/simple_15_A_c.gif","","","","","14","simple_similar","images/stimuli/spore_stims/simple_15_A_c.gif","left","","","","",""
"","null","html-keyboard-response","268","532318","0.0-50.0-0.4","SS1613175394989","","","null","","","","","<p><img src= images/blank.png width =""200"" height = ""200"" style = ""float:right""></p><p><img src=images/blank.png width =""800"" height = ""200""></p>","","","","","","","","","","","",""
"","278.3950000011828","sequential-stimulus-presentation","269","533413","0.0-50.0-1.4","SS1613175394989","trial","","40","800","1078.3950000011828","images/stimuli/spore_stims/simple_15_B_c.gif","images/stimuli/spore_stims/simple_15_A_c.gif","","","","","14","simple_similar","images/stimuli/spore_stims/simple_15_A_c.gif","left","","","","",""
"","null","html-keyboard-response","270","534580","0.0-50.0-0.5","SS1613175394989","","","null","","","","","<p><img src= images/blank.png width =""200"" height = ""200"" style = ""float:right""></p><p><img src=images/blank.png width =""800"" height = ""200""></p>","","","","","","","","","","","",""
"","431.71499999880325","sequential-stimulus-presentation","271","535829","0.0-50.0-1.5","SS1613175394989","trial","","40","800","1231.7149999988033","images/stimuli/spore_stims/simple_15_B_c.gif","images/stimuli/spore_stims/simple_15_A_c.gif","","","","","14","simple_similar","images/stimuli/spore_stims/simple_15_B_c.gif","right","","","","",""
"","null","html-keyboard-response","272","536921","0.0-50.0-0.6","SS1613175394989","","","null","","","","","<p><img src= images/blank.png width =""200"" height = ""200"" style = ""float:right""></p><p><img src=images/blank.png width =""800"" height = ""200""></p>","","","","","","","","","","","",""
"","509.37499999417923","sequential-stimulus-presentation","273","538245","0.0-50.0-1.6","SS1613175394989","trial","","40","800","1309.3749999941792","images/stimuli/spore_stims/simple_15_B_c.gif","images/stimuli/spore_stims/simple_15_A_c.gif","","","","","14","simple_similar","images/stimuli/spore_stims/simple_15_A_c.gif","left","","","","",""
"","null","html-keyboard-response","274","539215","0.0-50.0-0.7","SS1613175394989","","","null","","","","","<p><img src= images/blank.png width =""200"" height = ""200"" style = ""float:right""></p><p><img src=images/blank.png width =""800"" height = ""200""></p>","","","","","","","","","","","",""
"","449.239999987185","sequential-stimulus-presentation","275","540477","0.0-50.0-1.7","SS1613175394989","trial","","40","800","1249.239999987185","images/stimuli/spore_stims/simple_15_B_c.gif","images/stimuli/spore_stims/simple_15_A_c.gif","","","","","14","simple_similar","images/stimuli/spore_stims/simple_15_A_c.gif","left","","","","",""
"","2346.5649999998277","html-keyboard-response","276","542828","0.0-51.0","SS1613175394989","pref_question","","49","","","","","<video width ='960' height = '540' style='padding-top:8%' autoplay muted><source src='images/stimuli/wall_pref.mp4' type='video/mp4'></video>","1","left","25%","14","","","","","","","",""
"","672.1499999985099","sequential-stimulus-presentation","277","544308","0.0-52.0","SS1613175394989","pref_reveal","","40","800","1472.1499999985099","null","null","","","","","14","","","","background","","","",""
"","null","html-keyboard-response","278","545530","0.0-53.0-0.0","SS1613175394989","","","null","","","","","<p><img src= images/blank.png width =""200"" height = ""200"" style = ""float:right""></p><p><img src=images/blank.png width =""800"" height = ""200""></p>","","","","","","","","","","","",""
"","509.2149999982212","sequential-stimulus-presentation","279","546844","0.0-53.0-1.0","SS1613175394989","trial","","40","800","1309.2149999982212","images/stimuli/spore_stims/complex_14_B_b.gif","images/stimuli/spore_stims/complex_14_A_b.gif","","","","","15","complex_similar","images/stimuli/spore_stims/complex_14_A_b.gif","middle","","","","",""
"","null","html-keyboard-response","280","547898","0.0-53.0-0.1","SS1613175394989","","","null","","","","","<p><img src= images/blank.png width =""200"" height = ""200"" style = ""float:right""></p><p><img src=images/blank.png width =""800"" height = ""200""></p>","","","","","","","","","","","",""
"","393.58000000356697","sequential-stimulus-presentation","281","549100","0.0-53.0-1.1","SS1613175394989","trial","","40","800","1193.580000003567","images/stimuli/spore_stims/complex_14_B_b.gif","images/stimuli/spore_stims/complex_14_A_b.gif","","","","","15","complex_similar","images/stimuli/spore_stims/complex_14_A_b.gif","middle","","","","",""
"","null","html-keyboard-response","282","550231","0.0-53.0-0.2","SS1613175394989","","","null","","","","","<p><img src= images/blank.png width =""200"" height = ""200"" style = ""float:right""></p><p><img src=images/blank.png width =""800"" height = ""200""></p>","","","","","","","","","","","",""
"","345.8799999934854","sequential-stimulus-presentation","283","551388","0.0-53.0-1.2","SS1613175394989","trial","","40","800","1145.8799999934854","images/stimuli/spore_stims/complex_14_B_b.gif","images/stimuli/spore_stims/complex_14_A_b.gif","","","","","15","complex_similar","images/stimuli/spore_stims/complex_14_B_b.gif","right","","","","",""
"","null","html-keyboard-response","284","552573","0.0-53.0-0.3","SS1613175394989","","","null","","","","","<p><img src= images/blank.png width =""200"" height = ""200"" style = ""float:right""></p><p><img src=images/blank.png width =""800"" height = ""200""></p>","","","","","","","","","","","",""
"","473.1599999940954","sequential-stimulus-presentation","285","553852","0.0-53.0-1.3","SS1613175394989","trial","","40","800","1273.1599999940954","images/stimuli/spore_stims/complex_14_B_b.gif","images/stimuli/spore_stims/complex_14_A_b.gif","","","","","15","complex_similar","images/stimuli/spore_stims/complex_14_A_b.gif","middle","","","","",""
"","null","html-keyboard-response","286","555055","0.0-53.0-0.4","SS1613175394989","","","null","","","","","<p><img src= images/blank.png width =""200"" height = ""200"" style = ""float:right""></p><p><img src=images/blank.png width =""800"" height = ""200""></p>","","","","","","","","","","","",""
"","1315.7199999986915","sequential-stimulus-presentation","287","557189","0.0-53.0-1.4","SS1613175394989","trial","","40","800","2115.7199999986915","images/stimuli/spore_stims/complex_14_B_b.gif","images/stimuli/spore_stims/complex_14_A_b.gif","","","","","15","complex_similar","images/stimuli/spore_stims/complex_14_A_b.gif","middle","","","","",""
"","null","html-keyboard-response","288","558358","0.0-53.0-0.5","SS1613175394989","","","null","","","","","<p><img src= images/blank.png width =""200"" height = ""200"" style = ""float:right""></p><p><img src=images/blank.png width =""800"" height = ""200""></p>","","","","","","","","","","","",""
"","284.2650000093272","sequential-stimulus-presentation","289","559460","0.0-53.0-1.5","SS1613175394989","trial","","40","800","1084.2650000093272","images/stimuli/spore_stims/complex_14_B_b.gif","images/stimuli/spore_stims/complex_14_A_b.gif","","","","","15","complex_similar","images/stimuli/spore_stims/complex_14_A_b.gif","middle","","","","",""
"","null","html-keyboard-response","290","560536","0.0-53.0-0.6","SS1613175394989","","","null","","","","","<p><img src= images/blank.png width =""200"" height = ""200"" style = ""float:right""></p><p><img src=images/blank.png width =""800"" height = ""200""></p>","","","","","","","","","","","",""
"","354.8999999911757","sequential-stimulus-presentation","291","561708","0.0-53.0-1.6","SS1613175394989","trial","","40","800","1154.8999999911757","images/stimuli/spore_stims/complex_14_B_b.gif","images/stimuli/spore_stims/complex_14_A_b.gif","","","","","15","complex_similar","images/stimuli/spore_stims/complex_14_A_b.gif","middle","","","","",""
"","null","html-keyboard-response","292","562832","0.0-53.0-0.7","SS1613175394989","","","null","","","","","<p><img src= images/blank.png width =""200"" height = ""200"" style = ""float:right""></p><p><img src=images/blank.png width =""800"" height = ""200""></p>","","","","","","","","","","","",""
"","366.0749999980908","sequential-stimulus-presentation","293","564004","0.0-53.0-1.7","SS1613175394989","trial","","40","800","1166.0749999980908","images/stimuli/spore_stims/complex_14_B_b.gif","images/stimuli/spore_stims/complex_14_A_b.gif","","","","","15","complex_similar","images/stimuli/spore_stims/complex_14_A_b.gif","middle","","","","",""
"","1739.0849999937927","html-keyboard-response","294","565748","0.0-54.0","SS1613175394989","pref_question","","51","","","","","<video width ='960' height = '540' style='padding-top:8%' autoplay muted><source src='images/stimuli/wall_pref.mp4' type='video/mp4'></video>","3","right","66%","15","","","","","","","",""
"","2158.159999991767","sequential-stimulus-presentation","295","568717","0.0-55.0","SS1613175394989","pref_reveal","","40","800","2958.159999991767","null","null","","","","","15","","","","deviant","","","",""
"","null","html-keyboard-response","296","569825","0.0-56.0-0.0","SS1613175394989","","","null","","","","","<p><img src= images/blank.png width =""200"" height = ""200"" style = ""float:right""></p><p><img src=images/blank.png width =""800"" height = ""200""></p>","","","","","","","","","","","",""
"","939.7900000039954","sequential-stimulus-presentation","297","571580","0.0-56.0-1.0","SS1613175394989","trial","","40","800","1739.7900000039954","images/stimuli/spore_stims/simple_16_B_b.gif","images/stimuli/spore_stims/simple_12_A_c.gif","","","","","16","simple_dissimilar","images/stimuli/spore_stims/simple_12_A_c.gif","left","","","","",""
"","null","html-keyboard-response","298","572525","0.0-56.0-0.1","SS1613175394989","","","null","","","","","<p><img src= images/blank.png width =""200"" height = ""200"" style = ""float:right""></p><p><img src=images/blank.png width =""800"" height = ""200""></p>","","","","","","","","","","","",""
"","400.73999999731313","sequential-stimulus-presentation","299","573732","0.0-56.0-1.1","SS1613175394989","trial","","40","800","1200.7399999973131","images/stimuli/spore_stims/simple_16_B_b.gif","images/stimuli/spore_stims/simple_12_A_c.gif","","","","","16","simple_dissimilar","images/stimuli/spore_stims/simple_12_A_c.gif","left","","","","",""
"","null","html-keyboard-response","300","574567","0.0-56.0-0.2","SS1613175394989","","","null","","","","","<p><img src= images/blank.png width =""200"" height = ""200"" style = ""float:right""></p><p><img src=images/blank.png width =""800"" height = ""200""></p>","","","","","","","","","","","",""
"","685.0449999910779","sequential-stimulus-presentation","301","576069","0.0-56.0-1.2","SS1613175394989","trial","","40","800","1485.044999991078","images/stimuli/spore_stims/simple_16_B_b.gif","images/stimuli/spore_stims/simple_12_A_c.gif","","","","","16","simple_dissimilar","images/stimuli/spore_stims/simple_12_A_c.gif","left","","","","",""
"","null","html-keyboard-response","302","576941","0.0-56.0-0.3","SS1613175394989","","","null","","","","","<p><img src= images/blank.png width =""200"" height = ""200"" style = ""float:right""></p><p><img src=images/blank.png width =""800"" height = ""200""></p>","","","","","","","","","","","",""
"","70.55499999842141","sequential-stimulus-presentation","303","577829","0.0-56.0-1.3","SS1613175394989","trial","","40","800","870.5549999984214","images/stimuli/spore_stims/simple_16_B_b.gif","images/stimuli/spore_stims/simple_12_A_c.gif","","","","","16","simple_dissimilar","images/stimuli/spore_stims/simple_12_A_c.gif","left","","","","",""
"","null","html-keyboard-response","304","578646","0.0-56.0-0.4","SS1613175394989","","","null","","","","","<p><img src= images/blank.png width =""200"" height = ""200"" style = ""float:right""></p><p><img src=images/blank.png width =""800"" height = ""200""></p>","","","","","","","","","","","",""
"","348.01500001049135","sequential-stimulus-presentation","305","579812","0.0-56.0-1.4","SS1613175394989","trial","","40","800","1148.0150000104913","images/stimuli/spore_stims/simple_16_B_b.gif","images/stimuli/spore_stims/simple_12_A_c.gif","","","","","16","simple_dissimilar","images/stimuli/spore_stims/simple_16_B_b.gif","middle","","","","",""
"","null","html-keyboard-response","306","581090","0.0-56.0-0.5","SS1613175394989","","","null","","","","","<p><img src= images/blank.png width =""200"" height = ""200"" style = ""float:right""></p><p><img src=images/blank.png width =""800"" height = ""200""></p>","","","","","","","","","","","",""
"","320.6249999930151","sequential-stimulus-presentation","307","582229","0.0-56.0-1.5","SS1613175394989","trial","","40","800","1120.624999993015","images/stimuli/spore_stims/simple_16_B_b.gif","images/stimuli/spore_stims/simple_12_A_c.gif","","","","","16","simple_dissimilar","images/stimuli/spore_stims/simple_12_A_c.gif","left","","","","",""
"","null","html-keyboard-response","308","583372","0.0-56.0-0.6","SS1613175394989","","","null","","","","","<p><img src= images/blank.png width =""200"" height = ""200"" style = ""float:right""></p><p><img src=images/blank.png width =""800"" height = ""200""></p>","","","","","","","","","","","",""
"","332.460000005085","sequential-stimulus-presentation","309","584524","0.0-56.0-1.6","SS1613175394989","trial","","40","800","1132.460000005085","images/stimuli/spore_stims/simple_16_B_b.gif","images/stimuli/spore_stims/simple_12_A_c.gif","","","","","16","simple_dissimilar","images/stimuli/spore_stims/simple_12_A_c.gif","left","","","","",""
"","null","html-keyboard-response","310","585521","0.0-56.0-0.7","SS1613175394989","","","null","","","","","<p><img src= images/blank.png width =""200"" height = ""200"" style = ""float:right""></p><p><img src=images/blank.png width =""800"" height = ""200""></p>","","","","","","","","","","","",""
"","582.6200000010431","sequential-stimulus-presentation","311","586917","0.0-56.0-1.7","SS1613175394989","trial","","40","800","1382.620000001043","images/stimuli/spore_stims/simple_16_B_b.gif","images/stimuli/spore_stims/simple_12_A_c.gif","","","","","16","simple_dissimilar","images/stimuli/spore_stims/simple_12_A_c.gif","left","","","","",""
