"view_history","rt","trial_type","trial_index","time_elapsed","internal_node_id","subject","stimulus_type","trial_stimulus","key_press","minimum_viewing_duration","trial_looking_time","block_deviant","block_background","exposure_type","stimulus","block_number","block_type","stimulus_displayed","responses","question_order","math_correct_answer","stimulus_left","stimulus_right"
"[{""page_index"":0,""viewing_time"":16648.18000000014}]","16649.594999999863","instructions","0","16651","0.0-0.0","SS1619739942790","","","","","","","","","","","","","","","","",""
"[{""page_index"":0,""viewing_time"":6784.6550000003845},{""page_index"":1,""viewing_time"":13235.345000000048}]","20020.54000000044","instructions","1","38677","0.0-1.0","SS1619739942790","instructions","","","","","","","","","","","","","","","",""
"","8273.135000000366","sequential-stimulus-presentation-old","2","47456","0.0-2.0","SS1619739942790","","","40","500","8773.135000000366","null","null","self_paced","","","","","","","","",""
"","3195.7200000001685","sequential-stimulus-presentation-old","3","51156","0.0-3.0","SS1619739942790","","","40","500","3695.7200000001685","null","null","self_paced","","","","","","","","",""
"[{""page_index"":0,""viewing_time"":31735.209999999825}]","31735.545000000006","instructions","4","82892","0.0-4.0","SS1619739942790","instructions","","","","","","","","","","","","","","","",""
"","863.5800000001764","sequential-stimulus-presentation-old","5","98766","0.0-5.0","SS1619739942790","","","40","500","1363.5800000001764","null","null","forced_long","","","","","","","","",""
"","2344.460000000254","sequential-stimulus-presentation-old","6","101620","0.0-6.0","SS1619739942790","","","40","500","2844.460000000254","null","null","forced_long","","","","","","","","",""
"[{""page_index"":0,""viewing_time"":7337.395000000019}]","7337.755000000019","instructions","7","108959","0.0-7.0","SS1619739942790","instructions","","","","","","","","","","","","","","","",""
"[{""page_index"":0,""viewing_time"":12005.589999999764},{""page_index"":1,""viewing_time"":3816.7149999999237},{""page_index"":2,""viewing_time"":1714.0250000002125},{""page_index"":3,""viewing_time"":1677.4599999998754},{""page_index"":4,""viewing_time"":1450.180000000284}]","20664.479999999923","instructions","8","129625","0.0-8.0","SS1619739942790","instructions","","","","","","","","","","","","","","","",""
"","null","html-keyboard-response","9","130923","0.0-9.0-0.0","SS1619739942790","","","null","","","","","","<p><img src= images/blank.png width =""600"" height = ""600"" style=""position:fixed;top:50%; left:50%; transform: translate(-50%, -50%); border:5px solid black"">","","","","","","","",""
"","801.3000000000757","sequential-stimulus-presentation-old","10","132235","0.0-9.0-1.0","SS1619739942790","trial","","40","500","1301.3000000000757","images/stimuli/spore_stims/simple_13_A_a.gif","images/stimuli/spore_stims/simple_02_A_b.gif","forced_short","","0","simple_dissimilar","images/stimuli/spore_stims/simple_02_A_b.gif","","","","",""
"","null","html-keyboard-response","11","133350","0.0-9.0-0.1","SS1619739942790","","","null","","","","","","<p><img src= images/blank.png width =""600"" height = ""600"" style=""position:fixed;top:50%; left:50%; transform: translate(-50%, -50%); border:5px solid black"">","","","","","","","",""
"","718.4150000002701","sequential-stimulus-presentation-old","12","134584","0.0-9.0-1.1","SS1619739942790","trial","","40","500","1218.41500000027","images/stimuli/spore_stims/simple_13_A_a.gif","images/stimuli/spore_stims/simple_02_A_b.gif","forced_short","","0","simple_dissimilar","images/stimuli/spore_stims/simple_02_A_b.gif","","","","",""
"","null","html-keyboard-response","13","135563","0.0-9.0-0.2","SS1619739942790","","","null","","","","","","<p><img src= images/blank.png width =""600"" height = ""600"" style=""position:fixed;top:50%; left:50%; transform: translate(-50%, -50%); border:5px solid black"">","","","","","","","",""
"","46178.0100000001","sequential-stimulus-presentation-old","14","182244","0.0-9.0-1.2","SS1619739942790","trial","","40","500","46678.0100000001","images/stimuli/spore_stims/simple_13_A_a.gif","images/stimuli/spore_stims/simple_02_A_b.gif","forced_short","","0","simple_dissimilar","images/stimuli/spore_stims/simple_02_A_b.gif","","","","",""
"","null","html-keyboard-response","15","183150","0.0-9.0-0.3","SS1619739942790","","","null","","","","","","<p><img src= images/blank.png width =""600"" height = ""600"" style=""position:fixed;top:50%; left:50%; transform: translate(-50%, -50%); border:5px solid black"">","","","","","","","",""
"","32459.38499999963","sequential-stimulus-presentation-old","16","216127","0.0-9.0-1.3","SS1619739942790","trial","","40","500","32959.38499999963","images/stimuli/spore_stims/simple_13_A_a.gif","images/stimuli/spore_stims/simple_02_A_b.gif","forced_short","","0","simple_dissimilar","images/stimuli/spore_stims/simple_02_A_b.gif","","","","",""
"","null","html-keyboard-response","17","217009","0.0-9.0-0.4","SS1619739942790","","","null","","","","","","<p><img src= images/blank.png width =""600"" height = ""600"" style=""position:fixed;top:50%; left:50%; transform: translate(-50%, -50%); border:5px solid black"">","","","","","","","",""
"","15836.865000000194","sequential-stimulus-presentation-old","18","233354","0.0-9.0-1.4","SS1619739942790","trial","","40","500","16336.865000000194","images/stimuli/spore_stims/simple_13_A_a.gif","images/stimuli/spore_stims/simple_02_A_b.gif","forced_short","","0","simple_dissimilar","images/stimuli/spore_stims/simple_02_A_b.gif","","","","",""
"","null","html-keyboard-response","19","234183","0.0-9.0-0.5","SS1619739942790","","","null","","","","","","<p><img src= images/blank.png width =""600"" height = ""600"" style=""position:fixed;top:50%; left:50%; transform: translate(-50%, -50%); border:5px solid black"">","","","","","","","",""
"","5052.8749999998545","sequential-stimulus-presentation-old","20","239752","0.0-9.0-1.5","SS1619739942790","trial","","40","500","5552.8749999998545","images/stimuli/spore_stims/simple_13_A_a.gif","images/stimuli/spore_stims/simple_02_A_b.gif","forced_short","","0","simple_dissimilar","images/stimuli/spore_stims/simple_02_A_b.gif","","","","",""
"","38260.455000000075","survey-multi-choice","21","278016","0.0-10.0","SS1619739942790","math_question","","","","","","","","","","","","{""Q0"":""14""}","[0]","14","",""
"","null","html-keyboard-response","22","279092","0.0-11.0-0.0","SS1619739942790","","","null","","","","","","<p><img src= images/blank.png width =""600"" height = ""600"" style=""position:fixed;top:50%; left:50%; transform: translate(-50%, -50%); border:5px solid black"">","","","","","","","",""
"","13925.209999999846","sequential-stimulus-presentation-old","23","293526","0.0-11.0-1.0","SS1619739942790","trial","","40","500","14425.209999999846","images/stimuli/spore_stims/complex_12_A_b.gif","images/stimuli/spore_stims/complex_04_A_a.gif","self_paced","","1","complex_dissimilar","images/stimuli/spore_stims/complex_04_A_a.gif","","","","",""
"","null","html-keyboard-response","24","294583","0.0-11.0-0.1","SS1619739942790","","","null","","","","","","<p><img src= images/blank.png width =""600"" height = ""600"" style=""position:fixed;top:50%; left:50%; transform: translate(-50%, -50%); border:5px solid black"">","","","","","","","",""
"","17864.03500000009","sequential-stimulus-presentation-old","25","312958","0.0-11.0-1.1","SS1619739942790","trial","","40","500","18364.03500000009","images/stimuli/spore_stims/complex_12_A_b.gif","images/stimuli/spore_stims/complex_04_A_a.gif","self_paced","","1","complex_dissimilar","images/stimuli/spore_stims/complex_04_A_a.gif","","","","",""
"","null","html-keyboard-response","26","314100","0.0-11.0-0.2","SS1619739942790","","","null","","","","","","<p><img src= images/blank.png width =""600"" height = ""600"" style=""position:fixed;top:50%; left:50%; transform: translate(-50%, -50%); border:5px solid black"">","","","","","","","",""
"","10960.129999999946","sequential-stimulus-presentation-old","27","325568","0.0-11.0-1.2","SS1619739942790","trial","","40","500","11460.129999999946","images/stimuli/spore_stims/complex_12_A_b.gif","images/stimuli/spore_stims/complex_04_A_a.gif","self_paced","","1","complex_dissimilar","images/stimuli/spore_stims/complex_04_A_a.gif","","","","",""
"","null","html-keyboard-response","28","326757","0.0-11.0-0.3","SS1619739942790","","","null","","","","","","<p><img src= images/blank.png width =""600"" height = ""600"" style=""position:fixed;top:50%; left:50%; transform: translate(-50%, -50%); border:5px solid black"">","","","","","","","",""
"","9115.355000000389","sequential-stimulus-presentation-old","29","336384","0.0-11.0-1.3","SS1619739942790","trial","","40","500","9615.355000000389","images/stimuli/spore_stims/complex_12_A_b.gif","images/stimuli/spore_stims/complex_04_A_a.gif","self_paced","","1","complex_dissimilar","images/stimuli/spore_stims/complex_04_A_a.gif","","","","",""
"","null","html-keyboard-response","30","337646","0.0-11.0-0.4","SS1619739942790","","","null","","","","","","<p><img src= images/blank.png width =""600"" height = ""600"" style=""position:fixed;top:50%; left:50%; transform: translate(-50%, -50%); border:5px solid black"">","","","","","","","",""
"","9984.310000000289","sequential-stimulus-presentation-old","31","348154","0.0-11.0-1.4","SS1619739942790","trial","","40","500","10484.310000000289","images/stimuli/spore_stims/complex_12_A_b.gif","images/stimuli/spore_stims/complex_04_A_a.gif","self_paced","","1","complex_dissimilar","images/stimuli/spore_stims/complex_04_A_a.gif","","","","",""
"","3808.099999999744","survey-multi-choice","32","351970","0.0-12.0","SS1619739942790","math_question","","","","","","","","","","","","{""Q0"":""18""}","[0]","18","",""
"","null","html-keyboard-response","33","352933","0.0-13.0-0.0","SS1619739942790","","","null","","","","","","<p><img src= images/blank.png width =""600"" height = ""600"" style=""position:fixed;top:50%; left:50%; transform: translate(-50%, -50%); border:5px solid black"">","","","","","","","",""
"","11929.595000000088","sequential-stimulus-presentation-old","34","365377","0.0-13.0-1.0","SS1619739942790","trial","","40","500","12429.595000000088","images/stimuli/spore_stims/complex_08_A_b.gif","images/stimuli/spore_stims/complex_01_A_a.gif","self_paced","","2","complex_dissimilar","images/stimuli/spore_stims/complex_01_A_a.gif","","","","",""
"","null","html-keyboard-response","35","366485","0.0-13.0-0.1","SS1619739942790","","","null","","","","","","<p><img src= images/blank.png width =""600"" height = ""600"" style=""position:fixed;top:50%; left:50%; transform: translate(-50%, -50%); border:5px solid black"">","","","","","","","",""
"","11063.410000000207","sequential-stimulus-presentation-old","36","378064","0.0-13.0-1.1","SS1619739942790","trial","","40","500","11563.410000000207","images/stimuli/spore_stims/complex_08_A_b.gif","images/stimuli/spore_stims/complex_01_A_a.gif","self_paced","","2","complex_dissimilar","images/stimuli/spore_stims/complex_01_A_a.gif","","","","",""
"","null","html-keyboard-response","37","379017","0.0-13.0-0.2","SS1619739942790","","","null","","","","","","<p><img src= images/blank.png width =""600"" height = ""600"" style=""position:fixed;top:50%; left:50%; transform: translate(-50%, -50%); border:5px solid black"">","","","","","","","",""
"","8184.659999999858","sequential-stimulus-presentation-old","38","387713","0.0-13.0-1.2","SS1619739942790","trial","","40","500","8684.659999999858","images/stimuli/spore_stims/complex_08_A_b.gif","images/stimuli/spore_stims/complex_01_A_a.gif","self_paced","","2","complex_dissimilar","images/stimuli/spore_stims/complex_01_A_a.gif","","","","",""
"","null","html-keyboard-response","39","388564","0.0-13.0-0.3","SS1619739942790","","","null","","","","","","<p><img src= images/blank.png width =""600"" height = ""600"" style=""position:fixed;top:50%; left:50%; transform: translate(-50%, -50%); border:5px solid black"">","","","","","","","",""
"","7676.794999999867","sequential-stimulus-presentation-old","40","396755","0.0-13.0-1.3","SS1619739942790","trial","","40","500","8176.794999999867","images/stimuli/spore_stims/complex_08_A_b.gif","images/stimuli/spore_stims/complex_01_A_a.gif","self_paced","","2","complex_dissimilar","images/stimuli/spore_stims/complex_01_A_a.gif","","","","",""
"","null","html-keyboard-response","41","397717","0.0-13.0-0.4","SS1619739942790","","","null","","","","","","<p><img src= images/blank.png width =""600"" height = ""600"" style=""position:fixed;top:50%; left:50%; transform: translate(-50%, -50%); border:5px solid black"">","","","","","","","",""
"","7979.50999999966","sequential-stimulus-presentation-old","42","406213","0.0-13.0-1.4","SS1619739942790","trial","","40","500","8479.50999999966","images/stimuli/spore_stims/complex_08_A_b.gif","images/stimuli/spore_stims/complex_01_A_a.gif","self_paced","","2","complex_dissimilar","images/stimuli/spore_stims/complex_08_A_b.gif","","","","",""
"","null","html-keyboard-response","43","407350","0.0-13.0-0.5","SS1619739942790","","","null","","","","","","<p><img src= images/blank.png width =""600"" height = ""600"" style=""position:fixed;top:50%; left:50%; transform: translate(-50%, -50%); border:5px solid black"">","","","","","","","",""
"","1760.6000000000931","sequential-stimulus-presentation-old","44","409623","0.0-13.0-1.5","SS1619739942790","trial","","40","500","2260.600000000093","images/stimuli/spore_stims/complex_08_A_b.gif","images/stimuli/spore_stims/complex_01_A_a.gif","self_paced","","2","complex_dissimilar","images/stimuli/spore_stims/complex_08_A_b.gif","","","","",""
"","3375.6699999999255","survey-multi-choice","45","413001","0.0-14.0","SS1619739942790","math_question","","","","","","","","","","","","{""Q0"":""15""}","[0]","15","",""
"","null","html-keyboard-response","46","413933","0.0-15.0-0.0","SS1619739942790","","","null","","","","","","<p><img src= images/blank.png width =""600"" height = ""600"" style=""position:fixed;top:50%; left:50%; transform: translate(-50%, -50%); border:5px solid black"">","","","","","","","",""
"","557.934999999823","sequential-stimulus-presentation-old","47","415008","0.0-15.0-1.0","SS1619739942790","trial","","40","500","1057.934999999823","images/stimuli/spore_stims/simple_09_A_b.gif","images/stimuli/spore_stims/simple_03_A_a.gif","forced_short","","3","simple_dissimilar","images/stimuli/spore_stims/simple_03_A_a.gif","","","","",""
"","null","html-keyboard-response","48","416084","0.0-15.0-0.1","SS1619739942790","","","null","","","","","","<p><img src= images/blank.png width =""600"" height = ""600"" style=""position:fixed;top:50%; left:50%; transform: translate(-50%, -50%); border:5px solid black"">","","","","","","","",""
"","13121.864999999641","sequential-stimulus-presentation-old","49","429710","0.0-15.0-1.1","SS1619739942790","trial","","40","500","13621.864999999641","images/stimuli/spore_stims/simple_09_A_b.gif","images/stimuli/spore_stims/simple_03_A_a.gif","forced_short","","3","simple_dissimilar","images/stimuli/spore_stims/simple_03_A_a.gif","","","","",""
"","null","html-keyboard-response","50","430730","0.0-15.0-0.2","SS1619739942790","","","null","","","","","","<p><img src= images/blank.png width =""600"" height = ""600"" style=""position:fixed;top:50%; left:50%; transform: translate(-50%, -50%); border:5px solid black"">","","","","","","","",""
"","5367.8150000000605","sequential-stimulus-presentation-old","51","436615","0.0-15.0-1.2","SS1619739942790","trial","","40","500","5867.8150000000605","images/stimuli/spore_stims/simple_09_A_b.gif","images/stimuli/spore_stims/simple_03_A_a.gif","forced_short","","3","simple_dissimilar","images/stimuli/spore_stims/simple_09_A_b.gif","","","","",""
"","null","html-keyboard-response","52","437817","0.0-15.0-0.3","SS1619739942790","","","null","","","","","","<p><img src= images/blank.png width =""600"" height = ""600"" style=""position:fixed;top:50%; left:50%; transform: translate(-50%, -50%); border:5px solid black"">","","","","","","","",""
"","4084.929999999993","sequential-stimulus-presentation-old","53","442417","0.0-15.0-1.3","SS1619739942790","trial","","40","500","4584.929999999993","images/stimuli/spore_stims/simple_09_A_b.gif","images/stimuli/spore_stims/simple_03_A_a.gif","forced_short","","3","simple_dissimilar","images/stimuli/spore_stims/simple_03_A_a.gif","","","","",""
"","null","html-keyboard-response","54","443367","0.0-15.0-0.4","SS1619739942790","","","null","","","","","","<p><img src= images/blank.png width =""600"" height = ""600"" style=""position:fixed;top:50%; left:50%; transform: translate(-50%, -50%); border:5px solid black"">","","","","","","","",""
"","7249.905000000144","sequential-stimulus-presentation-old","55","451134","0.0-15.0-1.4","SS1619739942790","trial","","40","500","7749.905000000144","images/stimuli/spore_stims/simple_09_A_b.gif","images/stimuli/spore_stims/simple_03_A_a.gif","forced_short","","3","simple_dissimilar","images/stimuli/spore_stims/simple_03_A_a.gif","","","","",""
"","null","html-keyboard-response","56","452050","0.0-15.0-0.5","SS1619739942790","","","null","","","","","","<p><img src= images/blank.png width =""600"" height = ""600"" style=""position:fixed;top:50%; left:50%; transform: translate(-50%, -50%); border:5px solid black"">","","","","","","","",""
"","4913.459999999788","sequential-stimulus-presentation-old","57","457477","0.0-15.0-1.5","SS1619739942790","trial","","40","500","5413.459999999788","images/stimuli/spore_stims/simple_09_A_b.gif","images/stimuli/spore_stims/simple_03_A_a.gif","forced_short","","3","simple_dissimilar","images/stimuli/spore_stims/simple_09_A_b.gif","","","","",""
"","2231.2550000001793","survey-multi-choice","58","459711","0.0-16.0","SS1619739942790","math_question","","","","","","","","","","","","{""Q0"":""6""}","[0]","6","",""
"","null","html-keyboard-response","59","460650","0.0-17.0-0.0","SS1619739942790","","","null","","","","","","<p><img src= images/blank.png width =""600"" height = ""600"" style=""position:fixed;top:50%; left:50%; transform: translate(-50%, -50%); border:5px solid black"">","","","","","","","",""
"","11290.645000000077","sequential-stimulus-presentation-old","60","472445","0.0-17.0-1.0","SS1619739942790","trial","","40","500","11790.645000000077","images/stimuli/spore_stims/simple_20_A_a.gif","images/stimuli/spore_stims/simple_14_A_b.gif","self_paced","","4","simple_dissimilar","images/stimuli/spore_stims/simple_14_A_b.gif","","","","",""
"","null","html-keyboard-response","61","473350","0.0-17.0-0.1","SS1619739942790","","","null","","","","","","<p><img src= images/blank.png width =""600"" height = ""600"" style=""position:fixed;top:50%; left:50%; transform: translate(-50%, -50%); border:5px solid black"">","","","","","","","",""
"","2562.750000000058","sequential-stimulus-presentation-old","62","476430","0.0-17.0-1.1","SS1619739942790","trial","","40","500","3062.750000000058","images/stimuli/spore_stims/simple_20_A_a.gif","images/stimuli/spore_stims/simple_14_A_b.gif","self_paced","","4","simple_dissimilar","images/stimuli/spore_stims/simple_20_A_a.gif","","","","",""
"","null","html-keyboard-response","63","477597","0.0-17.0-0.2","SS1619739942790","","","null","","","","","","<p><img src= images/blank.png width =""600"" height = ""600"" style=""position:fixed;top:50%; left:50%; transform: translate(-50%, -50%); border:5px solid black"">","","","","","","","",""
"","4919.10999999987","sequential-stimulus-presentation-old","64","483028","0.0-17.0-1.2","SS1619739942790","trial","","40","500","5419.10999999987","images/stimuli/spore_stims/simple_20_A_a.gif","images/stimuli/spore_stims/simple_14_A_b.gif","self_paced","","4","simple_dissimilar","images/stimuli/spore_stims/simple_20_A_a.gif","","","","",""
"","null","html-keyboard-response","65","483983","0.0-17.0-0.3","SS1619739942790","","","null","","","","","","<p><img src= images/blank.png width =""600"" height = ""600"" style=""position:fixed;top:50%; left:50%; transform: translate(-50%, -50%); border:5px solid black"">","","","","","","","",""
"","4289.604999999981","sequential-stimulus-presentation-old","66","488786","0.0-17.0-1.3","SS1619739942790","trial","","40","500","4789.604999999981","images/stimuli/spore_stims/simple_20_A_a.gif","images/stimuli/spore_stims/simple_14_A_b.gif","self_paced","","4","simple_dissimilar","images/stimuli/spore_stims/simple_14_A_b.gif","","","","",""
"","2845.804999999935","survey-multi-choice","67","491635","0.0-18.0","SS1619739942790","math_question","","","","","","","","","","","","{""Q0"":""11""}","[0]","11","",""
"","null","html-keyboard-response","68","492667","0.0-19.0-0.0","SS1619739942790","","","null","","","","","","<p><img src= images/blank.png width =""600"" height = ""600"" style=""position:fixed;top:50%; left:50%; transform: translate(-50%, -50%); border:5px solid black"">","","","","","","","",""
"","665.1149999997579","sequential-stimulus-presentation-old","69","493838","0.0-19.0-1.0","SS1619739942790","trial","","40","500","1165.1149999997579","images/stimuli/spore_stims/complex_11_A_b.gif","images/stimuli/spore_stims/complex_09_A_a.gif","forced_short","","5","complex_dissimilar","images/stimuli/spore_stims/complex_09_A_a.gif","","","","",""
"","null","html-keyboard-response","70","495083","0.0-19.0-0.1","SS1619739942790","","","null","","","","","","<p><img src= images/blank.png width =""600"" height = ""600"" style=""position:fixed;top:50%; left:50%; transform: translate(-50%, -50%); border:5px solid black"">","","","","","","","",""
"","9034.92999999976","sequential-stimulus-presentation-old","71","504622","0.0-19.0-1.1","SS1619739942790","trial","","40","500","9534.92999999976","images/stimuli/spore_stims/complex_11_A_b.gif","images/stimuli/spore_stims/complex_09_A_a.gif","forced_short","","5","complex_dissimilar","images/stimuli/spore_stims/complex_11_A_b.gif","","","","",""
"","null","html-keyboard-response","72","505633","0.0-19.0-0.2","SS1619739942790","","","null","","","","","","<p><img src= images/blank.png width =""600"" height = ""600"" style=""position:fixed;top:50%; left:50%; transform: translate(-50%, -50%); border:5px solid black"">","","","","","","","",""
"","4004.0499999999884","sequential-stimulus-presentation-old","73","510153","0.0-19.0-1.2","SS1619739942790","trial","","40","500","4504.049999999988","images/stimuli/spore_stims/complex_11_A_b.gif","images/stimuli/spore_stims/complex_09_A_a.gif","forced_short","","5","complex_dissimilar","images/stimuli/spore_stims/complex_11_A_b.gif","","","","",""
"","null","html-keyboard-response","74","511404","0.0-19.0-0.3","SS1619739942790","","","null","","","","","","<p><img src= images/blank.png width =""600"" height = ""600"" style=""position:fixed;top:50%; left:50%; transform: translate(-50%, -50%); border:5px solid black"">","","","","","","","",""
"","3603.24000000034","sequential-stimulus-presentation-old","75","515520","0.0-19.0-1.3","SS1619739942790","trial","","40","500","4103.24000000034","images/stimuli/spore_stims/complex_11_A_b.gif","images/stimuli/spore_stims/complex_09_A_a.gif","forced_short","","5","complex_dissimilar","images/stimuli/spore_stims/complex_09_A_a.gif","","","","",""
"","null","html-keyboard-response","76","516450","0.0-19.0-0.4","SS1619739942790","","","null","","","","","","<p><img src= images/blank.png width =""600"" height = ""600"" style=""position:fixed;top:50%; left:50%; transform: translate(-50%, -50%); border:5px solid black"">","","","","","","","",""
"","5441.475000000093","sequential-stimulus-presentation-old","77","522408","0.0-19.0-1.4","SS1619739942790","trial","","40","500","5941.475000000093","images/stimuli/spore_stims/complex_11_A_b.gif","images/stimuli/spore_stims/complex_09_A_a.gif","forced_short","","5","complex_dissimilar","images/stimuli/spore_stims/complex_09_A_a.gif","","","","",""
"","3067.6049999997485","survey-multi-choice","78","525479","0.0-20.0","SS1619739942790","math_question","","","","","","","","","","","","{""Q0"":""8""}","[0]","8","",""
"","null","html-keyboard-response","79","526334","0.0-21.0-0.0","SS1619739942790","","","null","","","","","","<p><img src= images/blank.png width =""600"" height = ""600"" style=""position:fixed;top:50%; left:50%; transform: translate(-50%, -50%); border:5px solid black"">","","","","","","","",""
"","5222.810000000172","sequential-stimulus-presentation-old","80","546568","0.0-21.0-1.0","SS1619739942790","trial","","40","500","5722.810000000172","images/stimuli/spore_stims/simple_01_A_a.gif","images/stimuli/spore_stims/simple_08_A_b.gif","forced_long","","6","simple_dissimilar","images/stimuli/spore_stims/simple_08_A_b.gif","","","","",""
"","null","html-keyboard-response","81","547601","0.0-21.0-0.1","SS1619739942790","","","null","","","","","","<p><img src= images/blank.png width =""600"" height = ""600"" style=""position:fixed;top:50%; left:50%; transform: translate(-50%, -50%); border:5px solid black"">","","","","","","","",""
"","764.1899999998277","sequential-stimulus-presentation-old","82","548882","0.0-21.0-1.1","SS1619739942790","trial","","40","500","1264.1899999998277","images/stimuli/spore_stims/simple_01_A_a.gif","images/stimuli/spore_stims/simple_08_A_b.gif","forced_long","","6","simple_dissimilar","images/stimuli/spore_stims/simple_08_A_b.gif","","","","",""
"","null","html-keyboard-response","83","549892","0.0-21.0-0.2","SS1619739942790","","","null","","","","","","<p><img src= images/blank.png width =""600"" height = ""600"" style=""position:fixed;top:50%; left:50%; transform: translate(-50%, -50%); border:5px solid black"">","","","","","","","",""
"","4509.529999999795","sequential-stimulus-presentation-old","84","554911","0.0-21.0-1.2","SS1619739942790","trial","","40","500","5009.529999999795","images/stimuli/spore_stims/simple_01_A_a.gif","images/stimuli/spore_stims/simple_08_A_b.gif","forced_long","","6","simple_dissimilar","images/stimuli/spore_stims/simple_08_A_b.gif","","","","",""
"","null","html-keyboard-response","85","556106","0.0-21.0-0.3","SS1619739942790","","","null","","","","","","<p><img src= images/blank.png width =""600"" height = ""600"" style=""position:fixed;top:50%; left:50%; transform: translate(-50%, -50%); border:5px solid black"">","","","","","","","",""
"","6115.659999999916","sequential-stimulus-presentation-old","86","562735","0.0-21.0-1.3","SS1619739942790","trial","","40","500","6615.659999999916","images/stimuli/spore_stims/simple_01_A_a.gif","images/stimuli/spore_stims/simple_08_A_b.gif","forced_long","","6","simple_dissimilar","images/stimuli/spore_stims/simple_08_A_b.gif","","","","",""
"","null","html-keyboard-response","87","563830","0.0-21.0-0.4","SS1619739942790","","","null","","","","","","<p><img src= images/blank.png width =""600"" height = ""600"" style=""position:fixed;top:50%; left:50%; transform: translate(-50%, -50%); border:5px solid black"">","","","","","","","",""
"","6528.484999999753","sequential-stimulus-presentation-old","88","570874","0.0-21.0-1.4","SS1619739942790","trial","","40","500","7028.484999999753","images/stimuli/spore_stims/simple_01_A_a.gif","images/stimuli/spore_stims/simple_08_A_b.gif","forced_long","","6","simple_dissimilar","images/stimuli/spore_stims/simple_08_A_b.gif","","","","",""
"","3479.229999999865","survey-multi-choice","89","574355","0.0-22.0","SS1619739942790","math_question","","","","","","","","","","","","{""Q0"":""8""}","[0]","8","",""
"","null","html-keyboard-response","90","575370","0.0-23.0-0.0","SS1619739942790","","","null","","","","","","<p><img src= images/blank.png width =""600"" height = ""600"" style=""position:fixed;top:50%; left:50%; transform: translate(-50%, -50%); border:5px solid black"">","","","","","","","",""
"","5689.010000000009","sequential-stimulus-presentation-old","91","596065","0.0-23.0-1.0","SS1619739942790","trial","","40","500","6189.010000000009","images/stimuli/spore_stims/complex_01_A_b.gif","images/stimuli/spore_stims/complex_08_A_a.gif","forced_long","","7","complex_dissimilar","images/stimuli/spore_stims/complex_08_A_a.gif","","","","",""
"","null","html-keyboard-response","92","596948","0.0-23.0-0.1","SS1619739942790","","","null","","","","","","<p><img src= images/blank.png width =""600"" height = ""600"" style=""position:fixed;top:50%; left:50%; transform: translate(-50%, -50%); border:5px solid black"">","","","","","","","",""
"","7165.864999999991","sequential-stimulus-presentation-old","93","604629","0.0-23.0-1.1","SS1619739942790","trial","","40","500","7665.864999999991","images/stimuli/spore_stims/complex_01_A_b.gif","images/stimuli/spore_stims/complex_08_A_a.gif","forced_long","","7","complex_dissimilar","images/stimuli/spore_stims/complex_08_A_a.gif","","","","",""
"","null","html-keyboard-response","94","605851","0.0-23.0-0.2","SS1619739942790","","","null","","","","","","<p><img src= images/blank.png width =""600"" height = ""600"" style=""position:fixed;top:50%; left:50%; transform: translate(-50%, -50%); border:5px solid black"">","","","","","","","",""
"","5056.765000000363","sequential-stimulus-presentation-old","95","611425","0.0-23.0-1.2","SS1619739942790","trial","","40","500","5556.765000000363","images/stimuli/spore_stims/complex_01_A_b.gif","images/stimuli/spore_stims/complex_08_A_a.gif","forced_long","","7","complex_dissimilar","images/stimuli/spore_stims/complex_08_A_a.gif","","","","",""
"","null","html-keyboard-response","96","612618","0.0-23.0-0.3","SS1619739942790","","","null","","","","","","<p><img src= images/blank.png width =""600"" height = ""600"" style=""position:fixed;top:50%; left:50%; transform: translate(-50%, -50%); border:5px solid black"">","","","","","","","",""
"","6142.6150000002235","sequential-stimulus-presentation-old","97","619267","0.0-23.0-1.3","SS1619739942790","trial","","40","500","6642.6150000002235","images/stimuli/spore_stims/complex_01_A_b.gif","images/stimuli/spore_stims/complex_08_A_a.gif","forced_long","","7","complex_dissimilar","images/stimuli/spore_stims/complex_01_A_b.gif","","","","",""
"","null","html-keyboard-response","98","620151","0.0-23.0-0.4","SS1619739942790","","","null","","","","","","<p><img src= images/blank.png width =""600"" height = ""600"" style=""position:fixed;top:50%; left:50%; transform: translate(-50%, -50%); border:5px solid black"">","","","","","","","",""
"","5914.725000000093","sequential-stimulus-presentation-old","99","626570","0.0-23.0-1.4","SS1619739942790","trial","","40","500","6414.725000000093","images/stimuli/spore_stims/complex_01_A_b.gif","images/stimuli/spore_stims/complex_08_A_a.gif","forced_long","","7","complex_dissimilar","images/stimuli/spore_stims/complex_08_A_a.gif","","","","",""
"","null","html-keyboard-response","100","627600","0.0-23.0-0.5","SS1619739942790","","","null","","","","","","<p><img src= images/blank.png width =""600"" height = ""600"" style=""position:fixed;top:50%; left:50%; transform: translate(-50%, -50%); border:5px solid black"">","","","","","","","",""
"","5911.9700000000885","sequential-stimulus-presentation-old","101","634021","0.0-23.0-1.5","SS1619739942790","trial","","40","500","6411.9700000000885","images/stimuli/spore_stims/complex_01_A_b.gif","images/stimuli/spore_stims/complex_08_A_a.gif","forced_long","","7","complex_dissimilar","images/stimuli/spore_stims/complex_08_A_a.gif","","","","",""
"","2791.2149999997346","survey-multi-choice","102","636817","0.0-24.0","SS1619739942790","math_question","","","","","","","","","","","","{""Q0"":""6""}","[0]","6","",""
"","null","html-keyboard-response","103","637922","0.0-25.0-0.0","SS1619739942790","","","null","","","","","","<p><img src= images/blank.png width =""600"" height = ""600"" style=""position:fixed;top:50%; left:50%; transform: translate(-50%, -50%); border:5px solid black"">","","","","","","","",""
"","1311.5000000003492","sequential-stimulus-presentation-old","104","654247","0.0-25.0-1.0","SS1619739942790","trial","","40","500","1811.5000000003492","images/stimuli/spore_stims/complex_14_A_b.gif","images/stimuli/spore_stims/complex_11_A_a.gif","forced_long","","8","complex_dissimilar","images/stimuli/spore_stims/complex_11_A_a.gif","","","","",""
"","null","html-keyboard-response","105","655485","0.0-25.0-0.1","SS1619739942790","","","null","","","","","","<p><img src= images/blank.png width =""600"" height = ""600"" style=""position:fixed;top:50%; left:50%; transform: translate(-50%, -50%); border:5px solid black"">","","","","","","","",""
"","106.93999999959487","sequential-stimulus-presentation-old","106","656107","0.0-25.0-1.1","SS1619739942790","trial","","40","500","606.9399999995949","images/stimuli/spore_stims/complex_14_A_b.gif","images/stimuli/spore_stims/complex_11_A_a.gif","forced_long","","8","complex_dissimilar","images/stimuli/spore_stims/complex_11_A_a.gif","","","","",""
"","null","html-keyboard-response","107","657168","0.0-25.0-0.2","SS1619739942790","","","null","","","","","","<p><img src= images/blank.png width =""600"" height = ""600"" style=""position:fixed;top:50%; left:50%; transform: translate(-50%, -50%); border:5px solid black"">","","","","","","","",""
"","2984.714999999618","sequential-stimulus-presentation-old","108","660671","0.0-25.0-1.2","SS1619739942790","trial","","40","500","3484.714999999618","images/stimuli/spore_stims/complex_14_A_b.gif","images/stimuli/spore_stims/complex_11_A_a.gif","forced_long","","8","complex_dissimilar","images/stimuli/spore_stims/complex_11_A_a.gif","","","","",""
"","null","html-keyboard-response","109","661935","0.0-25.0-0.3","SS1619739942790","","","null","","","","","","<p><img src= images/blank.png width =""600"" height = ""600"" style=""position:fixed;top:50%; left:50%; transform: translate(-50%, -50%); border:5px solid black"">","","","","","","","",""
"","2103.7999999998137","sequential-stimulus-presentation-old","110","664555","0.0-25.0-1.3","SS1619739942790","trial","","40","500","2603.7999999998137","images/stimuli/spore_stims/complex_14_A_b.gif","images/stimuli/spore_stims/complex_11_A_a.gif","forced_long","","8","complex_dissimilar","images/stimuli/spore_stims/complex_11_A_a.gif","","","","",""
"","null","html-keyboard-response","111","665468","0.0-25.0-0.4","SS1619739942790","","","null","","","","","","<p><img src= images/blank.png width =""600"" height = ""600"" style=""position:fixed;top:50%; left:50%; transform: translate(-50%, -50%); border:5px solid black"">","","","","","","","",""
"","3155.060000000056","sequential-stimulus-presentation-old","112","669128","0.0-25.0-1.4","SS1619739942790","trial","","40","500","3655.060000000056","images/stimuli/spore_stims/complex_14_A_b.gif","images/stimuli/spore_stims/complex_11_A_a.gif","forced_long","","8","complex_dissimilar","images/stimuli/spore_stims/complex_14_A_b.gif","","","","",""
"","null","html-keyboard-response","113","670318","0.0-25.0-0.5","SS1619739942790","","","null","","","","","","<p><img src= images/blank.png width =""600"" height = ""600"" style=""position:fixed;top:50%; left:50%; transform: translate(-50%, -50%); border:5px solid black"">","","","","","","","",""
"","4166.805000000284","sequential-stimulus-presentation-old","114","674993","0.0-25.0-1.5","SS1619739942790","trial","","40","500","4666.805000000284","images/stimuli/spore_stims/complex_14_A_b.gif","images/stimuli/spore_stims/complex_11_A_a.gif","forced_long","","8","complex_dissimilar","images/stimuli/spore_stims/complex_11_A_a.gif","","","","",""
"","2324.954999999958","survey-multi-choice","115","677321","0.0-26.0","SS1619739942790","math_question","","","","","","","","","","","","{""Q0"":""4""}","[0]","4","",""
"","null","html-keyboard-response","116","678318","0.0-27.0-0.0","SS1619739942790","","","null","","","","","","<p><img src= images/blank.png width =""600"" height = ""600"" style=""position:fixed;top:50%; left:50%; transform: translate(-50%, -50%); border:5px solid black"">","","","","","","","",""
"","789.9350000002887","sequential-stimulus-presentation-old","117","694120","0.0-27.0-1.0","SS1619739942790","trial","","40","500","1289.9350000002887","images/stimuli/spore_stims/simple_18_A_b.gif","images/stimuli/spore_stims/simple_14_A_a.gif","forced_long","","9","simple_dissimilar","images/stimuli/spore_stims/simple_14_A_a.gif","","","","",""
"","null","html-keyboard-response","118","695421","0.0-27.0-0.1","SS1619739942790","","","null","","","","","","<p><img src= images/blank.png width =""600"" height = ""600"" style=""position:fixed;top:50%; left:50%; transform: translate(-50%, -50%); border:5px solid black"">","","","","","","","",""
"","86.09500000008848","sequential-stimulus-presentation-old","119","696021","0.0-27.0-1.1","SS1619739942790","trial","","40","500","586.0950000000885","images/stimuli/spore_stims/simple_18_A_b.gif","images/stimuli/spore_stims/simple_14_A_a.gif","forced_long","","9","simple_dissimilar","images/stimuli/spore_stims/simple_14_A_a.gif","","","","",""
"","null","html-keyboard-response","120","696996","0.0-27.0-0.2","SS1619739942790","","","null","","","","","","<p><img src= images/blank.png width =""600"" height = ""600"" style=""position:fixed;top:50%; left:50%; transform: translate(-50%, -50%); border:5px solid black"">","","","","","","","",""
"","2472.405000000028","sequential-stimulus-presentation-old","121","699973","0.0-27.0-1.2","SS1619739942790","trial","","40","500","2972.405000000028","images/stimuli/spore_stims/simple_18_A_b.gif","images/stimuli/spore_stims/simple_14_A_a.gif","forced_long","","9","simple_dissimilar","images/stimuli/spore_stims/simple_14_A_a.gif","","","","",""
"","null","html-keyboard-response","122","701151","0.0-27.0-0.3","SS1619739942790","","","null","","","","","","<p><img src= images/blank.png width =""600"" height = ""600"" style=""position:fixed;top:50%; left:50%; transform: translate(-50%, -50%); border:5px solid black"">","","","","","","","",""
"","2856.7000000003027","sequential-stimulus-presentation-old","123","704526","0.0-27.0-1.3","SS1619739942790","trial","","40","500","3356.7000000003027","images/stimuli/spore_stims/simple_18_A_b.gif","images/stimuli/spore_stims/simple_14_A_a.gif","forced_long","","9","simple_dissimilar","images/stimuli/spore_stims/simple_14_A_a.gif","","","","",""
"","null","html-keyboard-response","124","705608","0.0-27.0-0.4","SS1619739942790","","","null","","","","","","<p><img src= images/blank.png width =""600"" height = ""600"" style=""position:fixed;top:50%; left:50%; transform: translate(-50%, -50%); border:5px solid black"">","","","","","","","",""
"","2950.6700000002747","sequential-stimulus-presentation-old","125","709068","0.0-27.0-1.4","SS1619739942790","trial","","40","500","3450.6700000002747","images/stimuli/spore_stims/simple_18_A_b.gif","images/stimuli/spore_stims/simple_14_A_a.gif","forced_long","","9","simple_dissimilar","images/stimuli/spore_stims/simple_18_A_b.gif","","","","",""
"","5523.269999999669","survey-multi-choice","126","714594","0.0-28.0","SS1619739942790","math_question","","","","","","","","","","","","{""Q0"":""13""}","[0]","13","",""
"","null","html-keyboard-response","127","715867","0.0-29.0-0.0","SS1619739942790","","","null","","","","","","<p><img src= images/blank.png width =""600"" height = ""600"" style=""position:fixed;top:50%; left:50%; transform: translate(-50%, -50%); border:5px solid black"">","","","","","","","",""
"","2371.5349999996834","sequential-stimulus-presentation-old","128","718756","0.0-29.0-1.0","SS1619739942790","trial","","40","500","2871.5349999996834","images/stimuli/spore_stims/simple_15_A_b.gif","images/stimuli/spore_stims/simple_09_A_a.gif","self_paced","","10","simple_dissimilar","images/stimuli/spore_stims/simple_09_A_a.gif","","","","",""
"","null","html-keyboard-response","129","719808","0.0-29.0-0.1","SS1619739942790","","","null","","","","","","<p><img src= images/blank.png width =""600"" height = ""600"" style=""position:fixed;top:50%; left:50%; transform: translate(-50%, -50%); border:5px solid black"">","","","","","","","",""
"","4200.045000000042","sequential-stimulus-presentation-old","130","724518","0.0-29.0-1.1","SS1619739942790","trial","","40","500","4700.045000000042","images/stimuli/spore_stims/simple_15_A_b.gif","images/stimuli/spore_stims/simple_09_A_a.gif","self_paced","","10","simple_dissimilar","images/stimuli/spore_stims/simple_09_A_a.gif","","","","",""
"","null","html-keyboard-response","131","725734","0.0-29.0-0.2","SS1619739942790","","","null","","","","","","<p><img src= images/blank.png width =""600"" height = ""600"" style=""position:fixed;top:50%; left:50%; transform: translate(-50%, -50%); border:5px solid black"">","","","","","","","",""
"","3757.7750000001397","sequential-stimulus-presentation-old","132","730004","0.0-29.0-1.2","SS1619739942790","trial","","40","500","4257.77500000014","images/stimuli/spore_stims/simple_15_A_b.gif","images/stimuli/spore_stims/simple_09_A_a.gif","self_paced","","10","simple_dissimilar","images/stimuli/spore_stims/simple_09_A_a.gif","","","","",""
"","null","html-keyboard-response","133","731131","0.0-29.0-0.3","SS1619739942790","","","null","","","","","","<p><img src= images/blank.png width =""600"" height = ""600"" style=""position:fixed;top:50%; left:50%; transform: translate(-50%, -50%); border:5px solid black"">","","","","","","","",""
"","2884.104999999632","sequential-stimulus-presentation-old","134","734532","0.0-29.0-1.3","SS1619739942790","trial","","40","500","3384.104999999632","images/stimuli/spore_stims/simple_15_A_b.gif","images/stimuli/spore_stims/simple_09_A_a.gif","self_paced","","10","simple_dissimilar","images/stimuli/spore_stims/simple_09_A_a.gif","","","","",""
"","null","html-keyboard-response","135","735667","0.0-29.0-0.4","SS1619739942790","","","null","","","","","","<p><img src= images/blank.png width =""600"" height = ""600"" style=""position:fixed;top:50%; left:50%; transform: translate(-50%, -50%); border:5px solid black"">","","","","","","","",""
"","3485.20000000007","sequential-stimulus-presentation-old","136","739661","0.0-29.0-1.4","SS1619739942790","trial","","40","500","3985.20000000007","images/stimuli/spore_stims/simple_15_A_b.gif","images/stimuli/spore_stims/simple_09_A_a.gif","self_paced","","10","simple_dissimilar","images/stimuli/spore_stims/simple_09_A_a.gif","","","","",""
"","null","html-keyboard-response","137","740517","0.0-29.0-0.5","SS1619739942790","","","null","","","","","","<p><img src= images/blank.png width =""600"" height = ""600"" style=""position:fixed;top:50%; left:50%; transform: translate(-50%, -50%); border:5px solid black"">","","","","","","","",""
"","681.7350000001024","sequential-stimulus-presentation-old","138","741717","0.0-29.0-1.5","SS1619739942790","trial","","40","500","1181.7350000001024","images/stimuli/spore_stims/simple_15_A_b.gif","images/stimuli/spore_stims/simple_09_A_a.gif","self_paced","","10","simple_dissimilar","images/stimuli/spore_stims/simple_09_A_a.gif","","","","",""
"","3413.7750000000233","survey-multi-choice","139","745134","0.0-30.0","SS1619739942790","math_question","","","","","","","","","","","","{""Q0"":""5""}","[0]","5","",""
"","null","html-keyboard-response","140","746085","0.0-31.0-0.0","SS1619739942790","","","null","","","","","","<p><img src= images/blank.png width =""600"" height = ""600"" style=""position:fixed;top:50%; left:50%; transform: translate(-50%, -50%); border:5px solid black"">","","","","","","","",""
"","856.5099999996601","sequential-stimulus-presentation-old","141","747457","0.0-31.0-1.0","SS1619739942790","trial","","40","500","1356.50999999966","images/stimuli/spore_stims/complex_20_A_a.gif","images/stimuli/spore_stims/complex_17_A_b.gif","forced_short","","11","complex_dissimilar","images/stimuli/spore_stims/complex_17_A_b.gif","","","","",""
"","null","html-keyboard-response","142","748301","0.0-31.0-0.1","SS1619739942790","","","null","","","","","","<p><img src= images/blank.png width =""600"" height = ""600"" style=""position:fixed;top:50%; left:50%; transform: translate(-50%, -50%); border:5px solid black"">","","","","","","","",""
"","3882.730000000214","sequential-stimulus-presentation-old","143","752700","0.0-31.0-1.1","SS1619739942790","trial","","40","500","4382.730000000214","images/stimuli/spore_stims/complex_20_A_a.gif","images/stimuli/spore_stims/complex_17_A_b.gif","forced_short","","11","complex_dissimilar","images/stimuli/spore_stims/complex_20_A_a.gif","","","","",""
"","null","html-keyboard-response","144","753699","0.0-31.0-0.2","SS1619739942790","","","null","","","","","","<p><img src= images/blank.png width =""600"" height = ""600"" style=""position:fixed;top:50%; left:50%; transform: translate(-50%, -50%); border:5px solid black"">","","","","","","","",""
"","5474.000000000116","sequential-stimulus-presentation-old","145","759691","0.0-31.0-1.2","SS1619739942790","trial","","40","500","5974.000000000116","images/stimuli/spore_stims/complex_20_A_a.gif","images/stimuli/spore_stims/complex_17_A_b.gif","forced_short","","11","complex_dissimilar","images/stimuli/spore_stims/complex_17_A_b.gif","","","","",""
"","null","html-keyboard-response","146","760667","0.0-31.0-0.3","SS1619739942790","","","null","","","","","","<p><img src= images/blank.png width =""600"" height = ""600"" style=""position:fixed;top:50%; left:50%; transform: translate(-50%, -50%); border:5px solid black"">","","","","","","","",""
"","2063.1950000006473","sequential-stimulus-presentation-old","147","763246","0.0-31.0-1.3","SS1619739942790","trial","","40","500","2563.1950000006473","images/stimuli/spore_stims/complex_20_A_a.gif","images/stimuli/spore_stims/complex_17_A_b.gif","forced_short","","11","complex_dissimilar","images/stimuli/spore_stims/complex_17_A_b.gif","","","","",""
"","null","html-keyboard-response","148","764268","0.0-31.0-0.4","SS1619739942790","","","null","","","","","","<p><img src= images/blank.png width =""600"" height = ""600"" style=""position:fixed;top:50%; left:50%; transform: translate(-50%, -50%); border:5px solid black"">","","","","","","","",""
"","3132.100000000675","sequential-stimulus-presentation-old","149","767917","0.0-31.0-1.4","SS1619739942790","trial","","40","500","3632.100000000675","images/stimuli/spore_stims/complex_20_A_a.gif","images/stimuli/spore_stims/complex_17_A_b.gif","forced_short","","11","complex_dissimilar","images/stimuli/spore_stims/complex_20_A_a.gif","","","","",""
"","null","html-keyboard-response","150","768964","0.0-31.0-0.5","SS1619739942790","","","null","","","","","","<p><img src= images/blank.png width =""600"" height = ""600"" style=""position:fixed;top:50%; left:50%; transform: translate(-50%, -50%); border:5px solid black"">","","","","","","","",""
"","3811.0750000005355","sequential-stimulus-presentation-old","151","773289","0.0-31.0-1.5","SS1619739942790","trial","","40","500","4311.0750000005355","images/stimuli/spore_stims/complex_20_A_a.gif","images/stimuli/spore_stims/complex_17_A_b.gif","forced_short","","11","complex_dissimilar","images/stimuli/spore_stims/complex_17_A_b.gif","","","","",""
"[{""page_index"":0,""viewing_time"":7076.890000000247}]","7078.150000000256","instructions","152","780370","0.0-32.0","SS1619739942790","instructions","","","","","","","","","","","","","","","",""
"","11322.024999999558","survey-likert","153","791698","0.0-33.0","SS1619739942790","similarity_question","","","","","","","","","","","","{""Q0"":1}","[0]","","images/stimuli/spore_stims/complex_09_A_a.gif","images/stimuli/spore_stims/complex_11_A_b.gif"
"","4758.0299999999115","survey-likert","154","796467","0.0-34.0","SS1619739942790","similarity_question","","","","","","","","","","","","{""Q0"":1}","[0]","","images/stimuli/spore_stims/complex_08_A_b.gif","images/stimuli/spore_stims/complex_01_A_a.gif"
"","4855.4949999997625","survey-likert","155","801348","0.0-35.0","SS1619739942790","similarity_question","","","","","","","","","","","","{""Q0"":5}","[0]","","images/stimuli/spore_stims/simple_03_A_a.gif","images/stimuli/spore_stims/simple_09_A_b.gif"
"","2934.785000000382","survey-likert","156","804290","0.0-36.0","SS1619739942790","similarity_question","","","","","","","","","","","","{""Q0"":5}","[0]","","images/stimuli/spore_stims/simple_09_A_a.gif","images/stimuli/spore_stims/simple_15_A_b.gif"
"","2413.6450000006007","survey-likert","157","806711","0.0-37.0","SS1619739942790","similarity_question","","","","","","","","","","","","{""Q0"":0}","[0]","","images/stimuli/spore_stims/complex_12_A_b.gif","images/stimuli/spore_stims/complex_04_A_a.gif"
"","2095.110000000219","survey-likert","158","808835","0.0-38.0","SS1619739942790","similarity_question","","","","","","","","","","","","{""Q0"":0}","[0]","","images/stimuli/spore_stims/complex_14_A_b.gif","images/stimuli/spore_stims/complex_11_A_a.gif"
"","1891.1000000006752","survey-likert","159","810733","0.0-39.0","SS1619739942790","similarity_question","","","","","","","","","","","","{""Q0"":5}","[0]","","images/stimuli/spore_stims/simple_20_A_a.gif","images/stimuli/spore_stims/simple_14_A_b.gif"
"","1983.4500000005355","survey-likert","160","812722","0.0-40.0","SS1619739942790","similarity_question","","","","","","","","","","","","{""Q0"":5}","[0]","","images/stimuli/spore_stims/simple_13_A_a.gif","images/stimuli/spore_stims/simple_02_A_b.gif"
"","2737.374999999767","survey-likert","161","815465","0.0-41.0","SS1619739942790","similarity_question","","","","","","","","","","","","{""Q0"":3}","[0]","","images/stimuli/spore_stims/simple_18_A_b.gif","images/stimuli/spore_stims/simple_14_A_a.gif"
"","2551.620000000228","survey-likert","162","818025","0.0-42.0","SS1619739942790","similarity_question","","","","","","","","","","","","{""Q0"":5}","[0]","","images/stimuli/spore_stims/simple_08_A_b.gif","images/stimuli/spore_stims/simple_01_A_a.gif"
"","2034.805000000284","survey-likert","163","820066","0.0-43.0","SS1619739942790","similarity_question","","","","","","","","","","","","{""Q0"":0}","[0]","","images/stimuli/spore_stims/complex_17_A_b.gif","images/stimuli/spore_stims/complex_20_A_a.gif"
"","2088.4299999998184","survey-likert","164","822161","0.0-44.0","SS1619739942790","similarity_question","","","","","","","","","","","","{""Q0"":0}","[0]","","images/stimuli/spore_stims/complex_08_A_a.gif","images/stimuli/spore_stims/complex_01_A_b.gif"
"[{""page_index"":0,""viewing_time"":2046.8000000000466}]","2048.0699999998324","instructions","165","824215","0.0-45.0","SS1619739942790","instructions","","","","","","","","","","","","","","","",""
"","8230.980000000214","survey-likert","166","832452","0.0-46.0","SS1619739942790","","","","","","","","","images/stimuli/spore_stims/complex_17_A_b.gif","","","","{""Q0"":4}","[0]","","",""
"","5647.899999999907","survey-likert","167","838106","0.0-47.0","SS1619739942790","","","","","","","","","images/stimuli/spore_stims/simple_14_A_a.gif","","","","{""Q0"":1}","[0]","","",""
"","1962.144999999553","survey-likert","168","840085","0.0-48.0","SS1619739942790","","","","","","","","","images/stimuli/spore_stims/simple_09_A_b.gif","","","","{""Q0"":1}","[0]","","",""
"","1458.3400000000838","survey-likert","169","841552","0.0-49.0","SS1619739942790","","","","","","","","","images/stimuli/spore_stims/simple_01_A_a.gif","","","","{""Q0"":1}","[0]","","",""
"","2601.5999999999767","survey-likert","170","844160","0.0-50.0","SS1619739942790","","","","","","","","","images/stimuli/spore_stims/complex_08_A_b.gif","","","","{""Q0"":5}","[0]","","",""
"","1820.4400000004098","survey-likert","171","845986","0.0-51.0","SS1619739942790","","","","","","","","","images/stimuli/spore_stims/simple_20_A_a.gif","","","","{""Q0"":1}","[0]","","",""
"","2769.519999999902","survey-likert","172","848762","0.0-52.0","SS1619739942790","","","","","","","","","images/stimuli/spore_stims/complex_14_A_b.gif","","","","{""Q0"":5}","[0]","","",""
"","2156.7700000006007","survey-likert","173","850946","0.0-53.0","SS1619739942790","","","","","","","","","images/stimuli/spore_stims/complex_12_A_b.gif","","","","{""Q0"":5}","[0]","","",""
"","2983.3100000005215","survey-likert","174","853936","0.0-54.0","SS1619739942790","","","","","","","","","images/stimuli/spore_stims/complex_08_A_a.gif","","","","{""Q0"":5}","[0]","","",""
"","3491.9999999993015","survey-likert","175","857435","0.0-55.0","SS1619739942790","","","","","","","","","images/stimuli/spore_stims/simple_13_A_a.gif","","","","{""Q0"":1}","[0]","","",""
"","2043.5699999998324","survey-likert","176","859484","0.0-56.0","SS1619739942790","","","","","","","","","images/stimuli/spore_stims/complex_11_A_b.gif","","","","{""Q0"":5}","[0]","","",""
"","2137.6150000005728","survey-likert","177","861627","0.0-57.0","SS1619739942790","","","","","","","","","images/stimuli/spore_stims/simple_15_A_b.gif","","","","{""Q0"":1}","[0]","","",""
"[{""page_index"":0,""viewing_time"":972.9950000001118}]","973.4950000001118","instructions","178","862606","0.0-58.0","SS1619739942790","instructions","","","","","","","","","","","","","","","",""
"","3563.0650000002934","demog-age","179","866177","0.0-59.0","SS1619739942790","","","","","","","","","","","","","{""age"":""23""}","","","",""
"","6390.13499999966","demog-ethnic-US","180","872577","0.0-60.0","SS1619739942790","","","","","","","","","","","","","{""ethnicity"":[""Hispanic or Latino""]}","[0]","","",""
"","6757.5299999999115","demog-gender-and-education","181","879340","0.0-61.0","SS1619739942790","","","","","","","","","","","","","{""gender"":""Male"",""education"":""Bachelor's Degree""}","[0,1]","","",""
"","11062.144999999902","survey-text","182","890409","0.0-62.0","SS1619739942790","feedback","","","","","","","","","","","","{""Q0"":""b""}","","","",""
"[{""page_index"":0,""viewing_time"":3002.240000000689}]","3003.3700000003446","instructions","183","893434","0.0-63.0","SS1619739942790","instructions","","","","","","","","","","","","","","","",""
