"view_history","rt","trial_type","trial_index","time_elapsed","internal_node_id","subject","stimulus_type","trial_stimulus","key_press","minimum_viewing_duration","trial_looking_time","block_deviant","block_background","exposure_type","stimulus","block_number","block_type","stimulus_displayed","responses","question_order","math_correct_answer","stimulus_left","stimulus_right"
"[{""page_index"":0,""viewing_time"":40191.34499999927}]","40192.34499999948","instructions","0","40197","0.0-0.0","SS1619739432032","","","","","","","","","","","","","","","","",""
"[{""page_index"":0,""viewing_time"":26724.79999999996},{""page_index"":1,""viewing_time"":12477.180000001681}]","39202.31000000058","instructions","1","81402","0.0-1.0","SS1619739432032","instructions","","","","","","","","","","","","","","","",""
"","15647.97499999986","sequential-stimulus-presentation-old","2","97554","0.0-2.0","SS1619739432032","","","40","500","16147.97499999986","null","null","self_paced","","","","","","","","",""
"","11083.495000002586","sequential-stimulus-presentation-old","3","109141","0.0-3.0","SS1619739432032","","","40","500","11583.495000002586","null","null","self_paced","","","","","","","","",""
"[{""page_index"":0,""viewing_time"":37368.405000001076}]","37368.68500000128","instructions","4","146510","0.0-4.0","SS1619739432032","instructions","","","","","","","","","","","","","","","",""
"","1023.9799999981187","sequential-stimulus-presentation-old","5","162537","0.0-5.0","SS1619739432032","","","40","500","1523.9799999981187","null","null","forced_long","","","","","","","","",""
"","5439.095000001544","sequential-stimulus-presentation-old","6","168480","0.0-6.0","SS1619739432032","","","40","500","5939.095000001544","null","null","forced_long","","","","","","","","",""
"[{""page_index"":0,""viewing_time"":7095.880000000761}]","7096.219999999448","instructions","7","175577","0.0-7.0","SS1619739432032","instructions","","","","","","","","","","","","","","","",""
"[{""page_index"":0,""viewing_time"":44202.33999999982},{""page_index"":1,""viewing_time"":18960.344999999506},{""page_index"":2,""viewing_time"":9491.000000001804},{""page_index"":3,""viewing_time"":17196.02500000107},{""page_index"":4,""viewing_time"":1667.3399999999674}]","91517.55000000048","instructions","8","267097","0.0-8.0","SS1619739432032","instructions","","","","","","","","","","","","","","","",""
"","null","html-keyboard-response","9","268282","0.0-9.0-0.0","SS1619739432032","","","null","","","","","","<p><img src= images/blank.png width =""600"" height = ""600"" style=""position:fixed;top:50%; left:50%; transform: translate(-50%, -50%); border:5px solid black"">","","","","","","","",""
"","522.6849999999395","sequential-stimulus-presentation-old","10","283809","0.0-9.0-1.0","SS1619739432032","trial","","40","500","1022.6849999999395","images/stimuli/spore_stims/complex_16_A_a.gif","images/stimuli/spore_stims/complex_17_A_b.gif","forced_long","","0","complex_dissimilar","images/stimuli/spore_stims/complex_17_A_b.gif","","","","",""
"","null","html-keyboard-response","11","285049","0.0-9.0-0.1","SS1619739432032","","","null","","","","","","<p><img src= images/blank.png width =""600"" height = ""600"" style=""position:fixed;top:50%; left:50%; transform: translate(-50%, -50%); border:5px solid black"">","","","","","","","",""
"","125462.27499999804","sequential-stimulus-presentation-old","12","411016","0.0-9.0-1.1","SS1619739432032","trial","","40","500","125962.27499999804","images/stimuli/spore_stims/complex_16_A_a.gif","images/stimuli/spore_stims/complex_17_A_b.gif","forced_long","","0","complex_dissimilar","images/stimuli/spore_stims/complex_17_A_b.gif","","","","",""
"","null","html-keyboard-response","13","412264","0.0-9.0-0.2","SS1619739432032","","","null","","","","","","<p><img src= images/blank.png width =""600"" height = ""600"" style=""position:fixed;top:50%; left:50%; transform: translate(-50%, -50%); border:5px solid black"">","","","","","","","",""
"","8569.219999997586","sequential-stimulus-presentation-old","14","421338","0.0-9.0-1.2","SS1619739432032","trial","","40","500","9069.219999997586","images/stimuli/spore_stims/complex_16_A_a.gif","images/stimuli/spore_stims/complex_17_A_b.gif","forced_long","","0","complex_dissimilar","images/stimuli/spore_stims/complex_17_A_b.gif","","","","",""
"","null","html-keyboard-response","15","422456","0.0-9.0-0.3","SS1619739432032","","","null","","","","","","<p><img src= images/blank.png width =""600"" height = ""600"" style=""position:fixed;top:50%; left:50%; transform: translate(-50%, -50%); border:5px solid black"">","","","","","","","",""
"","12155.805000002147","sequential-stimulus-presentation-old","16","435116","0.0-9.0-1.3","SS1619739432032","trial","","40","500","12655.805000002147","images/stimuli/spore_stims/complex_16_A_a.gif","images/stimuli/spore_stims/complex_17_A_b.gif","forced_long","","0","complex_dissimilar","images/stimuli/spore_stims/complex_16_A_a.gif","","","","",""
"","null","html-keyboard-response","17","436169","0.0-9.0-0.4","SS1619739432032","","","null","","","","","","<p><img src= images/blank.png width =""600"" height = ""600"" style=""position:fixed;top:50%; left:50%; transform: translate(-50%, -50%); border:5px solid black"">","","","","","","","",""
"","4852.8799999985495","sequential-stimulus-presentation-old","18","441531","0.0-9.0-1.4","SS1619739432032","trial","","40","500","5352.8799999985495","images/stimuli/spore_stims/complex_16_A_a.gif","images/stimuli/spore_stims/complex_17_A_b.gif","forced_long","","0","complex_dissimilar","images/stimuli/spore_stims/complex_17_A_b.gif","","","","",""
"","4060.574999999546","survey-multi-choice","19","445595","0.0-10.0","SS1619739432032","math_question","","","","","","","","","","","","{""Q0"":""4""}","[0]","4","",""
"","null","html-keyboard-response","20","446461","0.0-11.0-0.0","SS1619739432032","","","null","","","","","","<p><img src= images/blank.png width =""600"" height = ""600"" style=""position:fixed;top:50%; left:50%; transform: translate(-50%, -50%); border:5px solid black"">","","","","","","","",""
"","1449.9199999991106","sequential-stimulus-presentation-old","21","448420","0.0-11.0-1.0","SS1619739432032","trial","","40","500","1949.9199999991106","images/stimuli/spore_stims/simple_16_A_b.gif","images/stimuli/spore_stims/simple_17_A_a.gif","forced_short","","1","simple_dissimilar","images/stimuli/spore_stims/simple_17_A_a.gif","","","","",""
"","null","html-keyboard-response","22","449282","0.0-11.0-0.1","SS1619739432032","","","null","","","","","","<p><img src= images/blank.png width =""600"" height = ""600"" style=""position:fixed;top:50%; left:50%; transform: translate(-50%, -50%); border:5px solid black"">","","","","","","","",""
"","25922.174999999697","sequential-stimulus-presentation-old","23","475710","0.0-11.0-1.1","SS1619739432032","trial","","40","500","26422.174999999697","images/stimuli/spore_stims/simple_16_A_b.gif","images/stimuli/spore_stims/simple_17_A_a.gif","forced_short","","1","simple_dissimilar","images/stimuli/spore_stims/simple_17_A_a.gif","","","","",""
"","null","html-keyboard-response","24","476536","0.0-11.0-0.2","SS1619739432032","","","null","","","","","","<p><img src= images/blank.png width =""600"" height = ""600"" style=""position:fixed;top:50%; left:50%; transform: translate(-50%, -50%); border:5px solid black"">","","","","","","","",""
"","5689.249999999476","sequential-stimulus-presentation-old","25","482752","0.0-11.0-1.2","SS1619739432032","trial","","40","500","6189.249999999476","images/stimuli/spore_stims/simple_16_A_b.gif","images/stimuli/spore_stims/simple_17_A_a.gif","forced_short","","1","simple_dissimilar","images/stimuli/spore_stims/simple_16_A_b.gif","","","","",""
"","null","html-keyboard-response","26","483654","0.0-11.0-0.3","SS1619739432032","","","null","","","","","","<p><img src= images/blank.png width =""600"" height = ""600"" style=""position:fixed;top:50%; left:50%; transform: translate(-50%, -50%); border:5px solid black"">","","","","","","","",""
"","1003.3449999973527","sequential-stimulus-presentation-old","27","485163","0.0-11.0-1.3","SS1619739432032","trial","","40","500","1503.3449999973527","images/stimuli/spore_stims/simple_16_A_b.gif","images/stimuli/spore_stims/simple_17_A_a.gif","forced_short","","1","simple_dissimilar","images/stimuli/spore_stims/simple_17_A_a.gif","","","","",""
"","null","html-keyboard-response","28","486065","0.0-11.0-0.4","SS1619739432032","","","null","","","","","","<p><img src= images/blank.png width =""600"" height = ""600"" style=""position:fixed;top:50%; left:50%; transform: translate(-50%, -50%); border:5px solid black"">","","","","","","","",""
"","24893.275000002177","sequential-stimulus-presentation-old","29","511473","0.0-11.0-1.4","SS1619739432032","trial","","40","500","25393.275000002177","images/stimuli/spore_stims/simple_16_A_b.gif","images/stimuli/spore_stims/simple_17_A_a.gif","forced_short","","1","simple_dissimilar","images/stimuli/spore_stims/simple_17_A_a.gif","","","","",""
"","null","html-keyboard-response","30","512775","0.0-11.0-0.5","SS1619739432032","","","null","","","","","","<p><img src= images/blank.png width =""600"" height = ""600"" style=""position:fixed;top:50%; left:50%; transform: translate(-50%, -50%); border:5px solid black"">","","","","","","","",""
"","1190.725000000326","sequential-stimulus-presentation-old","31","514472","0.0-11.0-1.5","SS1619739432032","trial","","40","500","1690.725000000326","images/stimuli/spore_stims/simple_16_A_b.gif","images/stimuli/spore_stims/simple_17_A_a.gif","forced_short","","1","simple_dissimilar","images/stimuli/spore_stims/simple_17_A_a.gif","","","","",""
"","3614.125","survey-multi-choice","32","518088","0.0-12.0","SS1619739432032","math_question","","","","","","","","","","","","{""Q0"":""11""}","[0]","11","",""
"","null","html-keyboard-response","33","519193","0.0-13.0-0.0","SS1619739432032","","","null","","","","","","<p><img src= images/blank.png width =""600"" height = ""600"" style=""position:fixed;top:50%; left:50%; transform: translate(-50%, -50%); border:5px solid black"">","","","","","","","",""
"","2687.9149999986403","sequential-stimulus-presentation-old","34","522387","0.0-13.0-1.0","SS1619739432032","trial","","40","500","3187.9149999986403","images/stimuli/spore_stims/complex_12_A_b.gif","images/stimuli/spore_stims/complex_14_A_a.gif","forced_short","","2","complex_dissimilar","images/stimuli/spore_stims/complex_14_A_a.gif","","","","",""
"","null","html-keyboard-response","35","523582","0.0-13.0-0.1","SS1619739432032","","","null","","","","","","<p><img src= images/blank.png width =""600"" height = ""600"" style=""position:fixed;top:50%; left:50%; transform: translate(-50%, -50%); border:5px solid black"">","","","","","","","",""
"","10734.209999998682","sequential-stimulus-presentation-old","36","534819","0.0-13.0-1.1","SS1619739432032","trial","","40","500","11234.209999998682","images/stimuli/spore_stims/complex_12_A_b.gif","images/stimuli/spore_stims/complex_14_A_a.gif","forced_short","","2","complex_dissimilar","images/stimuli/spore_stims/complex_14_A_a.gif","","","","",""
"","null","html-keyboard-response","37","536120","0.0-13.0-0.2","SS1619739432032","","","null","","","","","","<p><img src= images/blank.png width =""600"" height = ""600"" style=""position:fixed;top:50%; left:50%; transform: translate(-50%, -50%); border:5px solid black"">","","","","","","","",""
"","2514.32500000007","sequential-stimulus-presentation-old","38","539138","0.0-13.0-1.2","SS1619739432032","trial","","40","500","3014.32500000007","images/stimuli/spore_stims/complex_12_A_b.gif","images/stimuli/spore_stims/complex_14_A_a.gif","forced_short","","2","complex_dissimilar","images/stimuli/spore_stims/complex_12_A_b.gif","","","","",""
"","null","html-keyboard-response","39","539963","0.0-13.0-0.3","SS1619739432032","","","null","","","","","","<p><img src= images/blank.png width =""600"" height = ""600"" style=""position:fixed;top:50%; left:50%; transform: translate(-50%, -50%); border:5px solid black"">","","","","","","","",""
"","16007.600000000908","sequential-stimulus-presentation-old","40","557416","0.0-13.0-1.3","SS1619739432032","trial","","40","500","16507.600000000908","images/stimuli/spore_stims/complex_12_A_b.gif","images/stimuli/spore_stims/complex_14_A_a.gif","forced_short","","2","complex_dissimilar","images/stimuli/spore_stims/complex_14_A_a.gif","","","","",""
"","null","html-keyboard-response","41","558458","0.0-13.0-0.4","SS1619739432032","","","null","","","","","","<p><img src= images/blank.png width =""600"" height = ""600"" style=""position:fixed;top:50%; left:50%; transform: translate(-50%, -50%); border:5px solid black"">","","","","","","","",""
"","3233.015000001644","sequential-stimulus-presentation-old","42","562197","0.0-13.0-1.4","SS1619739432032","trial","","40","500","3733.015000001644","images/stimuli/spore_stims/complex_12_A_b.gif","images/stimuli/spore_stims/complex_14_A_a.gif","forced_short","","2","complex_dissimilar","images/stimuli/spore_stims/complex_14_A_a.gif","","","","",""
"","3249.2599999969825","survey-multi-choice","43","565449","0.0-14.0","SS1619739432032","math_question","","","","","","","","","","","","{""Q0"":""7""}","[0]","7","",""
"","null","html-keyboard-response","44","566629","0.0-15.0-0.0","SS1619739432032","","","null","","","","","","<p><img src= images/blank.png width =""600"" height = ""600"" style=""position:fixed;top:50%; left:50%; transform: translate(-50%, -50%); border:5px solid black"">","","","","","","","",""
"","21370.940000000643","sequential-stimulus-presentation-old","45","603779","0.0-15.0-1.0","SS1619739432032","trial","","40","500","21870.940000000643","images/stimuli/spore_stims/complex_14_A_b.gif","images/stimuli/spore_stims/complex_04_A_a.gif","forced_long","","3","complex_dissimilar","images/stimuli/spore_stims/complex_04_A_a.gif","","","","",""
"","null","html-keyboard-response","46","604915","0.0-15.0-0.1","SS1619739432032","","","null","","","","","","<p><img src= images/blank.png width =""600"" height = ""600"" style=""position:fixed;top:50%; left:50%; transform: translate(-50%, -50%); border:5px solid black"">","","","","","","","",""
"","1075.4349999987753","sequential-stimulus-presentation-old","47","606495","0.0-15.0-1.1","SS1619739432032","trial","","40","500","1575.4349999987753","images/stimuli/spore_stims/complex_14_A_b.gif","images/stimuli/spore_stims/complex_04_A_a.gif","forced_long","","3","complex_dissimilar","images/stimuli/spore_stims/complex_14_A_b.gif","","","","",""
"","null","html-keyboard-response","48","607638","0.0-15.0-0.2","SS1619739432032","","","null","","","","","","<p><img src= images/blank.png width =""600"" height = ""600"" style=""position:fixed;top:50%; left:50%; transform: translate(-50%, -50%); border:5px solid black"">","","","","","","","",""
"","1740.1449999997858","sequential-stimulus-presentation-old","49","609884","0.0-15.0-1.2","SS1619739432032","trial","","40","500","2240.144999999786","images/stimuli/spore_stims/complex_14_A_b.gif","images/stimuli/spore_stims/complex_04_A_a.gif","forced_long","","3","complex_dissimilar","images/stimuli/spore_stims/complex_14_A_b.gif","","","","",""
"","null","html-keyboard-response","50","610762","0.0-15.0-0.3","SS1619739432032","","","null","","","","","","<p><img src= images/blank.png width =""600"" height = ""600"" style=""position:fixed;top:50%; left:50%; transform: translate(-50%, -50%); border:5px solid black"">","","","","","","","",""
"","2760.140000002226","sequential-stimulus-presentation-old","51","614028","0.0-15.0-1.3","SS1619739432032","trial","","40","500","3260.140000002226","images/stimuli/spore_stims/complex_14_A_b.gif","images/stimuli/spore_stims/complex_04_A_a.gif","forced_long","","3","complex_dissimilar","images/stimuli/spore_stims/complex_04_A_a.gif","","","","",""
"","3226.8199999998324","survey-multi-choice","52","617258","0.0-16.0","SS1619739432032","math_question","","","","","","","","","","","","{""Q0"":""5""}","[0]","5","",""
"","null","html-keyboard-response","53","618431","0.0-17.0-0.0","SS1619739432032","","","null","","","","","","<p><img src= images/blank.png width =""600"" height = ""600"" style=""position:fixed;top:50%; left:50%; transform: translate(-50%, -50%); border:5px solid black"">","","","","","","","",""
"","2849.720000001951","sequential-stimulus-presentation-old","54","621788","0.0-17.0-1.0","SS1619739432032","trial","","40","500","3349.720000001951","images/stimuli/spore_stims/simple_06_A_a.gif","images/stimuli/spore_stims/simple_07_A_b.gif","self_paced","","4","simple_dissimilar","images/stimuli/spore_stims/simple_07_A_b.gif","","","","",""
"","null","html-keyboard-response","55","622759","0.0-17.0-0.1","SS1619739432032","","","null","","","","","","<p><img src= images/blank.png width =""600"" height = ""600"" style=""position:fixed;top:50%; left:50%; transform: translate(-50%, -50%); border:5px solid black"">","","","","","","","",""
"","23617.460000001243","sequential-stimulus-presentation-old","56","646882","0.0-17.0-1.1","SS1619739432032","trial","","40","500","24117.460000001243","images/stimuli/spore_stims/simple_06_A_a.gif","images/stimuli/spore_stims/simple_07_A_b.gif","self_paced","","4","simple_dissimilar","images/stimuli/spore_stims/simple_06_A_a.gif","","","","",""
"","null","html-keyboard-response","57","647936","0.0-17.0-0.2","SS1619739432032","","","null","","","","","","<p><img src= images/blank.png width =""600"" height = ""600"" style=""position:fixed;top:50%; left:50%; transform: translate(-50%, -50%); border:5px solid black"">","","","","","","","",""
"","8175.77499999979","sequential-stimulus-presentation-old","58","657585","0.0-17.0-1.2","SS1619739432032","trial","","40","500","8675.77499999979","images/stimuli/spore_stims/simple_06_A_a.gif","images/stimuli/spore_stims/simple_07_A_b.gif","self_paced","","4","simple_dissimilar","images/stimuli/spore_stims/simple_07_A_b.gif","","","","",""
"","null","html-keyboard-response","59","658723","0.0-17.0-0.3","SS1619739432032","","","null","","","","","","<p><img src= images/blank.png width =""600"" height = ""600"" style=""position:fixed;top:50%; left:50%; transform: translate(-50%, -50%); border:5px solid black"">","","","","","","","",""
"","5189.515000001877","sequential-stimulus-presentation-old","60","664417","0.0-17.0-1.3","SS1619739432032","trial","","40","500","5689.515000001877","images/stimuli/spore_stims/simple_06_A_a.gif","images/stimuli/spore_stims/simple_07_A_b.gif","self_paced","","4","simple_dissimilar","images/stimuli/spore_stims/simple_07_A_b.gif","","","","",""
"","null","html-keyboard-response","61","665253","0.0-17.0-0.4","SS1619739432032","","","null","","","","","","<p><img src= images/blank.png width =""600"" height = ""600"" style=""position:fixed;top:50%; left:50%; transform: translate(-50%, -50%); border:5px solid black"">","","","","","","","",""
"","2468.2300000021933","sequential-stimulus-presentation-old","62","668226","0.0-17.0-1.4","SS1619739432032","trial","","40","500","2968.2300000021933","images/stimuli/spore_stims/simple_06_A_a.gif","images/stimuli/spore_stims/simple_07_A_b.gif","self_paced","","4","simple_dissimilar","images/stimuli/spore_stims/simple_06_A_a.gif","","","","",""
"","null","html-keyboard-response","63","669441","0.0-17.0-0.5","SS1619739432032","","","null","","","","","","<p><img src= images/blank.png width =""600"" height = ""600"" style=""position:fixed;top:50%; left:50%; transform: translate(-50%, -50%); border:5px solid black"">","","","","","","","",""
"","5690.750000001513","sequential-stimulus-presentation-old","64","675641","0.0-17.0-1.5","SS1619739432032","trial","","40","500","6190.750000001513","images/stimuli/spore_stims/simple_06_A_a.gif","images/stimuli/spore_stims/simple_07_A_b.gif","self_paced","","4","simple_dissimilar","images/stimuli/spore_stims/simple_07_A_b.gif","","","","",""
"","4488.590000000899","survey-multi-choice","65","680132","0.0-18.0","SS1619739432032","math_question","","","","","","","","","","","","{""Q0"":""7""}","[0]","7","",""
"","null","html-keyboard-response","66","681176","0.0-19.0-0.0","SS1619739432032","","","null","","","","","","<p><img src= images/blank.png width =""600"" height = ""600"" style=""position:fixed;top:50%; left:50%; transform: translate(-50%, -50%); border:5px solid black"">","","","","","","","",""
"","1558.1449999990873","sequential-stimulus-presentation-old","67","683239","0.0-19.0-1.0","SS1619739432032","trial","","40","500","2058.1449999990873","images/stimuli/spore_stims/complex_01_A_a.gif","images/stimuli/spore_stims/complex_05_A_b.gif","self_paced","","5","complex_dissimilar","images/stimuli/spore_stims/complex_05_A_b.gif","","","","",""
"","null","html-keyboard-response","68","684475","0.0-19.0-0.1","SS1619739432032","","","null","","","","","","<p><img src= images/blank.png width =""600"" height = ""600"" style=""position:fixed;top:50%; left:50%; transform: translate(-50%, -50%); border:5px solid black"">","","","","","","","",""
"","6773.979999998119","sequential-stimulus-presentation-old","69","691756","0.0-19.0-1.1","SS1619739432032","trial","","40","500","7273.979999998119","images/stimuli/spore_stims/complex_01_A_a.gif","images/stimuli/spore_stims/complex_05_A_b.gif","self_paced","","5","complex_dissimilar","images/stimuli/spore_stims/complex_05_A_b.gif","","","","",""
"","null","html-keyboard-response","70","692849","0.0-19.0-0.2","SS1619739432032","","","null","","","","","","<p><img src= images/blank.png width =""600"" height = ""600"" style=""position:fixed;top:50%; left:50%; transform: translate(-50%, -50%); border:5px solid black"">","","","","","","","",""
"","2925.534999998519","sequential-stimulus-presentation-old","71","696280","0.0-19.0-1.2","SS1619739432032","trial","","40","500","3425.534999998519","images/stimuli/spore_stims/complex_01_A_a.gif","images/stimuli/spore_stims/complex_05_A_b.gif","self_paced","","5","complex_dissimilar","images/stimuli/spore_stims/complex_01_A_a.gif","","","","",""
"","null","html-keyboard-response","72","697303","0.0-19.0-0.3","SS1619739432032","","","null","","","","","","<p><img src= images/blank.png width =""600"" height = ""600"" style=""position:fixed;top:50%; left:50%; transform: translate(-50%, -50%); border:5px solid black"">","","","","","","","",""
"","2279.2499999995343","sequential-stimulus-presentation-old","73","700089","0.0-19.0-1.3","SS1619739432032","trial","","40","500","2779.2499999995343","images/stimuli/spore_stims/complex_01_A_a.gif","images/stimuli/spore_stims/complex_05_A_b.gif","self_paced","","5","complex_dissimilar","images/stimuli/spore_stims/complex_05_A_b.gif","","","","",""
"","null","html-keyboard-response","74","701315","0.0-19.0-0.4","SS1619739432032","","","null","","","","","","<p><img src= images/blank.png width =""600"" height = ""600"" style=""position:fixed;top:50%; left:50%; transform: translate(-50%, -50%); border:5px solid black"">","","","","","","","",""
"","3917.600000000675","sequential-stimulus-presentation-old","75","705739","0.0-19.0-1.4","SS1619739432032","trial","","40","500","4417.600000000675","images/stimuli/spore_stims/complex_01_A_a.gif","images/stimuli/spore_stims/complex_05_A_b.gif","self_paced","","5","complex_dissimilar","images/stimuli/spore_stims/complex_05_A_b.gif","","","","",""
"","null","html-keyboard-response","76","706687","0.0-19.0-0.5","SS1619739432032","","","null","","","","","","<p><img src= images/blank.png width =""600"" height = ""600"" style=""position:fixed;top:50%; left:50%; transform: translate(-50%, -50%); border:5px solid black"">","","","","","","","",""
"","5995.304999996792","sequential-stimulus-presentation-old","77","713186","0.0-19.0-1.5","SS1619739432032","trial","","40","500","6495.304999996792","images/stimuli/spore_stims/complex_01_A_a.gif","images/stimuli/spore_stims/complex_05_A_b.gif","self_paced","","5","complex_dissimilar","images/stimuli/spore_stims/complex_05_A_b.gif","","","","",""
"","2860.5800000004238","survey-multi-choice","78","716050","0.0-20.0","SS1619739432032","math_question","","","","","","","","","","","","{""Q0"":""4""}","[0]","4","",""
"","null","html-keyboard-response","79","717223","0.0-21.0-0.0","SS1619739432032","","","null","","","","","","<p><img src= images/blank.png width =""600"" height = ""600"" style=""position:fixed;top:50%; left:50%; transform: translate(-50%, -50%); border:5px solid black"">","","","","","","","",""
"","2880.1950000015786","sequential-stimulus-presentation-old","80","735109","0.0-21.0-1.0","SS1619739432032","trial","","40","500","3380.1950000015786","images/stimuli/spore_stims/simple_14_A_b.gif","images/stimuli/spore_stims/simple_07_A_a.gif","forced_long","","6","simple_dissimilar","images/stimuli/spore_stims/simple_07_A_a.gif","","","","",""
"","null","html-keyboard-response","81","736384","0.0-21.0-0.1","SS1619739432032","","","null","","","","","","<p><img src= images/blank.png width =""600"" height = ""600"" style=""position:fixed;top:50%; left:50%; transform: translate(-50%, -50%); border:5px solid black"">","","","","","","","",""
"","40547.04499999934","sequential-stimulus-presentation-old","82","777437","0.0-21.0-1.1","SS1619739432032","trial","","40","500","41047.04499999934","images/stimuli/spore_stims/simple_14_A_b.gif","images/stimuli/spore_stims/simple_07_A_a.gif","forced_long","","6","simple_dissimilar","images/stimuli/spore_stims/simple_07_A_a.gif","","","","",""
"","null","html-keyboard-response","83","778734","0.0-21.0-0.2","SS1619739432032","","","null","","","","","","<p><img src= images/blank.png width =""600"" height = ""600"" style=""position:fixed;top:50%; left:50%; transform: translate(-50%, -50%); border:5px solid black"">","","","","","","","",""
"","28833.70499999728","sequential-stimulus-presentation-old","84","808074","0.0-21.0-1.2","SS1619739432032","trial","","40","500","29333.70499999728","images/stimuli/spore_stims/simple_14_A_b.gif","images/stimuli/spore_stims/simple_07_A_a.gif","forced_long","","6","simple_dissimilar","images/stimuli/spore_stims/simple_07_A_a.gif","","","","",""
"","null","html-keyboard-response","85","809125","0.0-21.0-0.3","SS1619739432032","","","null","","","","","","<p><img src= images/blank.png width =""600"" height = ""600"" style=""position:fixed;top:50%; left:50%; transform: translate(-50%, -50%); border:5px solid black"">","","","","","","","",""
"","4960.019999998622","sequential-stimulus-presentation-old","86","814597","0.0-21.0-1.3","SS1619739432032","trial","","40","500","5460.019999998622","images/stimuli/spore_stims/simple_14_A_b.gif","images/stimuli/spore_stims/simple_07_A_a.gif","forced_long","","6","simple_dissimilar","images/stimuli/spore_stims/simple_14_A_b.gif","","","","",""
"","null","html-keyboard-response","87","815892","0.0-21.0-0.4","SS1619739432032","","","null","","","","","","<p><img src= images/blank.png width =""600"" height = ""600"" style=""position:fixed;top:50%; left:50%; transform: translate(-50%, -50%); border:5px solid black"">","","","","","","","",""
"","3960.3449999995064","sequential-stimulus-presentation-old","88","820360","0.0-21.0-1.4","SS1619739432032","trial","","40","500","4460.344999999506","images/stimuli/spore_stims/simple_14_A_b.gif","images/stimuli/spore_stims/simple_07_A_a.gif","forced_long","","6","simple_dissimilar","images/stimuli/spore_stims/simple_07_A_a.gif","","","","",""
"","8018.434999998077","survey-multi-choice","89","828381","0.0-22.0","SS1619739432032","math_question","","","","","","","","","","","","{""Q0"":""14""}","[0]","14","",""
"","null","html-keyboard-response","90","829613","0.0-23.0-0.0","SS1619739432032","","","null","","","","","","<p><img src= images/blank.png width =""600"" height = ""600"" style=""position:fixed;top:50%; left:50%; transform: translate(-50%, -50%); border:5px solid black"">","","","","","","","",""
"","2573.820000001462","sequential-stimulus-presentation-old","91","832694","0.0-23.0-1.0","SS1619739432032","trial","","40","500","3073.820000001462","images/stimuli/spore_stims/simple_20_A_b.gif","images/stimuli/spore_stims/simple_10_A_a.gif","forced_short","","7","simple_dissimilar","images/stimuli/spore_stims/simple_10_A_a.gif","","","","",""
"","null","html-keyboard-response","92","833587","0.0-23.0-0.1","SS1619739432032","","","null","","","","","","<p><img src= images/blank.png width =""600"" height = ""600"" style=""position:fixed;top:50%; left:50%; transform: translate(-50%, -50%); border:5px solid black"">","","","","","","","",""
"","1609.2150000003166","sequential-stimulus-presentation-old","93","835702","0.0-23.0-1.1","SS1619739432032","trial","","40","500","2109.2150000003166","images/stimuli/spore_stims/simple_20_A_b.gif","images/stimuli/spore_stims/simple_10_A_a.gif","forced_short","","7","simple_dissimilar","images/stimuli/spore_stims/simple_20_A_b.gif","","","","",""
"","null","html-keyboard-response","94","836900","0.0-23.0-0.2","SS1619739432032","","","null","","","","","","<p><img src= images/blank.png width =""600"" height = ""600"" style=""position:fixed;top:50%; left:50%; transform: translate(-50%, -50%); border:5px solid black"">","","","","","","","",""
"","3596.9899999982445","sequential-stimulus-presentation-old","95","841002","0.0-23.0-1.2","SS1619739432032","trial","","40","500","4096.9899999982445","images/stimuli/spore_stims/simple_20_A_b.gif","images/stimuli/spore_stims/simple_10_A_a.gif","forced_short","","7","simple_dissimilar","images/stimuli/spore_stims/simple_10_A_a.gif","","","","",""
"","null","html-keyboard-response","96","842164","0.0-23.0-0.3","SS1619739432032","","","null","","","","","","<p><img src= images/blank.png width =""600"" height = ""600"" style=""position:fixed;top:50%; left:50%; transform: translate(-50%, -50%); border:5px solid black"">","","","","","","","",""
"","3146.7749999973457","sequential-stimulus-presentation-old","97","845818","0.0-23.0-1.3","SS1619739432032","trial","","40","500","3646.7749999973457","images/stimuli/spore_stims/simple_20_A_b.gif","images/stimuli/spore_stims/simple_10_A_a.gif","forced_short","","7","simple_dissimilar","images/stimuli/spore_stims/simple_10_A_a.gif","","","","",""
"","null","html-keyboard-response","98","847098","0.0-23.0-0.4","SS1619739432032","","","null","","","","","","<p><img src= images/blank.png width =""600"" height = ""600"" style=""position:fixed;top:50%; left:50%; transform: translate(-50%, -50%); border:5px solid black"">","","","","","","","",""
"","887.9900000029011","sequential-stimulus-presentation-old","99","848492","0.0-23.0-1.4","SS1619739432032","trial","","40","500","1387.990000002901","images/stimuli/spore_stims/simple_20_A_b.gif","images/stimuli/spore_stims/simple_10_A_a.gif","forced_short","","7","simple_dissimilar","images/stimuli/spore_stims/simple_20_A_b.gif","","","","",""
"","3618.510000000242","survey-multi-choice","100","852115","0.0-24.0","SS1619739432032","math_question","","","","","","","","","","","","{""Q0"":""6""}","[0]","6","",""
"","null","html-keyboard-response","101","853285","0.0-25.0-0.0","SS1619739432032","","","null","","","","","","<p><img src= images/blank.png width =""600"" height = ""600"" style=""position:fixed;top:50%; left:50%; transform: translate(-50%, -50%); border:5px solid black"">","","","","","","","",""
"","4959.139999999083","sequential-stimulus-presentation-old","102","858750","0.0-25.0-1.0","SS1619739432032","trial","","40","500","5459.139999999083","images/stimuli/spore_stims/complex_03_A_a.gif","images/stimuli/spore_stims/complex_01_A_b.gif","self_paced","","8","complex_dissimilar","images/stimuli/spore_stims/complex_01_A_b.gif","","","","",""
"","null","html-keyboard-response","103","859854","0.0-25.0-0.1","SS1619739432032","","","null","","","","","","<p><img src= images/blank.png width =""600"" height = ""600"" style=""position:fixed;top:50%; left:50%; transform: translate(-50%, -50%); border:5px solid black"">","","","","","","","",""
"","2415.9299999992363","sequential-stimulus-presentation-old","104","862777","0.0-25.0-1.1","SS1619739432032","trial","","40","500","2915.9299999992363","images/stimuli/spore_stims/complex_03_A_a.gif","images/stimuli/spore_stims/complex_01_A_b.gif","self_paced","","8","complex_dissimilar","images/stimuli/spore_stims/complex_01_A_b.gif","","","","",""
"","null","html-keyboard-response","105","863604","0.0-25.0-0.2","SS1619739432032","","","null","","","","","","<p><img src= images/blank.png width =""600"" height = ""600"" style=""position:fixed;top:50%; left:50%; transform: translate(-50%, -50%); border:5px solid black"">","","","","","","","",""
"","2986.8400000013644","sequential-stimulus-presentation-old","106","867099","0.0-25.0-1.2","SS1619739432032","trial","","40","500","3486.8400000013644","images/stimuli/spore_stims/complex_03_A_a.gif","images/stimuli/spore_stims/complex_01_A_b.gif","self_paced","","8","complex_dissimilar","images/stimuli/spore_stims/complex_03_A_a.gif","","","","",""
"","null","html-keyboard-response","107","868302","0.0-25.0-0.3","SS1619739432032","","","null","","","","","","<p><img src= images/blank.png width =""600"" height = ""600"" style=""position:fixed;top:50%; left:50%; transform: translate(-50%, -50%); border:5px solid black"">","","","","","","","",""
"","2796.200000000652","sequential-stimulus-presentation-old","108","871606","0.0-25.0-1.3","SS1619739432032","trial","","40","500","3296.200000000652","images/stimuli/spore_stims/complex_03_A_a.gif","images/stimuli/spore_stims/complex_01_A_b.gif","self_paced","","8","complex_dissimilar","images/stimuli/spore_stims/complex_01_A_b.gif","","","","",""
"","null","html-keyboard-response","109","872612","0.0-25.0-0.4","SS1619739432032","","","null","","","","","","<p><img src= images/blank.png width =""600"" height = ""600"" style=""position:fixed;top:50%; left:50%; transform: translate(-50%, -50%); border:5px solid black"">","","","","","","","",""
"","218031.02500000026","sequential-stimulus-presentation-old","110","1091147","0.0-25.0-1.4","SS1619739432032","trial","","40","500","218531.02500000026","images/stimuli/spore_stims/complex_03_A_a.gif","images/stimuli/spore_stims/complex_01_A_b.gif","self_paced","","8","complex_dissimilar","images/stimuli/spore_stims/complex_01_A_b.gif","","","","",""
"","2594.3100000002887","survey-multi-choice","111","1093745","0.0-26.0","SS1619739432032","math_question","","","","","","","","","","","","{""Q0"":""10""}","[0]","10","",""
"","null","html-keyboard-response","112","1094880","0.0-27.0-0.0","SS1619739432032","","","null","","","","","","<p><img src= images/blank.png width =""600"" height = ""600"" style=""position:fixed;top:50%; left:50%; transform: translate(-50%, -50%); border:5px solid black"">","","","","","","","",""
"","5042.549999998184","sequential-stimulus-presentation-old","113","1114932","0.0-27.0-1.0","SS1619739432032","trial","","40","500","5542.549999998184","images/stimuli/spore_stims/simple_10_A_b.gif","images/stimuli/spore_stims/simple_05_A_a.gif","forced_long","","9","simple_dissimilar","images/stimuli/spore_stims/simple_05_A_a.gif","","","","",""
"","null","html-keyboard-response","114","1116191","0.0-27.0-0.1","SS1619739432032","","","null","","","","","","<p><img src= images/blank.png width =""600"" height = ""600"" style=""position:fixed;top:50%; left:50%; transform: translate(-50%, -50%); border:5px solid black"">","","","","","","","",""
"","552.965000002645","sequential-stimulus-presentation-old","115","1117253","0.0-27.0-1.1","SS1619739432032","trial","","40","500","1052.965000002645","images/stimuli/spore_stims/simple_10_A_b.gif","images/stimuli/spore_stims/simple_05_A_a.gif","forced_long","","9","simple_dissimilar","images/stimuli/spore_stims/simple_05_A_a.gif","","","","",""
"","null","html-keyboard-response","116","1118364","0.0-27.0-0.2","SS1619739432032","","","null","","","","","","<p><img src= images/blank.png width =""600"" height = ""600"" style=""position:fixed;top:50%; left:50%; transform: translate(-50%, -50%); border:5px solid black"">","","","","","","","",""
"","3897.069999999134","sequential-stimulus-presentation-old","117","1122768","0.0-27.0-1.2","SS1619739432032","trial","","40","500","4397.069999999134","images/stimuli/spore_stims/simple_10_A_b.gif","images/stimuli/spore_stims/simple_05_A_a.gif","forced_long","","9","simple_dissimilar","images/stimuli/spore_stims/simple_10_A_b.gif","","","","",""
"","null","html-keyboard-response","118","1123694","0.0-27.0-0.3","SS1619739432032","","","null","","","","","","<p><img src= images/blank.png width =""600"" height = ""600"" style=""position:fixed;top:50%; left:50%; transform: translate(-50%, -50%); border:5px solid black"">","","","","","","","",""
"","168.00000000162981","sequential-stimulus-presentation-old","119","1124373","0.0-27.0-1.3","SS1619739432032","trial","","40","500","668.0000000016298","images/stimuli/spore_stims/simple_10_A_b.gif","images/stimuli/spore_stims/simple_05_A_a.gif","forced_long","","9","simple_dissimilar","images/stimuli/spore_stims/simple_05_A_a.gif","","","","",""
"","null","html-keyboard-response","120","1125544","0.0-27.0-0.4","SS1619739432032","","","null","","","","","","<p><img src= images/blank.png width =""600"" height = ""600"" style=""position:fixed;top:50%; left:50%; transform: translate(-50%, -50%); border:5px solid black"">","","","","","","","",""
"","120.07000000099652","sequential-stimulus-presentation-old","121","1126177","0.0-27.0-1.4","SS1619739432032","trial","","40","500","620.0700000009965","images/stimuli/spore_stims/simple_10_A_b.gif","images/stimuli/spore_stims/simple_05_A_a.gif","forced_long","","9","simple_dissimilar","images/stimuli/spore_stims/simple_10_A_b.gif","","","","",""
"","null","html-keyboard-response","122","1127140","0.0-27.0-0.5","SS1619739432032","","","null","","","","","","<p><img src= images/blank.png width =""600"" height = ""600"" style=""position:fixed;top:50%; left:50%; transform: translate(-50%, -50%); border:5px solid black"">","","","","","","","",""
"","517.8850000011735","sequential-stimulus-presentation-old","123","1128173","0.0-27.0-1.5","SS1619739432032","trial","","40","500","1017.8850000011735","images/stimuli/spore_stims/simple_10_A_b.gif","images/stimuli/spore_stims/simple_05_A_a.gif","forced_long","","9","simple_dissimilar","images/stimuli/spore_stims/simple_05_A_a.gif","","","","",""
"","2758.1549999995623","survey-multi-choice","124","1130934","0.0-28.0","SS1619739432032","math_question","","","","","","","","","","","","{""Q0"":""8""}","[0]","8","",""
"","null","html-keyboard-response","125","1131946","0.0-29.0-0.0","SS1619739432032","","","null","","","","","","<p><img src= images/blank.png width =""600"" height = ""600"" style=""position:fixed;top:50%; left:50%; transform: translate(-50%, -50%); border:5px solid black"">","","","","","","","",""
"","2013.425000000978","sequential-stimulus-presentation-old","126","1134468","0.0-29.0-1.0","SS1619739432032","trial","","40","500","2513.425000000978","images/stimuli/spore_stims/simple_13_A_b.gif","images/stimuli/spore_stims/simple_16_A_a.gif","self_paced","","10","simple_dissimilar","images/stimuli/spore_stims/simple_16_A_a.gif","","","","",""
"","null","html-keyboard-response","127","1135541","0.0-29.0-0.1","SS1619739432032","","","null","","","","","","<p><img src= images/blank.png width =""600"" height = ""600"" style=""position:fixed;top:50%; left:50%; transform: translate(-50%, -50%); border:5px solid black"">","","","","","","","",""
"","1743.4300000022631","sequential-stimulus-presentation-old","128","1137791","0.0-29.0-1.1","SS1619739432032","trial","","40","500","2243.430000002263","images/stimuli/spore_stims/simple_13_A_b.gif","images/stimuli/spore_stims/simple_16_A_a.gif","self_paced","","10","simple_dissimilar","images/stimuli/spore_stims/simple_16_A_a.gif","","","","",""
"","null","html-keyboard-response","129","1138924","0.0-29.0-0.2","SS1619739432032","","","null","","","","","","<p><img src= images/blank.png width =""600"" height = ""600"" style=""position:fixed;top:50%; left:50%; transform: translate(-50%, -50%); border:5px solid black"">","","","","","","","",""
"","709.4299999990035","sequential-stimulus-presentation-old","130","1140142","0.0-29.0-1.2","SS1619739432032","trial","","40","500","1209.4299999990035","images/stimuli/spore_stims/simple_13_A_b.gif","images/stimuli/spore_stims/simple_16_A_a.gif","self_paced","","10","simple_dissimilar","images/stimuli/spore_stims/simple_16_A_a.gif","","","","",""
"","null","html-keyboard-response","131","1140964","0.0-29.0-0.3","SS1619739432032","","","null","","","","","","<p><img src= images/blank.png width =""600"" height = ""600"" style=""position:fixed;top:50%; left:50%; transform: translate(-50%, -50%); border:5px solid black"">","","","","","","","",""
"","1137.16500000027","sequential-stimulus-presentation-old","132","1142606","0.0-29.0-1.3","SS1619739432032","trial","","40","500","1637.16500000027","images/stimuli/spore_stims/simple_13_A_b.gif","images/stimuli/spore_stims/simple_16_A_a.gif","self_paced","","10","simple_dissimilar","images/stimuli/spore_stims/simple_16_A_a.gif","","","","",""
"","null","html-keyboard-response","133","1143493","0.0-29.0-0.4","SS1619739432032","","","null","","","","","","<p><img src= images/blank.png width =""600"" height = ""600"" style=""position:fixed;top:50%; left:50%; transform: translate(-50%, -50%); border:5px solid black"">","","","","","","","",""
"","927.1050000025425","sequential-stimulus-presentation-old","134","1144924","0.0-29.0-1.4","SS1619739432032","trial","","40","500","1427.1050000025425","images/stimuli/spore_stims/simple_13_A_b.gif","images/stimuli/spore_stims/simple_16_A_a.gif","self_paced","","10","simple_dissimilar","images/stimuli/spore_stims/simple_16_A_a.gif","","","","",""
"","null","html-keyboard-response","135","1145774","0.0-29.0-0.5","SS1619739432032","","","null","","","","","","<p><img src= images/blank.png width =""600"" height = ""600"" style=""position:fixed;top:50%; left:50%; transform: translate(-50%, -50%); border:5px solid black"">","","","","","","","",""
"","1731.7299999995157","sequential-stimulus-presentation-old","136","1148010","0.0-29.0-1.5","SS1619739432032","trial","","40","500","2231.7299999995157","images/stimuli/spore_stims/simple_13_A_b.gif","images/stimuli/spore_stims/simple_16_A_a.gif","self_paced","","10","simple_dissimilar","images/stimuli/spore_stims/simple_16_A_a.gif","","","","",""
"","2887.3849999981467","survey-multi-choice","137","1150902","0.0-30.0","SS1619739432032","math_question","","","","","","","","","","","","{""Q0"":""5""}","[0]","5","",""
"","null","html-keyboard-response","138","1151933","0.0-31.0-0.0","SS1619739432032","","","null","","","","","","<p><img src= images/blank.png width =""600"" height = ""600"" style=""position:fixed;top:50%; left:50%; transform: translate(-50%, -50%); border:5px solid black"">","","","","","","","",""
"","1537.0350000010803","sequential-stimulus-presentation-old","139","1153984","0.0-31.0-1.0","SS1619739432032","trial","","40","500","2037.0350000010803","images/stimuli/spore_stims/complex_07_A_b.gif","images/stimuli/spore_stims/complex_06_A_a.gif","forced_short","","11","complex_dissimilar","images/stimuli/spore_stims/complex_06_A_a.gif","","","","",""
"","null","html-keyboard-response","140","1155191","0.0-31.0-0.1","SS1619739432032","","","null","","","","","","<p><img src= images/blank.png width =""600"" height = ""600"" style=""position:fixed;top:50%; left:50%; transform: translate(-50%, -50%); border:5px solid black"">","","","","","","","",""
"","6487.399999998277","sequential-stimulus-presentation-old","141","1162186","0.0-31.0-1.1","SS1619739432032","trial","","40","500","6987.399999998277","images/stimuli/spore_stims/complex_07_A_b.gif","images/stimuli/spore_stims/complex_06_A_a.gif","forced_short","","11","complex_dissimilar","images/stimuli/spore_stims/complex_06_A_a.gif","","","","",""
"","null","html-keyboard-response","142","1163084","0.0-31.0-0.2","SS1619739432032","","","null","","","","","","<p><img src= images/blank.png width =""600"" height = ""600"" style=""position:fixed;top:50%; left:50%; transform: translate(-50%, -50%); border:5px solid black"">","","","","","","","",""
"","3647.535000000149","sequential-stimulus-presentation-old","143","1167240","0.0-31.0-1.2","SS1619739432032","trial","","40","500","4147.535000000149","images/stimuli/spore_stims/complex_07_A_b.gif","images/stimuli/spore_stims/complex_06_A_a.gif","forced_short","","11","complex_dissimilar","images/stimuli/spore_stims/complex_06_A_a.gif","","","","",""
"","null","html-keyboard-response","144","1168279","0.0-31.0-0.3","SS1619739432032","","","null","","","","","","<p><img src= images/blank.png width =""600"" height = ""600"" style=""position:fixed;top:50%; left:50%; transform: translate(-50%, -50%); border:5px solid black"">","","","","","","","",""
"","5485.605000001611","sequential-stimulus-presentation-old","145","1174273","0.0-31.0-1.3","SS1619739432032","trial","","40","500","5985.605000001611","images/stimuli/spore_stims/complex_07_A_b.gif","images/stimuli/spore_stims/complex_06_A_a.gif","forced_short","","11","complex_dissimilar","images/stimuli/spore_stims/complex_07_A_b.gif","","","","",""
"[{""page_index"":0,""viewing_time"":7741.949999999721}]","7742.764999999199","instructions","146","1182018","0.0-32.0","SS1619739432032","instructions","","","","","","","","","","","","","","","",""
"","7006.3349999981","survey-likert","147","1189030","0.0-33.0","SS1619739432032","similarity_question","","","","","","","","","","","","{""Q0"":5}","[0]","","images/stimuli/spore_stims/simple_10_A_b.gif","images/stimuli/spore_stims/simple_05_A_a.gif"
"","3807.979999997886","survey-likert","148","1192843","0.0-34.0","SS1619739432032","similarity_question","","","","","","","","","","","","{""Q0"":5}","[0]","","images/stimuli/spore_stims/simple_20_A_b.gif","images/stimuli/spore_stims/simple_10_A_a.gif"
"","3433.4999999993015","survey-likert","149","1196283","0.0-35.0","SS1619739432032","similarity_question","","","","","","","","","","","","{""Q0"":4}","[0]","","images/stimuli/spore_stims/simple_07_A_b.gif","images/stimuli/spore_stims/simple_06_A_a.gif"
"","2046.660000000149","survey-likert","150","1198336","0.0-36.0","SS1619739432032","similarity_question","","","","","","","","","","","","{""Q0"":4}","[0]","","images/stimuli/spore_stims/simple_17_A_a.gif","images/stimuli/spore_stims/simple_16_A_b.gif"
"","11006.1800000004","survey-likert","151","1209348","0.0-37.0","SS1619739432032","similarity_question","","","","","","","","","","","","{""Q0"":1}","[0]","","images/stimuli/spore_stims/complex_14_A_a.gif","images/stimuli/spore_stims/complex_12_A_b.gif"
"","4649.4099999980535","survey-likert","152","1214004","0.0-38.0","SS1619739432032","similarity_question","","","","","","","","","","","","{""Q0"":1}","[0]","","images/stimuli/spore_stims/complex_04_A_a.gif","images/stimuli/spore_stims/complex_14_A_b.gif"
"","5324.614999997662","survey-likert","153","1219334","0.0-39.0","SS1619739432032","similarity_question","","","","","","","","","","","","{""Q0"":1}","[0]","","images/stimuli/spore_stims/complex_17_A_b.gif","images/stimuli/spore_stims/complex_16_A_a.gif"
"","3493.750000001397","survey-likert","154","1222834","0.0-40.0","SS1619739432032","similarity_question","","","","","","","","","","","","{""Q0"":4}","[0]","","images/stimuli/spore_stims/simple_14_A_b.gif","images/stimuli/spore_stims/simple_07_A_a.gif"
"","4138.3399999977555","survey-likert","155","1226978","0.0-41.0","SS1619739432032","similarity_question","","","","","","","","","","","","{""Q0"":0}","[0]","","images/stimuli/spore_stims/complex_03_A_a.gif","images/stimuli/spore_stims/complex_01_A_b.gif"
"","4954.079999999376","survey-likert","156","1231937","0.0-42.0","SS1619739432032","similarity_question","","","","","","","","","","","","{""Q0"":1}","[0]","","images/stimuli/spore_stims/complex_05_A_b.gif","images/stimuli/spore_stims/complex_01_A_a.gif"
"","4390.940000001108","survey-likert","157","1236334","0.0-43.0","SS1619739432032","similarity_question","","","","","","","","","","","","{""Q0"":5}","[0]","","images/stimuli/spore_stims/simple_16_A_a.gif","images/stimuli/spore_stims/simple_13_A_b.gif"
"","2870.394999998156","survey-likert","158","1239214","0.0-44.0","SS1619739432032","similarity_question","","","","","","","","","","","","{""Q0"":0}","[0]","","images/stimuli/spore_stims/complex_06_A_a.gif","images/stimuli/spore_stims/complex_07_A_b.gif"
"[{""page_index"":0,""viewing_time"":8483.609999999404}]","8483.954999999842","instructions","159","1247703","0.0-45.0","SS1619739432032","instructions","","","","","","","","","","","","","","","",""
"","5825.35500000068","survey-likert","160","1253537","0.0-46.0","SS1619739432032","","","","","","","","","images/stimuli/spore_stims/simple_14_A_b.gif","","","","{""Q0"":0}","[0]","","",""
"","2026.1449999997858","survey-likert","161","1255567","0.0-47.0","SS1619739432032","","","","","","","","","images/stimuli/spore_stims/simple_16_A_b.gif","","","","{""Q0"":0}","[0]","","",""
"","4289.934999997029","survey-likert","162","1259862","0.0-48.0","SS1619739432032","","","","","","","","","images/stimuli/spore_stims/complex_07_A_b.gif","","","","{""Q0"":5}","[0]","","",""
"","2251.185000000987","survey-likert","163","1262118","0.0-49.0","SS1619739432032","","","","","","","","","images/stimuli/spore_stims/simple_20_A_b.gif","","","","{""Q0"":0}","[0]","","",""
"","4675.340000001481","survey-likert","164","1266798","0.0-50.0","SS1619739432032","","","","","","","","","images/stimuli/spore_stims/complex_05_A_b.gif","","","","{""Q0"":6}","[0]","","",""
"","2659.6150000004563","survey-likert","165","1269468","0.0-51.0","SS1619739432032","","","","","","","","","images/stimuli/spore_stims/complex_04_A_a.gif","","","","{""Q0"":6}","[0]","","",""
"","3095.464999998687","survey-likert","166","1272569","0.0-52.0","SS1619739432032","","","","","","","","","images/stimuli/spore_stims/simple_07_A_b.gif","","","","{""Q0"":0}","[0]","","",""
"","2350.430000002263","survey-likert","167","1274925","0.0-53.0","SS1619739432032","","","","","","","","","images/stimuli/spore_stims/simple_05_A_a.gif","","","","{""Q0"":0}","[0]","","",""
"","2022.7000000013504","survey-likert","168","1276955","0.0-54.0","SS1619739432032","","","","","","","","","images/stimuli/spore_stims/simple_13_A_b.gif","","","","{""Q0"":0}","[0]","","",""
"","1985.3949999997858","survey-likert","169","1278947","0.0-55.0","SS1619739432032","","","","","","","","","images/stimuli/spore_stims/complex_03_A_a.gif","","","","{""Q0"":6}","[0]","","",""
"","2439.8900000015274","survey-likert","170","1281392","0.0-56.0","SS1619739432032","","","","","","","","","images/stimuli/spore_stims/complex_14_A_a.gif","","","","{""Q0"":6}","[0]","","",""
"","2576.225000000559","survey-likert","171","1283973","0.0-57.0","SS1619739432032","","","","","","","","","images/stimuli/spore_stims/complex_16_A_a.gif","","","","{""Q0"":6}","[0]","","",""
"[{""page_index"":0,""viewing_time"":1632.5099999995437}]","1632.8300000024028","instructions","172","1285611","0.0-58.0","SS1619739432032","instructions","","","","","","","","","","","","","","","",""
"","3708.575000000652","demog-age","173","1289326","0.0-59.0","SS1619739432032","","","","","","","","","","","","","{""age"":""28""}","","","",""
"","3311.6200000003446","demog-ethnic-US","174","1292645","0.0-60.0","SS1619739432032","","","","","","","","","","","","","{""ethnicity"":[""Hispanic or Latino""]}","[0]","","",""
"","5361.544999999693","demog-gender-and-education","175","1298011","0.0-61.0","SS1619739432032","","","","","","","","","","","","","{""gender"":""Male"",""education"":""Doctorate/Professional degree""}","[0,1]","","",""
"","6434.8450000034645","survey-text","176","1304457","0.0-62.0","SS1619739432032","feedback","","","","","","","","","","","","{""Q0"":""no""}","","","",""
"[{""page_index"":0,""viewing_time"":1260.784999998752}]","1261.0699999970384","instructions","177","1305724","0.0-63.0","SS1619739432032","instructions","","","","","","","","","","","","","","","",""
