"view_history","rt","trial_type","trial_index","time_elapsed","internal_node_id","subject","stimulus_type","trial_stimulus","key_press","minimum_viewing_duration","trial_looking_time","block_deviant","block_background","exposure_type","stimulus","block_number","block_type","stimulus_displayed","responses","question_order","math_correct_answer","stimulus_left","stimulus_right"
"[{""page_index"":0,""viewing_time"":15538.200000009965}]","15538.665000000037","instructions","0","15540","0.0-0.0","SS1619739270972","","","","","","","","","","","","","","","","",""
"[{""page_index"":0,""viewing_time"":12501.304999983404},{""page_index"":1,""viewing_time"":7522.004999977071}]","20023.485000012442","instructions","1","37565","0.0-1.0","SS1619739270972","instructions","","","","","","","","","","","","","","","",""
"","13017.984999984037","sequential-stimulus-presentation-old","2","51085","0.0-2.0","SS1619739270972","","","40","500","13517.984999984037","null","null","self_paced","","","","","","","","",""
"","8129.415000032168","sequential-stimulus-presentation-old","3","59718","0.0-3.0","SS1619739270972","","","40","500","8629.415000032168","null","null","self_paced","","","","","","","","",""
"[{""page_index"":0,""viewing_time"":23090.365000010934}]","23090.555000002496","instructions","4","82809","0.0-4.0","SS1619739270972","instructions","","","","","","","","","","","","","","","",""
"","609.8849999834783","sequential-stimulus-presentation-old","5","98421","0.0-5.0","SS1619739270972","","","40","500","1109.8849999834783","null","null","forced_long","","","","","","","","",""
"","996.5750000556","sequential-stimulus-presentation-old","6","99924","0.0-6.0","SS1619739270972","","","40","500","1496.5750000556","null","null","forced_long","","","","","","","","",""
"[{""page_index"":0,""viewing_time"":4446.369999961462}]","4446.554999973159","instructions","7","104371","0.0-7.0","SS1619739270972","instructions","","","","","","","","","","","","","","","",""
"[{""page_index"":0,""viewing_time"":13149.205000023358},{""page_index"":1,""viewing_time"":12498.014999961015},{""page_index"":2,""viewing_time"":8645.95500001451},{""page_index"":3,""viewing_time"":3776.049999985844},{""page_index"":4,""viewing_time"":2449.9500000383705}]","40519.369999994524","instructions","8","144891","0.0-8.0","SS1619739270972","instructions","","","","","","","","","","","","","","","",""
"","null","html-keyboard-response","9","146103","0.0-9.0-0.0","SS1619739270972","","","null","","","","","","<p><img src= images/blank.png width =""600"" height = ""600"" style=""position:fixed;top:50%; left:50%; transform: translate(-50%, -50%); border:5px solid black"">","","","","","","","",""
"","447.2199999727309","sequential-stimulus-presentation-old","10","147053","0.0-9.0-1.0","SS1619739270972","trial","","40","500","947.2199999727309","images/stimuli/spore_stims/complex_19_A_b.gif","images/stimuli/spore_stims/complex_13_A_a.gif","forced_short","","0","complex_dissimilar","images/stimuli/spore_stims/complex_13_A_a.gif","","","","",""
"","null","html-keyboard-response","11","148304","0.0-9.0-0.1","SS1619739270972","","","null","","","","","","<p><img src= images/blank.png width =""600"" height = ""600"" style=""position:fixed;top:50%; left:50%; transform: translate(-50%, -50%); border:5px solid black"">","","","","","","","",""
"","46767.12500001304","sequential-stimulus-presentation-old","12","195574","0.0-9.0-1.1","SS1619739270972","trial","","40","500","47267.12500001304","images/stimuli/spore_stims/complex_19_A_b.gif","images/stimuli/spore_stims/complex_13_A_a.gif","forced_short","","0","complex_dissimilar","images/stimuli/spore_stims/complex_13_A_a.gif","","","","",""
"","null","html-keyboard-response","13","196861","0.0-9.0-0.2","SS1619739270972","","","null","","","","","","<p><img src= images/blank.png width =""600"" height = ""600"" style=""position:fixed;top:50%; left:50%; transform: translate(-50%, -50%); border:5px solid black"">","","","","","","","",""
"","28693.35499999579","sequential-stimulus-presentation-old","14","226057","0.0-9.0-1.2","SS1619739270972","trial","","40","500","29193.35499999579","images/stimuli/spore_stims/complex_19_A_b.gif","images/stimuli/spore_stims/complex_13_A_a.gif","forced_short","","0","complex_dissimilar","images/stimuli/spore_stims/complex_13_A_a.gif","","","","",""
"","null","html-keyboard-response","15","227003","0.0-9.0-0.3","SS1619739270972","","","null","","","","","","<p><img src= images/blank.png width =""600"" height = ""600"" style=""position:fixed;top:50%; left:50%; transform: translate(-50%, -50%); border:5px solid black"">","","","","","","","",""
"","6650.244999967981","sequential-stimulus-presentation-old","16","234157","0.0-9.0-1.3","SS1619739270972","trial","","40","500","7150.244999967981","images/stimuli/spore_stims/complex_19_A_b.gif","images/stimuli/spore_stims/complex_13_A_a.gif","forced_short","","0","complex_dissimilar","images/stimuli/spore_stims/complex_19_A_b.gif","","","","",""
"","null","html-keyboard-response","17","234965","0.0-9.0-0.4","SS1619739270972","","","null","","","","","","<p><img src= images/blank.png width =""600"" height = ""600"" style=""position:fixed;top:50%; left:50%; transform: translate(-50%, -50%); border:5px solid black"">","","","","","","","",""
"","3695.80499996664","sequential-stimulus-presentation-old","18","239164","0.0-9.0-1.4","SS1619739270972","trial","","40","500","4195.80499996664","images/stimuli/spore_stims/complex_19_A_b.gif","images/stimuli/spore_stims/complex_13_A_a.gif","forced_short","","0","complex_dissimilar","images/stimuli/spore_stims/complex_13_A_a.gif","","","","",""
"","3681.27000000095","survey-multi-choice","19","242848","0.0-10.0","SS1619739270972","math_question","","","","","","","","","","","","{""Q0"":""7""}","[0]","7","",""
"","null","html-keyboard-response","20","243782","0.0-11.0-0.0","SS1619739270972","","","null","","","","","","<p><img src= images/blank.png width =""600"" height = ""600"" style=""position:fixed;top:50%; left:50%; transform: translate(-50%, -50%); border:5px solid black"">","","","","","","","",""
"","8051.03000003146","sequential-stimulus-presentation-old","21","252336","0.0-11.0-1.0","SS1619739270972","trial","","40","500","8551.03000003146","images/stimuli/spore_stims/simple_04_A_b.gif","images/stimuli/spore_stims/simple_02_A_a.gif","self_paced","","1","simple_dissimilar","images/stimuli/spore_stims/simple_02_A_a.gif","","","","",""
"","null","html-keyboard-response","22","253392","0.0-11.0-0.1","SS1619739270972","","","null","","","","","","<p><img src= images/blank.png width =""600"" height = ""600"" style=""position:fixed;top:50%; left:50%; transform: translate(-50%, -50%); border:5px solid black"">","","","","","","","",""
"","2885.884999996051","sequential-stimulus-presentation-old","23","256782","0.0-11.0-1.1","SS1619739270972","trial","","40","500","3385.884999996051","images/stimuli/spore_stims/simple_04_A_b.gif","images/stimuli/spore_stims/simple_02_A_a.gif","self_paced","","1","simple_dissimilar","images/stimuli/spore_stims/simple_02_A_a.gif","","","","",""
"","null","html-keyboard-response","24","257807","0.0-11.0-0.2","SS1619739270972","","","null","","","","","","<p><img src= images/blank.png width =""600"" height = ""600"" style=""position:fixed;top:50%; left:50%; transform: translate(-50%, -50%); border:5px solid black"">","","","","","","","",""
"","6521.504999953322","sequential-stimulus-presentation-old","25","264832","0.0-11.0-1.2","SS1619739270972","trial","","40","500","7021.504999953322","images/stimuli/spore_stims/simple_04_A_b.gif","images/stimuli/spore_stims/simple_02_A_a.gif","self_paced","","1","simple_dissimilar","images/stimuli/spore_stims/simple_02_A_a.gif","","","","",""
"","null","html-keyboard-response","26","266053","0.0-11.0-0.3","SS1619739270972","","","null","","","","","","<p><img src= images/blank.png width =""600"" height = ""600"" style=""position:fixed;top:50%; left:50%; transform: translate(-50%, -50%); border:5px solid black"">","","","","","","","",""
"","755.7999999844469","sequential-stimulus-presentation-old","27","267312","0.0-11.0-1.3","SS1619739270972","trial","","40","500","1255.799999984447","images/stimuli/spore_stims/simple_04_A_b.gif","images/stimuli/spore_stims/simple_02_A_a.gif","self_paced","","1","simple_dissimilar","images/stimuli/spore_stims/simple_02_A_a.gif","","","","",""
"","null","html-keyboard-response","28","268121","0.0-11.0-0.4","SS1619739270972","","","null","","","","","","<p><img src= images/blank.png width =""600"" height = ""600"" style=""position:fixed;top:50%; left:50%; transform: translate(-50%, -50%); border:5px solid black"">","","","","","","","",""
"","2321.8249999918044","sequential-stimulus-presentation-old","29","270945","0.0-11.0-1.4","SS1619739270972","trial","","40","500","2821.8249999918044","images/stimuli/spore_stims/simple_04_A_b.gif","images/stimuli/spore_stims/simple_02_A_a.gif","self_paced","","1","simple_dissimilar","images/stimuli/spore_stims/simple_02_A_a.gif","","","","",""
"","3337.230000004638","survey-multi-choice","30","274283","0.0-12.0","SS1619739270972","math_question","","","","","","","","","","","","{""Q0"":""5""}","[0]","5","",""
"","null","html-keyboard-response","31","275421","0.0-13.0-0.0","SS1619739270972","","","null","","","","","","<p><img src= images/blank.png width =""600"" height = ""600"" style=""position:fixed;top:50%; left:50%; transform: translate(-50%, -50%); border:5px solid black"">","","","","","","","",""
"","2113.1850000238046","sequential-stimulus-presentation-old","32","278038","0.0-13.0-1.0","SS1619739270972","trial","","40","500","2613.1850000238046","images/stimuli/spore_stims/simple_08_A_b.gif","images/stimuli/spore_stims/simple_20_A_a.gif","forced_short","","2","simple_dissimilar","images/stimuli/spore_stims/simple_20_A_a.gif","","","","",""
"","null","html-keyboard-response","33","278872","0.0-13.0-0.1","SS1619739270972","","","null","","","","","","<p><img src= images/blank.png width =""600"" height = ""600"" style=""position:fixed;top:50%; left:50%; transform: translate(-50%, -50%); border:5px solid black"">","","","","","","","",""
"","5418.849999958184","sequential-stimulus-presentation-old","34","284794","0.0-13.0-1.1","SS1619739270972","trial","","40","500","5918.849999958184","images/stimuli/spore_stims/simple_08_A_b.gif","images/stimuli/spore_stims/simple_20_A_a.gif","forced_short","","2","simple_dissimilar","images/stimuli/spore_stims/simple_08_A_b.gif","","","","",""
"","null","html-keyboard-response","35","285851","0.0-13.0-0.2","SS1619739270972","","","null","","","","","","<p><img src= images/blank.png width =""600"" height = ""600"" style=""position:fixed;top:50%; left:50%; transform: translate(-50%, -50%); border:5px solid black"">","","","","","","","",""
"","8330.294999992475","sequential-stimulus-presentation-old","36","294683","0.0-13.0-1.2","SS1619739270972","trial","","40","500","8830.294999992475","images/stimuli/spore_stims/simple_08_A_b.gif","images/stimuli/spore_stims/simple_20_A_a.gif","forced_short","","2","simple_dissimilar","images/stimuli/spore_stims/simple_20_A_a.gif","","","","",""
"","null","html-keyboard-response","37","295674","0.0-13.0-0.3","SS1619739270972","","","null","","","","","","<p><img src= images/blank.png width =""600"" height = ""600"" style=""position:fixed;top:50%; left:50%; transform: translate(-50%, -50%); border:5px solid black"">","","","","","","","",""
"","4514.144999964628","sequential-stimulus-presentation-old","38","300691","0.0-13.0-1.3","SS1619739270972","trial","","40","500","5014.144999964628","images/stimuli/spore_stims/simple_08_A_b.gif","images/stimuli/spore_stims/simple_20_A_a.gif","forced_short","","2","simple_dissimilar","images/stimuli/spore_stims/simple_20_A_a.gif","","","","",""
"","null","html-keyboard-response","39","301853","0.0-13.0-0.4","SS1619739270972","","","null","","","","","","<p><img src= images/blank.png width =""600"" height = ""600"" style=""position:fixed;top:50%; left:50%; transform: translate(-50%, -50%); border:5px solid black"">","","","","","","","",""
"","536.2650000024587","sequential-stimulus-presentation-old","40","302892","0.0-13.0-1.4","SS1619739270972","trial","","40","500","1036.2650000024587","images/stimuli/spore_stims/simple_08_A_b.gif","images/stimuli/spore_stims/simple_20_A_a.gif","forced_short","","2","simple_dissimilar","images/stimuli/spore_stims/simple_20_A_a.gif","","","","",""
"","null","html-keyboard-response","41","304042","0.0-13.0-0.5","SS1619739270972","","","null","","","","","","<p><img src= images/blank.png width =""600"" height = ""600"" style=""position:fixed;top:50%; left:50%; transform: translate(-50%, -50%); border:5px solid black"">","","","","","","","",""
"","6000.294999976177","sequential-stimulus-presentation-old","42","310545","0.0-13.0-1.5","SS1619739270972","trial","","40","500","6500.294999976177","images/stimuli/spore_stims/simple_08_A_b.gif","images/stimuli/spore_stims/simple_20_A_a.gif","forced_short","","2","simple_dissimilar","images/stimuli/spore_stims/simple_08_A_b.gif","","","","",""
"","3946.8749999650754","survey-multi-choice","43","314493","0.0-14.0","SS1619739270972","math_question","","","","","","","","","","","","{""Q0"":""6""}","[0]","6","",""
"","null","html-keyboard-response","44","315550","0.0-15.0-0.0","SS1619739270972","","","null","","","","","","<p><img src= images/blank.png width =""600"" height = ""600"" style=""position:fixed;top:50%; left:50%; transform: translate(-50%, -50%); border:5px solid black"">","","","","","","","",""
"","5192.555000016","sequential-stimulus-presentation-old","45","321246","0.0-15.0-1.0","SS1619739270972","trial","","40","500","5692.555000016","images/stimuli/spore_stims/simple_17_A_b.gif","images/stimuli/spore_stims/simple_04_A_a.gif","self_paced","","3","simple_dissimilar","images/stimuli/spore_stims/simple_04_A_a.gif","","","","",""
"","null","html-keyboard-response","46","322214","0.0-15.0-0.1","SS1619739270972","","","null","","","","","","<p><img src= images/blank.png width =""600"" height = ""600"" style=""position:fixed;top:50%; left:50%; transform: translate(-50%, -50%); border:5px solid black"">","","","","","","","",""
"","2578.0800000065938","sequential-stimulus-presentation-old","47","325296","0.0-15.0-1.1","SS1619739270972","trial","","40","500","3078.0800000065938","images/stimuli/spore_stims/simple_17_A_b.gif","images/stimuli/spore_stims/simple_04_A_a.gif","self_paced","","3","simple_dissimilar","images/stimuli/spore_stims/simple_17_A_b.gif","","","","",""
"","null","html-keyboard-response","48","326283","0.0-15.0-0.2","SS1619739270972","","","null","","","","","","<p><img src= images/blank.png width =""600"" height = ""600"" style=""position:fixed;top:50%; left:50%; transform: translate(-50%, -50%); border:5px solid black"">","","","","","","","",""
"","2539.229999994859","sequential-stimulus-presentation-old","49","329326","0.0-15.0-1.2","SS1619739270972","trial","","40","500","3039.229999994859","images/stimuli/spore_stims/simple_17_A_b.gif","images/stimuli/spore_stims/simple_04_A_a.gif","self_paced","","3","simple_dissimilar","images/stimuli/spore_stims/simple_04_A_a.gif","","","","",""
"","null","html-keyboard-response","50","330206","0.0-15.0-0.3","SS1619739270972","","","null","","","","","","<p><img src= images/blank.png width =""600"" height = ""600"" style=""position:fixed;top:50%; left:50%; transform: translate(-50%, -50%); border:5px solid black"">","","","","","","","",""
"","7939.0849999617785","sequential-stimulus-presentation-old","51","338649","0.0-15.0-1.3","SS1619739270972","trial","","40","500","8439.084999961779","images/stimuli/spore_stims/simple_17_A_b.gif","images/stimuli/spore_stims/simple_04_A_a.gif","self_paced","","3","simple_dissimilar","images/stimuli/spore_stims/simple_17_A_b.gif","","","","",""
"","null","html-keyboard-response","52","339841","0.0-15.0-0.4","SS1619739270972","","","null","","","","","","<p><img src= images/blank.png width =""600"" height = ""600"" style=""position:fixed;top:50%; left:50%; transform: translate(-50%, -50%); border:5px solid black"">","","","","","","","",""
"","1426.0050000157207","sequential-stimulus-presentation-old","53","341770","0.0-15.0-1.4","SS1619739270972","trial","","40","500","1926.0050000157207","images/stimuli/spore_stims/simple_17_A_b.gif","images/stimuli/spore_stims/simple_04_A_a.gif","self_paced","","3","simple_dissimilar","images/stimuli/spore_stims/simple_04_A_a.gif","","","","",""
"","null","html-keyboard-response","54","342776","0.0-15.0-0.5","SS1619739270972","","","null","","","","","","<p><img src= images/blank.png width =""600"" height = ""600"" style=""position:fixed;top:50%; left:50%; transform: translate(-50%, -50%); border:5px solid black"">","","","","","","","",""
"","3422.7700000046752","sequential-stimulus-presentation-old","55","346702","0.0-15.0-1.5","SS1619739270972","trial","","40","500","3922.7700000046752","images/stimuli/spore_stims/simple_17_A_b.gif","images/stimuli/spore_stims/simple_04_A_a.gif","self_paced","","3","simple_dissimilar","images/stimuli/spore_stims/simple_04_A_a.gif","","","","",""
"","5609.930000035092","survey-multi-choice","56","352313","0.0-16.0","SS1619739270972","math_question","","","","","","","","","","","","{""Q0"":""10""}","[0]","10","",""
"","null","html-keyboard-response","57","353599","0.0-17.0-0.0","SS1619739270972","","","null","","","","","","<p><img src= images/blank.png width =""600"" height = ""600"" style=""position:fixed;top:50%; left:50%; transform: translate(-50%, -50%); border:5px solid black"">","","","","","","","",""
"","3795.9000000264496","sequential-stimulus-presentation-old","58","357899","0.0-17.0-1.0","SS1619739270972","trial","","40","500","4295.90000002645","images/stimuli/spore_stims/simple_09_A_b.gif","images/stimuli/spore_stims/simple_15_A_a.gif","forced_short","","4","simple_dissimilar","images/stimuli/spore_stims/simple_15_A_a.gif","","","","",""
"","null","html-keyboard-response","59","358863","0.0-17.0-0.1","SS1619739270972","","","null","","","","","","<p><img src= images/blank.png width =""600"" height = ""600"" style=""position:fixed;top:50%; left:50%; transform: translate(-50%, -50%); border:5px solid black"">","","","","","","","",""
"","2402.8500000131316","sequential-stimulus-presentation-old","60","361769","0.0-17.0-1.1","SS1619739270972","trial","","40","500","2902.8500000131316","images/stimuli/spore_stims/simple_09_A_b.gif","images/stimuli/spore_stims/simple_15_A_a.gif","forced_short","","4","simple_dissimilar","images/stimuli/spore_stims/simple_15_A_a.gif","","","","",""
"","null","html-keyboard-response","61","362956","0.0-17.0-0.2","SS1619739270972","","","null","","","","","","<p><img src= images/blank.png width =""600"" height = ""600"" style=""position:fixed;top:50%; left:50%; transform: translate(-50%, -50%); border:5px solid black"">","","","","","","","",""
"","5220.865000039339","sequential-stimulus-presentation-old","62","368680","0.0-17.0-1.2","SS1619739270972","trial","","40","500","5720.865000039339","images/stimuli/spore_stims/simple_09_A_b.gif","images/stimuli/spore_stims/simple_15_A_a.gif","forced_short","","4","simple_dissimilar","images/stimuli/spore_stims/simple_15_A_a.gif","","","","",""
"","null","html-keyboard-response","63","369504","0.0-17.0-0.3","SS1619739270972","","","null","","","","","","<p><img src= images/blank.png width =""600"" height = ""600"" style=""position:fixed;top:50%; left:50%; transform: translate(-50%, -50%); border:5px solid black"">","","","","","","","",""
"","6315.76500000665","sequential-stimulus-presentation-old","64","376323","0.0-17.0-1.3","SS1619739270972","trial","","40","500","6815.76500000665","images/stimuli/spore_stims/simple_09_A_b.gif","images/stimuli/spore_stims/simple_15_A_a.gif","forced_short","","4","simple_dissimilar","images/stimuli/spore_stims/simple_15_A_a.gif","","","","",""
"","null","html-keyboard-response","65","377272","0.0-17.0-0.4","SS1619739270972","","","null","","","","","","<p><img src= images/blank.png width =""600"" height = ""600"" style=""position:fixed;top:50%; left:50%; transform: translate(-50%, -50%); border:5px solid black"">","","","","","","","",""
"","2533.114999998361","sequential-stimulus-presentation-old","66","380308","0.0-17.0-1.4","SS1619739270972","trial","","40","500","3033.114999998361","images/stimuli/spore_stims/simple_09_A_b.gif","images/stimuli/spore_stims/simple_15_A_a.gif","forced_short","","4","simple_dissimilar","images/stimuli/spore_stims/simple_15_A_a.gif","","","","",""
"","null","html-keyboard-response","67","381166","0.0-17.0-0.5","SS1619739270972","","","null","","","","","","<p><img src= images/blank.png width =""600"" height = ""600"" style=""position:fixed;top:50%; left:50%; transform: translate(-50%, -50%); border:5px solid black"">","","","","","","","",""
"","4173.100000014529","sequential-stimulus-presentation-old","68","385841","0.0-17.0-1.5","SS1619739270972","trial","","40","500","4673.100000014529","images/stimuli/spore_stims/simple_09_A_b.gif","images/stimuli/spore_stims/simple_15_A_a.gif","forced_short","","4","simple_dissimilar","images/stimuli/spore_stims/simple_15_A_a.gif","","","","",""
"","8458.695000037551","survey-multi-choice","69","394301","0.0-18.0","SS1619739270972","math_question","","","","","","","","","","","","{""Q0"":""16""}","[0]","16","",""
"","null","html-keyboard-response","70","395420","0.0-19.0-0.0","SS1619739270972","","","null","","","","","","<p><img src= images/blank.png width =""600"" height = ""600"" style=""position:fixed;top:50%; left:50%; transform: translate(-50%, -50%); border:5px solid black"">","","","","","","","",""
"","2133.0500000040047","sequential-stimulus-presentation-old","71","412561","0.0-19.0-1.0","SS1619739270972","trial","","40","500","2633.0500000040047","images/stimuli/spore_stims/simple_09_A_a.gif","images/stimuli/spore_stims/simple_12_A_b.gif","forced_long","","5","simple_dissimilar","images/stimuli/spore_stims/simple_12_A_b.gif","","","","",""
"","null","html-keyboard-response","72","413630","0.0-19.0-0.1","SS1619739270972","","","null","","","","","","<p><img src= images/blank.png width =""600"" height = ""600"" style=""position:fixed;top:50%; left:50%; transform: translate(-50%, -50%); border:5px solid black"">","","","","","","","",""
"","212.17499999329448","sequential-stimulus-presentation-old","73","414345","0.0-19.0-1.1","SS1619739270972","trial","","40","500","712.1749999932945","images/stimuli/spore_stims/simple_09_A_a.gif","images/stimuli/spore_stims/simple_12_A_b.gif","forced_long","","5","simple_dissimilar","images/stimuli/spore_stims/simple_12_A_b.gif","","","","",""
"","null","html-keyboard-response","74","415588","0.0-19.0-0.2","SS1619739270972","","","null","","","","","","<p><img src= images/blank.png width =""600"" height = ""600"" style=""position:fixed;top:50%; left:50%; transform: translate(-50%, -50%); border:5px solid black"">","","","","","","","",""
"","1090.4150000424124","sequential-stimulus-presentation-old","75","417182","0.0-19.0-1.2","SS1619739270972","trial","","40","500","1590.4150000424124","images/stimuli/spore_stims/simple_09_A_a.gif","images/stimuli/spore_stims/simple_12_A_b.gif","forced_long","","5","simple_dissimilar","images/stimuli/spore_stims/simple_12_A_b.gif","","","","",""
"","null","html-keyboard-response","76","418026","0.0-19.0-0.3","SS1619739270972","","","null","","","","","","<p><img src= images/blank.png width =""600"" height = ""600"" style=""position:fixed;top:50%; left:50%; transform: translate(-50%, -50%); border:5px solid black"">","","","","","","","",""
"","2216.4650000049733","sequential-stimulus-presentation-old","77","420745","0.0-19.0-1.3","SS1619739270972","trial","","40","500","2716.4650000049733","images/stimuli/spore_stims/simple_09_A_a.gif","images/stimuli/spore_stims/simple_12_A_b.gif","forced_long","","5","simple_dissimilar","images/stimuli/spore_stims/simple_12_A_b.gif","","","","",""
"","null","html-keyboard-response","78","421797","0.0-19.0-0.4","SS1619739270972","","","null","","","","","","<p><img src= images/blank.png width =""600"" height = ""600"" style=""position:fixed;top:50%; left:50%; transform: translate(-50%, -50%); border:5px solid black"">","","","","","","","",""
"","2063.9899999951012","sequential-stimulus-presentation-old","79","424365","0.0-19.0-1.4","SS1619739270972","trial","","40","500","2563.9899999951012","images/stimuli/spore_stims/simple_09_A_a.gif","images/stimuli/spore_stims/simple_12_A_b.gif","forced_long","","5","simple_dissimilar","images/stimuli/spore_stims/simple_12_A_b.gif","","","","",""
"","null","html-keyboard-response","80","425247","0.0-19.0-0.5","SS1619739270972","","","null","","","","","","<p><img src= images/blank.png width =""600"" height = ""600"" style=""position:fixed;top:50%; left:50%; transform: translate(-50%, -50%); border:5px solid black"">","","","","","","","",""
"","1209.8300000070594","sequential-stimulus-presentation-old","81","426960","0.0-19.0-1.5","SS1619739270972","trial","","40","500","1709.8300000070594","images/stimuli/spore_stims/simple_09_A_a.gif","images/stimuli/spore_stims/simple_12_A_b.gif","forced_long","","5","simple_dissimilar","images/stimuli/spore_stims/simple_12_A_b.gif","","","","",""
"","7005.694999999832","survey-multi-choice","82","433967","0.0-20.0","SS1619739270972","math_question","","","","","","","","","","","","{""Q0"":""16""}","[0]","16","",""
"","null","html-keyboard-response","83","435113","0.0-21.0-0.0","SS1619739270972","","","null","","","","","","<p><img src= images/blank.png width =""600"" height = ""600"" style=""position:fixed;top:50%; left:50%; transform: translate(-50%, -50%); border:5px solid black"">","","","","","","","",""
"","2145.8850000053644","sequential-stimulus-presentation-old","84","452266","0.0-21.0-1.0","SS1619739270972","trial","","40","500","2645.8850000053644","images/stimuli/spore_stims/simple_07_A_a.gif","images/stimuli/spore_stims/simple_01_A_b.gif","forced_long","","6","simple_dissimilar","images/stimuli/spore_stims/simple_01_A_b.gif","","","","",""
"","null","html-keyboard-response","85","453207","0.0-21.0-0.1","SS1619739270972","","","null","","","","","","<p><img src= images/blank.png width =""600"" height = ""600"" style=""position:fixed;top:50%; left:50%; transform: translate(-50%, -50%); border:5px solid black"">","","","","","","","",""
"","45.91500002425164","sequential-stimulus-presentation-old","86","453755","0.0-21.0-1.1","SS1619739270972","trial","","40","500","545.9150000242516","images/stimuli/spore_stims/simple_07_A_a.gif","images/stimuli/spore_stims/simple_01_A_b.gif","forced_long","","6","simple_dissimilar","images/stimuli/spore_stims/simple_07_A_a.gif","","","","",""
"","null","html-keyboard-response","87","454915","0.0-21.0-0.2","SS1619739270972","","","null","","","","","","<p><img src= images/blank.png width =""600"" height = ""600"" style=""position:fixed;top:50%; left:50%; transform: translate(-50%, -50%); border:5px solid black"">","","","","","","","",""
"","1040.5599999940023","sequential-stimulus-presentation-old","88","456461","0.0-21.0-1.2","SS1619739270972","trial","","40","500","1540.5599999940023","images/stimuli/spore_stims/simple_07_A_a.gif","images/stimuli/spore_stims/simple_01_A_b.gif","forced_long","","6","simple_dissimilar","images/stimuli/spore_stims/simple_01_A_b.gif","","","","",""
"","null","html-keyboard-response","89","457402","0.0-21.0-0.3","SS1619739270972","","","null","","","","","","<p><img src= images/blank.png width =""600"" height = ""600"" style=""position:fixed;top:50%; left:50%; transform: translate(-50%, -50%); border:5px solid black"">","","","","","","","",""
"","228.60500001115724","sequential-stimulus-presentation-old","90","458135","0.0-21.0-1.3","SS1619739270972","trial","","40","500","728.6050000111572","images/stimuli/spore_stims/simple_07_A_a.gif","images/stimuli/spore_stims/simple_01_A_b.gif","forced_long","","6","simple_dissimilar","images/stimuli/spore_stims/simple_07_A_a.gif","","","","",""
"","2497.114999976475","survey-multi-choice","91","460633","0.0-22.0","SS1619739270972","math_question","","","","","","","","","","","","{""Q0"":""3""}","[0]","3","",""
"","null","html-keyboard-response","92","461890","0.0-23.0-0.0","SS1619739270972","","","null","","","","","","<p><img src= images/blank.png width =""600"" height = ""600"" style=""position:fixed;top:50%; left:50%; transform: translate(-50%, -50%); border:5px solid black"">","","","","","","","",""
"","4758.934999990743","sequential-stimulus-presentation-old","93","481650","0.0-23.0-1.0","SS1619739270972","trial","","40","500","5258.934999990743","images/stimuli/spore_stims/complex_14_A_a.gif","images/stimuli/spore_stims/complex_01_A_b.gif","forced_long","","7","complex_dissimilar","images/stimuli/spore_stims/complex_01_A_b.gif","","","","",""
"","null","html-keyboard-response","94","482706","0.0-23.0-0.1","SS1619739270972","","","null","","","","","","<p><img src= images/blank.png width =""600"" height = ""600"" style=""position:fixed;top:50%; left:50%; transform: translate(-50%, -50%); border:5px solid black"">","","","","","","","",""
"","2296.4149999897927","sequential-stimulus-presentation-old","95","485505","0.0-23.0-1.1","SS1619739270972","trial","","40","500","2796.4149999897927","images/stimuli/spore_stims/complex_14_A_a.gif","images/stimuli/spore_stims/complex_01_A_b.gif","forced_long","","7","complex_dissimilar","images/stimuli/spore_stims/complex_01_A_b.gif","","","","",""
"","null","html-keyboard-response","96","486538","0.0-23.0-0.2","SS1619739270972","","","null","","","","","","<p><img src= images/blank.png width =""600"" height = ""600"" style=""position:fixed;top:50%; left:50%; transform: translate(-50%, -50%); border:5px solid black"">","","","","","","","",""
"","3140.254999976605","sequential-stimulus-presentation-old","97","490181","0.0-23.0-1.2","SS1619739270972","trial","","40","500","3640.254999976605","images/stimuli/spore_stims/complex_14_A_a.gif","images/stimuli/spore_stims/complex_01_A_b.gif","forced_long","","7","complex_dissimilar","images/stimuli/spore_stims/complex_01_A_b.gif","","","","",""
"","null","html-keyboard-response","98","491049","0.0-23.0-0.3","SS1619739270972","","","null","","","","","","<p><img src= images/blank.png width =""600"" height = ""600"" style=""position:fixed;top:50%; left:50%; transform: translate(-50%, -50%); border:5px solid black"">","","","","","","","",""
"","10983.47500001546","sequential-stimulus-presentation-old","99","502536","0.0-23.0-1.3","SS1619739270972","trial","","40","500","11483.47500001546","images/stimuli/spore_stims/complex_14_A_a.gif","images/stimuli/spore_stims/complex_01_A_b.gif","forced_long","","7","complex_dissimilar","images/stimuli/spore_stims/complex_01_A_b.gif","","","","",""
"","null","html-keyboard-response","100","503583","0.0-23.0-0.4","SS1619739270972","","","null","","","","","","<p><img src= images/blank.png width =""600"" height = ""600"" style=""position:fixed;top:50%; left:50%; transform: translate(-50%, -50%); border:5px solid black"">","","","","","","","",""
"","4910.559999989346","sequential-stimulus-presentation-old","101","508997","0.0-23.0-1.4","SS1619739270972","trial","","40","500","5410.559999989346","images/stimuli/spore_stims/complex_14_A_a.gif","images/stimuli/spore_stims/complex_01_A_b.gif","forced_long","","7","complex_dissimilar","images/stimuli/spore_stims/complex_01_A_b.gif","","","","",""
"","null","html-keyboard-response","102","510216","0.0-23.0-0.5","SS1619739270972","","","null","","","","","","<p><img src= images/blank.png width =""600"" height = ""600"" style=""position:fixed;top:50%; left:50%; transform: translate(-50%, -50%); border:5px solid black"">","","","","","","","",""
"","5854.980000003707","sequential-stimulus-presentation-old","103","516575","0.0-23.0-1.5","SS1619739270972","trial","","40","500","6354.980000003707","images/stimuli/spore_stims/complex_14_A_a.gif","images/stimuli/spore_stims/complex_01_A_b.gif","forced_long","","7","complex_dissimilar","images/stimuli/spore_stims/complex_01_A_b.gif","","","","",""
"","38900.40500002215","survey-multi-choice","104","555477","0.0-24.0","SS1619739270972","math_question","","","","","","","","","","","","{""Q0"":""14""}","[0]","14","",""
"","null","html-keyboard-response","105","556519","0.0-25.0-0.0","SS1619739270972","","","null","","","","","","<p><img src= images/blank.png width =""600"" height = ""600"" style=""position:fixed;top:50%; left:50%; transform: translate(-50%, -50%); border:5px solid black"">","","","","","","","",""
"","12740.845000022091","sequential-stimulus-presentation-old","106","569763","0.0-25.0-1.0","SS1619739270972","trial","","40","500","13240.845000022091","images/stimuli/spore_stims/complex_04_A_a.gif","images/stimuli/spore_stims/complex_08_A_b.gif","self_paced","","8","complex_dissimilar","images/stimuli/spore_stims/complex_08_A_b.gif","","","","",""
"","null","html-keyboard-response","107","570920","0.0-25.0-0.1","SS1619739270972","","","null","","","","","","<p><img src= images/blank.png width =""600"" height = ""600"" style=""position:fixed;top:50%; left:50%; transform: translate(-50%, -50%); border:5px solid black"">","","","","","","","",""
"","6800.455000018701","sequential-stimulus-presentation-old","108","578224","0.0-25.0-1.1","SS1619739270972","trial","","40","500","7300.455000018701","images/stimuli/spore_stims/complex_04_A_a.gif","images/stimuli/spore_stims/complex_08_A_b.gif","self_paced","","8","complex_dissimilar","images/stimuli/spore_stims/complex_08_A_b.gif","","","","",""
"","null","html-keyboard-response","109","579270","0.0-25.0-0.2","SS1619739270972","","","null","","","","","","<p><img src= images/blank.png width =""600"" height = ""600"" style=""position:fixed;top:50%; left:50%; transform: translate(-50%, -50%); border:5px solid black"">","","","","","","","",""
"","3342.83499995945","sequential-stimulus-presentation-old","110","583116","0.0-25.0-1.2","SS1619739270972","trial","","40","500","3842.83499995945","images/stimuli/spore_stims/complex_04_A_a.gif","images/stimuli/spore_stims/complex_08_A_b.gif","self_paced","","8","complex_dissimilar","images/stimuli/spore_stims/complex_08_A_b.gif","","","","",""
"","null","html-keyboard-response","111","584329","0.0-25.0-0.3","SS1619739270972","","","null","","","","","","<p><img src= images/blank.png width =""600"" height = ""600"" style=""position:fixed;top:50%; left:50%; transform: translate(-50%, -50%); border:5px solid black"">","","","","","","","",""
"","5247.075000021141","sequential-stimulus-presentation-old","112","590082","0.0-25.0-1.3","SS1619739270972","trial","","40","500","5747.075000021141","images/stimuli/spore_stims/complex_04_A_a.gif","images/stimuli/spore_stims/complex_08_A_b.gif","self_paced","","8","complex_dissimilar","images/stimuli/spore_stims/complex_04_A_a.gif","","","","",""
"","null","html-keyboard-response","113","591136","0.0-25.0-0.4","SS1619739270972","","","null","","","","","","<p><img src= images/blank.png width =""600"" height = ""600"" style=""position:fixed;top:50%; left:50%; transform: translate(-50%, -50%); border:5px solid black"">","","","","","","","",""
"","5434.594999998808","sequential-stimulus-presentation-old","114","597074","0.0-25.0-1.4","SS1619739270972","trial","","40","500","5934.594999998808","images/stimuli/spore_stims/complex_04_A_a.gif","images/stimuli/spore_stims/complex_08_A_b.gif","self_paced","","8","complex_dissimilar","images/stimuli/spore_stims/complex_08_A_b.gif","","","","",""
"","3014.1900000162423","survey-multi-choice","115","600089","0.0-26.0","SS1619739270972","math_question","","","","","","","","","","","","{""Q0"":""9""}","[0]","9","",""
"","null","html-keyboard-response","116","601359","0.0-27.0-0.0","SS1619739270972","","","null","","","","","","<p><img src= images/blank.png width =""600"" height = ""600"" style=""position:fixed;top:50%; left:50%; transform: translate(-50%, -50%); border:5px solid black"">","","","","","","","",""
"","1117.4200000241399","sequential-stimulus-presentation-old","117","617483","0.0-27.0-1.0","SS1619739270972","trial","","40","500","1617.4200000241399","images/stimuli/spore_stims/complex_06_A_b.gif","images/stimuli/spore_stims/complex_02_A_a.gif","forced_long","","9","complex_dissimilar","images/stimuli/spore_stims/complex_02_A_a.gif","","","","",""
"","null","html-keyboard-response","118","618410","0.0-27.0-0.1","SS1619739270972","","","null","","","","","","<p><img src= images/blank.png width =""600"" height = ""600"" style=""position:fixed;top:50%; left:50%; transform: translate(-50%, -50%); border:5px solid black"">","","","","","","","",""
"","5320.175000000745","sequential-stimulus-presentation-old","119","624234","0.0-27.0-1.1","SS1619739270972","trial","","40","500","5820.175000000745","images/stimuli/spore_stims/complex_06_A_b.gif","images/stimuli/spore_stims/complex_02_A_a.gif","forced_long","","9","complex_dissimilar","images/stimuli/spore_stims/complex_02_A_a.gif","","","","",""
"","null","html-keyboard-response","120","625490","0.0-27.0-0.2","SS1619739270972","","","null","","","","","","<p><img src= images/blank.png width =""600"" height = ""600"" style=""position:fixed;top:50%; left:50%; transform: translate(-50%, -50%); border:5px solid black"">","","","","","","","",""
"","4693.194999999832","sequential-stimulus-presentation-old","121","630689","0.0-27.0-1.2","SS1619739270972","trial","","40","500","5193.194999999832","images/stimuli/spore_stims/complex_06_A_b.gif","images/stimuli/spore_stims/complex_02_A_a.gif","forced_long","","9","complex_dissimilar","images/stimuli/spore_stims/complex_02_A_a.gif","","","","",""
"","null","html-keyboard-response","122","631732","0.0-27.0-0.3","SS1619739270972","","","null","","","","","","<p><img src= images/blank.png width =""600"" height = ""600"" style=""position:fixed;top:50%; left:50%; transform: translate(-50%, -50%); border:5px solid black"">","","","","","","","",""
"","163.55999995721504","sequential-stimulus-presentation-old","123","632398","0.0-27.0-1.3","SS1619739270972","trial","","40","500","663.559999957215","images/stimuli/spore_stims/complex_06_A_b.gif","images/stimuli/spore_stims/complex_02_A_a.gif","forced_long","","9","complex_dissimilar","images/stimuli/spore_stims/complex_02_A_a.gif","","","","",""
"","null","html-keyboard-response","124","633521","0.0-27.0-0.4","SS1619739270972","","","null","","","","","","<p><img src= images/blank.png width =""600"" height = ""600"" style=""position:fixed;top:50%; left:50%; transform: translate(-50%, -50%); border:5px solid black"">","","","","","","","",""
"","2503.9600000018254","sequential-stimulus-presentation-old","125","636528","0.0-27.0-1.4","SS1619739270972","trial","","40","500","3003.9600000018254","images/stimuli/spore_stims/complex_06_A_b.gif","images/stimuli/spore_stims/complex_02_A_a.gif","forced_long","","9","complex_dissimilar","images/stimuli/spore_stims/complex_06_A_b.gif","","","","",""
"","4527.135000040289","survey-multi-choice","126","641057","0.0-28.0","SS1619739270972","math_question","","","","","","","","","","","","{""Q0"":""10""}","[0]","10","",""
"","null","html-keyboard-response","127","642143","0.0-29.0-0.0","SS1619739270972","","","null","","","","","","<p><img src= images/blank.png width =""600"" height = ""600"" style=""position:fixed;top:50%; left:50%; transform: translate(-50%, -50%); border:5px solid black"">","","","","","","","",""
"","1710.4749999707565","sequential-stimulus-presentation-old","128","644357","0.0-29.0-1.0","SS1619739270972","trial","","40","500","2210.4749999707565","images/stimuli/spore_stims/complex_12_A_b.gif","images/stimuli/spore_stims/complex_09_A_a.gif","self_paced","","10","complex_dissimilar","images/stimuli/spore_stims/complex_09_A_a.gif","","","","",""
"","null","html-keyboard-response","129","645515","0.0-29.0-0.1","SS1619739270972","","","null","","","","","","<p><img src= images/blank.png width =""600"" height = ""600"" style=""position:fixed;top:50%; left:50%; transform: translate(-50%, -50%); border:5px solid black"">","","","","","","","",""
"","12273.030000040308","sequential-stimulus-presentation-old","130","658291","0.0-29.0-1.1","SS1619739270972","trial","","40","500","12773.030000040308","images/stimuli/spore_stims/complex_12_A_b.gif","images/stimuli/spore_stims/complex_09_A_a.gif","self_paced","","10","complex_dissimilar","images/stimuli/spore_stims/complex_09_A_a.gif","","","","",""
"","null","html-keyboard-response","131","659558","0.0-29.0-0.2","SS1619739270972","","","null","","","","","","<p><img src= images/blank.png width =""600"" height = ""600"" style=""position:fixed;top:50%; left:50%; transform: translate(-50%, -50%); border:5px solid black"">","","","","","","","",""
"","835.3950000018813","sequential-stimulus-presentation-old","132","660897","0.0-29.0-1.2","SS1619739270972","trial","","40","500","1335.3950000018813","images/stimuli/spore_stims/complex_12_A_b.gif","images/stimuli/spore_stims/complex_09_A_a.gif","self_paced","","10","complex_dissimilar","images/stimuli/spore_stims/complex_09_A_a.gif","","","","",""
"","null","html-keyboard-response","133","661923","0.0-29.0-0.3","SS1619739270972","","","null","","","","","","<p><img src= images/blank.png width =""600"" height = ""600"" style=""position:fixed;top:50%; left:50%; transform: translate(-50%, -50%); border:5px solid black"">","","","","","","","",""
"","22915.139999997336","sequential-stimulus-presentation-old","134","685341","0.0-29.0-1.3","SS1619739270972","trial","","40","500","23415.139999997336","images/stimuli/spore_stims/complex_12_A_b.gif","images/stimuli/spore_stims/complex_09_A_a.gif","self_paced","","10","complex_dissimilar","images/stimuli/spore_stims/complex_09_A_a.gif","","","","",""
"","20434.26000000909","survey-multi-choice","135","705777","0.0-30.0","SS1619739270972","math_question","","","","","","","","","","","","{""Q0"":""13""}","[0]","13","",""
"","null","html-keyboard-response","136","706745","0.0-31.0-0.0","SS1619739270972","","","null","","","","","","<p><img src= images/blank.png width =""600"" height = ""600"" style=""position:fixed;top:50%; left:50%; transform: translate(-50%, -50%); border:5px solid black"">","","","","","","","",""
"","2745.93500001356","sequential-stimulus-presentation-old","137","709994","0.0-31.0-1.0","SS1619739270972","trial","","40","500","3245.93500001356","images/stimuli/spore_stims/complex_15_A_b.gif","images/stimuli/spore_stims/complex_01_A_a.gif","forced_short","","11","complex_dissimilar","images/stimuli/spore_stims/complex_01_A_a.gif","","","","",""
"","null","html-keyboard-response","138","711122","0.0-31.0-0.1","SS1619739270972","","","null","","","","","","<p><img src= images/blank.png width =""600"" height = ""600"" style=""position:fixed;top:50%; left:50%; transform: translate(-50%, -50%); border:5px solid black"">","","","","","","","",""
"","1225.6799999740906","sequential-stimulus-presentation-old","139","712851","0.0-31.0-1.1","SS1619739270972","trial","","40","500","1725.6799999740906","images/stimuli/spore_stims/complex_15_A_b.gif","images/stimuli/spore_stims/complex_01_A_a.gif","forced_short","","11","complex_dissimilar","images/stimuli/spore_stims/complex_15_A_b.gif","","","","",""
"","null","html-keyboard-response","140","713796","0.0-31.0-0.2","SS1619739270972","","","null","","","","","","<p><img src= images/blank.png width =""600"" height = ""600"" style=""position:fixed;top:50%; left:50%; transform: translate(-50%, -50%); border:5px solid black"">","","","","","","","",""
"","1158.1349999760278","sequential-stimulus-presentation-old","141","715458","0.0-31.0-1.2","SS1619739270972","trial","","40","500","1658.1349999760278","images/stimuli/spore_stims/complex_15_A_b.gif","images/stimuli/spore_stims/complex_01_A_a.gif","forced_short","","11","complex_dissimilar","images/stimuli/spore_stims/complex_01_A_a.gif","","","","",""
"","null","html-keyboard-response","142","716307","0.0-31.0-0.3","SS1619739270972","","","null","","","","","","<p><img src= images/blank.png width =""600"" height = ""600"" style=""position:fixed;top:50%; left:50%; transform: translate(-50%, -50%); border:5px solid black"">","","","","","","","",""
"","2451.535000000149","sequential-stimulus-presentation-old","143","719262","0.0-31.0-1.3","SS1619739270972","trial","","40","500","2951.535000000149","images/stimuli/spore_stims/complex_15_A_b.gif","images/stimuli/spore_stims/complex_01_A_a.gif","forced_short","","11","complex_dissimilar","images/stimuli/spore_stims/complex_01_A_a.gif","","","","",""
"","null","html-keyboard-response","144","720479","0.0-31.0-0.4","SS1619739270972","","","null","","","","","","<p><img src= images/blank.png width =""600"" height = ""600"" style=""position:fixed;top:50%; left:50%; transform: translate(-50%, -50%); border:5px solid black"">","","","","","","","",""
"","1096.575000032317","sequential-stimulus-presentation-old","145","722079","0.0-31.0-1.4","SS1619739270972","trial","","40","500","1596.575000032317","images/stimuli/spore_stims/complex_15_A_b.gif","images/stimuli/spore_stims/complex_01_A_a.gif","forced_short","","11","complex_dissimilar","images/stimuli/spore_stims/complex_15_A_b.gif","","","","",""
"","null","html-keyboard-response","146","722983","0.0-31.0-0.5","SS1619739270972","","","null","","","","","","<p><img src= images/blank.png width =""600"" height = ""600"" style=""position:fixed;top:50%; left:50%; transform: translate(-50%, -50%); border:5px solid black"">","","","","","","","",""
"","8766.319999995176","sequential-stimulus-presentation-old","147","732252","0.0-31.0-1.5","SS1619739270972","trial","","40","500","9266.319999995176","images/stimuli/spore_stims/complex_15_A_b.gif","images/stimuli/spore_stims/complex_01_A_a.gif","forced_short","","11","complex_dissimilar","images/stimuli/spore_stims/complex_01_A_a.gif","","","","",""
"[{""page_index"":0,""viewing_time"":12626.19999999879}]","12626.664999988861","instructions","148","744881","0.0-32.0","SS1619739270972","instructions","","","","","","","","","","","","","","","",""
"","8241.350000025705","survey-likert","149","753125","0.0-33.0","SS1619739270972","similarity_question","","","","","","","","","","","","{""Q0"":0}","[0]","","images/stimuli/spore_stims/complex_01_A_a.gif","images/stimuli/spore_stims/complex_15_A_b.gif"
"","5513.730000006035","survey-likert","150","758643","0.0-34.0","SS1619739270972","similarity_question","","","","","","","","","","","","{""Q0"":1}","[0]","","images/stimuli/spore_stims/complex_09_A_a.gif","images/stimuli/spore_stims/complex_12_A_b.gif"
"","5017.379999975674","survey-likert","151","763665","0.0-35.0","SS1619739270972","similarity_question","","","","","","","","","","","","{""Q0"":4}","[0]","","images/stimuli/spore_stims/simple_02_A_a.gif","images/stimuli/spore_stims/simple_04_A_b.gif"
"","4288.064999971539","survey-likert","152","767957","0.0-36.0","SS1619739270972","similarity_question","","","","","","","","","","","","{""Q0"":4}","[0]","","images/stimuli/spore_stims/simple_20_A_a.gif","images/stimuli/spore_stims/simple_08_A_b.gif"
"","4247.580000024755","survey-likert","153","772209","0.0-37.0","SS1619739270972","similarity_question","","","","","","","","","","","","{""Q0"":2}","[0]","","images/stimuli/spore_stims/complex_19_A_b.gif","images/stimuli/spore_stims/complex_13_A_a.gif"
"","8793.95999998087","survey-likert","154","781007","0.0-38.0","SS1619739270972","similarity_question","","","","","","","","","","","","{""Q0"":3}","[0]","","images/stimuli/spore_stims/complex_01_A_b.gif","images/stimuli/spore_stims/complex_14_A_a.gif"
"","12193.490000034217","survey-likert","155","793204","0.0-39.0","SS1619739270972","similarity_question","","","","","","","","","","","","{""Q0"":2}","[0]","","images/stimuli/spore_stims/complex_08_A_b.gif","images/stimuli/spore_stims/complex_04_A_a.gif"
"","7221.865000028629","survey-likert","156","800430","0.0-40.0","SS1619739270972","similarity_question","","","","","","","","","","","","{""Q0"":6}","[0]","","images/stimuli/spore_stims/simple_12_A_b.gif","images/stimuli/spore_stims/simple_09_A_a.gif"
"","3511.6399999824353","survey-likert","157","803946","0.0-41.0","SS1619739270972","similarity_question","","","","","","","","","","","","{""Q0"":4}","[0]","","images/stimuli/spore_stims/simple_01_A_b.gif","images/stimuli/spore_stims/simple_07_A_a.gif"
"","4277.850000013132","survey-likert","158","808229","0.0-42.0","SS1619739270972","similarity_question","","","","","","","","","","","","{""Q0"":5}","[0]","","images/stimuli/spore_stims/simple_04_A_a.gif","images/stimuli/spore_stims/simple_17_A_b.gif"
"","62003.32499999786","survey-likert","159","870237","0.0-43.0","SS1619739270972","similarity_question","","","","","","","","","","","","{""Q0"":4}","[0]","","images/stimuli/spore_stims/complex_06_A_b.gif","images/stimuli/spore_stims/complex_02_A_a.gif"
"","2633.700000005774","survey-likert","160","872875","0.0-44.0","SS1619739270972","similarity_question","","","","","","","","","","","","{""Q0"":5}","[0]","","images/stimuli/spore_stims/simple_09_A_b.gif","images/stimuli/spore_stims/simple_15_A_a.gif"
"[{""page_index"":0,""viewing_time"":4201.630000025034}]","4202.060000039637","instructions","161","877081","0.0-45.0","SS1619739270972","instructions","","","","","","","","","","","","","","","",""
"","5975.4200000315905","survey-likert","162","883059","0.0-46.0","SS1619739270972","","","","","","","","","images/stimuli/spore_stims/complex_01_A_a.gif","","","","{""Q0"":4}","[0]","","",""
"","2357.804999977816","survey-likert","163","885421","0.0-47.0","SS1619739270972","","","","","","","","","images/stimuli/spore_stims/simple_04_A_a.gif","","","","{""Q0"":1}","[0]","","",""
"","2859.99999998603","survey-likert","164","888285","0.0-48.0","SS1619739270972","","","","","","","","","images/stimuli/spore_stims/complex_08_A_b.gif","","","","{""Q0"":5}","[0]","","",""
"","2695.4549999791197","survey-likert","165","890985","0.0-49.0","SS1619739270972","","","","","","","","","images/stimuli/spore_stims/simple_08_A_b.gif","","","","{""Q0"":0}","[0]","","",""
"","5379.8749999841675","survey-likert","166","896369","0.0-50.0","SS1619739270972","","","","","","","","","images/stimuli/spore_stims/complex_09_A_a.gif","","","","{""Q0"":5}","[0]","","",""
"","2477.450000005774","survey-likert","167","898851","0.0-51.0","SS1619739270972","","","","","","","","","images/stimuli/spore_stims/simple_15_A_a.gif","","","","{""Q0"":1}","[0]","","",""
"","3361.8700000224635","survey-likert","168","902217","0.0-52.0","SS1619739270972","","","","","","","","","images/stimuli/spore_stims/complex_13_A_a.gif","","","","{""Q0"":6}","[0]","","",""
"","3227.4800000013784","survey-likert","169","905449","0.0-53.0","SS1619739270972","","","","","","","","","images/stimuli/spore_stims/complex_14_A_a.gif","","","","{""Q0"":5}","[0]","","",""
"","2435.620000003837","survey-likert","170","907889","0.0-54.0","SS1619739270972","","","","","","","","","images/stimuli/spore_stims/simple_12_A_b.gif","","","","{""Q0"":1}","[0]","","",""
"","3521.8300000415184","survey-likert","171","911415","0.0-55.0","SS1619739270972","","","","","","","","","images/stimuli/spore_stims/simple_07_A_a.gif","","","","{""Q0"":0}","[0]","","",""
"","2751.5150000108406","survey-likert","172","914171","0.0-56.0","SS1619739270972","","","","","","","","","images/stimuli/spore_stims/complex_06_A_b.gif","","","","{""Q0"":6}","[0]","","",""
"","2079.8049999866635","survey-likert","173","916255","0.0-57.0","SS1619739270972","","","","","","","","","images/stimuli/spore_stims/simple_02_A_a.gif","","","","{""Q0"":1}","[0]","","",""
"[{""page_index"":0,""viewing_time"":1703.540000016801}]","1703.7499999860302","instructions","174","917963","0.0-58.0","SS1619739270972","instructions","","","","","","","","","","","","","","","",""
"","2762.6600000075996","demog-age","175","920729","0.0-59.0","SS1619739270972","","","","","","","","","","","","","{""age"":""20""}","","","",""
"","9472.375000012107","demog-ethnic-US","176","930205","0.0-60.0","SS1619739270972","","","","","","","","","","","","","{""ethnicity"":[""Black or African American""]}","[0]","","",""
"","8677.510000008624","demog-gender-and-education","177","938887","0.0-61.0","SS1619739270972","","","","","","","","","","","","","{""gender"":""Male"",""education"":""Associate Degree/Technical certification""}","[0,1]","","",""
"","9170.50000000745","survey-text","178","948063","0.0-62.0","SS1619739270972","feedback","","","","","","","","","","","","{""Q0"":""nothing""}","","","",""
"[{""page_index"":0,""viewing_time"":1259.7150000510737}]","1260.1500000455417","instructions","179","949324","0.0-63.0","SS1619739270972","instructions","","","","","","","","","","","","","","","",""
