"view_history","rt","trial_type","trial_index","time_elapsed","internal_node_id","subject","stimulus_type","trial_stimulus","key_press","minimum_viewing_duration","trial_looking_time","block_deviant","block_background","exposure_type","stimulus","block_number","block_type","stimulus_displayed","responses","question_order","math_correct_answer","stimulus_left","stimulus_right"
"[{""page_index"":0,""viewing_time"":25521.684999999707}]","25522.225000000617","instructions","0","25524","0.0-0.0","SS1619739752298","","","","","","","","","","","","","","","","",""
"[{""page_index"":0,""viewing_time"":14858.989999993355},{""page_index"":1,""viewing_time"":4971.620000003895}]","19830.84499999677","instructions","1","47359","0.0-1.0","SS1619739752298","instructions","","","","","","","","","","","","","","","",""
"","4354.874999997264","sequential-stimulus-presentation-old","2","52225","0.0-2.0","SS1619739752298","","","40","500","4854.874999997264","null","null","self_paced","","","","","","","","",""
"","6741.49000000034","sequential-stimulus-presentation-old","3","59469","0.0-3.0","SS1619739752298","","","40","500","7241.49000000034","null","null","self_paced","","","","","","","","",""
"[{""page_index"":0,""viewing_time"":15587.749999998778}]","15587.964999998803","instructions","4","75057","0.0-4.0","SS1619739752298","instructions","","","","","","","","","","","","","","","",""
"","2792.4000000057276","sequential-stimulus-presentation-old","5","92852","0.0-5.0","SS1619739752298","","","40","500","3292.4000000057276","null","null","forced_long","","","","","","","","",""
"","3865.8100000029663","sequential-stimulus-presentation-old","6","97221","0.0-6.0","SS1619739752298","","","40","500","4365.810000002966","null","null","forced_long","","","","","","","","",""
"[{""page_index"":0,""viewing_time"":4494.919999997364}]","4495.129999995697","instructions","7","101716","0.0-7.0","SS1619739752298","instructions","","","","","","","","","","","","","","","",""
"[{""page_index"":0,""viewing_time"":10094.67500000028},{""page_index"":1,""viewing_time"":8157.865000001038},{""page_index"":2,""viewing_time"":5503.159999992931},{""page_index"":3,""viewing_time"":1700.0000000043656},{""page_index"":4,""viewing_time"":1049.2499999963911}]","26505.18999999622","instructions","8","128222","0.0-8.0","SS1619739752298","instructions","","","","","","","","","","","","","","","",""
"","null","html-keyboard-response","9","129523","0.0-9.0-0.0","SS1619739752298","","","null","","","","","","<p><img src= images/blank.png width =""600"" height = ""600"" style=""position:fixed;top:50%; left:50%; transform: translate(-50%, -50%); border:5px solid black"">","","","","","","","",""
"","8242.464999995718","sequential-stimulus-presentation-old","10","138269","0.0-9.0-1.0","SS1619739752298","trial","","40","500","8742.464999995718","images/stimuli/spore_stims/simple_04_A_b.gif","images/stimuli/spore_stims/simple_20_A_a.gif","self_paced","","0","simple_dissimilar","images/stimuli/spore_stims/simple_20_A_a.gif","","","","",""
"","null","html-keyboard-response","11","139460","0.0-9.0-0.1","SS1619739752298","","","null","","","","","","<p><img src= images/blank.png width =""600"" height = ""600"" style=""position:fixed;top:50%; left:50%; transform: translate(-50%, -50%); border:5px solid black"">","","","","","","","",""
"","7580.255000000761","sequential-stimulus-presentation-old","12","147556","0.0-9.0-1.1","SS1619739752298","trial","","40","500","8080.255000000761","images/stimuli/spore_stims/simple_04_A_b.gif","images/stimuli/spore_stims/simple_20_A_a.gif","self_paced","","0","simple_dissimilar","images/stimuli/spore_stims/simple_20_A_a.gif","","","","",""
"","null","html-keyboard-response","13","148568","0.0-9.0-0.2","SS1619739752298","","","null","","","","","","<p><img src= images/blank.png width =""600"" height = ""600"" style=""position:fixed;top:50%; left:50%; transform: translate(-50%, -50%); border:5px solid black"">","","","","","","","",""
"","4408.05000000546","sequential-stimulus-presentation-old","14","153480","0.0-9.0-1.2","SS1619739752298","trial","","40","500","4908.05000000546","images/stimuli/spore_stims/simple_04_A_b.gif","images/stimuli/spore_stims/simple_20_A_a.gif","self_paced","","0","simple_dissimilar","images/stimuli/spore_stims/simple_04_A_b.gif","","","","",""
"","null","html-keyboard-response","15","154579","0.0-9.0-0.3","SS1619739752298","","","null","","","","","","<p><img src= images/blank.png width =""600"" height = ""600"" style=""position:fixed;top:50%; left:50%; transform: translate(-50%, -50%); border:5px solid black"">","","","","","","","",""
"","2809.065000001283","sequential-stimulus-presentation-old","16","157891","0.0-9.0-1.3","SS1619739752298","trial","","40","500","3309.065000001283","images/stimuli/spore_stims/simple_04_A_b.gif","images/stimuli/spore_stims/simple_20_A_a.gif","self_paced","","0","simple_dissimilar","images/stimuli/spore_stims/simple_04_A_b.gif","","","","",""
"","null","html-keyboard-response","17","158705","0.0-9.0-0.4","SS1619739752298","","","null","","","","","","<p><img src= images/blank.png width =""600"" height = ""600"" style=""position:fixed;top:50%; left:50%; transform: translate(-50%, -50%); border:5px solid black"">","","","","","","","",""
"","12906.535000001895","sequential-stimulus-presentation-old","18","172116","0.0-9.0-1.4","SS1619739752298","trial","","40","500","13406.535000001895","images/stimuli/spore_stims/simple_04_A_b.gif","images/stimuli/spore_stims/simple_20_A_a.gif","self_paced","","0","simple_dissimilar","images/stimuli/spore_stims/simple_20_A_a.gif","","","","",""
"","3043.8649999996414","survey-multi-choice","19","175163","0.0-10.0","SS1619739752298","math_question","","","","","","","","","","","","{""Q0"":""8""}","[0]","8","",""
"","null","html-keyboard-response","20","176238","0.0-11.0-0.0","SS1619739752298","","","null","","","","","","<p><img src= images/blank.png width =""600"" height = ""600"" style=""position:fixed;top:50%; left:50%; transform: translate(-50%, -50%); border:5px solid black"">","","","","","","","",""
"","7808.579999997164","sequential-stimulus-presentation-old","21","199052","0.0-11.0-1.0","SS1619739752298","trial","","40","500","8308.579999997164","images/stimuli/spore_stims/simple_14_A_a.gif","images/stimuli/spore_stims/simple_13_A_b.gif","forced_long","","1","simple_dissimilar","images/stimuli/spore_stims/simple_13_A_b.gif","","","","",""
"","null","html-keyboard-response","22","200082","0.0-11.0-0.1","SS1619739752298","","","null","","","","","","<p><img src= images/blank.png width =""600"" height = ""600"" style=""position:fixed;top:50%; left:50%; transform: translate(-50%, -50%); border:5px solid black"">","","","","","","","",""
"","2839.764999996987","sequential-stimulus-presentation-old","23","203425","0.0-11.0-1.1","SS1619739752298","trial","","40","500","3339.764999996987","images/stimuli/spore_stims/simple_14_A_a.gif","images/stimuli/spore_stims/simple_13_A_b.gif","forced_long","","1","simple_dissimilar","images/stimuli/spore_stims/simple_13_A_b.gif","","","","",""
"","null","html-keyboard-response","24","204562","0.0-11.0-0.2","SS1619739752298","","","null","","","","","","<p><img src= images/blank.png width =""600"" height = ""600"" style=""position:fixed;top:50%; left:50%; transform: translate(-50%, -50%); border:5px solid black"">","","","","","","","",""
"","1400.435000003199","sequential-stimulus-presentation-old","25","206479","0.0-11.0-1.2","SS1619739752298","trial","","40","500","1900.435000003199","images/stimuli/spore_stims/simple_14_A_a.gif","images/stimuli/spore_stims/simple_13_A_b.gif","forced_long","","1","simple_dissimilar","images/stimuli/spore_stims/simple_13_A_b.gif","","","","",""
"","null","html-keyboard-response","26","207391","0.0-11.0-0.3","SS1619739752298","","","null","","","","","","<p><img src= images/blank.png width =""600"" height = ""600"" style=""position:fixed;top:50%; left:50%; transform: translate(-50%, -50%); border:5px solid black"">","","","","","","","",""
"","14151.72999999777","sequential-stimulus-presentation-old","27","222048","0.0-11.0-1.3","SS1619739752298","trial","","40","500","14651.72999999777","images/stimuli/spore_stims/simple_14_A_a.gif","images/stimuli/spore_stims/simple_13_A_b.gif","forced_long","","1","simple_dissimilar","images/stimuli/spore_stims/simple_13_A_b.gif","","","","",""
"","null","html-keyboard-response","28","222974","0.0-11.0-0.4","SS1619739752298","","","null","","","","","","<p><img src= images/blank.png width =""600"" height = ""600"" style=""position:fixed;top:50%; left:50%; transform: translate(-50%, -50%); border:5px solid black"">","","","","","","","",""
"","3411.0149999978603","sequential-stimulus-presentation-old","29","226888","0.0-11.0-1.4","SS1619739752298","trial","","40","500","3911.0149999978603","images/stimuli/spore_stims/simple_14_A_a.gif","images/stimuli/spore_stims/simple_13_A_b.gif","forced_long","","1","simple_dissimilar","images/stimuli/spore_stims/simple_14_A_a.gif","","","","",""
"","null","html-keyboard-response","30","227864","0.0-11.0-0.5","SS1619739752298","","","null","","","","","","<p><img src= images/blank.png width =""600"" height = ""600"" style=""position:fixed;top:50%; left:50%; transform: translate(-50%, -50%); border:5px solid black"">","","","","","","","",""
"","6248.865000001388","sequential-stimulus-presentation-old","31","234616","0.0-11.0-1.5","SS1619739752298","trial","","40","500","6748.865000001388","images/stimuli/spore_stims/simple_14_A_a.gif","images/stimuli/spore_stims/simple_13_A_b.gif","forced_long","","1","simple_dissimilar","images/stimuli/spore_stims/simple_14_A_a.gif","","","","",""
"","4832.139999998617","survey-multi-choice","32","239450","0.0-12.0","SS1619739752298","math_question","","","","","","","","","","","","{""Q0"":""17""}","[0]","17","",""
"","null","html-keyboard-response","33","240586","0.0-13.0-0.0","SS1619739752298","","","null","","","","","","<p><img src= images/blank.png width =""600"" height = ""600"" style=""position:fixed;top:50%; left:50%; transform: translate(-50%, -50%); border:5px solid black"">","","","","","","","",""
"","2673.960000000079","sequential-stimulus-presentation-old","34","243764","0.0-13.0-1.0","SS1619739752298","trial","","40","500","3173.960000000079","images/stimuli/spore_stims/complex_13_A_b.gif","images/stimuli/spore_stims/complex_03_A_a.gif","forced_short","","2","complex_dissimilar","images/stimuli/spore_stims/complex_03_A_a.gif","","","","",""
"","null","html-keyboard-response","35","244687","0.0-13.0-0.1","SS1619739752298","","","null","","","","","","<p><img src= images/blank.png width =""600"" height = ""600"" style=""position:fixed;top:50%; left:50%; transform: translate(-50%, -50%); border:5px solid black"">","","","","","","","",""
"","4609.1749999977765","sequential-stimulus-presentation-old","36","249800","0.0-13.0-1.1","SS1619739752298","trial","","40","500","5109.1749999977765","images/stimuli/spore_stims/complex_13_A_b.gif","images/stimuli/spore_stims/complex_03_A_a.gif","forced_short","","2","complex_dissimilar","images/stimuli/spore_stims/complex_03_A_a.gif","","","","",""
"","null","html-keyboard-response","37","251002","0.0-13.0-0.2","SS1619739752298","","","null","","","","","","<p><img src= images/blank.png width =""600"" height = ""600"" style=""position:fixed;top:50%; left:50%; transform: translate(-50%, -50%); border:5px solid black"">","","","","","","","",""
"","4652.349999996659","sequential-stimulus-presentation-old","38","256157","0.0-13.0-1.2","SS1619739752298","trial","","40","500","5152.349999996659","images/stimuli/spore_stims/complex_13_A_b.gif","images/stimuli/spore_stims/complex_03_A_a.gif","forced_short","","2","complex_dissimilar","images/stimuli/spore_stims/complex_03_A_a.gif","","","","",""
"","null","html-keyboard-response","39","256998","0.0-13.0-0.3","SS1619739752298","","","null","","","","","","<p><img src= images/blank.png width =""600"" height = ""600"" style=""position:fixed;top:50%; left:50%; transform: translate(-50%, -50%); border:5px solid black"">","","","","","","","",""
"","41674.67999999644","sequential-stimulus-presentation-old","40","299190","0.0-13.0-1.3","SS1619739752298","trial","","40","500","42174.67999999644","images/stimuli/spore_stims/complex_13_A_b.gif","images/stimuli/spore_stims/complex_03_A_a.gif","forced_short","","2","complex_dissimilar","images/stimuli/spore_stims/complex_13_A_b.gif","","","","",""
"","null","html-keyboard-response","41","300063","0.0-13.0-0.4","SS1619739752298","","","null","","","","","","<p><img src= images/blank.png width =""600"" height = ""600"" style=""position:fixed;top:50%; left:50%; transform: translate(-50%, -50%); border:5px solid black"">","","","","","","","",""
"","64675.81999999675","sequential-stimulus-presentation-old","42","365242","0.0-13.0-1.4","SS1619739752298","trial","","40","500","65175.81999999675","images/stimuli/spore_stims/complex_13_A_b.gif","images/stimuli/spore_stims/complex_03_A_a.gif","forced_short","","2","complex_dissimilar","images/stimuli/spore_stims/complex_13_A_b.gif","","","","",""
"","2830.7199999981094","survey-multi-choice","43","368074","0.0-14.0","SS1619739752298","math_question","","","","","","","","","","","","{""Q0"":""10""}","[0]","10","",""
"","null","html-keyboard-response","44","369142","0.0-15.0-0.0","SS1619739752298","","","null","","","","","","<p><img src= images/blank.png width =""600"" height = ""600"" style=""position:fixed;top:50%; left:50%; transform: translate(-50%, -50%); border:5px solid black"">","","","","","","","",""
"","969.0600000030827","sequential-stimulus-presentation-old","45","370616","0.0-15.0-1.0","SS1619739752298","trial","","40","500","1469.0600000030827","images/stimuli/spore_stims/simple_04_A_a.gif","images/stimuli/spore_stims/simple_19_A_b.gif","forced_short","","3","simple_dissimilar","images/stimuli/spore_stims/simple_19_A_b.gif","","","","",""
"","null","html-keyboard-response","46","371626","0.0-15.0-0.1","SS1619739752298","","","null","","","","","","<p><img src= images/blank.png width =""600"" height = ""600"" style=""position:fixed;top:50%; left:50%; transform: translate(-50%, -50%); border:5px solid black"">","","","","","","","",""
"","6330.399999998917","sequential-stimulus-presentation-old","47","378460","0.0-15.0-1.1","SS1619739752298","trial","","40","500","6830.399999998917","images/stimuli/spore_stims/simple_04_A_a.gif","images/stimuli/spore_stims/simple_19_A_b.gif","forced_short","","3","simple_dissimilar","images/stimuli/spore_stims/simple_19_A_b.gif","","","","",""
"","null","html-keyboard-response","48","379648","0.0-15.0-0.2","SS1619739752298","","","null","","","","","","<p><img src= images/blank.png width =""600"" height = ""600"" style=""position:fixed;top:50%; left:50%; transform: translate(-50%, -50%); border:5px solid black"">","","","","","","","",""
"","3039.904999997816","sequential-stimulus-presentation-old","49","383197","0.0-15.0-1.2","SS1619739752298","trial","","40","500","3539.904999997816","images/stimuli/spore_stims/simple_04_A_a.gif","images/stimuli/spore_stims/simple_19_A_b.gif","forced_short","","3","simple_dissimilar","images/stimuli/spore_stims/simple_19_A_b.gif","","","","",""
"","null","html-keyboard-response","50","384315","0.0-15.0-0.3","SS1619739752298","","","null","","","","","","<p><img src= images/blank.png width =""600"" height = ""600"" style=""position:fixed;top:50%; left:50%; transform: translate(-50%, -50%); border:5px solid black"">","","","","","","","",""
"","2690.9750000049826","sequential-stimulus-presentation-old","51","387520","0.0-15.0-1.3","SS1619739752298","trial","","40","500","3190.9750000049826","images/stimuli/spore_stims/simple_04_A_a.gif","images/stimuli/spore_stims/simple_19_A_b.gif","forced_short","","3","simple_dissimilar","images/stimuli/spore_stims/simple_19_A_b.gif","","","","",""
"","null","html-keyboard-response","52","388712","0.0-15.0-0.4","SS1619739752298","","","null","","","","","","<p><img src= images/blank.png width =""600"" height = ""600"" style=""position:fixed;top:50%; left:50%; transform: translate(-50%, -50%); border:5px solid black"">","","","","","","","",""
"","3582.719999998517","sequential-stimulus-presentation-old","53","392797","0.0-15.0-1.4","SS1619739752298","trial","","40","500","4082.719999998517","images/stimuli/spore_stims/simple_04_A_a.gif","images/stimuli/spore_stims/simple_19_A_b.gif","forced_short","","3","simple_dissimilar","images/stimuli/spore_stims/simple_19_A_b.gif","","","","",""
"","null","html-keyboard-response","54","394038","0.0-15.0-0.5","SS1619739752298","","","null","","","","","","<p><img src= images/blank.png width =""600"" height = ""600"" style=""position:fixed;top:50%; left:50%; transform: translate(-50%, -50%); border:5px solid black"">","","","","","","","",""
"","4003.4449999948265","sequential-stimulus-presentation-old","55","398544","0.0-15.0-1.5","SS1619739752298","trial","","40","500","4503.4449999948265","images/stimuli/spore_stims/simple_04_A_a.gif","images/stimuli/spore_stims/simple_19_A_b.gif","forced_short","","3","simple_dissimilar","images/stimuli/spore_stims/simple_04_A_a.gif","","","","",""
"","3051.0700000013458","survey-multi-choice","56","401597","0.0-16.0","SS1619739752298","math_question","","","","","","","","","","","","{""Q0"":""10""}","[0]","10","",""
"","null","html-keyboard-response","57","402504","0.0-17.0-0.0","SS1619739752298","","","null","","","","","","<p><img src= images/blank.png width =""600"" height = ""600"" style=""position:fixed;top:50%; left:50%; transform: translate(-50%, -50%); border:5px solid black"">","","","","","","","",""
"","1272.4700000035227","sequential-stimulus-presentation-old","58","404280","0.0-17.0-1.0","SS1619739752298","trial","","40","500","1772.4700000035227","images/stimuli/spore_stims/simple_02_A_b.gif","images/stimuli/spore_stims/simple_17_A_a.gif","forced_short","","4","simple_dissimilar","images/stimuli/spore_stims/simple_17_A_a.gif","","","","",""
"","null","html-keyboard-response","59","405287","0.0-17.0-0.1","SS1619739752298","","","null","","","","","","<p><img src= images/blank.png width =""600"" height = ""600"" style=""position:fixed;top:50%; left:50%; transform: translate(-50%, -50%); border:5px solid black"">","","","","","","","",""
"","2718.175000001793","sequential-stimulus-presentation-old","60","408508","0.0-17.0-1.1","SS1619739752298","trial","","40","500","3218.175000001793","images/stimuli/spore_stims/simple_02_A_b.gif","images/stimuli/spore_stims/simple_17_A_a.gif","forced_short","","4","simple_dissimilar","images/stimuli/spore_stims/simple_17_A_a.gif","","","","",""
"","null","html-keyboard-response","61","409386","0.0-17.0-0.2","SS1619739752298","","","null","","","","","","<p><img src= images/blank.png width =""600"" height = ""600"" style=""position:fixed;top:50%; left:50%; transform: translate(-50%, -50%); border:5px solid black"">","","","","","","","",""
"","2260.345000002417","sequential-stimulus-presentation-old","62","412149","0.0-17.0-1.2","SS1619739752298","trial","","40","500","2760.345000002417","images/stimuli/spore_stims/simple_02_A_b.gif","images/stimuli/spore_stims/simple_17_A_a.gif","forced_short","","4","simple_dissimilar","images/stimuli/spore_stims/simple_17_A_a.gif","","","","",""
"","null","html-keyboard-response","63","413421","0.0-17.0-0.3","SS1619739752298","","","null","","","","","","<p><img src= images/blank.png width =""600"" height = ""600"" style=""position:fixed;top:50%; left:50%; transform: translate(-50%, -50%); border:5px solid black"">","","","","","","","",""
"","901.640000003681","sequential-stimulus-presentation-old","64","414827","0.0-17.0-1.3","SS1619739752298","trial","","40","500","1401.640000003681","images/stimuli/spore_stims/simple_02_A_b.gif","images/stimuli/spore_stims/simple_17_A_a.gif","forced_short","","4","simple_dissimilar","images/stimuli/spore_stims/simple_02_A_b.gif","","","","",""
"","null","html-keyboard-response","65","416090","0.0-17.0-0.4","SS1619739752298","","","null","","","","","","<p><img src= images/blank.png width =""600"" height = ""600"" style=""position:fixed;top:50%; left:50%; transform: translate(-50%, -50%); border:5px solid black"">","","","","","","","",""
"","5446.475000004284","sequential-stimulus-presentation-old","66","422040","0.0-17.0-1.4","SS1619739752298","trial","","40","500","5946.475000004284","images/stimuli/spore_stims/simple_02_A_b.gif","images/stimuli/spore_stims/simple_17_A_a.gif","forced_short","","4","simple_dissimilar","images/stimuli/spore_stims/simple_02_A_b.gif","","","","",""
"","4620.295000000624","survey-multi-choice","67","426661","0.0-18.0","SS1619739752298","math_question","","","","","","","","","","","","{""Q0"":""16""}","[0]","16","",""
"","null","html-keyboard-response","68","427901","0.0-19.0-0.0","SS1619739752298","","","null","","","","","","<p><img src= images/blank.png width =""600"" height = ""600"" style=""position:fixed;top:50%; left:50%; transform: translate(-50%, -50%); border:5px solid black"">","","","","","","","",""
"","39462.39499999501","sequential-stimulus-presentation-old","69","482367","0.0-19.0-1.0","SS1619739752298","trial","","40","500","39962.39499999501","images/stimuli/spore_stims/simple_03_A_b.gif","images/stimuli/spore_stims/simple_05_A_a.gif","forced_long","","5","simple_dissimilar","images/stimuli/spore_stims/simple_05_A_a.gif","","","","",""
"","null","html-keyboard-response","70","483554","0.0-19.0-0.1","SS1619739752298","","","null","","","","","","<p><img src= images/blank.png width =""600"" height = ""600"" style=""position:fixed;top:50%; left:50%; transform: translate(-50%, -50%); border:5px solid black"">","","","","","","","",""
"","2237.81500000041","sequential-stimulus-presentation-old","71","486296","0.0-19.0-1.1","SS1619739752298","trial","","40","500","2737.81500000041","images/stimuli/spore_stims/simple_03_A_b.gif","images/stimuli/spore_stims/simple_05_A_a.gif","forced_long","","5","simple_dissimilar","images/stimuli/spore_stims/simple_05_A_a.gif","","","","",""
"","null","html-keyboard-response","72","487364","0.0-19.0-0.2","SS1619739752298","","","null","","","","","","<p><img src= images/blank.png width =""600"" height = ""600"" style=""position:fixed;top:50%; left:50%; transform: translate(-50%, -50%); border:5px solid black"">","","","","","","","",""
"","1393.980000000738","sequential-stimulus-presentation-old","73","489269","0.0-19.0-1.2","SS1619739752298","trial","","40","500","1893.980000000738","images/stimuli/spore_stims/simple_03_A_b.gif","images/stimuli/spore_stims/simple_05_A_a.gif","forced_long","","5","simple_dissimilar","images/stimuli/spore_stims/simple_05_A_a.gif","","","","",""
"","null","html-keyboard-response","74","490282","0.0-19.0-0.3","SS1619739752298","","","null","","","","","","<p><img src= images/blank.png width =""600"" height = ""600"" style=""position:fixed;top:50%; left:50%; transform: translate(-50%, -50%); border:5px solid black"">","","","","","","","",""
"","4806.555000002845","sequential-stimulus-presentation-old","75","495592","0.0-19.0-1.3","SS1619739752298","trial","","40","500","5306.555000002845","images/stimuli/spore_stims/simple_03_A_b.gif","images/stimuli/spore_stims/simple_05_A_a.gif","forced_long","","5","simple_dissimilar","images/stimuli/spore_stims/simple_05_A_a.gif","","","","",""
"","null","html-keyboard-response","76","496419","0.0-19.0-0.4","SS1619739752298","","","null","","","","","","<p><img src= images/blank.png width =""600"" height = ""600"" style=""position:fixed;top:50%; left:50%; transform: translate(-50%, -50%); border:5px solid black"">","","","","","","","",""
"","5403.104999997595","sequential-stimulus-presentation-old","77","502324","0.0-19.0-1.4","SS1619739752298","trial","","40","500","5903.104999997595","images/stimuli/spore_stims/simple_03_A_b.gif","images/stimuli/spore_stims/simple_05_A_a.gif","forced_long","","5","simple_dissimilar","images/stimuli/spore_stims/simple_05_A_a.gif","","","","",""
"","3503.66000000207","survey-multi-choice","78","505829","0.0-20.0","SS1619739752298","math_question","","","","","","","","","","","","{""Q0"":""15""}","[0]","15","",""
"","null","html-keyboard-response","79","507086","0.0-21.0-0.0","SS1619739752298","","","null","","","","","","<p><img src= images/blank.png width =""600"" height = ""600"" style=""position:fixed;top:50%; left:50%; transform: translate(-50%, -50%); border:5px solid black"">","","","","","","","",""
"","6597.579999994254","sequential-stimulus-presentation-old","80","514188","0.0-21.0-1.0","SS1619739752298","trial","","40","500","7097.579999994254","images/stimuli/spore_stims/complex_18_A_b.gif","images/stimuli/spore_stims/complex_13_A_a.gif","self_paced","","6","complex_dissimilar","images/stimuli/spore_stims/complex_13_A_a.gif","","","","",""
"","null","html-keyboard-response","81","515412","0.0-21.0-0.1","SS1619739752298","","","null","","","","","","<p><img src= images/blank.png width =""600"" height = ""600"" style=""position:fixed;top:50%; left:50%; transform: translate(-50%, -50%); border:5px solid black"">","","","","","","","",""
"","3409.9700000006706","sequential-stimulus-presentation-old","82","519340","0.0-21.0-1.1","SS1619739752298","trial","","40","500","3909.9700000006706","images/stimuli/spore_stims/complex_18_A_b.gif","images/stimuli/spore_stims/complex_13_A_a.gif","self_paced","","6","complex_dissimilar","images/stimuli/spore_stims/complex_13_A_a.gif","","","","",""
"","null","html-keyboard-response","83","520428","0.0-21.0-0.2","SS1619739752298","","","null","","","","","","<p><img src= images/blank.png width =""600"" height = ""600"" style=""position:fixed;top:50%; left:50%; transform: translate(-50%, -50%); border:5px solid black"">","","","","","","","",""
"","3660.0499999986496","sequential-stimulus-presentation-old","84","524593","0.0-21.0-1.2","SS1619739752298","trial","","40","500","4160.04999999865","images/stimuli/spore_stims/complex_18_A_b.gif","images/stimuli/spore_stims/complex_13_A_a.gif","self_paced","","6","complex_dissimilar","images/stimuli/spore_stims/complex_13_A_a.gif","","","","",""
"","null","html-keyboard-response","85","525419","0.0-21.0-0.3","SS1619739752298","","","null","","","","","","<p><img src= images/blank.png width =""600"" height = ""600"" style=""position:fixed;top:50%; left:50%; transform: translate(-50%, -50%); border:5px solid black"">","","","","","","","",""
"","1757.1900000039022","sequential-stimulus-presentation-old","86","527692","0.0-21.0-1.3","SS1619739752298","trial","","40","500","2257.1900000039022","images/stimuli/spore_stims/complex_18_A_b.gif","images/stimuli/spore_stims/complex_13_A_a.gif","self_paced","","6","complex_dissimilar","images/stimuli/spore_stims/complex_13_A_a.gif","","","","",""
"","6378.06499999715","survey-multi-choice","87","534073","0.0-22.0","SS1619739752298","math_question","","","","","","","","","","","","{""Q0"":""3""}","[0]","3","",""
"","null","html-keyboard-response","88","535344","0.0-23.0-0.0","SS1619739752298","","","null","","","","","","<p><img src= images/blank.png width =""600"" height = ""600"" style=""position:fixed;top:50%; left:50%; transform: translate(-50%, -50%); border:5px solid black"">","","","","","","","",""
"","44677.81499999552","sequential-stimulus-presentation-old","89","595027","0.0-23.0-1.0","SS1619739752298","trial","","40","500","45177.81499999552","images/stimuli/spore_stims/complex_02_A_a.gif","images/stimuli/spore_stims/complex_05_A_b.gif","forced_long","","7","complex_dissimilar","images/stimuli/spore_stims/complex_05_A_b.gif","","","","",""
"","null","html-keyboard-response","90","596006","0.0-23.0-0.1","SS1619739752298","","","null","","","","","","<p><img src= images/blank.png width =""600"" height = ""600"" style=""position:fixed;top:50%; left:50%; transform: translate(-50%, -50%); border:5px solid black"">","","","","","","","",""
"","443.11000000021886","sequential-stimulus-presentation-old","91","596951","0.0-23.0-1.1","SS1619739752298","trial","","40","500","943.1100000002189","images/stimuli/spore_stims/complex_02_A_a.gif","images/stimuli/spore_stims/complex_05_A_b.gif","forced_long","","7","complex_dissimilar","images/stimuli/spore_stims/complex_05_A_b.gif","","","","",""
"","null","html-keyboard-response","92","597925","0.0-23.0-0.2","SS1619739752298","","","null","","","","","","<p><img src= images/blank.png width =""600"" height = ""600"" style=""position:fixed;top:50%; left:50%; transform: translate(-50%, -50%); border:5px solid black"">","","","","","","","",""
"","543.874999995809","sequential-stimulus-presentation-old","93","598972","0.0-23.0-1.2","SS1619739752298","trial","","40","500","1043.874999995809","images/stimuli/spore_stims/complex_02_A_a.gif","images/stimuli/spore_stims/complex_05_A_b.gif","forced_long","","7","complex_dissimilar","images/stimuli/spore_stims/complex_05_A_b.gif","","","","",""
"","null","html-keyboard-response","94","600170","0.0-23.0-0.3","SS1619739752298","","","null","","","","","","<p><img src= images/blank.png width =""600"" height = ""600"" style=""position:fixed;top:50%; left:50%; transform: translate(-50%, -50%); border:5px solid black"">","","","","","","","",""
"","5006.714999995893","sequential-stimulus-presentation-old","95","605680","0.0-23.0-1.3","SS1619739752298","trial","","40","500","5506.714999995893","images/stimuli/spore_stims/complex_02_A_a.gif","images/stimuli/spore_stims/complex_05_A_b.gif","forced_long","","7","complex_dissimilar","images/stimuli/spore_stims/complex_05_A_b.gif","","","","",""
"","null","html-keyboard-response","96","606910","0.0-23.0-0.4","SS1619739752298","","","null","","","","","","<p><img src= images/blank.png width =""600"" height = ""600"" style=""position:fixed;top:50%; left:50%; transform: translate(-50%, -50%); border:5px solid black"">","","","","","","","",""
"","4701.374999996973","sequential-stimulus-presentation-old","97","612115","0.0-23.0-1.4","SS1619739752298","trial","","40","500","5201.374999996973","images/stimuli/spore_stims/complex_02_A_a.gif","images/stimuli/spore_stims/complex_05_A_b.gif","forced_long","","7","complex_dissimilar","images/stimuli/spore_stims/complex_02_A_a.gif","","","","",""
"","3204.1350000000093","survey-multi-choice","98","615322","0.0-24.0","SS1619739752298","math_question","","","","","","","","","","","","{""Q0"":""8""}","[0]","8","",""
"","null","html-keyboard-response","99","616421","0.0-25.0-0.0","SS1619739752298","","","null","","","","","","<p><img src= images/blank.png width =""600"" height = ""600"" style=""position:fixed;top:50%; left:50%; transform: translate(-50%, -50%); border:5px solid black"">","","","","","","","",""
"","1853.0549999995856","sequential-stimulus-presentation-old","100","633288","0.0-25.0-1.0","SS1619739752298","trial","","40","500","2353.0549999995856","images/stimuli/spore_stims/complex_14_A_a.gif","images/stimuli/spore_stims/complex_09_A_b.gif","forced_long","","8","complex_dissimilar","images/stimuli/spore_stims/complex_09_A_b.gif","","","","",""
"","null","html-keyboard-response","101","634455","0.0-25.0-0.1","SS1619739752298","","","null","","","","","","<p><img src= images/blank.png width =""600"" height = ""600"" style=""position:fixed;top:50%; left:50%; transform: translate(-50%, -50%); border:5px solid black"">","","","","","","","",""
"","2636.259999999311","sequential-stimulus-presentation-old","102","637596","0.0-25.0-1.1","SS1619739752298","trial","","40","500","3136.259999999311","images/stimuli/spore_stims/complex_14_A_a.gif","images/stimuli/spore_stims/complex_09_A_b.gif","forced_long","","8","complex_dissimilar","images/stimuli/spore_stims/complex_09_A_b.gif","","","","",""
"","null","html-keyboard-response","103","638658","0.0-25.0-0.2","SS1619739752298","","","null","","","","","","<p><img src= images/blank.png width =""600"" height = ""600"" style=""position:fixed;top:50%; left:50%; transform: translate(-50%, -50%); border:5px solid black"">","","","","","","","",""
"","8348.350000000326","sequential-stimulus-presentation-old","104","647512","0.0-25.0-1.2","SS1619739752298","trial","","40","500","8848.350000000326","images/stimuli/spore_stims/complex_14_A_a.gif","images/stimuli/spore_stims/complex_09_A_b.gif","forced_long","","8","complex_dissimilar","images/stimuli/spore_stims/complex_09_A_b.gif","","","","",""
"","null","html-keyboard-response","105","648813","0.0-25.0-0.3","SS1619739752298","","","null","","","","","","<p><img src= images/blank.png width =""600"" height = ""600"" style=""position:fixed;top:50%; left:50%; transform: translate(-50%, -50%); border:5px solid black"">","","","","","","","",""
"","6699.760000003269","sequential-stimulus-presentation-old","106","656017","0.0-25.0-1.3","SS1619739752298","trial","","40","500","7199.760000003269","images/stimuli/spore_stims/complex_14_A_a.gif","images/stimuli/spore_stims/complex_09_A_b.gif","forced_long","","8","complex_dissimilar","images/stimuli/spore_stims/complex_09_A_b.gif","","","","",""
"","null","html-keyboard-response","107","657154","0.0-25.0-0.4","SS1619739752298","","","null","","","","","","<p><img src= images/blank.png width =""600"" height = ""600"" style=""position:fixed;top:50%; left:50%; transform: translate(-50%, -50%); border:5px solid black"">","","","","","","","",""
"","8226.610000005225","sequential-stimulus-presentation-old","108","665884","0.0-25.0-1.4","SS1619739752298","trial","","40","500","8726.610000005225","images/stimuli/spore_stims/complex_14_A_a.gif","images/stimuli/spore_stims/complex_09_A_b.gif","forced_long","","8","complex_dissimilar","images/stimuli/spore_stims/complex_14_A_a.gif","","","","",""
"","6342.584999998449","survey-multi-choice","109","672229","0.0-26.0","SS1619739752298","math_question","","","","","","","","","","","","{""Q0"":""8""}","[0]","8","",""
"","null","html-keyboard-response","110","673145","0.0-27.0-0.0","SS1619739752298","","","null","","","","","","<p><img src= images/blank.png width =""600"" height = ""600"" style=""position:fixed;top:50%; left:50%; transform: translate(-50%, -50%); border:5px solid black"">","","","","","","","",""
"","1143.4999999983702","sequential-stimulus-presentation-old","111","674792","0.0-27.0-1.0","SS1619739752298","trial","","40","500","1643.4999999983702","images/stimuli/spore_stims/simple_09_A_b.gif","images/stimuli/spore_stims/simple_08_A_a.gif","self_paced","","9","simple_dissimilar","images/stimuli/spore_stims/simple_08_A_a.gif","","","","",""
"","null","html-keyboard-response","112","675961","0.0-27.0-0.1","SS1619739752298","","","null","","","","","","<p><img src= images/blank.png width =""600"" height = ""600"" style=""position:fixed;top:50%; left:50%; transform: translate(-50%, -50%); border:5px solid black"">","","","","","","","",""
"","7185.55500000366","sequential-stimulus-presentation-old","113","683660","0.0-27.0-1.1","SS1619739752298","trial","","40","500","7685.55500000366","images/stimuli/spore_stims/simple_09_A_b.gif","images/stimuli/spore_stims/simple_08_A_a.gif","self_paced","","9","simple_dissimilar","images/stimuli/spore_stims/simple_08_A_a.gif","","","","",""
"","null","html-keyboard-response","114","684561","0.0-27.0-0.2","SS1619739752298","","","null","","","","","","<p><img src= images/blank.png width =""600"" height = ""600"" style=""position:fixed;top:50%; left:50%; transform: translate(-50%, -50%); border:5px solid black"">","","","","","","","",""
"","2246.020000005956","sequential-stimulus-presentation-old","115","687311","0.0-27.0-1.2","SS1619739752298","trial","","40","500","2746.020000005956","images/stimuli/spore_stims/simple_09_A_b.gif","images/stimuli/spore_stims/simple_08_A_a.gif","self_paced","","9","simple_dissimilar","images/stimuli/spore_stims/simple_08_A_a.gif","","","","",""
"","null","html-keyboard-response","116","688396","0.0-27.0-0.3","SS1619739752298","","","null","","","","","","<p><img src= images/blank.png width =""600"" height = ""600"" style=""position:fixed;top:50%; left:50%; transform: translate(-50%, -50%); border:5px solid black"">","","","","","","","",""
"","3193.585000000894","sequential-stimulus-presentation-old","117","692092","0.0-27.0-1.3","SS1619739752298","trial","","40","500","3693.585000000894","images/stimuli/spore_stims/simple_09_A_b.gif","images/stimuli/spore_stims/simple_08_A_a.gif","self_paced","","9","simple_dissimilar","images/stimuli/spore_stims/simple_08_A_a.gif","","","","",""
"","null","html-keyboard-response","118","693320","0.0-27.0-0.4","SS1619739752298","","","null","","","","","","<p><img src= images/blank.png width =""600"" height = ""600"" style=""position:fixed;top:50%; left:50%; transform: translate(-50%, -50%); border:5px solid black"">","","","","","","","",""
"","548.8599999953294","sequential-stimulus-presentation-old","119","694371","0.0-27.0-1.4","SS1619739752298","trial","","40","500","1048.8599999953294","images/stimuli/spore_stims/simple_09_A_b.gif","images/stimuli/spore_stims/simple_08_A_a.gif","self_paced","","9","simple_dissimilar","images/stimuli/spore_stims/simple_09_A_b.gif","","","","",""
"","3127.115000002901","survey-multi-choice","120","697501","0.0-28.0","SS1619739752298","math_question","","","","","","","","","","","","{""Q0"":""5""}","[0]","5","",""
"","null","html-keyboard-response","121","698435","0.0-29.0-0.0","SS1619739752298","","","null","","","","","","<p><img src= images/blank.png width =""600"" height = ""600"" style=""position:fixed;top:50%; left:50%; transform: translate(-50%, -50%); border:5px solid black"">","","","","","","","",""
"","1935.6100000003353","sequential-stimulus-presentation-old","122","700876","0.0-29.0-1.0","SS1619739752298","trial","","40","500","2435.6100000003353","images/stimuli/spore_stims/complex_15_A_b.gif","images/stimuli/spore_stims/complex_06_A_a.gif","forced_short","","10","complex_dissimilar","images/stimuli/spore_stims/complex_06_A_a.gif","","","","",""
"","null","html-keyboard-response","123","701772","0.0-29.0-0.1","SS1619739752298","","","null","","","","","","<p><img src= images/blank.png width =""600"" height = ""600"" style=""position:fixed;top:50%; left:50%; transform: translate(-50%, -50%); border:5px solid black"">","","","","","","","",""
"","10019.365000000224","sequential-stimulus-presentation-old","124","712299","0.0-29.0-1.1","SS1619739752298","trial","","40","500","10519.365000000224","images/stimuli/spore_stims/complex_15_A_b.gif","images/stimuli/spore_stims/complex_06_A_a.gif","forced_short","","10","complex_dissimilar","images/stimuli/spore_stims/complex_06_A_a.gif","","","","",""
"","null","html-keyboard-response","125","713582","0.0-29.0-0.2","SS1619739752298","","","null","","","","","","<p><img src= images/blank.png width =""600"" height = ""600"" style=""position:fixed;top:50%; left:50%; transform: translate(-50%, -50%); border:5px solid black"">","","","","","","","",""
"","7122.224999999162","sequential-stimulus-presentation-old","126","721208","0.0-29.0-1.2","SS1619739752298","trial","","40","500","7622.224999999162","images/stimuli/spore_stims/complex_15_A_b.gif","images/stimuli/spore_stims/complex_06_A_a.gif","forced_short","","10","complex_dissimilar","images/stimuli/spore_stims/complex_06_A_a.gif","","","","",""
"","null","html-keyboard-response","127","722049","0.0-29.0-0.3","SS1619739752298","","","null","","","","","","<p><img src= images/blank.png width =""600"" height = ""600"" style=""position:fixed;top:50%; left:50%; transform: translate(-50%, -50%); border:5px solid black"">","","","","","","","",""
"","4271.645000000717","sequential-stimulus-presentation-old","128","726824","0.0-29.0-1.3","SS1619739752298","trial","","40","500","4771.645000000717","images/stimuli/spore_stims/complex_15_A_b.gif","images/stimuli/spore_stims/complex_06_A_a.gif","forced_short","","10","complex_dissimilar","images/stimuli/spore_stims/complex_15_A_b.gif","","","","",""
"","null","html-keyboard-response","129","728130","0.0-29.0-0.4","SS1619739752298","","","null","","","","","","<p><img src= images/blank.png width =""600"" height = ""600"" style=""position:fixed;top:50%; left:50%; transform: translate(-50%, -50%); border:5px solid black"">","","","","","","","",""
"","2353.7749999959487","sequential-stimulus-presentation-old","130","730996","0.0-29.0-1.4","SS1619739752298","trial","","40","500","2853.7749999959487","images/stimuli/spore_stims/complex_15_A_b.gif","images/stimuli/spore_stims/complex_06_A_a.gif","forced_short","","10","complex_dissimilar","images/stimuli/spore_stims/complex_06_A_a.gif","","","","",""
"","2412.6449999966426","survey-multi-choice","131","733410","0.0-30.0","SS1619739752298","math_question","","","","","","","","","","","","{""Q0"":""5""}","[0]","5","",""
"","null","html-keyboard-response","132","734488","0.0-31.0-0.0","SS1619739752298","","","null","","","","","","<p><img src= images/blank.png width =""600"" height = ""600"" style=""position:fixed;top:50%; left:50%; transform: translate(-50%, -50%); border:5px solid black"">","","","","","","","",""
"","356.96499999891967","sequential-stimulus-presentation-old","133","735348","0.0-31.0-1.0","SS1619739752298","trial","","40","500","856.9649999989197","images/stimuli/spore_stims/complex_10_A_a.gif","images/stimuli/spore_stims/complex_14_A_b.gif","self_paced","","11","complex_dissimilar","images/stimuli/spore_stims/complex_14_A_b.gif","","","","",""
"","null","html-keyboard-response","134","736564","0.0-31.0-0.1","SS1619739752298","","","null","","","","","","<p><img src= images/blank.png width =""600"" height = ""600"" style=""position:fixed;top:50%; left:50%; transform: translate(-50%, -50%); border:5px solid black"">","","","","","","","",""
"","1243.5649999971502","sequential-stimulus-presentation-old","135","738312","0.0-31.0-1.1","SS1619739752298","trial","","40","500","1743.5649999971502","images/stimuli/spore_stims/complex_10_A_a.gif","images/stimuli/spore_stims/complex_14_A_b.gif","self_paced","","11","complex_dissimilar","images/stimuli/spore_stims/complex_10_A_a.gif","","","","",""
"","null","html-keyboard-response","136","739518","0.0-31.0-0.2","SS1619739752298","","","null","","","","","","<p><img src= images/blank.png width =""600"" height = ""600"" style=""position:fixed;top:50%; left:50%; transform: translate(-50%, -50%); border:5px solid black"">","","","","","","","",""
"","8523.535000000265","sequential-stimulus-presentation-old","137","748545","0.0-31.0-1.2","SS1619739752298","trial","","40","500","9023.535000000265","images/stimuli/spore_stims/complex_10_A_a.gif","images/stimuli/spore_stims/complex_14_A_b.gif","self_paced","","11","complex_dissimilar","images/stimuli/spore_stims/complex_14_A_b.gif","","","","",""
"","null","html-keyboard-response","138","749610","0.0-31.0-0.3","SS1619739752298","","","null","","","","","","<p><img src= images/blank.png width =""600"" height = ""600"" style=""position:fixed;top:50%; left:50%; transform: translate(-50%, -50%); border:5px solid black"">","","","","","","","",""
"","1214.0749999962281","sequential-stimulus-presentation-old","139","751328","0.0-31.0-1.3","SS1619739752298","trial","","40","500","1714.0749999962281","images/stimuli/spore_stims/complex_10_A_a.gif","images/stimuli/spore_stims/complex_14_A_b.gif","self_paced","","11","complex_dissimilar","images/stimuli/spore_stims/complex_14_A_b.gif","","","","",""
"[{""page_index"":0,""viewing_time"":7000.299999999697}]","7000.545000002603","instructions","140","758330","0.0-32.0","SS1619739752298","instructions","","","","","","","","","","","","","","","",""
"","7593.779999995604","survey-likert","141","765927","0.0-33.0","SS1619739752298","similarity_question","","","","","","","","","","","","{""Q0"":1}","[0]","","images/stimuli/spore_stims/complex_03_A_a.gif","images/stimuli/spore_stims/complex_13_A_b.gif"
"","3291.270000001532","survey-likert","142","769222","0.0-34.0","SS1619739752298","similarity_question","","","","","","","","","","","","{""Q0"":1}","[0]","","images/stimuli/spore_stims/complex_05_A_b.gif","images/stimuli/spore_stims/complex_02_A_a.gif"
"","10356.544999995152","survey-likert","143","779582","0.0-35.0","SS1619739752298","similarity_question","","","","","","","","","","","","{""Q0"":4}","[0]","","images/stimuli/spore_stims/complex_06_A_a.gif","images/stimuli/spore_stims/complex_15_A_b.gif"
"","5530.42500000447","survey-likert","144","785116","0.0-36.0","SS1619739752298","similarity_question","","","","","","","","","","","","{""Q0"":3}","[0]","","images/stimuli/spore_stims/simple_05_A_a.gif","images/stimuli/spore_stims/simple_03_A_b.gif"
"","2631.440000004717","survey-likert","145","787751","0.0-37.0","SS1619739752298","similarity_question","","","","","","","","","","","","{""Q0"":5}","[0]","","images/stimuli/spore_stims/simple_04_A_b.gif","images/stimuli/spore_stims/simple_20_A_a.gif"
"","2754.789999999106","survey-likert","146","790510","0.0-38.0","SS1619739752298","similarity_question","","","","","","","","","","","","{""Q0"":5}","[0]","","images/stimuli/spore_stims/simple_02_A_b.gif","images/stimuli/spore_stims/simple_17_A_a.gif"
"","6052.465000000666","survey-likert","147","796565","0.0-39.0","SS1619739752298","similarity_question","","","","","","","","","","","","{""Q0"":4}","[0]","","images/stimuli/spore_stims/complex_14_A_a.gif","images/stimuli/spore_stims/complex_09_A_b.gif"
"","6608.075000003795","survey-likert","148","803176","0.0-40.0","SS1619739752298","similarity_question","","","","","","","","","","","","{""Q0"":4}","[0]","","images/stimuli/spore_stims/complex_14_A_b.gif","images/stimuli/spore_stims/complex_10_A_a.gif"
"","3327.775000005262","survey-likert","149","806507","0.0-41.0","SS1619739752298","similarity_question","","","","","","","","","","","","{""Q0"":3}","[0]","","images/stimuli/spore_stims/simple_04_A_a.gif","images/stimuli/spore_stims/simple_19_A_b.gif"
"","8492.949999999953","survey-likert","150","815003","0.0-42.0","SS1619739752298","similarity_question","","","","","","","","","","","","{""Q0"":1}","[0]","","images/stimuli/spore_stims/simple_09_A_b.gif","images/stimuli/spore_stims/simple_08_A_a.gif"
"","6846.145000003162","survey-likert","151","821853","0.0-43.0","SS1619739752298","similarity_question","","","","","","","","","","","","{""Q0"":1}","[0]","","images/stimuli/spore_stims/complex_13_A_a.gif","images/stimuli/spore_stims/complex_18_A_b.gif"
"","6595.170000000508","survey-likert","152","828451","0.0-44.0","SS1619739752298","similarity_question","","","","","","","","","","","","{""Q0"":2}","[0]","","images/stimuli/spore_stims/simple_13_A_b.gif","images/stimuli/spore_stims/simple_14_A_a.gif"
"[{""page_index"":0,""viewing_time"":4610.580000000424}]","4610.805000003893","instructions","153","833064","0.0-45.0","SS1619739752298","instructions","","","","","","","","","","","","","","","",""
"","7987.394999996526","survey-likert","154","841054","0.0-46.0","SS1619739752298","","","","","","","","","images/stimuli/spore_stims/simple_17_A_a.gif","","","","{""Q0"":3}","[0]","","",""
"","11948.165000001667","survey-likert","155","853006","0.0-47.0","SS1619739752298","","","","","","","","","images/stimuli/spore_stims/complex_06_A_a.gif","","","","{""Q0"":4}","[0]","","",""
"","2325.690000005183","survey-likert","156","855334","0.0-48.0","SS1619739752298","","","","","","","","","images/stimuli/spore_stims/simple_05_A_a.gif","","","","{""Q0"":2}","[0]","","",""
"","2115.3100000011036","survey-likert","157","857453","0.0-49.0","SS1619739752298","","","","","","","","","images/stimuli/spore_stims/simple_08_A_a.gif","","","","{""Q0"":2}","[0]","","",""
"","2465.705000002403","survey-likert","158","859922","0.0-50.0","SS1619739752298","","","","","","","","","images/stimuli/spore_stims/complex_18_A_b.gif","","","","{""Q0"":4}","[0]","","",""
"","3305.259999993723","survey-likert","159","863231","0.0-51.0","SS1619739752298","","","","","","","","","images/stimuli/spore_stims/complex_10_A_a.gif","","","","{""Q0"":4}","[0]","","",""
"","2550.0449999963166","survey-likert","160","865785","0.0-52.0","SS1619739752298","","","","","","","","","images/stimuli/spore_stims/simple_13_A_b.gif","","","","{""Q0"":2}","[0]","","",""
"","4866.739999997662","survey-likert","161","870654","0.0-53.0","SS1619739752298","","","","","","","","","images/stimuli/spore_stims/simple_20_A_a.gif","","","","{""Q0"":1}","[0]","","",""
"","2505.844999999623","survey-likert","162","873164","0.0-54.0","SS1619739752298","","","","","","","","","images/stimuli/spore_stims/simple_04_A_a.gif","","","","{""Q0"":2}","[0]","","",""
"","4479.175000000396","survey-likert","163","877646","0.0-55.0","SS1619739752298","","","","","","","","","images/stimuli/spore_stims/complex_09_A_b.gif","","","","{""Q0"":5}","[0]","","",""
"","3242.849999994971","survey-likert","164","880892","0.0-56.0","SS1619739752298","","","","","","","","","images/stimuli/spore_stims/complex_13_A_b.gif","","","","{""Q0"":5}","[0]","","",""
"","2638.455000000191","survey-likert","165","883535","0.0-57.0","SS1619739752298","","","","","","","","","images/stimuli/spore_stims/complex_02_A_a.gif","","","","{""Q0"":3}","[0]","","",""
"[{""page_index"":0,""viewing_time"":1873.8700000030221}]","1874.1149999987101","instructions","166","885413","0.0-58.0","SS1619739752298","instructions","","","","","","","","","","","","","","","",""
"","4012.894999999902","demog-age","167","889431","0.0-59.0","SS1619739752298","","","","","","","","","","","","","{""age"":""19""}","","","",""
"","11366.335000006016","demog-ethnic-US","168","900810","0.0-60.0","SS1619739752298","","","","","","","","","","","","","{""ethnicity"":[""White""]}","[0]","","",""
"","59511.50000000058","demog-gender-and-education","169","960325","0.0-61.0","SS1619739752298","","","","","","","","","","","","","{""gender"":""Male"",""education"":""High school diploma""}","[0,1]","","",""
"","53501.98500000255","survey-text","170","1013832","0.0-62.0","SS1619739752298","feedback","","","","","","","","","","","","{""Q0"":""it was all fine""}","","","",""
"[{""page_index"":0,""viewing_time"":1516.5249999989755}]","1516.8350000020582","instructions","171","1015357","0.0-63.0","SS1619739752298","instructions","","","","","","","","","","","","","","","",""
