"view_history","rt","trial_type","trial_index","time_elapsed","internal_node_id","subject","stimulus_type","trial_stimulus","key_press","minimum_viewing_duration","trial_looking_time","block_deviant","block_background","exposure_type","stimulus","block_number","block_type","stimulus_displayed","responses","question_order","math_correct_answer","stimulus_left","stimulus_right"
"[{""page_index"":0,""viewing_time"":250813.94000002183}]","250814.4199999515","instructions","0","250815","0.0-0.0","SS1619740057448","","","","","","","","","","","","","","","","",""
"[{""page_index"":0,""viewing_time"":22100.67500011064},{""page_index"":1,""viewing_time"":3351.5449999831617}]","25452.475000172853","instructions","1","278280","0.0-1.0","SS1619740057448","instructions","","","","","","","","","","","","","","","",""
"","7865.8149999100715","sequential-stimulus-presentation-old","2","286650","0.0-2.0","SS1619740057448","","","40","500","8365.814999910071","null","null","self_paced","","","","","","","","",""
"","5999.855000060052","sequential-stimulus-presentation-old","3","293154","0.0-3.0","SS1619740057448","","","40","500","6499.855000060052","null","null","self_paced","","","","","","","","",""
"[{""page_index"":0,""viewing_time"":13435.675000073388}]","13436.054999940097","instructions","4","306591","0.0-4.0","SS1619740057448","instructions","","","","","","","","","","","","","","","",""
"","538.3250000886619","sequential-stimulus-presentation-old","5","322133","0.0-5.0","SS1619740057448","","","40","500","1038.325000088662","null","null","forced_long","","","","","","","","",""
"","3001.9049998372793","sequential-stimulus-presentation-old","6","325643","0.0-6.0","SS1619740057448","","","40","500","3501.9049998372793","null","null","forced_long","","","","","","","","",""
"[{""page_index"":0,""viewing_time"":2793.979999842122}]","2794.1949998494238","instructions","7","328438","0.0-7.0","SS1619740057448","instructions","","","","","","","","","","","","","","","",""
"[{""page_index"":0,""viewing_time"":6365.370000014082},{""page_index"":1,""viewing_time"":7293.525000102818},{""page_index"":2,""viewing_time"":4271.014999831095},{""page_index"":3,""viewing_time"":1866.6050001047552},{""page_index"":4,""viewing_time"":946.9500000122935}]","20743.75499994494","instructions","8","349183","0.0-8.0","SS1619740057448","instructions","","","","","","","","","","","","","","","",""
"","null","html-keyboard-response","9","350164","0.0-9.0-0.0","SS1619740057448","","","null","","","","","","<p><img src= images/blank.png width =""600"" height = ""600"" style=""position:fixed;top:50%; left:50%; transform: translate(-50%, -50%); border:5px solid black"">","","","","","","","",""
"","1839.2799999564886","sequential-stimulus-presentation-old","10","352508","0.0-9.0-1.0","SS1619740057448","trial","","40","500","2339.2799999564886","images/stimuli/spore_stims/complex_19_A_b.gif","images/stimuli/spore_stims/complex_18_A_a.gif","forced_short","","0","complex_dissimilar","images/stimuli/spore_stims/complex_18_A_a.gif","","","","",""
"","null","html-keyboard-response","11","353385","0.0-9.0-0.1","SS1619740057448","","","null","","","","","","<p><img src= images/blank.png width =""600"" height = ""600"" style=""position:fixed;top:50%; left:50%; transform: translate(-50%, -50%); border:5px solid black"">","","","","","","","",""
"","21487.364999949932","sequential-stimulus-presentation-old","12","375383","0.0-9.0-1.1","SS1619740057448","trial","","40","500","21987.364999949932","images/stimuli/spore_stims/complex_19_A_b.gif","images/stimuli/spore_stims/complex_18_A_a.gif","forced_short","","0","complex_dissimilar","images/stimuli/spore_stims/complex_18_A_a.gif","","","","",""
"","null","html-keyboard-response","13","376372","0.0-9.0-0.2","SS1619740057448","","","null","","","","","","<p><img src= images/blank.png width =""600"" height = ""600"" style=""position:fixed;top:50%; left:50%; transform: translate(-50%, -50%); border:5px solid black"">","","","","","","","",""
"","10192.064999835566","sequential-stimulus-presentation-old","14","387076","0.0-9.0-1.2","SS1619740057448","trial","","40","500","10692.064999835566","images/stimuli/spore_stims/complex_19_A_b.gif","images/stimuli/spore_stims/complex_18_A_a.gif","forced_short","","0","complex_dissimilar","images/stimuli/spore_stims/complex_18_A_a.gif","","","","",""
"","null","html-keyboard-response","15","388242","0.0-9.0-0.3","SS1619740057448","","","null","","","","","","<p><img src= images/blank.png width =""600"" height = ""600"" style=""position:fixed;top:50%; left:50%; transform: translate(-50%, -50%); border:5px solid black"">","","","","","","","",""
"","6856.720000039786","sequential-stimulus-presentation-old","16","395615","0.0-9.0-1.3","SS1619740057448","trial","","40","500","7356.720000039786","images/stimuli/spore_stims/complex_19_A_b.gif","images/stimuli/spore_stims/complex_18_A_a.gif","forced_short","","0","complex_dissimilar","images/stimuli/spore_stims/complex_19_A_b.gif","","","","",""
"","null","html-keyboard-response","17","396448","0.0-9.0-0.4","SS1619740057448","","","null","","","","","","<p><img src= images/blank.png width =""600"" height = ""600"" style=""position:fixed;top:50%; left:50%; transform: translate(-50%, -50%); border:5px solid black"">","","","","","","","",""
"","9875.989999854937","sequential-stimulus-presentation-old","18","406834","0.0-9.0-1.4","SS1619740057448","trial","","40","500","10375.989999854937","images/stimuli/spore_stims/complex_19_A_b.gif","images/stimuli/spore_stims/complex_18_A_a.gif","forced_short","","0","complex_dissimilar","images/stimuli/spore_stims/complex_18_A_a.gif","","","","",""
"","3731.3050001394004","survey-multi-choice","19","410575","0.0-10.0","SS1619740057448","math_question","","","","","","","","","","","","{""Q0"":""9""}","[0]","9","",""
"","null","html-keyboard-response","20","411566","0.0-11.0-0.0","SS1619740057448","","","null","","","","","","<p><img src= images/blank.png width =""600"" height = ""600"" style=""position:fixed;top:50%; left:50%; transform: translate(-50%, -50%); border:5px solid black"">","","","","","","","",""
"","1046.9100000336766","sequential-stimulus-presentation-old","21","413118","0.0-11.0-1.0","SS1619740057448","trial","","40","500","1546.9100000336766","images/stimuli/spore_stims/complex_18_A_b.gif","images/stimuli/spore_stims/complex_09_A_a.gif","forced_short","","1","complex_dissimilar","images/stimuli/spore_stims/complex_09_A_a.gif","","","","",""
"","null","html-keyboard-response","22","414302","0.0-11.0-0.1","SS1619740057448","","","null","","","","","","<p><img src= images/blank.png width =""600"" height = ""600"" style=""position:fixed;top:50%; left:50%; transform: translate(-50%, -50%); border:5px solid black"">","","","","","","","",""
"","3229.7050000634044","sequential-stimulus-presentation-old","23","418037","0.0-11.0-1.1","SS1619740057448","trial","","40","500","3729.7050000634044","images/stimuli/spore_stims/complex_18_A_b.gif","images/stimuli/spore_stims/complex_09_A_a.gif","forced_short","","1","complex_dissimilar","images/stimuli/spore_stims/complex_18_A_b.gif","","","","",""
"","null","html-keyboard-response","24","419271","0.0-11.0-0.2","SS1619740057448","","","null","","","","","","<p><img src= images/blank.png width =""600"" height = ""600"" style=""position:fixed;top:50%; left:50%; transform: translate(-50%, -50%); border:5px solid black"">","","","","","","","",""
"","7205.624999944121","sequential-stimulus-presentation-old","25","426983","0.0-11.0-1.2","SS1619740057448","trial","","40","500","7705.624999944121","images/stimuli/spore_stims/complex_18_A_b.gif","images/stimuli/spore_stims/complex_09_A_a.gif","forced_short","","1","complex_dissimilar","images/stimuli/spore_stims/complex_09_A_a.gif","","","","",""
"","null","html-keyboard-response","26","428085","0.0-11.0-0.3","SS1619740057448","","","null","","","","","","<p><img src= images/blank.png width =""600"" height = ""600"" style=""position:fixed;top:50%; left:50%; transform: translate(-50%, -50%); border:5px solid black"">","","","","","","","",""
"","5359.540000092238","sequential-stimulus-presentation-old","27","433955","0.0-11.0-1.3","SS1619740057448","trial","","40","500","5859.540000092238","images/stimuli/spore_stims/complex_18_A_b.gif","images/stimuli/spore_stims/complex_09_A_a.gif","forced_short","","1","complex_dissimilar","images/stimuli/spore_stims/complex_18_A_b.gif","","","","",""
"","null","html-keyboard-response","28","435077","0.0-11.0-0.4","SS1619740057448","","","null","","","","","","<p><img src= images/blank.png width =""600"" height = ""600"" style=""position:fixed;top:50%; left:50%; transform: translate(-50%, -50%); border:5px solid black"">","","","","","","","",""
"","5038.420000113547","sequential-stimulus-presentation-old","29","440628","0.0-11.0-1.4","SS1619740057448","trial","","40","500","5538.420000113547","images/stimuli/spore_stims/complex_18_A_b.gif","images/stimuli/spore_stims/complex_09_A_a.gif","forced_short","","1","complex_dissimilar","images/stimuli/spore_stims/complex_09_A_a.gif","","","","",""
"","3252.0050001330674","survey-multi-choice","30","443882","0.0-12.0","SS1619740057448","math_question","","","","","","","","","","","","{""Q0"":""8""}","[0]","8","",""
"","null","html-keyboard-response","31","444977","0.0-13.0-0.0","SS1619740057448","","","null","","","","","","<p><img src= images/blank.png width =""600"" height = ""600"" style=""position:fixed;top:50%; left:50%; transform: translate(-50%, -50%); border:5px solid black"">","","","","","","","",""
"","5584.305000025779","sequential-stimulus-presentation-old","32","451069","0.0-13.0-1.0","SS1619740057448","trial","","40","500","6084.305000025779","images/stimuli/spore_stims/simple_13_A_b.gif","images/stimuli/spore_stims/simple_05_A_a.gif","self_paced","","2","simple_dissimilar","images/stimuli/spore_stims/simple_05_A_a.gif","","","","",""
"","null","html-keyboard-response","33","452325","0.0-13.0-0.1","SS1619740057448","","","null","","","","","","<p><img src= images/blank.png width =""600"" height = ""600"" style=""position:fixed;top:50%; left:50%; transform: translate(-50%, -50%); border:5px solid black"">","","","","","","","",""
"","5104.344999883324","sequential-stimulus-presentation-old","34","457944","0.0-13.0-1.1","SS1619740057448","trial","","40","500","5604.344999883324","images/stimuli/spore_stims/simple_13_A_b.gif","images/stimuli/spore_stims/simple_05_A_a.gif","self_paced","","2","simple_dissimilar","images/stimuli/spore_stims/simple_13_A_b.gif","","","","",""
"","null","html-keyboard-response","35","459008","0.0-13.0-0.2","SS1619740057448","","","null","","","","","","<p><img src= images/blank.png width =""600"" height = ""600"" style=""position:fixed;top:50%; left:50%; transform: translate(-50%, -50%); border:5px solid black"">","","","","","","","",""
"","5188.39000002481","sequential-stimulus-presentation-old","36","464707","0.0-13.0-1.2","SS1619740057448","trial","","40","500","5688.39000002481","images/stimuli/spore_stims/simple_13_A_b.gif","images/stimuli/spore_stims/simple_05_A_a.gif","self_paced","","2","simple_dissimilar","images/stimuli/spore_stims/simple_05_A_a.gif","","","","",""
"","null","html-keyboard-response","37","466002","0.0-13.0-0.3","SS1619740057448","","","null","","","","","","<p><img src= images/blank.png width =""600"" height = ""600"" style=""position:fixed;top:50%; left:50%; transform: translate(-50%, -50%); border:5px solid black"">","","","","","","","",""
"","7141.040000133216","sequential-stimulus-presentation-old","38","473660","0.0-13.0-1.3","SS1619740057448","trial","","40","500","7641.040000133216","images/stimuli/spore_stims/simple_13_A_b.gif","images/stimuli/spore_stims/simple_05_A_a.gif","self_paced","","2","simple_dissimilar","images/stimuli/spore_stims/simple_05_A_a.gif","","","","",""
"","null","html-keyboard-response","39","474727","0.0-13.0-0.4","SS1619740057448","","","null","","","","","","<p><img src= images/blank.png width =""600"" height = ""600"" style=""position:fixed;top:50%; left:50%; transform: translate(-50%, -50%); border:5px solid black"">","","","","","","","",""
"","5872.730000177398","sequential-stimulus-presentation-old","40","481108","0.0-13.0-1.4","SS1619740057448","trial","","40","500","6372.730000177398","images/stimuli/spore_stims/simple_13_A_b.gif","images/stimuli/spore_stims/simple_05_A_a.gif","self_paced","","2","simple_dissimilar","images/stimuli/spore_stims/simple_13_A_b.gif","","","","",""
"","2602.195000043139","survey-multi-choice","41","483714","0.0-14.0","SS1619740057448","math_question","","","","","","","","","","","","{""Q0"":""11""}","[0]","11","",""
"","null","html-keyboard-response","42","484892","0.0-15.0-0.0","SS1619740057448","","","null","","","","","","<p><img src= images/blank.png width =""600"" height = ""600"" style=""position:fixed;top:50%; left:50%; transform: translate(-50%, -50%); border:5px solid black"">","","","","","","","",""
"","2432.0449999067932","sequential-stimulus-presentation-old","43","487836","0.0-15.0-1.0","SS1619740057448","trial","","40","500","2932.0449999067932","images/stimuli/spore_stims/simple_19_A_a.gif","images/stimuli/spore_stims/simple_07_A_b.gif","forced_short","","3","simple_dissimilar","images/stimuli/spore_stims/simple_07_A_b.gif","","","","",""
"","null","html-keyboard-response","44","489144","0.0-15.0-0.1","SS1619740057448","","","null","","","","","","<p><img src= images/blank.png width =""600"" height = ""600"" style=""position:fixed;top:50%; left:50%; transform: translate(-50%, -50%); border:5px solid black"">","","","","","","","",""
"","6472.0600000582635","sequential-stimulus-presentation-old","45","496126","0.0-15.0-1.1","SS1619740057448","trial","","40","500","6972.0600000582635","images/stimuli/spore_stims/simple_19_A_a.gif","images/stimuli/spore_stims/simple_07_A_b.gif","forced_short","","3","simple_dissimilar","images/stimuli/spore_stims/simple_07_A_b.gif","","","","",""
"","null","html-keyboard-response","46","497050","0.0-15.0-0.2","SS1619740057448","","","null","","","","","","<p><img src= images/blank.png width =""600"" height = ""600"" style=""position:fixed;top:50%; left:50%; transform: translate(-50%, -50%); border:5px solid black"">","","","","","","","",""
"","3632.4800001457334","sequential-stimulus-presentation-old","47","501198","0.0-15.0-1.2","SS1619740057448","trial","","40","500","4132.480000145733","images/stimuli/spore_stims/simple_19_A_a.gif","images/stimuli/spore_stims/simple_07_A_b.gif","forced_short","","3","simple_dissimilar","images/stimuli/spore_stims/simple_07_A_b.gif","","","","",""
"","null","html-keyboard-response","48","502051","0.0-15.0-0.3","SS1619740057448","","","null","","","","","","<p><img src= images/blank.png width =""600"" height = ""600"" style=""position:fixed;top:50%; left:50%; transform: translate(-50%, -50%); border:5px solid black"">","","","","","","","",""
"","4759.444999974221","sequential-stimulus-presentation-old","49","507320","0.0-15.0-1.3","SS1619740057448","trial","","40","500","5259.444999974221","images/stimuli/spore_stims/simple_19_A_a.gif","images/stimuli/spore_stims/simple_07_A_b.gif","forced_short","","3","simple_dissimilar","images/stimuli/spore_stims/simple_19_A_a.gif","","","","",""
"","null","html-keyboard-response","50","508572","0.0-15.0-0.4","SS1619740057448","","","null","","","","","","<p><img src= images/blank.png width =""600"" height = ""600"" style=""position:fixed;top:50%; left:50%; transform: translate(-50%, -50%); border:5px solid black"">","","","","","","","",""
"","5305.4500001017","sequential-stimulus-presentation-old","51","514385","0.0-15.0-1.4","SS1619740057448","trial","","40","500","5805.4500001017","images/stimuli/spore_stims/simple_19_A_a.gif","images/stimuli/spore_stims/simple_07_A_b.gif","forced_short","","3","simple_dissimilar","images/stimuli/spore_stims/simple_19_A_a.gif","","","","",""
"","2790.0900000240654","survey-multi-choice","52","517180","0.0-16.0","SS1619740057448","math_question","","","","","","","","","","","","{""Q0"":""11""}","[0]","11","",""
"","null","html-keyboard-response","53","518423","0.0-17.0-0.0","SS1619740057448","","","null","","","","","","<p><img src= images/blank.png width =""600"" height = ""600"" style=""position:fixed;top:50%; left:50%; transform: translate(-50%, -50%); border:5px solid black"">","","","","","","","",""
"","4150.595000013709","sequential-stimulus-presentation-old","54","523084","0.0-17.0-1.0","SS1619740057448","trial","","40","500","4650.595000013709","images/stimuli/spore_stims/simple_15_A_b.gif","images/stimuli/spore_stims/simple_14_A_a.gif","self_paced","","4","simple_dissimilar","images/stimuli/spore_stims/simple_14_A_a.gif","","","","",""
"","null","html-keyboard-response","55","524183","0.0-17.0-0.1","SS1619740057448","","","null","","","","","","<p><img src= images/blank.png width =""600"" height = ""600"" style=""position:fixed;top:50%; left:50%; transform: translate(-50%, -50%); border:5px solid black"">","","","","","","","",""
"","4801.025000168011","sequential-stimulus-presentation-old","56","529489","0.0-17.0-1.1","SS1619740057448","trial","","40","500","5301.025000168011","images/stimuli/spore_stims/simple_15_A_b.gif","images/stimuli/spore_stims/simple_14_A_a.gif","self_paced","","4","simple_dissimilar","images/stimuli/spore_stims/simple_14_A_a.gif","","","","",""
"","null","html-keyboard-response","57","530359","0.0-17.0-0.2","SS1619740057448","","","null","","","","","","<p><img src= images/blank.png width =""600"" height = ""600"" style=""position:fixed;top:50%; left:50%; transform: translate(-50%, -50%); border:5px solid black"">","","","","","","","",""
"","4117.594999959692","sequential-stimulus-presentation-old","58","534985","0.0-17.0-1.2","SS1619740057448","trial","","40","500","4617.594999959692","images/stimuli/spore_stims/simple_15_A_b.gif","images/stimuli/spore_stims/simple_14_A_a.gif","self_paced","","4","simple_dissimilar","images/stimuli/spore_stims/simple_14_A_a.gif","","","","",""
"","null","html-keyboard-response","59","535831","0.0-17.0-0.3","SS1619740057448","","","null","","","","","","<p><img src= images/blank.png width =""600"" height = ""600"" style=""position:fixed;top:50%; left:50%; transform: translate(-50%, -50%); border:5px solid black"">","","","","","","","",""
"","5458.640000084415","sequential-stimulus-presentation-old","60","541827","0.0-17.0-1.3","SS1619740057448","trial","","40","500","5958.640000084415","images/stimuli/spore_stims/simple_15_A_b.gif","images/stimuli/spore_stims/simple_14_A_a.gif","self_paced","","4","simple_dissimilar","images/stimuli/spore_stims/simple_15_A_b.gif","","","","",""
"","null","html-keyboard-response","61","543098","0.0-17.0-0.4","SS1619740057448","","","null","","","","","","<p><img src= images/blank.png width =""600"" height = ""600"" style=""position:fixed;top:50%; left:50%; transform: translate(-50%, -50%); border:5px solid black"">","","","","","","","",""
"","3326.0699999518692","sequential-stimulus-presentation-old","62","546939","0.0-17.0-1.4","SS1619740057448","trial","","40","500","3826.0699999518692","images/stimuli/spore_stims/simple_15_A_b.gif","images/stimuli/spore_stims/simple_14_A_a.gif","self_paced","","4","simple_dissimilar","images/stimuli/spore_stims/simple_14_A_a.gif","","","","",""
"","2748.6750001553446","survey-multi-choice","63","549691","0.0-18.0","SS1619740057448","math_question","","","","","","","","","","","","{""Q0"":""14""}","[0]","14","",""
"","null","html-keyboard-response","64","550725","0.0-19.0-0.0","SS1619740057448","","","null","","","","","","<p><img src= images/blank.png width =""600"" height = ""600"" style=""position:fixed;top:50%; left:50%; transform: translate(-50%, -50%); border:5px solid black"">","","","","","","","",""
"","4444.554999936372","sequential-stimulus-presentation-old","65","555679","0.0-19.0-1.0","SS1619740057448","trial","","40","500","4944.554999936372","images/stimuli/spore_stims/complex_05_A_b.gif","images/stimuli/spore_stims/complex_20_A_a.gif","self_paced","","5","complex_dissimilar","images/stimuli/spore_stims/complex_20_A_a.gif","","","","",""
"","null","html-keyboard-response","66","556933","0.0-19.0-0.1","SS1619740057448","","","null","","","","","","<p><img src= images/blank.png width =""600"" height = ""600"" style=""position:fixed;top:50%; left:50%; transform: translate(-50%, -50%); border:5px solid black"">","","","","","","","",""
"","5742.929999949411","sequential-stimulus-presentation-old","67","563184","0.0-19.0-1.1","SS1619740057448","trial","","40","500","6242.929999949411","images/stimuli/spore_stims/complex_05_A_b.gif","images/stimuli/spore_stims/complex_20_A_a.gif","self_paced","","5","complex_dissimilar","images/stimuli/spore_stims/complex_05_A_b.gif","","","","",""
"","null","html-keyboard-response","68","564445","0.0-19.0-0.2","SS1619740057448","","","null","","","","","","<p><img src= images/blank.png width =""600"" height = ""600"" style=""position:fixed;top:50%; left:50%; transform: translate(-50%, -50%); border:5px solid black"">","","","","","","","",""
"","3247.399999992922","sequential-stimulus-presentation-old","69","568201","0.0-19.0-1.2","SS1619740057448","trial","","40","500","3747.399999992922","images/stimuli/spore_stims/complex_05_A_b.gif","images/stimuli/spore_stims/complex_20_A_a.gif","self_paced","","5","complex_dissimilar","images/stimuli/spore_stims/complex_20_A_a.gif","","","","",""
"","null","html-keyboard-response","70","569050","0.0-19.0-0.3","SS1619740057448","","","null","","","","","","<p><img src= images/blank.png width =""600"" height = ""600"" style=""position:fixed;top:50%; left:50%; transform: translate(-50%, -50%); border:5px solid black"">","","","","","","","",""
"","5414.395000087097","sequential-stimulus-presentation-old","71","574972","0.0-19.0-1.3","SS1619740057448","trial","","40","500","5914.395000087097","images/stimuli/spore_stims/complex_05_A_b.gif","images/stimuli/spore_stims/complex_20_A_a.gif","self_paced","","5","complex_dissimilar","images/stimuli/spore_stims/complex_20_A_a.gif","","","","",""
"","3228.8249998819083","survey-multi-choice","72","578211","0.0-20.0","SS1619740057448","math_question","","","","","","","","","","","","{""Q0"":""11""}","[0]","11","",""
"","null","html-keyboard-response","73","579281","0.0-21.0-0.0","SS1619740057448","","","null","","","","","","<p><img src= images/blank.png width =""600"" height = ""600"" style=""position:fixed;top:50%; left:50%; transform: translate(-50%, -50%); border:5px solid black"">","","","","","","","",""
"","2041.4299999829382","sequential-stimulus-presentation-old","74","581837","0.0-21.0-1.0","SS1619740057448","trial","","40","500","2541.429999982938","images/stimuli/spore_stims/simple_07_A_a.gif","images/stimuli/spore_stims/simple_10_A_b.gif","forced_short","","6","simple_dissimilar","images/stimuli/spore_stims/simple_10_A_b.gif","","","","",""
"","null","html-keyboard-response","75","582997","0.0-21.0-0.1","SS1619740057448","","","null","","","","","","<p><img src= images/blank.png width =""600"" height = ""600"" style=""position:fixed;top:50%; left:50%; transform: translate(-50%, -50%); border:5px solid black"">","","","","","","","",""
"","3355.364999966696","sequential-stimulus-presentation-old","76","586858","0.0-21.0-1.1","SS1619740057448","trial","","40","500","3855.364999966696","images/stimuli/spore_stims/simple_07_A_a.gif","images/stimuli/spore_stims/simple_10_A_b.gif","forced_short","","6","simple_dissimilar","images/stimuli/spore_stims/simple_07_A_a.gif","","","","",""
"","null","html-keyboard-response","77","587865","0.0-21.0-0.2","SS1619740057448","","","null","","","","","","<p><img src= images/blank.png width =""600"" height = ""600"" style=""position:fixed;top:50%; left:50%; transform: translate(-50%, -50%); border:5px solid black"">","","","","","","","",""
"","13535.995000042021","sequential-stimulus-presentation-old","78","601915","0.0-21.0-1.2","SS1619740057448","trial","","40","500","14035.995000042021","images/stimuli/spore_stims/simple_07_A_a.gif","images/stimuli/spore_stims/simple_10_A_b.gif","forced_short","","6","simple_dissimilar","images/stimuli/spore_stims/simple_07_A_a.gif","","","","",""
"","null","html-keyboard-response","79","602907","0.0-21.0-0.3","SS1619740057448","","","null","","","","","","<p><img src= images/blank.png width =""600"" height = ""600"" style=""position:fixed;top:50%; left:50%; transform: translate(-50%, -50%); border:5px solid black"">","","","","","","","",""
"","14173.175000119954","sequential-stimulus-presentation-old","80","617586","0.0-21.0-1.3","SS1619740057448","trial","","40","500","14673.175000119954","images/stimuli/spore_stims/simple_07_A_a.gif","images/stimuli/spore_stims/simple_10_A_b.gif","forced_short","","6","simple_dissimilar","images/stimuli/spore_stims/simple_10_A_b.gif","","","","",""
"","null","html-keyboard-response","81","618564","0.0-21.0-0.4","SS1619740057448","","","null","","","","","","<p><img src= images/blank.png width =""600"" height = ""600"" style=""position:fixed;top:50%; left:50%; transform: translate(-50%, -50%); border:5px solid black"">","","","","","","","",""
"","3356.8750000558794","sequential-stimulus-presentation-old","82","622435","0.0-21.0-1.4","SS1619740057448","trial","","40","500","3856.8750000558794","images/stimuli/spore_stims/simple_07_A_a.gif","images/stimuli/spore_stims/simple_10_A_b.gif","forced_short","","6","simple_dissimilar","images/stimuli/spore_stims/simple_10_A_b.gif","","","","",""
"","3288.399999961257","survey-multi-choice","83","625729","0.0-22.0","SS1619740057448","math_question","","","","","","","","","","","","{""Q0"":""4""}","[0]","4","",""
"","null","html-keyboard-response","84","626834","0.0-23.0-0.0","SS1619740057448","","","null","","","","","","<p><img src= images/blank.png width =""600"" height = ""600"" style=""position:fixed;top:50%; left:50%; transform: translate(-50%, -50%); border:5px solid black"">","","","","","","","",""
"","422.0750001259148","sequential-stimulus-presentation-old","85","642267","0.0-23.0-1.0","SS1619740057448","trial","","40","500","922.0750001259148","images/stimuli/spore_stims/simple_01_A_a.gif","images/stimuli/spore_stims/simple_03_A_b.gif","forced_long","","7","simple_dissimilar","images/stimuli/spore_stims/simple_03_A_b.gif","","","","",""
"","null","html-keyboard-response","86","643433","0.0-23.0-0.1","SS1619740057448","","","null","","","","","","<p><img src= images/blank.png width =""600"" height = ""600"" style=""position:fixed;top:50%; left:50%; transform: translate(-50%, -50%); border:5px solid black"">","","","","","","","",""
"","1811.4150001201779","sequential-stimulus-presentation-old","87","645755","0.0-23.0-1.1","SS1619740057448","trial","","40","500","2311.415000120178","images/stimuli/spore_stims/simple_01_A_a.gif","images/stimuli/spore_stims/simple_03_A_b.gif","forced_long","","7","simple_dissimilar","images/stimuli/spore_stims/simple_03_A_b.gif","","","","",""
"","null","html-keyboard-response","88","646806","0.0-23.0-0.2","SS1619740057448","","","null","","","","","","<p><img src= images/blank.png width =""600"" height = ""600"" style=""position:fixed;top:50%; left:50%; transform: translate(-50%, -50%); border:5px solid black"">","","","","","","","",""
"","828.4800001420081","sequential-stimulus-presentation-old","89","648145","0.0-23.0-1.2","SS1619740057448","trial","","40","500","1328.480000142008","images/stimuli/spore_stims/simple_01_A_a.gif","images/stimuli/spore_stims/simple_03_A_b.gif","forced_long","","7","simple_dissimilar","images/stimuli/spore_stims/simple_03_A_b.gif","","","","",""
"","null","html-keyboard-response","90","649370","0.0-23.0-0.3","SS1619740057448","","","null","","","","","","<p><img src= images/blank.png width =""600"" height = ""600"" style=""position:fixed;top:50%; left:50%; transform: translate(-50%, -50%); border:5px solid black"">","","","","","","","",""
"","887.1849998831749","sequential-stimulus-presentation-old","91","650770","0.0-23.0-1.3","SS1619740057448","trial","","40","500","1387.184999883175","images/stimuli/spore_stims/simple_01_A_a.gif","images/stimuli/spore_stims/simple_03_A_b.gif","forced_long","","7","simple_dissimilar","images/stimuli/spore_stims/simple_03_A_b.gif","","","","",""
"","null","html-keyboard-response","92","651826","0.0-23.0-0.4","SS1619740057448","","","null","","","","","","<p><img src= images/blank.png width =""600"" height = ""600"" style=""position:fixed;top:50%; left:50%; transform: translate(-50%, -50%); border:5px solid black"">","","","","","","","",""
"","1830.335000064224","sequential-stimulus-presentation-old","93","654163","0.0-23.0-1.4","SS1619740057448","trial","","40","500","2330.335000064224","images/stimuli/spore_stims/simple_01_A_a.gif","images/stimuli/spore_stims/simple_03_A_b.gif","forced_long","","7","simple_dissimilar","images/stimuli/spore_stims/simple_03_A_b.gif","","","","",""
"","2994.020000100136","survey-multi-choice","94","657164","0.0-24.0","SS1619740057448","math_question","","","","","","","","","","","","{""Q0"":""8""}","[0]","8","",""
"","null","html-keyboard-response","95","658257","0.0-25.0-0.0","SS1619740057448","","","null","","","","","","<p><img src= images/blank.png width =""600"" height = ""600"" style=""position:fixed;top:50%; left:50%; transform: translate(-50%, -50%); border:5px solid black"">","","","","","","","",""
"","525.0049999449402","sequential-stimulus-presentation-old","96","673802","0.0-25.0-1.0","SS1619740057448","trial","","40","500","1025.0049999449402","images/stimuli/spore_stims/complex_11_A_a.gif","images/stimuli/spore_stims/complex_12_A_b.gif","forced_long","","8","complex_dissimilar","images/stimuli/spore_stims/complex_12_A_b.gif","","","","",""
"","null","html-keyboard-response","97","674802","0.0-25.0-0.1","SS1619740057448","","","null","","","","","","<p><img src= images/blank.png width =""600"" height = ""600"" style=""position:fixed;top:50%; left:50%; transform: translate(-50%, -50%); border:5px solid black"">","","","","","","","",""
"","2020.5999999307096","sequential-stimulus-presentation-old","98","677336","0.0-25.0-1.1","SS1619740057448","trial","","40","500","2520.5999999307096","images/stimuli/spore_stims/complex_11_A_a.gif","images/stimuli/spore_stims/complex_12_A_b.gif","forced_long","","8","complex_dissimilar","images/stimuli/spore_stims/complex_12_A_b.gif","","","","",""
"","null","html-keyboard-response","99","678579","0.0-25.0-0.2","SS1619740057448","","","null","","","","","","<p><img src= images/blank.png width =""600"" height = ""600"" style=""position:fixed;top:50%; left:50%; transform: translate(-50%, -50%); border:5px solid black"">","","","","","","","",""
"","4600.624999962747","sequential-stimulus-presentation-old","100","683702","0.0-25.0-1.2","SS1619740057448","trial","","40","500","5100.624999962747","images/stimuli/spore_stims/complex_11_A_a.gif","images/stimuli/spore_stims/complex_12_A_b.gif","forced_long","","8","complex_dissimilar","images/stimuli/spore_stims/complex_11_A_a.gif","","","","",""
"","null","html-keyboard-response","101","684950","0.0-25.0-0.3","SS1619740057448","","","null","","","","","","<p><img src= images/blank.png width =""600"" height = ""600"" style=""position:fixed;top:50%; left:50%; transform: translate(-50%, -50%); border:5px solid black"">","","","","","","","",""
"","4388.180000009015","sequential-stimulus-presentation-old","102","689855","0.0-25.0-1.3","SS1619740057448","trial","","40","500","4888.180000009015","images/stimuli/spore_stims/complex_11_A_a.gif","images/stimuli/spore_stims/complex_12_A_b.gif","forced_long","","8","complex_dissimilar","images/stimuli/spore_stims/complex_12_A_b.gif","","","","",""
"","null","html-keyboard-response","103","690893","0.0-25.0-0.4","SS1619740057448","","","null","","","","","","<p><img src= images/blank.png width =""600"" height = ""600"" style=""position:fixed;top:50%; left:50%; transform: translate(-50%, -50%); border:5px solid black"">","","","","","","","",""
"","1234.8350000102073","sequential-stimulus-presentation-old","104","692640","0.0-25.0-1.4","SS1619740057448","trial","","40","500","1734.8350000102073","images/stimuli/spore_stims/complex_11_A_a.gif","images/stimuli/spore_stims/complex_12_A_b.gif","forced_long","","8","complex_dissimilar","images/stimuli/spore_stims/complex_11_A_a.gif","","","","",""
"","3116.1849999334663","survey-multi-choice","105","695763","0.0-26.0","SS1619740057448","math_question","","","","","","","","","","","","{""Q0"":""10""}","[0]","10","",""
"","null","html-keyboard-response","106","696794","0.0-27.0-0.0","SS1619740057448","","","null","","","","","","<p><img src= images/blank.png width =""600"" height = ""600"" style=""position:fixed;top:50%; left:50%; transform: translate(-50%, -50%); border:5px solid black"">","","","","","","","",""
"","4790.779999922961","sequential-stimulus-presentation-old","107","702094","0.0-27.0-1.0","SS1619740057448","trial","","40","500","5290.779999922961","images/stimuli/spore_stims/complex_11_A_b.gif","images/stimuli/spore_stims/complex_15_A_a.gif","self_paced","","9","complex_dissimilar","images/stimuli/spore_stims/complex_15_A_a.gif","","","","",""
"","null","html-keyboard-response","108","702916","0.0-27.0-0.1","SS1619740057448","","","null","","","","","","<p><img src= images/blank.png width =""600"" height = ""600"" style=""position:fixed;top:50%; left:50%; transform: translate(-50%, -50%); border:5px solid black"">","","","","","","","",""
"","1383.6849997751415","sequential-stimulus-presentation-old","109","704814","0.0-27.0-1.1","SS1619740057448","trial","","40","500","1883.6849997751415","images/stimuli/spore_stims/complex_11_A_b.gif","images/stimuli/spore_stims/complex_15_A_a.gif","self_paced","","9","complex_dissimilar","images/stimuli/spore_stims/complex_15_A_a.gif","","","","",""
"","null","html-keyboard-response","110","706125","0.0-27.0-0.2","SS1619740057448","","","null","","","","","","<p><img src= images/blank.png width =""600"" height = ""600"" style=""position:fixed;top:50%; left:50%; transform: translate(-50%, -50%); border:5px solid black"">","","","","","","","",""
"","4144.480000017211","sequential-stimulus-presentation-old","111","710786","0.0-27.0-1.2","SS1619740057448","trial","","40","500","4644.480000017211","images/stimuli/spore_stims/complex_11_A_b.gif","images/stimuli/spore_stims/complex_15_A_a.gif","self_paced","","9","complex_dissimilar","images/stimuli/spore_stims/complex_15_A_a.gif","","","","",""
"","null","html-keyboard-response","112","711615","0.0-27.0-0.3","SS1619740057448","","","null","","","","","","<p><img src= images/blank.png width =""600"" height = ""600"" style=""position:fixed;top:50%; left:50%; transform: translate(-50%, -50%); border:5px solid black"">","","","","","","","",""
"","1835.2550000417978","sequential-stimulus-presentation-old","113","713959","0.0-27.0-1.3","SS1619740057448","trial","","40","500","2335.2550000417978","images/stimuli/spore_stims/complex_11_A_b.gif","images/stimuli/spore_stims/complex_15_A_a.gif","self_paced","","9","complex_dissimilar","images/stimuli/spore_stims/complex_15_A_a.gif","","","","",""
"","4425.095000071451","survey-multi-choice","114","718388","0.0-28.0","SS1619740057448","math_question","","","","","","","","","","","","{""Q0"":""12""}","[0]","12","",""
"","null","html-keyboard-response","115","719321","0.0-29.0-0.0","SS1619740057448","","","null","","","","","","<p><img src= images/blank.png width =""600"" height = ""600"" style=""position:fixed;top:50%; left:50%; transform: translate(-50%, -50%); border:5px solid black"">","","","","","","","",""
"","476.7149998806417","sequential-stimulus-presentation-old","116","734820","0.0-29.0-1.0","SS1619740057448","trial","","40","500","976.7149998806417","images/stimuli/spore_stims/simple_04_A_a.gif","images/stimuli/spore_stims/simple_16_A_b.gif","forced_long","","10","simple_dissimilar","images/stimuli/spore_stims/simple_16_A_b.gif","","","","",""
"","null","html-keyboard-response","117","736022","0.0-29.0-0.1","SS1619740057448","","","null","","","","","","<p><img src= images/blank.png width =""600"" height = ""600"" style=""position:fixed;top:50%; left:50%; transform: translate(-50%, -50%); border:5px solid black"">","","","","","","","",""
"","343.63000001758337","sequential-stimulus-presentation-old","118","736895","0.0-29.0-1.1","SS1619740057448","trial","","40","500","843.6300000175834","images/stimuli/spore_stims/simple_04_A_a.gif","images/stimuli/spore_stims/simple_16_A_b.gif","forced_long","","10","simple_dissimilar","images/stimuli/spore_stims/simple_16_A_b.gif","","","","",""
"","null","html-keyboard-response","119","737981","0.0-29.0-0.2","SS1619740057448","","","null","","","","","","<p><img src= images/blank.png width =""600"" height = ""600"" style=""position:fixed;top:50%; left:50%; transform: translate(-50%, -50%); border:5px solid black"">","","","","","","","",""
"","4001.5000000130385","sequential-stimulus-presentation-old","120","742495","0.0-29.0-1.2","SS1619740057448","trial","","40","500","4501.5000000130385","images/stimuli/spore_stims/simple_04_A_a.gif","images/stimuli/spore_stims/simple_16_A_b.gif","forced_long","","10","simple_dissimilar","images/stimuli/spore_stims/simple_04_A_a.gif","","","","",""
"","null","html-keyboard-response","121","743436","0.0-29.0-0.3","SS1619740057448","","","null","","","","","","<p><img src= images/blank.png width =""600"" height = ""600"" style=""position:fixed;top:50%; left:50%; transform: translate(-50%, -50%); border:5px solid black"">","","","","","","","",""
"","3497.854999965057","sequential-stimulus-presentation-old","122","747453","0.0-29.0-1.3","SS1619740057448","trial","","40","500","3997.854999965057","images/stimuli/spore_stims/simple_04_A_a.gif","images/stimuli/spore_stims/simple_16_A_b.gif","forced_long","","10","simple_dissimilar","images/stimuli/spore_stims/simple_04_A_a.gif","","","","",""
"","null","html-keyboard-response","123","748470","0.0-29.0-0.4","SS1619740057448","","","null","","","","","","<p><img src= images/blank.png width =""600"" height = ""600"" style=""position:fixed;top:50%; left:50%; transform: translate(-50%, -50%); border:5px solid black"">","","","","","","","",""
"","2951.710000168532","sequential-stimulus-presentation-old","124","751932","0.0-29.0-1.4","SS1619740057448","trial","","40","500","3451.710000168532","images/stimuli/spore_stims/simple_04_A_a.gif","images/stimuli/spore_stims/simple_16_A_b.gif","forced_long","","10","simple_dissimilar","images/stimuli/spore_stims/simple_16_A_b.gif","","","","",""
"","2748.3500000089407","survey-multi-choice","125","754687","0.0-30.0","SS1619740057448","math_question","","","","","","","","","","","","{""Q0"":""11""}","[0]","11","",""
"","null","html-keyboard-response","126","755991","0.0-31.0-0.0","SS1619740057448","","","null","","","","","","<p><img src= images/blank.png width =""600"" height = ""600"" style=""position:fixed;top:50%; left:50%; transform: translate(-50%, -50%); border:5px solid black"">","","","","","","","",""
"","1798.5749999061227","sequential-stimulus-presentation-old","127","772941","0.0-31.0-1.0","SS1619740057448","trial","","40","500","2298.5749999061227","images/stimuli/spore_stims/complex_15_A_b.gif","images/stimuli/spore_stims/complex_06_A_a.gif","forced_long","","11","complex_dissimilar","images/stimuli/spore_stims/complex_06_A_a.gif","","","","",""
"","null","html-keyboard-response","128","774044","0.0-31.0-0.1","SS1619740057448","","","null","","","","","","<p><img src= images/blank.png width =""600"" height = ""600"" style=""position:fixed;top:50%; left:50%; transform: translate(-50%, -50%); border:5px solid black"">","","","","","","","",""
"","264.0799998771399","sequential-stimulus-presentation-old","129","774814","0.0-31.0-1.1","SS1619740057448","trial","","40","500","764.0799998771399","images/stimuli/spore_stims/complex_15_A_b.gif","images/stimuli/spore_stims/complex_06_A_a.gif","forced_long","","11","complex_dissimilar","images/stimuli/spore_stims/complex_06_A_a.gif","","","","",""
"","null","html-keyboard-response","130","775905","0.0-31.0-0.2","SS1619740057448","","","null","","","","","","<p><img src= images/blank.png width =""600"" height = ""600"" style=""position:fixed;top:50%; left:50%; transform: translate(-50%, -50%); border:5px solid black"">","","","","","","","",""
"","699.019999941811","sequential-stimulus-presentation-old","131","777112","0.0-31.0-1.2","SS1619740057448","trial","","40","500","1199.019999941811","images/stimuli/spore_stims/complex_15_A_b.gif","images/stimuli/spore_stims/complex_06_A_a.gif","forced_long","","11","complex_dissimilar","images/stimuli/spore_stims/complex_06_A_a.gif","","","","",""
"","null","html-keyboard-response","132","778359","0.0-31.0-0.3","SS1619740057448","","","null","","","","","","<p><img src= images/blank.png width =""600"" height = ""600"" style=""position:fixed;top:50%; left:50%; transform: translate(-50%, -50%); border:5px solid black"">","","","","","","","",""
"","542.6300000399351","sequential-stimulus-presentation-old","133","779406","0.0-31.0-1.3","SS1619740057448","trial","","40","500","1042.630000039935","images/stimuli/spore_stims/complex_15_A_b.gif","images/stimuli/spore_stims/complex_06_A_a.gif","forced_long","","11","complex_dissimilar","images/stimuli/spore_stims/complex_15_A_b.gif","","","","",""
"","null","html-keyboard-response","134","780662","0.0-31.0-0.4","SS1619740057448","","","null","","","","","","<p><img src= images/blank.png width =""600"" height = ""600"" style=""position:fixed;top:50%; left:50%; transform: translate(-50%, -50%); border:5px solid black"">","","","","","","","",""
"","1045.990000013262","sequential-stimulus-presentation-old","135","782217","0.0-31.0-1.4","SS1619740057448","trial","","40","500","1545.990000013262","images/stimuli/spore_stims/complex_15_A_b.gif","images/stimuli/spore_stims/complex_06_A_a.gif","forced_long","","11","complex_dissimilar","images/stimuli/spore_stims/complex_06_A_a.gif","","","","",""
"","null","html-keyboard-response","136","783250","0.0-31.0-0.5","SS1619740057448","","","null","","","","","","<p><img src= images/blank.png width =""600"" height = ""600"" style=""position:fixed;top:50%; left:50%; transform: translate(-50%, -50%); border:5px solid black"">","","","","","","","",""
"","1673.1800001580268","sequential-stimulus-presentation-old","137","785438","0.0-31.0-1.5","SS1619740057448","trial","","40","500","2173.180000158027","images/stimuli/spore_stims/complex_15_A_b.gif","images/stimuli/spore_stims/complex_06_A_a.gif","forced_long","","11","complex_dissimilar","images/stimuli/spore_stims/complex_15_A_b.gif","","","","",""
"[{""page_index"":0,""viewing_time"":3920.1849999371916}]","3920.5750001128763","instructions","138","789367","0.0-32.0","SS1619740057448","instructions","","","","","","","","","","","","","","","",""
"","12043.089999817312","survey-likert","139","801415","0.0-33.0","SS1619740057448","similarity_question","","","","","","","","","","","","{""Q0"":1}","[0]","","images/stimuli/spore_stims/simple_16_A_b.gif","images/stimuli/spore_stims/simple_04_A_a.gif"
"","7902.360000181943","survey-likert","140","809323","0.0-34.0","SS1619740057448","similarity_question","","","","","","","","","","","","{""Q0"":1}","[0]","","images/stimuli/spore_stims/simple_10_A_b.gif","images/stimuli/spore_stims/simple_07_A_a.gif"
"","4267.835000064224","survey-likert","141","813596","0.0-35.0","SS1619740057448","similarity_question","","","","","","","","","","","","{""Q0"":4}","[0]","","images/stimuli/spore_stims/simple_14_A_a.gif","images/stimuli/spore_stims/simple_15_A_b.gif"
"","12953.944999957457","survey-likert","142","826554","0.0-36.0","SS1619740057448","similarity_question","","","","","","","","","","","","{""Q0"":3}","[0]","","images/stimuli/spore_stims/complex_06_A_a.gif","images/stimuli/spore_stims/complex_15_A_b.gif"
"","8342.639999929816","survey-likert","143","834902","0.0-37.0","SS1619740057448","similarity_question","","","","","","","","","","","","{""Q0"":2}","[0]","","images/stimuli/spore_stims/complex_11_A_a.gif","images/stimuli/spore_stims/complex_12_A_b.gif"
"","7436.384999891743","survey-likert","144","842345","0.0-38.0","SS1619740057448","similarity_question","","","","","","","","","","","","{""Q0"":1}","[0]","","images/stimuli/spore_stims/complex_18_A_a.gif","images/stimuli/spore_stims/complex_19_A_b.gif"
"","5694.649999961257","survey-likert","145","848045","0.0-39.0","SS1619740057448","similarity_question","","","","","","","","","","","","{""Q0"":0}","[0]","","images/stimuli/spore_stims/complex_20_A_a.gif","images/stimuli/spore_stims/complex_05_A_b.gif"
"","3871.0750001482666","survey-likert","146","851921","0.0-40.0","SS1619740057448","similarity_question","","","","","","","","","","","","{""Q0"":5}","[0]","","images/stimuli/spore_stims/simple_01_A_a.gif","images/stimuli/spore_stims/simple_03_A_b.gif"
"","3036.8250000756234","survey-likert","147","854962","0.0-41.0","SS1619740057448","similarity_question","","","","","","","","","","","","{""Q0"":6}","[0]","","images/stimuli/spore_stims/simple_13_A_b.gif","images/stimuli/spore_stims/simple_05_A_a.gif"
"","4121.925000101328","survey-likert","148","859089","0.0-42.0","SS1619740057448","similarity_question","","","","","","","","","","","","{""Q0"":2}","[0]","","images/stimuli/spore_stims/simple_19_A_a.gif","images/stimuli/spore_stims/simple_07_A_b.gif"
"","3296.68499995023","survey-likert","149","862392","0.0-43.0","SS1619740057448","similarity_question","","","","","","","","","","","","{""Q0"":1}","[0]","","images/stimuli/spore_stims/complex_09_A_a.gif","images/stimuli/spore_stims/complex_18_A_b.gif"
"","5913.500000024214","survey-likert","150","868310","0.0-44.0","SS1619740057448","similarity_question","","","","","","","","","","","","{""Q0"":2}","[0]","","images/stimuli/spore_stims/complex_15_A_a.gif","images/stimuli/spore_stims/complex_11_A_b.gif"
"[{""page_index"":0,""viewing_time"":3387.9899999592453}]","3388.264999957755","instructions","151","871702","0.0-45.0","SS1619740057448","instructions","","","","","","","","","","","","","","","",""
"","4089.9750001262873","survey-likert","152","875797","0.0-46.0","SS1619740057448","","","","","","","","","images/stimuli/spore_stims/complex_18_A_b.gif","","","","{""Q0"":5}","[0]","","",""
"","3074.470000108704","survey-likert","153","878876","0.0-47.0","SS1619740057448","","","","","","","","","images/stimuli/spore_stims/complex_05_A_b.gif","","","","{""Q0"":4}","[0]","","",""
"","6427.420000080019","survey-likert","154","885309","0.0-48.0","SS1619740057448","","","","","","","","","images/stimuli/spore_stims/simple_10_A_b.gif","","","","{""Q0"":1}","[0]","","",""
"","3686.9449999649078","survey-likert","155","889000","0.0-49.0","SS1619740057448","","","","","","","","","images/stimuli/spore_stims/simple_14_A_a.gif","","","","{""Q0"":2}","[0]","","",""
"","4582.725000102073","survey-likert","156","893588","0.0-50.0","SS1619740057448","","","","","","","","","images/stimuli/spore_stims/complex_18_A_a.gif","","","","{""Q0"":5}","[0]","","",""
"","2839.0199998393655","survey-likert","157","896433","0.0-51.0","SS1619740057448","","","","","","","","","images/stimuli/spore_stims/complex_12_A_b.gif","","","","{""Q0"":5}","[0]","","",""
"","3239.2249999102205","survey-likert","158","899678","0.0-52.0","SS1619740057448","","","","","","","","","images/stimuli/spore_stims/complex_06_A_a.gif","","","","{""Q0"":5}","[0]","","",""
"","4363.0349999293685","survey-likert","159","904045","0.0-53.0","SS1619740057448","","","","","","","","","images/stimuli/spore_stims/simple_03_A_b.gif","","","","{""Q0"":1}","[0]","","",""
"","2440.7749997917563","survey-likert","160","906491","0.0-54.0","SS1619740057448","","","","","","","","","images/stimuli/spore_stims/simple_04_A_a.gif","","","","{""Q0"":1}","[0]","","",""
"","2065.8299999777228","survey-likert","161","908562","0.0-55.0","SS1619740057448","","","","","","","","","images/stimuli/spore_stims/simple_05_A_a.gif","","","","{""Q0"":0}","[0]","","",""
"","3109.1199999209493","survey-likert","162","911676","0.0-56.0","SS1619740057448","","","","","","","","","images/stimuli/spore_stims/simple_07_A_b.gif","","","","{""Q0"":0}","[0]","","",""
"","4616.385000059381","survey-likert","163","916298","0.0-57.0","SS1619740057448","","","","","","","","","images/stimuli/spore_stims/complex_15_A_a.gif","","","","{""Q0"":6}","[0]","","",""
"[{""page_index"":0,""viewing_time"":2679.054999956861}]","2679.3549999129027","instructions","164","918982","0.0-58.0","SS1619740057448","instructions","","","","","","","","","","","","","","","",""
"","2548.0150000657886","demog-age","165","921535","0.0-59.0","SS1619740057448","","","","","","","","","","","","","{""age"":""29""}","","","",""
"","3420.909999869764","demog-ethnic-US","166","924963","0.0-60.0","SS1619740057448","","","","","","","","","","","","","{""ethnicity"":[""White""]}","[0]","","",""
"","3958.0449999775738","demog-gender-and-education","167","928928","0.0-61.0","SS1619740057448","","","","","","","","","","","","","{""gender"":""Male"",""education"":""Bachelor's Degree""}","[0,1]","","",""
"","33322.27999996394","survey-text","168","962259","0.0-62.0","SS1619740057448","feedback","","","","","","","","","","","","{""Q0"":""Got the mood to play some Spore again :)""}","","","",""
"[{""page_index"":0,""viewing_time"":3490.3800000902265}]","3490.660000126809","instructions","169","965753","0.0-63.0","SS1619740057448","instructions","","","","","","","","","","","","","","","",""
