"view_history","rt","trial_type","trial_index","time_elapsed","internal_node_id","subject","stimulus_type","trial_stimulus","key_press","minimum_viewing_duration","trial_looking_time","block_deviant","block_background","exposure_type","stimulus","block_number","block_type","stimulus_displayed","responses","question_order","math_correct_answer","stimulus_left","stimulus_right"
"[{""page_index"":0,""viewing_time"":6461.8849999969825}]","6462.379999997211","instructions","0","6463","0.0-0.0","SS1619739895095","","","","","","","","","","","","","","","","",""
"[{""page_index"":0,""viewing_time"":14119.27000000287},{""page_index"":1,""viewing_time"":3570.0250000008964}]","17689.500000000407","instructions","1","26168","0.0-1.0","SS1619739895095","instructions","","","","","","","","","","","","","","","",""
"","10147.239999998419","sequential-stimulus-presentation-old","2","36818","0.0-2.0","SS1619739895095","","","40","500","10647.239999998419","null","null","self_paced","","","","","","","","",""
"","4169.450000001234","sequential-stimulus-presentation-old","3","41490","0.0-3.0","SS1619739895095","","","40","500","4669.450000001234","null","null","self_paced","","","","","","","","",""
"[{""page_index"":0,""viewing_time"":15353.224999998929}]","15353.385000002163","instructions","4","56844","0.0-4.0","SS1619739895095","instructions","","","","","","","","","","","","","","","",""
"","2156.380000000354","sequential-stimulus-presentation-old","5","74002","0.0-5.0","SS1619739895095","","","40","500","2656.380000000354","null","null","forced_long","","","","","","","","",""
"","2410.360000001674","sequential-stimulus-presentation-old","6","76914","0.0-6.0","SS1619739895095","","","40","500","2910.360000001674","null","null","forced_long","","","","","","","","",""
"[{""page_index"":0,""viewing_time"":2693.070000001171}]","2693.22000000102","instructions","7","79608","0.0-7.0","SS1619739895095","instructions","","","","","","","","","","","","","","","",""
"[{""page_index"":0,""viewing_time"":6981.230000004871},{""page_index"":1,""viewing_time"":7899.044999998296},{""page_index"":2,""viewing_time"":5390.08499999909},{""page_index"":3,""viewing_time"":1635.8200000031502},{""page_index"":4,""viewing_time"":772.1400000009453}]","22678.5200000013","instructions","8","102286","0.0-8.0","SS1619739895095","instructions","","","","","","","","","","","","","","","",""
"","null","html-keyboard-response","9","103295","0.0-9.0-0.0","SS1619739895095","","","null","","","","","","<p><img src= images/blank.png width =""600"" height = ""600"" style=""position:fixed;top:50%; left:50%; transform: translate(-50%, -50%); border:5px solid black"">","","","","","","","",""
"","5531.459999998333","sequential-stimulus-presentation-old","10","109329","0.0-9.0-1.0","SS1619739895095","trial","","40","500","6031.459999998333","images/stimuli/spore_stims/complex_18_A_a.gif","images/stimuli/spore_stims/complex_13_A_b.gif","self_paced","","0","complex_dissimilar","images/stimuli/spore_stims/complex_13_A_b.gif","","","","",""
"","null","html-keyboard-response","11","110594","0.0-9.0-0.1","SS1619739895095","","","null","","","","","","<p><img src= images/blank.png width =""600"" height = ""600"" style=""position:fixed;top:50%; left:50%; transform: translate(-50%, -50%); border:5px solid black"">","","","","","","","",""
"","3720.5849999954808","sequential-stimulus-presentation-old","12","114817","0.0-9.0-1.1","SS1619739895095","trial","","40","500","4220.584999995481","images/stimuli/spore_stims/complex_18_A_a.gif","images/stimuli/spore_stims/complex_13_A_b.gif","self_paced","","0","complex_dissimilar","images/stimuli/spore_stims/complex_13_A_b.gif","","","","",""
"","null","html-keyboard-response","13","115680","0.0-9.0-0.2","SS1619739895095","","","null","","","","","","<p><img src= images/blank.png width =""600"" height = ""600"" style=""position:fixed;top:50%; left:50%; transform: translate(-50%, -50%); border:5px solid black"">","","","","","","","",""
"","2626.2300000016694","sequential-stimulus-presentation-old","14","118809","0.0-9.0-1.2","SS1619739895095","trial","","40","500","3126.2300000016694","images/stimuli/spore_stims/complex_18_A_a.gif","images/stimuli/spore_stims/complex_13_A_b.gif","self_paced","","0","complex_dissimilar","images/stimuli/spore_stims/complex_13_A_b.gif","","","","",""
"","null","html-keyboard-response","15","120039","0.0-9.0-0.3","SS1619739895095","","","null","","","","","","<p><img src= images/blank.png width =""600"" height = ""600"" style=""position:fixed;top:50%; left:50%; transform: translate(-50%, -50%); border:5px solid black"">","","","","","","","",""
"","2186.184999998659","sequential-stimulus-presentation-old","16","122729","0.0-9.0-1.3","SS1619739895095","trial","","40","500","2686.184999998659","images/stimuli/spore_stims/complex_18_A_a.gif","images/stimuli/spore_stims/complex_13_A_b.gif","self_paced","","0","complex_dissimilar","images/stimuli/spore_stims/complex_13_A_b.gif","","","","",""
"","null","html-keyboard-response","17","124012","0.0-9.0-0.4","SS1619739895095","","","null","","","","","","<p><img src= images/blank.png width =""600"" height = ""600"" style=""position:fixed;top:50%; left:50%; transform: translate(-50%, -50%); border:5px solid black"">","","","","","","","",""
"","1189.5750000039698","sequential-stimulus-presentation-old","18","125705","0.0-9.0-1.4","SS1619739895095","trial","","40","500","1689.5750000039698","images/stimuli/spore_stims/complex_18_A_a.gif","images/stimuli/spore_stims/complex_13_A_b.gif","self_paced","","0","complex_dissimilar","images/stimuli/spore_stims/complex_13_A_b.gif","","","","",""
"","null","html-keyboard-response","19","126627","0.0-9.0-0.5","SS1619739895095","","","null","","","","","","<p><img src= images/blank.png width =""600"" height = ""600"" style=""position:fixed;top:50%; left:50%; transform: translate(-50%, -50%); border:5px solid black"">","","","","","","","",""
"","3063.1849999990663","sequential-stimulus-presentation-old","20","130193","0.0-9.0-1.5","SS1619739895095","trial","","40","500","3563.1849999990663","images/stimuli/spore_stims/complex_18_A_a.gif","images/stimuli/spore_stims/complex_13_A_b.gif","self_paced","","0","complex_dissimilar","images/stimuli/spore_stims/complex_18_A_a.gif","","","","",""
"","4100.850000002538","survey-multi-choice","21","134295","0.0-10.0","SS1619739895095","math_question","","","","","","","","","","","","{""Q0"":""9""}","[0]","9","",""
"","null","html-keyboard-response","22","135523","0.0-11.0-0.0","SS1619739895095","","","null","","","","","","<p><img src= images/blank.png width =""600"" height = ""600"" style=""position:fixed;top:50%; left:50%; transform: translate(-50%, -50%); border:5px solid black"">","","","","","","","",""
"","1847.2249999977066","sequential-stimulus-presentation-old","23","137873","0.0-11.0-1.0","SS1619739895095","trial","","40","500","2347.2249999977066","images/stimuli/spore_stims/simple_19_A_b.gif","images/stimuli/spore_stims/simple_09_A_a.gif","forced_short","","1","simple_dissimilar","images/stimuli/spore_stims/simple_09_A_a.gif","","","","",""
"","null","html-keyboard-response","24","139172","0.0-11.0-0.1","SS1619739895095","","","null","","","","","","<p><img src= images/blank.png width =""600"" height = ""600"" style=""position:fixed;top:50%; left:50%; transform: translate(-50%, -50%); border:5px solid black"">","","","","","","","",""
"","2453.1449999994948","sequential-stimulus-presentation-old","25","142129","0.0-11.0-1.1","SS1619739895095","trial","","40","500","2953.1449999994948","images/stimuli/spore_stims/simple_19_A_b.gif","images/stimuli/spore_stims/simple_09_A_a.gif","forced_short","","1","simple_dissimilar","images/stimuli/spore_stims/simple_09_A_a.gif","","","","",""
"","null","html-keyboard-response","26","142985","0.0-11.0-0.2","SS1619739895095","","","null","","","","","","<p><img src= images/blank.png width =""600"" height = ""600"" style=""position:fixed;top:50%; left:50%; transform: translate(-50%, -50%); border:5px solid black"">","","","","","","","",""
"","528.2349999979488","sequential-stimulus-presentation-old","27","144017","0.0-11.0-1.2","SS1619739895095","trial","","40","500","1028.2349999979488","images/stimuli/spore_stims/simple_19_A_b.gif","images/stimuli/spore_stims/simple_09_A_a.gif","forced_short","","1","simple_dissimilar","images/stimuli/spore_stims/simple_09_A_a.gif","","","","",""
"","null","html-keyboard-response","28","145294","0.0-11.0-0.3","SS1619739895095","","","null","","","","","","<p><img src= images/blank.png width =""600"" height = ""600"" style=""position:fixed;top:50%; left:50%; transform: translate(-50%, -50%); border:5px solid black"">","","","","","","","",""
"","1563.1199999988894","sequential-stimulus-presentation-old","29","147361","0.0-11.0-1.3","SS1619739895095","trial","","40","500","2063.1199999988894","images/stimuli/spore_stims/simple_19_A_b.gif","images/stimuli/spore_stims/simple_09_A_a.gif","forced_short","","1","simple_dissimilar","images/stimuli/spore_stims/simple_19_A_b.gif","","","","",""
"","null","html-keyboard-response","30","148611","0.0-11.0-0.4","SS1619739895095","","","null","","","","","","<p><img src= images/blank.png width =""600"" height = ""600"" style=""position:fixed;top:50%; left:50%; transform: translate(-50%, -50%); border:5px solid black"">","","","","","","","",""
"","726.2199999968288","sequential-stimulus-presentation-old","31","149841","0.0-11.0-1.4","SS1619739895095","trial","","40","500","1226.2199999968288","images/stimuli/spore_stims/simple_19_A_b.gif","images/stimuli/spore_stims/simple_09_A_a.gif","forced_short","","1","simple_dissimilar","images/stimuli/spore_stims/simple_09_A_a.gif","","","","",""
"","null","html-keyboard-response","32","150816","0.0-11.0-0.5","SS1619739895095","","","null","","","","","","<p><img src= images/blank.png width =""600"" height = ""600"" style=""position:fixed;top:50%; left:50%; transform: translate(-50%, -50%); border:5px solid black"">","","","","","","","",""
"","633.1599999975879","sequential-stimulus-presentation-old","33","151953","0.0-11.0-1.5","SS1619739895095","trial","","40","500","1133.1599999975879","images/stimuli/spore_stims/simple_19_A_b.gif","images/stimuli/spore_stims/simple_09_A_a.gif","forced_short","","1","simple_dissimilar","images/stimuli/spore_stims/simple_09_A_a.gif","","","","",""
"","3459.564999997383","survey-multi-choice","34","155414","0.0-12.0","SS1619739895095","math_question","","","","","","","","","","","","{""Q0"":""6""}","[0]","6","",""
"","null","html-keyboard-response","35","156563","0.0-13.0-0.0","SS1619739895095","","","null","","","","","","<p><img src= images/blank.png width =""600"" height = ""600"" style=""position:fixed;top:50%; left:50%; transform: translate(-50%, -50%); border:5px solid black"">","","","","","","","",""
"","602.3550000027171","sequential-stimulus-presentation-old","36","172170","0.0-13.0-1.0","SS1619739895095","trial","","40","500","1102.3550000027171","images/stimuli/spore_stims/complex_08_A_b.gif","images/stimuli/spore_stims/complex_17_A_a.gif","forced_long","","2","complex_dissimilar","images/stimuli/spore_stims/complex_17_A_a.gif","","","","",""
"","null","html-keyboard-response","37","173360","0.0-13.0-0.1","SS1619739895095","","","null","","","","","","<p><img src= images/blank.png width =""600"" height = ""600"" style=""position:fixed;top:50%; left:50%; transform: translate(-50%, -50%); border:5px solid black"">","","","","","","","",""
"","1401.8050000013318","sequential-stimulus-presentation-old","38","175265","0.0-13.0-1.1","SS1619739895095","trial","","40","500","1901.8050000013318","images/stimuli/spore_stims/complex_08_A_b.gif","images/stimuli/spore_stims/complex_17_A_a.gif","forced_long","","2","complex_dissimilar","images/stimuli/spore_stims/complex_08_A_b.gif","","","","",""
"","null","html-keyboard-response","39","176535","0.0-13.0-0.2","SS1619739895095","","","null","","","","","","<p><img src= images/blank.png width =""600"" height = ""600"" style=""position:fixed;top:50%; left:50%; transform: translate(-50%, -50%); border:5px solid black"">","","","","","","","",""
"","1114.6149999985937","sequential-stimulus-presentation-old","40","178153","0.0-13.0-1.2","SS1619739895095","trial","","40","500","1614.6149999985937","images/stimuli/spore_stims/complex_08_A_b.gif","images/stimuli/spore_stims/complex_17_A_a.gif","forced_long","","2","complex_dissimilar","images/stimuli/spore_stims/complex_08_A_b.gif","","","","",""
"","null","html-keyboard-response","41","178976","0.0-13.0-0.3","SS1619739895095","","","null","","","","","","<p><img src= images/blank.png width =""600"" height = ""600"" style=""position:fixed;top:50%; left:50%; transform: translate(-50%, -50%); border:5px solid black"">","","","","","","","",""
"","1538.0650000006426","sequential-stimulus-presentation-old","42","181017","0.0-13.0-1.3","SS1619739895095","trial","","40","500","2038.0650000006426","images/stimuli/spore_stims/complex_08_A_b.gif","images/stimuli/spore_stims/complex_17_A_a.gif","forced_long","","2","complex_dissimilar","images/stimuli/spore_stims/complex_17_A_a.gif","","","","",""
"","3266.284999997879","survey-multi-choice","43","184286","0.0-14.0","SS1619739895095","math_question","","","","","","","","","","","","{""Q0"":""5""}","[0]","5","",""
"","null","html-keyboard-response","44","185467","0.0-15.0-0.0","SS1619739895095","","","null","","","","","","<p><img src= images/blank.png width =""600"" height = ""600"" style=""position:fixed;top:50%; left:50%; transform: translate(-50%, -50%); border:5px solid black"">","","","","","","","",""
"","1655.0749999951222","sequential-stimulus-presentation-old","45","187625","0.0-15.0-1.0","SS1619739895095","trial","","40","500","2155.074999995122","images/stimuli/spore_stims/simple_18_A_b.gif","images/stimuli/spore_stims/simple_10_A_a.gif","self_paced","","3","simple_dissimilar","images/stimuli/spore_stims/simple_10_A_a.gif","","","","",""
"","null","html-keyboard-response","46","188429","0.0-15.0-0.1","SS1619739895095","","","null","","","","","","<p><img src= images/blank.png width =""600"" height = ""600"" style=""position:fixed;top:50%; left:50%; transform: translate(-50%, -50%); border:5px solid black"">","","","","","","","",""
"","1022.1999999994296","sequential-stimulus-presentation-old","47","189956","0.0-15.0-1.1","SS1619739895095","trial","","40","500","1522.1999999994296","images/stimuli/spore_stims/simple_18_A_b.gif","images/stimuli/spore_stims/simple_10_A_a.gif","self_paced","","3","simple_dissimilar","images/stimuli/spore_stims/simple_18_A_b.gif","","","","",""
"","null","html-keyboard-response","48","190926","0.0-15.0-0.2","SS1619739895095","","","null","","","","","","<p><img src= images/blank.png width =""600"" height = ""600"" style=""position:fixed;top:50%; left:50%; transform: translate(-50%, -50%); border:5px solid black"">","","","","","","","",""
"","1870.230000000447","sequential-stimulus-presentation-old","49","193300","0.0-15.0-1.2","SS1619739895095","trial","","40","500","2370.230000000447","images/stimuli/spore_stims/simple_18_A_b.gif","images/stimuli/spore_stims/simple_10_A_a.gif","self_paced","","3","simple_dissimilar","images/stimuli/spore_stims/simple_10_A_a.gif","","","","",""
"","null","html-keyboard-response","50","194484","0.0-15.0-0.3","SS1619739895095","","","null","","","","","","<p><img src= images/blank.png width =""600"" height = ""600"" style=""position:fixed;top:50%; left:50%; transform: translate(-50%, -50%); border:5px solid black"">","","","","","","","",""
"","1733.2549999991897","sequential-stimulus-presentation-old","51","196722","0.0-15.0-1.3","SS1619739895095","trial","","40","500","2233.2549999991897","images/stimuli/spore_stims/simple_18_A_b.gif","images/stimuli/spore_stims/simple_10_A_a.gif","self_paced","","3","simple_dissimilar","images/stimuli/spore_stims/simple_18_A_b.gif","","","","",""
"","2949.2350000000442","survey-multi-choice","52","199673","0.0-16.0","SS1619739895095","math_question","","","","","","","","","","","","{""Q0"":""14""}","[0]","14","",""
"","null","html-keyboard-response","53","200826","0.0-17.0-0.0","SS1619739895095","","","null","","","","","","<p><img src= images/blank.png width =""600"" height = ""600"" style=""position:fixed;top:50%; left:50%; transform: translate(-50%, -50%); border:5px solid black"">","","","","","","","",""
"","996.049999994284","sequential-stimulus-presentation-old","54","216826","0.0-17.0-1.0","SS1619739895095","trial","","40","500","1496.049999994284","images/stimuli/spore_stims/simple_17_A_b.gif","images/stimuli/spore_stims/simple_06_A_a.gif","forced_long","","4","simple_dissimilar","images/stimuli/spore_stims/simple_06_A_a.gif","","","","",""
"","null","html-keyboard-response","55","218110","0.0-17.0-0.1","SS1619739895095","","","null","","","","","","<p><img src= images/blank.png width =""600"" height = ""600"" style=""position:fixed;top:50%; left:50%; transform: translate(-50%, -50%); border:5px solid black"">","","","","","","","",""
"","4739.945000001171","sequential-stimulus-presentation-old","56","223353","0.0-17.0-1.1","SS1619739895095","trial","","40","500","5239.945000001171","images/stimuli/spore_stims/simple_17_A_b.gif","images/stimuli/spore_stims/simple_06_A_a.gif","forced_long","","4","simple_dissimilar","images/stimuli/spore_stims/simple_06_A_a.gif","","","","",""
"","null","html-keyboard-response","57","224436","0.0-17.0-0.2","SS1619739895095","","","null","","","","","","<p><img src= images/blank.png width =""600"" height = ""600"" style=""position:fixed;top:50%; left:50%; transform: translate(-50%, -50%); border:5px solid black"">","","","","","","","",""
"","2725.0700000004144","sequential-stimulus-presentation-old","58","227665","0.0-17.0-1.2","SS1619739895095","trial","","40","500","3225.0700000004144","images/stimuli/spore_stims/simple_17_A_b.gif","images/stimuli/spore_stims/simple_06_A_a.gif","forced_long","","4","simple_dissimilar","images/stimuli/spore_stims/simple_06_A_a.gif","","","","",""
"","null","html-keyboard-response","59","228857","0.0-17.0-0.3","SS1619739895095","","","null","","","","","","<p><img src= images/blank.png width =""600"" height = ""600"" style=""position:fixed;top:50%; left:50%; transform: translate(-50%, -50%); border:5px solid black"">","","","","","","","",""
"","1055.914999997185","sequential-stimulus-presentation-old","60","230417","0.0-17.0-1.3","SS1619739895095","trial","","40","500","1555.914999997185","images/stimuli/spore_stims/simple_17_A_b.gif","images/stimuli/spore_stims/simple_06_A_a.gif","forced_long","","4","simple_dissimilar","images/stimuli/spore_stims/simple_06_A_a.gif","","","","",""
"","3710.1850000035483","survey-multi-choice","61","234130","0.0-18.0","SS1619739895095","math_question","","","","","","","","","","","","{""Q0"":""9""}","[0]","9","",""
"","null","html-keyboard-response","62","235427","0.0-19.0-0.0","SS1619739895095","","","null","","","","","","<p><img src= images/blank.png width =""600"" height = ""600"" style=""position:fixed;top:50%; left:50%; transform: translate(-50%, -50%); border:5px solid black"">","","","","","","","",""
"","1557.9200000065612","sequential-stimulus-presentation-old","63","237489","0.0-19.0-1.0","SS1619739895095","trial","","40","500","2057.920000006561","images/stimuli/spore_stims/simple_06_A_b.gif","images/stimuli/spore_stims/simple_16_A_a.gif","self_paced","","5","simple_dissimilar","images/stimuli/spore_stims/simple_16_A_a.gif","","","","",""
"","null","html-keyboard-response","64","238671","0.0-19.0-0.1","SS1619739895095","","","null","","","","","","<p><img src= images/blank.png width =""600"" height = ""600"" style=""position:fixed;top:50%; left:50%; transform: translate(-50%, -50%); border:5px solid black"">","","","","","","","",""
"","641.765000000305","sequential-stimulus-presentation-old","65","239817","0.0-19.0-1.1","SS1619739895095","trial","","40","500","1141.765000000305","images/stimuli/spore_stims/simple_06_A_b.gif","images/stimuli/spore_stims/simple_16_A_a.gif","self_paced","","5","simple_dissimilar","images/stimuli/spore_stims/simple_16_A_a.gif","","","","",""
"","null","html-keyboard-response","66","240755","0.0-19.0-0.2","SS1619739895095","","","null","","","","","","<p><img src= images/blank.png width =""600"" height = ""600"" style=""position:fixed;top:50%; left:50%; transform: translate(-50%, -50%); border:5px solid black"">","","","","","","","",""
"","910.8500000002095","sequential-stimulus-presentation-old","67","242169","0.0-19.0-1.2","SS1619739895095","trial","","40","500","1410.8500000002095","images/stimuli/spore_stims/simple_06_A_b.gif","images/stimuli/spore_stims/simple_16_A_a.gif","self_paced","","5","simple_dissimilar","images/stimuli/spore_stims/simple_16_A_a.gif","","","","",""
"","null","html-keyboard-response","68","243184","0.0-19.0-0.3","SS1619739895095","","","null","","","","","","<p><img src= images/blank.png width =""600"" height = ""600"" style=""position:fixed;top:50%; left:50%; transform: translate(-50%, -50%); border:5px solid black"">","","","","","","","",""
"","592.9200000027777","sequential-stimulus-presentation-old","69","244281","0.0-19.0-1.3","SS1619739895095","trial","","40","500","1092.9200000027777","images/stimuli/spore_stims/simple_06_A_b.gif","images/stimuli/spore_stims/simple_16_A_a.gif","self_paced","","5","simple_dissimilar","images/stimuli/spore_stims/simple_16_A_a.gif","","","","",""
"","null","html-keyboard-response","70","245392","0.0-19.0-0.4","SS1619739895095","","","null","","","","","","<p><img src= images/blank.png width =""600"" height = ""600"" style=""position:fixed;top:50%; left:50%; transform: translate(-50%, -50%); border:5px solid black"">","","","","","","","",""
"","680.8650000020862","sequential-stimulus-presentation-old","71","246577","0.0-19.0-1.4","SS1619739895095","trial","","40","500","1180.8650000020862","images/stimuli/spore_stims/simple_06_A_b.gif","images/stimuli/spore_stims/simple_16_A_a.gif","self_paced","","5","simple_dissimilar","images/stimuli/spore_stims/simple_16_A_a.gif","","","","",""
"","null","html-keyboard-response","72","247792","0.0-19.0-0.5","SS1619739895095","","","null","","","","","","<p><img src= images/blank.png width =""600"" height = ""600"" style=""position:fixed;top:50%; left:50%; transform: translate(-50%, -50%); border:5px solid black"">","","","","","","","",""
"","513.9949999938835","sequential-stimulus-presentation-old","73","248810","0.0-19.0-1.5","SS1619739895095","trial","","40","500","1013.9949999938835","images/stimuli/spore_stims/simple_06_A_b.gif","images/stimuli/spore_stims/simple_16_A_a.gif","self_paced","","5","simple_dissimilar","images/stimuli/spore_stims/simple_16_A_a.gif","","","","",""
"","4759.154999999737","survey-multi-choice","74","253573","0.0-20.0","SS1619739895095","math_question","","","","","","","","","","","","{""Q0"":""16""}","[0]","16","",""
"","null","html-keyboard-response","75","254588","0.0-21.0-0.0","SS1619739895095","","","null","","","","","","<p><img src= images/blank.png width =""600"" height = ""600"" style=""position:fixed;top:50%; left:50%; transform: translate(-50%, -50%); border:5px solid black"">","","","","","","","",""
"","615.9000000043306","sequential-stimulus-presentation-old","76","270209","0.0-21.0-1.0","SS1619739895095","trial","","40","500","1115.9000000043306","images/stimuli/spore_stims/complex_05_A_a.gif","images/stimuli/spore_stims/complex_10_A_b.gif","forced_long","","6","complex_dissimilar","images/stimuli/spore_stims/complex_10_A_b.gif","","","","",""
"","null","html-keyboard-response","77","271292","0.0-21.0-0.1","SS1619739895095","","","null","","","","","","<p><img src= images/blank.png width =""600"" height = ""600"" style=""position:fixed;top:50%; left:50%; transform: translate(-50%, -50%); border:5px solid black"">","","","","","","","",""
"","1804.5549999951618","sequential-stimulus-presentation-old","78","273601","0.0-21.0-1.1","SS1619739895095","trial","","40","500","2304.554999995162","images/stimuli/spore_stims/complex_05_A_a.gif","images/stimuli/spore_stims/complex_10_A_b.gif","forced_long","","6","complex_dissimilar","images/stimuli/spore_stims/complex_05_A_a.gif","","","","",""
"","null","html-keyboard-response","79","274482","0.0-21.0-0.2","SS1619739895095","","","null","","","","","","<p><img src= images/blank.png width =""600"" height = ""600"" style=""position:fixed;top:50%; left:50%; transform: translate(-50%, -50%); border:5px solid black"">","","","","","","","",""
"","686.3250000023982","sequential-stimulus-presentation-old","80","275673","0.0-21.0-1.2","SS1619739895095","trial","","40","500","1186.3250000023982","images/stimuli/spore_stims/complex_05_A_a.gif","images/stimuli/spore_stims/complex_10_A_b.gif","forced_long","","6","complex_dissimilar","images/stimuli/spore_stims/complex_10_A_b.gif","","","","",""
"","null","html-keyboard-response","81","276860","0.0-21.0-0.3","SS1619739895095","","","null","","","","","","<p><img src= images/blank.png width =""600"" height = ""600"" style=""position:fixed;top:50%; left:50%; transform: translate(-50%, -50%); border:5px solid black"">","","","","","","","",""
"","691.8000000005122","sequential-stimulus-presentation-old","82","278057","0.0-21.0-1.3","SS1619739895095","trial","","40","500","1191.8000000005122","images/stimuli/spore_stims/complex_05_A_a.gif","images/stimuli/spore_stims/complex_10_A_b.gif","forced_long","","6","complex_dissimilar","images/stimuli/spore_stims/complex_05_A_a.gif","","","","",""
"","null","html-keyboard-response","83","278999","0.0-21.0-0.4","SS1619739895095","","","null","","","","","","<p><img src= images/blank.png width =""600"" height = ""600"" style=""position:fixed;top:50%; left:50%; transform: translate(-50%, -50%); border:5px solid black"">","","","","","","","",""
"","266.1200000002282","sequential-stimulus-presentation-old","84","279769","0.0-21.0-1.4","SS1619739895095","trial","","40","500","766.1200000002282","images/stimuli/spore_stims/complex_05_A_a.gif","images/stimuli/spore_stims/complex_10_A_b.gif","forced_long","","6","complex_dissimilar","images/stimuli/spore_stims/complex_10_A_b.gif","","","","",""
"","null","html-keyboard-response","85","280707","0.0-21.0-0.5","SS1619739895095","","","null","","","","","","<p><img src= images/blank.png width =""600"" height = ""600"" style=""position:fixed;top:50%; left:50%; transform: translate(-50%, -50%); border:5px solid black"">","","","","","","","",""
"","335.67999999650056","sequential-stimulus-presentation-old","86","281547","0.0-21.0-1.5","SS1619739895095","trial","","40","500","835.6799999965006","images/stimuli/spore_stims/complex_05_A_a.gif","images/stimuli/spore_stims/complex_10_A_b.gif","forced_long","","6","complex_dissimilar","images/stimuli/spore_stims/complex_10_A_b.gif","","","","",""
"","3034.319999998843","survey-multi-choice","87","284584","0.0-22.0","SS1619739895095","math_question","","","","","","","","","","","","{""Q0"":""10""}","[0]","10","",""
"","null","html-keyboard-response","88","285773","0.0-23.0-0.0","SS1619739895095","","","null","","","","","","<p><img src= images/blank.png width =""600"" height = ""600"" style=""position:fixed;top:50%; left:50%; transform: translate(-50%, -50%); border:5px solid black"">","","","","","","","",""
"","10599.77500000241","sequential-stimulus-presentation-old","89","311377","0.0-23.0-1.0","SS1619739895095","trial","","40","500","11099.77500000241","images/stimuli/spore_stims/simple_07_A_a.gif","images/stimuli/spore_stims/simple_02_A_b.gif","forced_long","","7","simple_dissimilar","images/stimuli/spore_stims/simple_02_A_b.gif","","","","",""
"","null","html-keyboard-response","90","312387","0.0-23.0-0.1","SS1619739895095","","","null","","","","","","<p><img src= images/blank.png width =""600"" height = ""600"" style=""position:fixed;top:50%; left:50%; transform: translate(-50%, -50%); border:5px solid black"">","","","","","","","",""
"","1436.6699999955017","sequential-stimulus-presentation-old","91","314329","0.0-23.0-1.1","SS1619739895095","trial","","40","500","1936.6699999955017","images/stimuli/spore_stims/simple_07_A_a.gif","images/stimuli/spore_stims/simple_02_A_b.gif","forced_long","","7","simple_dissimilar","images/stimuli/spore_stims/simple_07_A_a.gif","","","","",""
"","null","html-keyboard-response","92","315340","0.0-23.0-0.2","SS1619739895095","","","null","","","","","","<p><img src= images/blank.png width =""600"" height = ""600"" style=""position:fixed;top:50%; left:50%; transform: translate(-50%, -50%); border:5px solid black"">","","","","","","","",""
"","372.6749999987078","sequential-stimulus-presentation-old","93","316217","0.0-23.0-1.2","SS1619739895095","trial","","40","500","872.6749999987078","images/stimuli/spore_stims/simple_07_A_a.gif","images/stimuli/spore_stims/simple_02_A_b.gif","forced_long","","7","simple_dissimilar","images/stimuli/spore_stims/simple_02_A_b.gif","","","","",""
"","null","html-keyboard-response","94","317201","0.0-23.0-0.3","SS1619739895095","","","null","","","","","","<p><img src= images/blank.png width =""600"" height = ""600"" style=""position:fixed;top:50%; left:50%; transform: translate(-50%, -50%); border:5px solid black"">","","","","","","","",""
"","54.66500000329688","sequential-stimulus-presentation-old","95","317761","0.0-23.0-1.3","SS1619739895095","trial","","40","500","554.6650000032969","images/stimuli/spore_stims/simple_07_A_a.gif","images/stimuli/spore_stims/simple_02_A_b.gif","forced_long","","7","simple_dissimilar","images/stimuli/spore_stims/simple_02_A_b.gif","","","","",""
"","null","html-keyboard-response","96","318792","0.0-23.0-0.4","SS1619739895095","","","null","","","","","","<p><img src= images/blank.png width =""600"" height = ""600"" style=""position:fixed;top:50%; left:50%; transform: translate(-50%, -50%); border:5px solid black"">","","","","","","","",""
"","31.63999999378575","sequential-stimulus-presentation-old","97","319329","0.0-23.0-1.4","SS1619739895095","trial","","40","500","531.6399999937858","images/stimuli/spore_stims/simple_07_A_a.gif","images/stimuli/spore_stims/simple_02_A_b.gif","forced_long","","7","simple_dissimilar","images/stimuli/spore_stims/simple_02_A_b.gif","","","","",""
"","null","html-keyboard-response","98","320163","0.0-23.0-0.5","SS1619739895095","","","null","","","","","","<p><img src= images/blank.png width =""600"" height = ""600"" style=""position:fixed;top:50%; left:50%; transform: translate(-50%, -50%); border:5px solid black"">","","","","","","","",""
"","35373.73999999545","sequential-stimulus-presentation-old","99","356041","0.0-23.0-1.5","SS1619739895095","trial","","40","500","35873.73999999545","images/stimuli/spore_stims/simple_07_A_a.gif","images/stimuli/spore_stims/simple_02_A_b.gif","forced_long","","7","simple_dissimilar","images/stimuli/spore_stims/simple_02_A_b.gif","","","","",""
"","2956.4250000039465","survey-multi-choice","100","359001","0.0-24.0","SS1619739895095","math_question","","","","","","","","","","","","{""Q0"":""4""}","[0]","4","",""
"","null","html-keyboard-response","101","359915","0.0-25.0-0.0","SS1619739895095","","","null","","","","","","<p><img src= images/blank.png width =""600"" height = ""600"" style=""position:fixed;top:50%; left:50%; transform: translate(-50%, -50%); border:5px solid black"">","","","","","","","",""
"","1004.1400000045542","sequential-stimulus-presentation-old","102","361425","0.0-25.0-1.0","SS1619739895095","trial","","40","500","1504.1400000045542","images/stimuli/spore_stims/complex_07_A_b.gif","images/stimuli/spore_stims/complex_19_A_a.gif","forced_short","","8","complex_dissimilar","images/stimuli/spore_stims/complex_19_A_a.gif","","","","",""
"","null","html-keyboard-response","103","362703","0.0-25.0-0.1","SS1619739895095","","","null","","","","","","<p><img src= images/blank.png width =""600"" height = ""600"" style=""position:fixed;top:50%; left:50%; transform: translate(-50%, -50%); border:5px solid black"">","","","","","","","",""
"","992.5500000026659","sequential-stimulus-presentation-old","104","364201","0.0-25.0-1.1","SS1619739895095","trial","","40","500","1492.550000002666","images/stimuli/spore_stims/complex_07_A_b.gif","images/stimuli/spore_stims/complex_19_A_a.gif","forced_short","","8","complex_dissimilar","images/stimuli/spore_stims/complex_19_A_a.gif","","","","",""
"","null","html-keyboard-response","105","365234","0.0-25.0-0.2","SS1619739895095","","","null","","","","","","<p><img src= images/blank.png width =""600"" height = ""600"" style=""position:fixed;top:50%; left:50%; transform: translate(-50%, -50%); border:5px solid black"">","","","","","","","",""
"","1190.6600000002072","sequential-stimulus-presentation-old","106","366929","0.0-25.0-1.2","SS1619739895095","trial","","40","500","1690.6600000002072","images/stimuli/spore_stims/complex_07_A_b.gif","images/stimuli/spore_stims/complex_19_A_a.gif","forced_short","","8","complex_dissimilar","images/stimuli/spore_stims/complex_07_A_b.gif","","","","",""
"","null","html-keyboard-response","107","367815","0.0-25.0-0.3","SS1619739895095","","","null","","","","","","<p><img src= images/blank.png width =""600"" height = ""600"" style=""position:fixed;top:50%; left:50%; transform: translate(-50%, -50%); border:5px solid black"">","","","","","","","",""
"","528.9149999953224","sequential-stimulus-presentation-old","108","368849","0.0-25.0-1.3","SS1619739895095","trial","","40","500","1028.9149999953224","images/stimuli/spore_stims/complex_07_A_b.gif","images/stimuli/spore_stims/complex_19_A_a.gif","forced_short","","8","complex_dissimilar","images/stimuli/spore_stims/complex_07_A_b.gif","","","","",""
"","3026.464999995369","survey-multi-choice","109","371880","0.0-26.0","SS1619739895095","math_question","","","","","","","","","","","","{""Q0"":""14""}","[0]","14","",""
"","null","html-keyboard-response","110","372966","0.0-27.0-0.0","SS1619739895095","","","null","","","","","","<p><img src= images/blank.png width =""600"" height = ""600"" style=""position:fixed;top:50%; left:50%; transform: translate(-50%, -50%); border:5px solid black"">","","","","","","","",""
"","874.0899999975227","sequential-stimulus-presentation-old","111","374345","0.0-27.0-1.0","SS1619739895095","trial","","40","500","1374.0899999975227","images/stimuli/spore_stims/simple_15_A_a.gif","images/stimuli/spore_stims/simple_16_A_b.gif","forced_short","","9","simple_dissimilar","images/stimuli/spore_stims/simple_16_A_b.gif","","","","",""
"","null","html-keyboard-response","112","375335","0.0-27.0-0.1","SS1619739895095","","","null","","","","","","<p><img src= images/blank.png width =""600"" height = ""600"" style=""position:fixed;top:50%; left:50%; transform: translate(-50%, -50%); border:5px solid black"">","","","","","","","",""
"","656.5350000018952","sequential-stimulus-presentation-old","113","376497","0.0-27.0-1.1","SS1619739895095","trial","","40","500","1156.5350000018952","images/stimuli/spore_stims/simple_15_A_a.gif","images/stimuli/spore_stims/simple_16_A_b.gif","forced_short","","9","simple_dissimilar","images/stimuli/spore_stims/simple_16_A_b.gif","","","","",""
"","null","html-keyboard-response","114","377621","0.0-27.0-0.2","SS1619739895095","","","null","","","","","","<p><img src= images/blank.png width =""600"" height = ""600"" style=""position:fixed;top:50%; left:50%; transform: translate(-50%, -50%); border:5px solid black"">","","","","","","","",""
"","633.7300000013784","sequential-stimulus-presentation-old","115","378761","0.0-27.0-1.2","SS1619739895095","trial","","40","500","1133.7300000013784","images/stimuli/spore_stims/simple_15_A_a.gif","images/stimuli/spore_stims/simple_16_A_b.gif","forced_short","","9","simple_dissimilar","images/stimuli/spore_stims/simple_16_A_b.gif","","","","",""
"","null","html-keyboard-response","116","379696","0.0-27.0-0.3","SS1619739895095","","","null","","","","","","<p><img src= images/blank.png width =""600"" height = ""600"" style=""position:fixed;top:50%; left:50%; transform: translate(-50%, -50%); border:5px solid black"">","","","","","","","",""
"","991.714999996475","sequential-stimulus-presentation-old","117","381193","0.0-27.0-1.3","SS1619739895095","trial","","40","500","1491.714999996475","images/stimuli/spore_stims/simple_15_A_a.gif","images/stimuli/spore_stims/simple_16_A_b.gif","forced_short","","9","simple_dissimilar","images/stimuli/spore_stims/simple_16_A_b.gif","","","","",""
"","null","html-keyboard-response","118","382100","0.0-27.0-0.4","SS1619739895095","","","null","","","","","","<p><img src= images/blank.png width =""600"" height = ""600"" style=""position:fixed;top:50%; left:50%; transform: translate(-50%, -50%); border:5px solid black"">","","","","","","","",""
"","899.4200000015553","sequential-stimulus-presentation-old","119","383505","0.0-27.0-1.4","SS1619739895095","trial","","40","500","1399.4200000015553","images/stimuli/spore_stims/simple_15_A_a.gif","images/stimuli/spore_stims/simple_16_A_b.gif","forced_short","","9","simple_dissimilar","images/stimuli/spore_stims/simple_16_A_b.gif","","","","",""
"","2596.4050000038696","survey-multi-choice","120","386105","0.0-28.0","SS1619739895095","math_question","","","","","","","","","","","","{""Q0"":""5""}","[0]","5","",""
"","null","html-keyboard-response","121","386967","0.0-29.0-0.0","SS1619739895095","","","null","","","","","","<p><img src= images/blank.png width =""600"" height = ""600"" style=""position:fixed;top:50%; left:50%; transform: translate(-50%, -50%); border:5px solid black"">","","","","","","","",""
"","680.0700000021607","sequential-stimulus-presentation-old","122","388153","0.0-29.0-1.0","SS1619739895095","trial","","40","500","1180.0700000021607","images/stimuli/spore_stims/complex_13_A_a.gif","images/stimuli/spore_stims/complex_14_A_b.gif","forced_short","","10","complex_dissimilar","images/stimuli/spore_stims/complex_14_A_b.gif","","","","",""
"","null","html-keyboard-response","123","389059","0.0-29.0-0.1","SS1619739895095","","","null","","","","","","<p><img src= images/blank.png width =""600"" height = ""600"" style=""position:fixed;top:50%; left:50%; transform: translate(-50%, -50%); border:5px solid black"">","","","","","","","",""
"","835.6599999970058","sequential-stimulus-presentation-old","124","390401","0.0-29.0-1.1","SS1619739895095","trial","","40","500","1335.6599999970058","images/stimuli/spore_stims/complex_13_A_a.gif","images/stimuli/spore_stims/complex_14_A_b.gif","forced_short","","10","complex_dissimilar","images/stimuli/spore_stims/complex_14_A_b.gif","","","","",""
"","null","html-keyboard-response","125","391425","0.0-29.0-0.2","SS1619739895095","","","null","","","","","","<p><img src= images/blank.png width =""600"" height = ""600"" style=""position:fixed;top:50%; left:50%; transform: translate(-50%, -50%); border:5px solid black"">","","","","","","","",""
"","270.50999999482883","sequential-stimulus-presentation-old","126","392201","0.0-29.0-1.2","SS1619739895095","trial","","40","500","770.5099999948288","images/stimuli/spore_stims/complex_13_A_a.gif","images/stimuli/spore_stims/complex_14_A_b.gif","forced_short","","10","complex_dissimilar","images/stimuli/spore_stims/complex_14_A_b.gif","","","","",""
"","null","html-keyboard-response","127","393148","0.0-29.0-0.3","SS1619739895095","","","null","","","","","","<p><img src= images/blank.png width =""600"" height = ""600"" style=""position:fixed;top:50%; left:50%; transform: translate(-50%, -50%); border:5px solid black"">","","","","","","","",""
"","834.6900000033202","sequential-stimulus-presentation-old","128","394489","0.0-29.0-1.3","SS1619739895095","trial","","40","500","1334.6900000033202","images/stimuli/spore_stims/complex_13_A_a.gif","images/stimuli/spore_stims/complex_14_A_b.gif","forced_short","","10","complex_dissimilar","images/stimuli/spore_stims/complex_13_A_a.gif","","","","",""
"","null","html-keyboard-response","129","395702","0.0-29.0-0.4","SS1619739895095","","","null","","","","","","<p><img src= images/blank.png width =""600"" height = ""600"" style=""position:fixed;top:50%; left:50%; transform: translate(-50%, -50%); border:5px solid black"">","","","","","","","",""
"","337.48499999637716","sequential-stimulus-presentation-old","130","396545","0.0-29.0-1.4","SS1619739895095","trial","","40","500","837.4849999963772","images/stimuli/spore_stims/complex_13_A_a.gif","images/stimuli/spore_stims/complex_14_A_b.gif","forced_short","","10","complex_dissimilar","images/stimuli/spore_stims/complex_14_A_b.gif","","","","",""
"","8147.194999997737","survey-multi-choice","131","404696","0.0-30.0","SS1619739895095","math_question","","","","","","","","","","","","{""Q0"":""10""}","[0]","10","",""
"","null","html-keyboard-response","132","405602","0.0-31.0-0.0","SS1619739895095","","","null","","","","","","<p><img src= images/blank.png width =""600"" height = ""600"" style=""position:fixed;top:50%; left:50%; transform: translate(-50%, -50%); border:5px solid black"">","","","","","","","",""
"","694.4650000004913","sequential-stimulus-presentation-old","133","406801","0.0-31.0-1.0","SS1619739895095","trial","","40","500","1194.4650000004913","images/stimuli/spore_stims/complex_05_A_b.gif","images/stimuli/spore_stims/complex_08_A_a.gif","self_paced","","11","complex_dissimilar","images/stimuli/spore_stims/complex_08_A_a.gif","","","","",""
"","null","html-keyboard-response","134","407779","0.0-31.0-0.1","SS1619739895095","","","null","","","","","","<p><img src= images/blank.png width =""600"" height = ""600"" style=""position:fixed;top:50%; left:50%; transform: translate(-50%, -50%); border:5px solid black"">","","","","","","","",""
"","1972.444999999425","sequential-stimulus-presentation-old","135","410257","0.0-31.0-1.1","SS1619739895095","trial","","40","500","2472.444999999425","images/stimuli/spore_stims/complex_05_A_b.gif","images/stimuli/spore_stims/complex_08_A_a.gif","self_paced","","11","complex_dissimilar","images/stimuli/spore_stims/complex_08_A_a.gif","","","","",""
"","null","html-keyboard-response","136","411473","0.0-31.0-0.2","SS1619739895095","","","null","","","","","","<p><img src= images/blank.png width =""600"" height = ""600"" style=""position:fixed;top:50%; left:50%; transform: translate(-50%, -50%); border:5px solid black"">","","","","","","","",""
"","574.6450000006007","sequential-stimulus-presentation-old","137","412553","0.0-31.0-1.2","SS1619739895095","trial","","40","500","1074.6450000006007","images/stimuli/spore_stims/complex_05_A_b.gif","images/stimuli/spore_stims/complex_08_A_a.gif","self_paced","","11","complex_dissimilar","images/stimuli/spore_stims/complex_08_A_a.gif","","","","",""
"","null","html-keyboard-response","138","413390","0.0-31.0-0.3","SS1619739895095","","","null","","","","","","<p><img src= images/blank.png width =""600"" height = ""600"" style=""position:fixed;top:50%; left:50%; transform: translate(-50%, -50%); border:5px solid black"">","","","","","","","",""
"","864.4700000004377","sequential-stimulus-presentation-old","139","414761","0.0-31.0-1.3","SS1619739895095","trial","","40","500","1364.4700000004377","images/stimuli/spore_stims/complex_05_A_b.gif","images/stimuli/spore_stims/complex_08_A_a.gif","self_paced","","11","complex_dissimilar","images/stimuli/spore_stims/complex_08_A_a.gif","","","","",""
"","null","html-keyboard-response","140","416043","0.0-31.0-0.4","SS1619739895095","","","null","","","","","","<p><img src= images/blank.png width =""600"" height = ""600"" style=""position:fixed;top:50%; left:50%; transform: translate(-50%, -50%); border:5px solid black"">","","","","","","","",""
"","243.4949999951641","sequential-stimulus-presentation-old","141","416793","0.0-31.0-1.4","SS1619739895095","trial","","40","500","743.4949999951641","images/stimuli/spore_stims/complex_05_A_b.gif","images/stimuli/spore_stims/complex_08_A_a.gif","self_paced","","11","complex_dissimilar","images/stimuli/spore_stims/complex_08_A_a.gif","","","","",""
"","null","html-keyboard-response","142","417629","0.0-31.0-0.5","SS1619739895095","","","null","","","","","","<p><img src= images/blank.png width =""600"" height = ""600"" style=""position:fixed;top:50%; left:50%; transform: translate(-50%, -50%); border:5px solid black"">","","","","","","","",""
"","490.64999999973224","sequential-stimulus-presentation-old","143","418627","0.0-31.0-1.5","SS1619739895095","trial","","40","500","990.6499999997322","images/stimuli/spore_stims/complex_05_A_b.gif","images/stimuli/spore_stims/complex_08_A_a.gif","self_paced","","11","complex_dissimilar","images/stimuli/spore_stims/complex_05_A_b.gif","","","","",""
"[{""page_index"":0,""viewing_time"":4313.3750000051805}]","4313.570000005711","instructions","144","422945","0.0-32.0","SS1619739895095","instructions","","","","","","","","","","","","","","","",""
"","5286.690000000817","survey-likert","145","428237","0.0-33.0","SS1619739895095","similarity_question","","","","","","","","","","","","{""Q0"":4}","[0]","","images/stimuli/spore_stims/simple_15_A_a.gif","images/stimuli/spore_stims/simple_16_A_b.gif"
"","6834.04999999766","survey-likert","146","435077","0.0-34.0","SS1619739895095","similarity_question","","","","","","","","","","","","{""Q0"":2}","[0]","","images/stimuli/spore_stims/complex_07_A_b.gif","images/stimuli/spore_stims/complex_19_A_a.gif"
"","4395.604999997886","survey-likert","147","439478","0.0-35.0","SS1619739895095","similarity_question","","","","","","","","","","","","{""Q0"":0}","[0]","","images/stimuli/spore_stims/complex_13_A_a.gif","images/stimuli/spore_stims/complex_14_A_b.gif"
"","2335.400000003574","survey-likert","148","441819","0.0-36.0","SS1619739895095","similarity_question","","","","","","","","","","","","{""Q0"":5}","[0]","","images/stimuli/spore_stims/simple_17_A_b.gif","images/stimuli/spore_stims/simple_06_A_a.gif"
"","2258.0250000028173","survey-likert","149","444082","0.0-37.0","SS1619739895095","similarity_question","","","","","","","","","","","","{""Q0"":4}","[0]","","images/stimuli/spore_stims/simple_07_A_a.gif","images/stimuli/spore_stims/simple_02_A_b.gif"
"","2414.629999999306","survey-likert","150","446502","0.0-38.0","SS1619739895095","similarity_question","","","","","","","","","","","","{""Q0"":4}","[0]","","images/stimuli/spore_stims/simple_19_A_b.gif","images/stimuli/spore_stims/simple_09_A_a.gif"
"","5181.609999999637","survey-likert","151","451689","0.0-39.0","SS1619739895095","similarity_question","","","","","","","","","","","","{""Q0"":2}","[0]","","images/stimuli/spore_stims/complex_18_A_a.gif","images/stimuli/spore_stims/complex_13_A_b.gif"
"","4482.2799999965355","survey-likert","152","456177","0.0-40.0","SS1619739895095","similarity_question","","","","","","","","","","","","{""Q0"":1}","[0]","","images/stimuli/spore_stims/complex_05_A_b.gif","images/stimuli/spore_stims/complex_08_A_a.gif"
"","3449.4399999966845","survey-likert","153","459632","0.0-41.0","SS1619739895095","similarity_question","","","","","","","","","","","","{""Q0"":5}","[0]","","images/stimuli/spore_stims/simple_16_A_a.gif","images/stimuli/spore_stims/simple_06_A_b.gif"
"","4413.30499999458","survey-likert","154","464051","0.0-42.0","SS1619739895095","similarity_question","","","","","","","","","","","","{""Q0"":2}","[0]","","images/stimuli/spore_stims/complex_10_A_b.gif","images/stimuli/spore_stims/complex_05_A_a.gif"
"","3401.509999996051","survey-likert","155","467458","0.0-43.0","SS1619739895095","similarity_question","","","","","","","","","","","","{""Q0"":4}","[0]","","images/stimuli/spore_stims/complex_08_A_b.gif","images/stimuli/spore_stims/complex_17_A_a.gif"
"","2683.4749999979977","survey-likert","156","470147","0.0-44.0","SS1619739895095","similarity_question","","","","","","","","","","","","{""Q0"":4}","[0]","","images/stimuli/spore_stims/simple_18_A_b.gif","images/stimuli/spore_stims/simple_10_A_a.gif"
"[{""page_index"":0,""viewing_time"":4129.639999999199}]","4129.880000000412","instructions","157","474282","0.0-45.0","SS1619739895095","instructions","","","","","","","","","","","","","","","",""
"","4002.375000003667","survey-likert","158","478290","0.0-46.0","SS1619739895095","","","","","","","","","images/stimuli/spore_stims/simple_19_A_b.gif","","","","{""Q0"":1}","[0]","","",""
"","3130.3049999987707","survey-likert","159","481426","0.0-47.0","SS1619739895095","","","","","","","","","images/stimuli/spore_stims/simple_16_A_b.gif","","","","{""Q0"":1}","[0]","","",""
"","3252.9949999952805","survey-likert","160","484685","0.0-48.0","SS1619739895095","","","","","","","","","images/stimuli/spore_stims/simple_07_A_a.gif","","","","{""Q0"":0}","[0]","","",""
"","5180.234999999811","survey-likert","161","489871","0.0-49.0","SS1619739895095","","","","","","","","","images/stimuli/spore_stims/complex_17_A_a.gif","","","","{""Q0"":4}","[0]","","",""
"","2473.194999998668","survey-likert","162","492350","0.0-50.0","SS1619739895095","","","","","","","","","images/stimuli/spore_stims/simple_18_A_b.gif","","","","{""Q0"":0}","[0]","","",""
"","4784.135000001697","survey-likert","163","497140","0.0-51.0","SS1619739895095","","","","","","","","","images/stimuli/spore_stims/complex_05_A_a.gif","","","","{""Q0"":4}","[0]","","",""
"","3102.22999999678","survey-likert","164","500248","0.0-52.0","SS1619739895095","","","","","","","","","images/stimuli/spore_stims/complex_19_A_a.gif","","","","{""Q0"":5}","[0]","","",""
"","1791.1699999967823","survey-likert","165","502045","0.0-53.0","SS1619739895095","","","","","","","","","images/stimuli/spore_stims/simple_06_A_a.gif","","","","{""Q0"":0}","[0]","","",""
"","2257.9699999987497","survey-likert","166","504309","0.0-54.0","SS1619739895095","","","","","","","","","images/stimuli/spore_stims/complex_08_A_a.gif","","","","{""Q0"":4}","[0]","","",""
"","3651.305000006687","survey-likert","167","507966","0.0-55.0","SS1619739895095","","","","","","","","","images/stimuli/spore_stims/complex_13_A_b.gif","","","","{""Q0"":2}","[0]","","",""
"","1848.8149999975576","survey-likert","168","509821","0.0-56.0","SS1619739895095","","","","","","","","","images/stimuli/spore_stims/simple_06_A_b.gif","","","","{""Q0"":0}","[0]","","",""
"","1920.1050000046962","survey-likert","169","511747","0.0-57.0","SS1619739895095","","","","","","","","","images/stimuli/spore_stims/complex_14_A_b.gif","","","","{""Q0"":4}","[0]","","",""
"[{""page_index"":0,""viewing_time"":2282.0649999994203}]","2282.2199999936856","instructions","170","514034","0.0-58.0","SS1619739895095","instructions","","","","","","","","","","","","","","","",""
"","3170.6449999983306","demog-age","171","517212","0.0-59.0","SS1619739895095","","","","","","","","","","","","","{""age"":""24""}","","","",""
"","6025.069999996049","demog-ethnic-US","172","523243","0.0-60.0","SS1619739895095","","","","","","","","","","","","","{""ethnicity"":[""Hispanic or Latino""]}","[0]","","",""
"","5599.529999999562","demog-gender-and-education","173","528849","0.0-61.0","SS1619739895095","","","","","","","","","","","","","{""gender"":""Male"",""education"":""High school diploma""}","[0,1]","","",""
"","28252.93000000238","survey-text","174","557109","0.0-62.0","SS1619739895095","feedback","","","","","","","","","","","","{""Q0"":""spore is underrated""}","","","",""
"[{""page_index"":0,""viewing_time"":1145.090000005439}]","1145.2450000069803","instructions","175","558260","0.0-63.0","SS1619739895095","instructions","","","","","","","","","","","","","","","",""
