"view_history","rt","trial_type","trial_index","time_elapsed","internal_node_id","subject","stimulus_type","trial_stimulus","key_press","minimum_viewing_duration","trial_looking_time","block_deviant","block_background","exposure_type","stimulus","block_number","block_type","stimulus_displayed","responses","question_order","math_correct_answer","stimulus_left","stimulus_right"
"[{""page_index"":0,""viewing_time"":936151.5600000275}]","936152.2050000494","instructions","0","936153","0.0-0.0","SS1619740432849","","","","","","","","","","","","","","","","",""
"[{""page_index"":0,""viewing_time"":10684.589999960735},{""page_index"":1,""viewing_time"":4392.515000072308}]","15077.440000022762","instructions","1","953234","0.0-1.0","SS1619740432849","instructions","","","","","","","","","","","","","","","",""
"","6364.42499991972","sequential-stimulus-presentation-old","2","960101","0.0-2.0","SS1619740432849","","","40","500","6864.42499991972","null","null","self_paced","","","","","","","","",""
"","13176.390000036918","sequential-stimulus-presentation-old","3","973781","0.0-3.0","SS1619740432849","","","40","500","13676.390000036918","null","null","self_paced","","","","","","","","",""
"[{""page_index"":0,""viewing_time"":8967.019999981858}]","8967.414999962784","instructions","4","982749","0.0-4.0","SS1619740432849","instructions","","","","","","","","","","","","","","","",""
"","838.0299999844283","sequential-stimulus-presentation-old","5","998592","0.0-5.0","SS1619740432849","","","40","500","1338.0299999844283","null","null","forced_long","","","","","","","","",""
"","2337.9600000334904","sequential-stimulus-presentation-old","6","1001432","0.0-6.0","SS1619740432849","","","40","500","2837.9600000334904","null","null","forced_long","","","","","","","","",""
"[{""page_index"":0,""viewing_time"":2742.22999997437}]","2742.604999919422","instructions","7","1004176","0.0-7.0","SS1619740432849","instructions","","","","","","","","","","","","","","","",""
"[{""page_index"":0,""viewing_time"":4966.925000073388},{""page_index"":1,""viewing_time"":8921.0599999642},{""page_index"":2,""viewing_time"":30194.86499996856},{""page_index"":3,""viewing_time"":1000.0749999890104},{""page_index"":4,""viewing_time"":1088.1500000832602}]","46171.4449999854","instructions","8","1050349","0.0-8.0","SS1619740432849","instructions","","","","","","","","","","","","","","","",""
"","null","html-keyboard-response","9","1051537","0.0-9.0-0.0","SS1619740432849","","","null","","","","","","<p><img src= images/blank.png width =""600"" height = ""600"" style=""position:fixed;top:50%; left:50%; transform: translate(-50%, -50%); border:5px solid black"">","","","","","","","",""
"","29287.08999999799","sequential-stimulus-presentation-old","10","1081328","0.0-9.0-1.0","SS1619740432849","trial","","40","500","29787.08999999799","images/stimuli/spore_stims/complex_19_A_b.gif","images/stimuli/spore_stims/complex_03_A_a.gif","self_paced","","0","complex_dissimilar","images/stimuli/spore_stims/complex_03_A_a.gif","","","","",""
"","null","html-keyboard-response","11","1082460","0.0-9.0-0.1","SS1619740432849","","","null","","","","","","<p><img src= images/blank.png width =""600"" height = ""600"" style=""position:fixed;top:50%; left:50%; transform: translate(-50%, -50%); border:5px solid black"">","","","","","","","",""
"","1028.00000004936","sequential-stimulus-presentation-old","12","1083991","0.0-9.0-1.1","SS1619740432849","trial","","40","500","1528.00000004936","images/stimuli/spore_stims/complex_19_A_b.gif","images/stimuli/spore_stims/complex_03_A_a.gif","self_paced","","0","complex_dissimilar","images/stimuli/spore_stims/complex_03_A_a.gif","","","","",""
"","null","html-keyboard-response","13","1085120","0.0-9.0-0.2","SS1619740432849","","","null","","","","","","<p><img src= images/blank.png width =""600"" height = ""600"" style=""position:fixed;top:50%; left:50%; transform: translate(-50%, -50%); border:5px solid black"">","","","","","","","",""
"","3519.8249999666587","sequential-stimulus-presentation-old","14","1089144","0.0-9.0-1.2","SS1619740432849","trial","","40","500","4019.8249999666587","images/stimuli/spore_stims/complex_19_A_b.gif","images/stimuli/spore_stims/complex_03_A_a.gif","self_paced","","0","complex_dissimilar","images/stimuli/spore_stims/complex_03_A_a.gif","","","","",""
"","null","html-keyboard-response","15","1090227","0.0-9.0-0.3","SS1619740432849","","","null","","","","","","<p><img src= images/blank.png width =""600"" height = ""600"" style=""position:fixed;top:50%; left:50%; transform: translate(-50%, -50%); border:5px solid black"">","","","","","","","",""
"","5381.984999985434","sequential-stimulus-presentation-old","16","1096113","0.0-9.0-1.3","SS1619740432849","trial","","40","500","5881.984999985434","images/stimuli/spore_stims/complex_19_A_b.gif","images/stimuli/spore_stims/complex_03_A_a.gif","self_paced","","0","complex_dissimilar","images/stimuli/spore_stims/complex_19_A_b.gif","","","","",""
"","null","html-keyboard-response","17","1097340","0.0-9.0-0.4","SS1619740432849","","","null","","","","","","<p><img src= images/blank.png width =""600"" height = ""600"" style=""position:fixed;top:50%; left:50%; transform: translate(-50%, -50%); border:5px solid black"">","","","","","","","",""
"","868.9000000013039","sequential-stimulus-presentation-old","18","1098713","0.0-9.0-1.4","SS1619740432849","trial","","40","500","1368.9000000013039","images/stimuli/spore_stims/complex_19_A_b.gif","images/stimuli/spore_stims/complex_03_A_a.gif","self_paced","","0","complex_dissimilar","images/stimuli/spore_stims/complex_03_A_a.gif","","","","",""
"","4677.1500000031665","survey-multi-choice","19","1103394","0.0-10.0","SS1619740432849","math_question","","","","","","","","","","","","{""Q0"":""7""}","[0]","7","",""
"","null","html-keyboard-response","20","1104638","0.0-11.0-0.0","SS1619740432849","","","null","","","","","","<p><img src= images/blank.png width =""600"" height = ""600"" style=""position:fixed;top:50%; left:50%; transform: translate(-50%, -50%); border:5px solid black"">","","","","","","","",""
"","745.93500001356","sequential-stimulus-presentation-old","21","1120387","0.0-11.0-1.0","SS1619740432849","trial","","40","500","1245.93500001356","images/stimuli/spore_stims/simple_10_A_a.gif","images/stimuli/spore_stims/simple_18_A_b.gif","forced_long","","1","simple_dissimilar","images/stimuli/spore_stims/simple_18_A_b.gif","","","","",""
"","null","html-keyboard-response","22","1121257","0.0-11.0-0.1","SS1619740432849","","","null","","","","","","<p><img src= images/blank.png width =""600"" height = ""600"" style=""position:fixed;top:50%; left:50%; transform: translate(-50%, -50%); border:5px solid black"">","","","","","","","",""
"","762.6549999695271","sequential-stimulus-presentation-old","23","1122523","0.0-11.0-1.1","SS1619740432849","trial","","40","500","1262.6549999695271","images/stimuli/spore_stims/simple_10_A_a.gif","images/stimuli/spore_stims/simple_18_A_b.gif","forced_long","","1","simple_dissimilar","images/stimuli/spore_stims/simple_18_A_b.gif","","","","",""
"","null","html-keyboard-response","24","1123819","0.0-11.0-0.2","SS1619740432849","","","null","","","","","","<p><img src= images/blank.png width =""600"" height = ""600"" style=""position:fixed;top:50%; left:50%; transform: translate(-50%, -50%); border:5px solid black"">","","","","","","","",""
"","55.90000003576279","sequential-stimulus-presentation-old","25","1124379","0.0-11.0-1.2","SS1619740432849","trial","","40","500","555.9000000357628","images/stimuli/spore_stims/simple_10_A_a.gif","images/stimuli/spore_stims/simple_18_A_b.gif","forced_long","","1","simple_dissimilar","images/stimuli/spore_stims/simple_18_A_b.gif","","","","",""
"","null","html-keyboard-response","26","1125199","0.0-11.0-0.3","SS1619740432849","","","null","","","","","","<p><img src= images/blank.png width =""600"" height = ""600"" style=""position:fixed;top:50%; left:50%; transform: translate(-50%, -50%); border:5px solid black"">","","","","","","","",""
"","684.9699999438599","sequential-stimulus-presentation-old","27","1126387","0.0-11.0-1.3","SS1619740432849","trial","","40","500","1184.9699999438599","images/stimuli/spore_stims/simple_10_A_a.gif","images/stimuli/spore_stims/simple_18_A_b.gif","forced_long","","1","simple_dissimilar","images/stimuli/spore_stims/simple_18_A_b.gif","","","","",""
"","2766.3949999259785","survey-multi-choice","28","1129156","0.0-12.0","SS1619740432849","math_question","","","","","","","","","","","","{""Q0"":""5""}","[0]","5","",""
"","null","html-keyboard-response","29","1130268","0.0-13.0-0.0","SS1619740432849","","","null","","","","","","<p><img src= images/blank.png width =""600"" height = ""600"" style=""position:fixed;top:50%; left:50%; transform: translate(-50%, -50%); border:5px solid black"">","","","","","","","",""
"","3288.124999962747","sequential-stimulus-presentation-old","30","1134060","0.0-13.0-1.0","SS1619740432849","trial","","40","500","3788.124999962747","images/stimuli/spore_stims/simple_09_A_b.gif","images/stimuli/spore_stims/simple_16_A_a.gif","forced_short","","2","simple_dissimilar","images/stimuli/spore_stims/simple_16_A_a.gif","","","","",""
"","null","html-keyboard-response","31","1134998","0.0-13.0-0.1","SS1619740432849","","","null","","","","","","<p><img src= images/blank.png width =""600"" height = ""600"" style=""position:fixed;top:50%; left:50%; transform: translate(-50%, -50%); border:5px solid black"">","","","","","","","",""
"","2950.4500000039116","sequential-stimulus-presentation-old","32","1138453","0.0-13.0-1.1","SS1619740432849","trial","","40","500","3450.4500000039116","images/stimuli/spore_stims/simple_09_A_b.gif","images/stimuli/spore_stims/simple_16_A_a.gif","forced_short","","2","simple_dissimilar","images/stimuli/spore_stims/simple_16_A_a.gif","","","","",""
"","null","html-keyboard-response","33","1139273","0.0-13.0-0.2","SS1619740432849","","","null","","","","","","<p><img src= images/blank.png width =""600"" height = ""600"" style=""position:fixed;top:50%; left:50%; transform: translate(-50%, -50%); border:5px solid black"">","","","","","","","",""
"","1372.3849999951199","sequential-stimulus-presentation-old","34","1141149","0.0-13.0-1.2","SS1619740432849","trial","","40","500","1872.3849999951199","images/stimuli/spore_stims/simple_09_A_b.gif","images/stimuli/spore_stims/simple_16_A_a.gif","forced_short","","2","simple_dissimilar","images/stimuli/spore_stims/simple_16_A_a.gif","","","","",""
"","null","html-keyboard-response","35","1142239","0.0-13.0-0.3","SS1619740432849","","","null","","","","","","<p><img src= images/blank.png width =""600"" height = ""600"" style=""position:fixed;top:50%; left:50%; transform: translate(-50%, -50%); border:5px solid black"">","","","","","","","",""
"","2494.3249999778345","sequential-stimulus-presentation-old","36","1145238","0.0-13.0-1.3","SS1619740432849","trial","","40","500","2994.3249999778345","images/stimuli/spore_stims/simple_09_A_b.gif","images/stimuli/spore_stims/simple_16_A_a.gif","forced_short","","2","simple_dissimilar","images/stimuli/spore_stims/simple_16_A_a.gif","","","","",""
"","2406.2849999172613","survey-multi-choice","37","1147646","0.0-14.0","SS1619740432849","math_question","","","","","","","","","","","","{""Q0"":""12""}","[0]","12","",""
"","null","html-keyboard-response","38","1148940","0.0-15.0-0.0","SS1619740432849","","","null","","","","","","<p><img src= images/blank.png width =""600"" height = ""600"" style=""position:fixed;top:50%; left:50%; transform: translate(-50%, -50%); border:5px solid black"">","","","","","","","",""
"","19620.484999963082","sequential-stimulus-presentation-old","39","1169065","0.0-15.0-1.0","SS1619740432849","trial","","40","500","20120.484999963082","images/stimuli/spore_stims/simple_03_A_a.gif","images/stimuli/spore_stims/simple_08_A_b.gif","self_paced","","3","simple_dissimilar","images/stimuli/spore_stims/simple_08_A_b.gif","","","","",""
"","null","html-keyboard-response","40","1170249","0.0-15.0-0.1","SS1619740432849","","","null","","","","","","<p><img src= images/blank.png width =""600"" height = ""600"" style=""position:fixed;top:50%; left:50%; transform: translate(-50%, -50%); border:5px solid black"">","","","","","","","",""
"","886.945000034757","sequential-stimulus-presentation-old","41","1171640","0.0-15.0-1.1","SS1619740432849","trial","","40","500","1386.945000034757","images/stimuli/spore_stims/simple_03_A_a.gif","images/stimuli/spore_stims/simple_08_A_b.gif","self_paced","","3","simple_dissimilar","images/stimuli/spore_stims/simple_08_A_b.gif","","","","",""
"","null","html-keyboard-response","42","1172936","0.0-15.0-0.2","SS1619740432849","","","null","","","","","","<p><img src= images/blank.png width =""600"" height = ""600"" style=""position:fixed;top:50%; left:50%; transform: translate(-50%, -50%); border:5px solid black"">","","","","","","","",""
"","65.00000006053597","sequential-stimulus-presentation-old","43","1173505","0.0-15.0-1.2","SS1619740432849","trial","","40","500","565.000000060536","images/stimuli/spore_stims/simple_03_A_a.gif","images/stimuli/spore_stims/simple_08_A_b.gif","self_paced","","3","simple_dissimilar","images/stimuli/spore_stims/simple_08_A_b.gif","","","","",""
"","null","html-keyboard-response","44","1174651","0.0-15.0-0.3","SS1619740432849","","","null","","","","","","<p><img src= images/blank.png width =""600"" height = ""600"" style=""position:fixed;top:50%; left:50%; transform: translate(-50%, -50%); border:5px solid black"">","","","","","","","",""
"","894.3849999923259","sequential-stimulus-presentation-old","45","1176049","0.0-15.0-1.3","SS1619740432849","trial","","40","500","1394.384999992326","images/stimuli/spore_stims/simple_03_A_a.gif","images/stimuli/spore_stims/simple_08_A_b.gif","self_paced","","3","simple_dissimilar","images/stimuli/spore_stims/simple_08_A_b.gif","","","","",""
"","4318.0799999972805","survey-multi-choice","46","1180369","0.0-16.0","SS1619740432849","math_question","","","","","","","","","","","","{""Q0"":""13""}","[0]","13","",""
"","null","html-keyboard-response","47","1181388","0.0-17.0-0.0","SS1619740432849","","","null","","","","","","<p><img src= images/blank.png width =""600"" height = ""600"" style=""position:fixed;top:50%; left:50%; transform: translate(-50%, -50%); border:5px solid black"">","","","","","","","",""
"","1485.2049999171868","sequential-stimulus-presentation-old","48","1183377","0.0-17.0-1.0","SS1619740432849","trial","","40","500","1985.2049999171868","images/stimuli/spore_stims/simple_14_A_a.gif","images/stimuli/spore_stims/simple_07_A_b.gif","forced_short","","4","simple_dissimilar","images/stimuli/spore_stims/simple_07_A_b.gif","","","","",""
"","null","html-keyboard-response","49","1184483","0.0-17.0-0.1","SS1619740432849","","","null","","","","","","<p><img src= images/blank.png width =""600"" height = ""600"" style=""position:fixed;top:50%; left:50%; transform: translate(-50%, -50%); border:5px solid black"">","","","","","","","",""
"","11047.41500003729","sequential-stimulus-presentation-old","50","1196034","0.0-17.0-1.1","SS1619740432849","trial","","40","500","11547.41500003729","images/stimuli/spore_stims/simple_14_A_a.gif","images/stimuli/spore_stims/simple_07_A_b.gif","forced_short","","4","simple_dissimilar","images/stimuli/spore_stims/simple_07_A_b.gif","","","","",""
"","null","html-keyboard-response","51","1197021","0.0-17.0-0.2","SS1619740432849","","","null","","","","","","<p><img src= images/blank.png width =""600"" height = ""600"" style=""position:fixed;top:50%; left:50%; transform: translate(-50%, -50%); border:5px solid black"">","","","","","","","",""
"","70.70000004023314","sequential-stimulus-presentation-old","52","1197595","0.0-17.0-1.2","SS1619740432849","trial","","40","500","570.7000000402331","images/stimuli/spore_stims/simple_14_A_a.gif","images/stimuli/spore_stims/simple_07_A_b.gif","forced_short","","4","simple_dissimilar","images/stimuli/spore_stims/simple_14_A_a.gif","","","","",""
"","null","html-keyboard-response","53","1198547","0.0-17.0-0.3","SS1619740432849","","","null","","","","","","<p><img src= images/blank.png width =""600"" height = ""600"" style=""position:fixed;top:50%; left:50%; transform: translate(-50%, -50%); border:5px solid black"">","","","","","","","",""
"","136.23000006191432","sequential-stimulus-presentation-old","54","1199187","0.0-17.0-1.3","SS1619740432849","trial","","40","500","636.2300000619143","images/stimuli/spore_stims/simple_14_A_a.gif","images/stimuli/spore_stims/simple_07_A_b.gif","forced_short","","4","simple_dissimilar","images/stimuli/spore_stims/simple_07_A_b.gif","","","","",""
"","null","html-keyboard-response","55","1200064","0.0-17.0-0.4","SS1619740432849","","","null","","","","","","<p><img src= images/blank.png width =""600"" height = ""600"" style=""position:fixed;top:50%; left:50%; transform: translate(-50%, -50%); border:5px solid black"">","","","","","","","",""
"","3875.220000045374","sequential-stimulus-presentation-old","56","1204443","0.0-17.0-1.4","SS1619740432849","trial","","40","500","4375.220000045374","images/stimuli/spore_stims/simple_14_A_a.gif","images/stimuli/spore_stims/simple_07_A_b.gif","forced_short","","4","simple_dissimilar","images/stimuli/spore_stims/simple_14_A_a.gif","","","","",""
"","2110.149999964051","survey-multi-choice","57","1206556","0.0-18.0","SS1619740432849","math_question","","","","","","","","","","","","{""Q0"":""10""}","[0]","10","",""
"","null","html-keyboard-response","58","1207748","0.0-19.0-0.0","SS1619740432849","","","null","","","","","","<p><img src= images/blank.png width =""600"" height = ""600"" style=""position:fixed;top:50%; left:50%; transform: translate(-50%, -50%); border:5px solid black"">","","","","","","","",""
"","1149.5649999706075","sequential-stimulus-presentation-old","59","1223901","0.0-19.0-1.0","SS1619740432849","trial","","40","500","1649.5649999706075","images/stimuli/spore_stims/complex_07_A_a.gif","images/stimuli/spore_stims/complex_18_A_b.gif","forced_long","","5","complex_dissimilar","images/stimuli/spore_stims/complex_18_A_b.gif","","","","",""
"","null","html-keyboard-response","60","1224935","0.0-19.0-0.1","SS1619740432849","","","null","","","","","","<p><img src= images/blank.png width =""600"" height = ""600"" style=""position:fixed;top:50%; left:50%; transform: translate(-50%, -50%); border:5px solid black"">","","","","","","","",""
"","13.815000071190298","sequential-stimulus-presentation-old","61","1225453","0.0-19.0-1.1","SS1619740432849","trial","","40","500","513.8150000711903","images/stimuli/spore_stims/complex_07_A_a.gif","images/stimuli/spore_stims/complex_18_A_b.gif","forced_long","","5","complex_dissimilar","images/stimuli/spore_stims/complex_18_A_b.gif","","","","",""
"","null","html-keyboard-response","62","1227061","0.0-19.0-0.2","SS1619740432849","","","null","","","","","","<p><img src= images/blank.png width =""600"" height = ""600"" style=""position:fixed;top:50%; left:50%; transform: translate(-50%, -50%); border:5px solid black"">","","","","","","","",""
"","2074.1500000003725","sequential-stimulus-presentation-old","63","1230134","0.0-19.0-1.2","SS1619740432849","trial","","40","500","2574.1500000003725","images/stimuli/spore_stims/complex_07_A_a.gif","images/stimuli/spore_stims/complex_18_A_b.gif","forced_long","","5","complex_dissimilar","images/stimuli/spore_stims/complex_18_A_b.gif","","","","",""
"","null","html-keyboard-response","64","1231019","0.0-19.0-0.3","SS1619740432849","","","null","","","","","","<p><img src= images/blank.png width =""600"" height = ""600"" style=""position:fixed;top:50%; left:50%; transform: translate(-50%, -50%); border:5px solid black"">","","","","","","","",""
"","1338.1600000429899","sequential-stimulus-presentation-old","65","1232862","0.0-19.0-1.3","SS1619740432849","trial","","40","500","1838.1600000429899","images/stimuli/spore_stims/complex_07_A_a.gif","images/stimuli/spore_stims/complex_18_A_b.gif","forced_long","","5","complex_dissimilar","images/stimuli/spore_stims/complex_07_A_a.gif","","","","",""
"","null","html-keyboard-response","66","1233716","0.0-19.0-0.4","SS1619740432849","","","null","","","","","","<p><img src= images/blank.png width =""600"" height = ""600"" style=""position:fixed;top:50%; left:50%; transform: translate(-50%, -50%); border:5px solid black"">","","","","","","","",""
"","43.799999984912574","sequential-stimulus-presentation-old","67","1234263","0.0-19.0-1.4","SS1619740432849","trial","","40","500","543.7999999849126","images/stimuli/spore_stims/complex_07_A_a.gif","images/stimuli/spore_stims/complex_18_A_b.gif","forced_long","","5","complex_dissimilar","images/stimuli/spore_stims/complex_18_A_b.gif","","","","",""
"","4397.575000068173","survey-multi-choice","68","1238664","0.0-20.0","SS1619740432849","math_question","","","","","","","","","","","","{""Q0"":""14""}","[0]","14","",""
"","null","html-keyboard-response","69","1239657","0.0-21.0-0.0","SS1619740432849","","","null","","","","","","<p><img src= images/blank.png width =""600"" height = ""600"" style=""position:fixed;top:50%; left:50%; transform: translate(-50%, -50%); border:5px solid black"">","","","","","","","",""
"","1110.080000013113","sequential-stimulus-presentation-old","70","1241271","0.0-21.0-1.0","SS1619740432849","trial","","40","500","1610.080000013113","images/stimuli/spore_stims/complex_06_A_b.gif","images/stimuli/spore_stims/complex_09_A_a.gif","forced_short","","6","complex_dissimilar","images/stimuli/spore_stims/complex_09_A_a.gif","","","","",""
"","null","html-keyboard-response","71","1242185","0.0-21.0-0.1","SS1619740432849","","","null","","","","","","<p><img src= images/blank.png width =""600"" height = ""600"" style=""position:fixed;top:50%; left:50%; transform: translate(-50%, -50%); border:5px solid black"">","","","","","","","",""
"","573.1649999506772","sequential-stimulus-presentation-old","72","1243263","0.0-21.0-1.1","SS1619740432849","trial","","40","500","1073.1649999506772","images/stimuli/spore_stims/complex_06_A_b.gif","images/stimuli/spore_stims/complex_09_A_a.gif","forced_short","","6","complex_dissimilar","images/stimuli/spore_stims/complex_09_A_a.gif","","","","",""
"","null","html-keyboard-response","73","1244086","0.0-21.0-0.2","SS1619740432849","","","null","","","","","","<p><img src= images/blank.png width =""600"" height = ""600"" style=""position:fixed;top:50%; left:50%; transform: translate(-50%, -50%); border:5px solid black"">","","","","","","","",""
"","1904.9149999627843","sequential-stimulus-presentation-old","74","1246496","0.0-21.0-1.2","SS1619740432849","trial","","40","500","2404.9149999627843","images/stimuli/spore_stims/complex_06_A_b.gif","images/stimuli/spore_stims/complex_09_A_a.gif","forced_short","","6","complex_dissimilar","images/stimuli/spore_stims/complex_09_A_a.gif","","","","",""
"","null","html-keyboard-response","75","1247476","0.0-21.0-0.3","SS1619740432849","","","null","","","","","","<p><img src= images/blank.png width =""600"" height = ""600"" style=""position:fixed;top:50%; left:50%; transform: translate(-50%, -50%); border:5px solid black"">","","","","","","","",""
"","987.7700000070035","sequential-stimulus-presentation-old","76","1248968","0.0-21.0-1.3","SS1619740432849","trial","","40","500","1487.7700000070035","images/stimuli/spore_stims/complex_06_A_b.gif","images/stimuli/spore_stims/complex_09_A_a.gif","forced_short","","6","complex_dissimilar","images/stimuli/spore_stims/complex_09_A_a.gif","","","","",""
"","null","html-keyboard-response","77","1250101","0.0-21.0-0.4","SS1619740432849","","","null","","","","","","<p><img src= images/blank.png width =""600"" height = ""600"" style=""position:fixed;top:50%; left:50%; transform: translate(-50%, -50%); border:5px solid black"">","","","","","","","",""
"","1811.1499999649823","sequential-stimulus-presentation-old","78","1252416","0.0-21.0-1.4","SS1619740432849","trial","","40","500","2311.1499999649823","images/stimuli/spore_stims/complex_06_A_b.gif","images/stimuli/spore_stims/complex_09_A_a.gif","forced_short","","6","complex_dissimilar","images/stimuli/spore_stims/complex_06_A_b.gif","","","","",""
"","null","html-keyboard-response","79","1253274","0.0-21.0-0.5","SS1619740432849","","","null","","","","","","<p><img src= images/blank.png width =""600"" height = ""600"" style=""position:fixed;top:50%; left:50%; transform: translate(-50%, -50%); border:5px solid black"">","","","","","","","",""
"","598.3850000193343","sequential-stimulus-presentation-old","80","1254376","0.0-21.0-1.5","SS1619740432849","trial","","40","500","1098.3850000193343","images/stimuli/spore_stims/complex_06_A_b.gif","images/stimuli/spore_stims/complex_09_A_a.gif","forced_short","","6","complex_dissimilar","images/stimuli/spore_stims/complex_09_A_a.gif","","","","",""
"","2414.5650001009926","survey-multi-choice","81","1256793","0.0-22.0","SS1619740432849","math_question","","","","","","","","","","","","{""Q0"":""6""}","[0]","6","",""
"","null","html-keyboard-response","82","1258028","0.0-23.0-0.0","SS1619740432849","","","null","","","","","","<p><img src= images/blank.png width =""600"" height = ""600"" style=""position:fixed;top:50%; left:50%; transform: translate(-50%, -50%); border:5px solid black"">","","","","","","","",""
"","1125.300000072457","sequential-stimulus-presentation-old","83","1259657","0.0-23.0-1.0","SS1619740432849","trial","","40","500","1625.300000072457","images/stimuli/spore_stims/complex_17_A_b.gif","images/stimuli/spore_stims/complex_06_A_a.gif","forced_short","","7","complex_dissimilar","images/stimuli/spore_stims/complex_06_A_a.gif","","","","",""
"","null","html-keyboard-response","84","1260754","0.0-23.0-0.1","SS1619740432849","","","null","","","","","","<p><img src= images/blank.png width =""600"" height = ""600"" style=""position:fixed;top:50%; left:50%; transform: translate(-50%, -50%); border:5px solid black"">","","","","","","","",""
"","3711.244999896735","sequential-stimulus-presentation-old","85","1264970","0.0-23.0-1.1","SS1619740432849","trial","","40","500","4211.244999896735","images/stimuli/spore_stims/complex_17_A_b.gif","images/stimuli/spore_stims/complex_06_A_a.gif","forced_short","","7","complex_dissimilar","images/stimuli/spore_stims/complex_06_A_a.gif","","","","",""
"","null","html-keyboard-response","86","1266246","0.0-23.0-0.2","SS1619740432849","","","null","","","","","","<p><img src= images/blank.png width =""600"" height = ""600"" style=""position:fixed;top:50%; left:50%; transform: translate(-50%, -50%); border:5px solid black"">","","","","","","","",""
"","516.399999964051","sequential-stimulus-presentation-old","87","1267267","0.0-23.0-1.2","SS1619740432849","trial","","40","500","1016.399999964051","images/stimuli/spore_stims/complex_17_A_b.gif","images/stimuli/spore_stims/complex_06_A_a.gif","forced_short","","7","complex_dissimilar","images/stimuli/spore_stims/complex_06_A_a.gif","","","","",""
"","null","html-keyboard-response","88","1268495","0.0-23.0-0.3","SS1619740432849","","","null","","","","","","<p><img src= images/blank.png width =""600"" height = ""600"" style=""position:fixed;top:50%; left:50%; transform: translate(-50%, -50%); border:5px solid black"">","","","","","","","",""
"","3676.080000004731","sequential-stimulus-presentation-old","89","1272675","0.0-23.0-1.3","SS1619740432849","trial","","40","500","4176.080000004731","images/stimuli/spore_stims/complex_17_A_b.gif","images/stimuli/spore_stims/complex_06_A_a.gif","forced_short","","7","complex_dissimilar","images/stimuli/spore_stims/complex_17_A_b.gif","","","","",""
"","null","html-keyboard-response","90","1273752","0.0-23.0-0.4","SS1619740432849","","","null","","","","","","<p><img src= images/blank.png width =""600"" height = ""600"" style=""position:fixed;top:50%; left:50%; transform: translate(-50%, -50%); border:5px solid black"">","","","","","","","",""
"","404.4400000711903","sequential-stimulus-presentation-old","91","1274659","0.0-23.0-1.4","SS1619740432849","trial","","40","500","904.4400000711903","images/stimuli/spore_stims/complex_17_A_b.gif","images/stimuli/spore_stims/complex_06_A_a.gif","forced_short","","7","complex_dissimilar","images/stimuli/spore_stims/complex_17_A_b.gif","","","","",""
"","2413.605000008829","survey-multi-choice","92","1277075","0.0-24.0","SS1619740432849","math_question","","","","","","","","","","","","{""Q0"":""9""}","[0]","9","",""
"","null","html-keyboard-response","93","1278166","0.0-25.0-0.0","SS1619740432849","","","null","","","","","","<p><img src= images/blank.png width =""600"" height = ""600"" style=""position:fixed;top:50%; left:50%; transform: translate(-50%, -50%); border:5px solid black"">","","","","","","","",""
"","1669.3349999841303","sequential-stimulus-presentation-old","94","1280340","0.0-25.0-1.0","SS1619740432849","trial","","40","500","2169.3349999841303","images/stimuli/spore_stims/complex_16_A_b.gif","images/stimuli/spore_stims/complex_08_A_a.gif","self_paced","","8","complex_dissimilar","images/stimuli/spore_stims/complex_08_A_a.gif","","","","",""
"","null","html-keyboard-response","95","1281355","0.0-25.0-0.1","SS1619740432849","","","null","","","","","","<p><img src= images/blank.png width =""600"" height = ""600"" style=""position:fixed;top:50%; left:50%; transform: translate(-50%, -50%); border:5px solid black"">","","","","","","","",""
"","448.0650000041351","sequential-stimulus-presentation-old","96","1282308","0.0-25.0-1.1","SS1619740432849","trial","","40","500","948.0650000041351","images/stimuli/spore_stims/complex_16_A_b.gif","images/stimuli/spore_stims/complex_08_A_a.gif","self_paced","","8","complex_dissimilar","images/stimuli/spore_stims/complex_08_A_a.gif","","","","",""
"","null","html-keyboard-response","97","1283206","0.0-25.0-0.2","SS1619740432849","","","null","","","","","","<p><img src= images/blank.png width =""600"" height = ""600"" style=""position:fixed;top:50%; left:50%; transform: translate(-50%, -50%); border:5px solid black"">","","","","","","","",""
"","2972.7900000289083","sequential-stimulus-presentation-old","98","1286684","0.0-25.0-1.2","SS1619740432849","trial","","40","500","3472.7900000289083","images/stimuli/spore_stims/complex_16_A_b.gif","images/stimuli/spore_stims/complex_08_A_a.gif","self_paced","","8","complex_dissimilar","images/stimuli/spore_stims/complex_16_A_b.gif","","","","",""
"","null","html-keyboard-response","99","1287545","0.0-25.0-0.3","SS1619740432849","","","null","","","","","","<p><img src= images/blank.png width =""600"" height = ""600"" style=""position:fixed;top:50%; left:50%; transform: translate(-50%, -50%); border:5px solid black"">","","","","","","","",""
"","523.1650000205263","sequential-stimulus-presentation-old","100","1288572","0.0-25.0-1.3","SS1619740432849","trial","","40","500","1023.1650000205263","images/stimuli/spore_stims/complex_16_A_b.gif","images/stimuli/spore_stims/complex_08_A_a.gif","self_paced","","8","complex_dissimilar","images/stimuli/spore_stims/complex_08_A_a.gif","","","","",""
"","null","html-keyboard-response","101","1289670","0.0-25.0-0.4","SS1619740432849","","","null","","","","","","<p><img src= images/blank.png width =""600"" height = ""600"" style=""position:fixed;top:50%; left:50%; transform: translate(-50%, -50%); border:5px solid black"">","","","","","","","",""
"","141.9400000013411","sequential-stimulus-presentation-old","102","1290316","0.0-25.0-1.4","SS1619740432849","trial","","40","500","641.9400000013411","images/stimuli/spore_stims/complex_16_A_b.gif","images/stimuli/spore_stims/complex_08_A_a.gif","self_paced","","8","complex_dissimilar","images/stimuli/spore_stims/complex_08_A_a.gif","","","","",""
"","null","html-keyboard-response","103","1291137","0.0-25.0-0.5","SS1619740432849","","","null","","","","","","<p><img src= images/blank.png width =""600"" height = ""600"" style=""position:fixed;top:50%; left:50%; transform: translate(-50%, -50%); border:5px solid black"">","","","","","","","",""
"","802.3349998984486","sequential-stimulus-presentation-old","104","1292445","0.0-25.0-1.5","SS1619740432849","trial","","40","500","1302.3349998984486","images/stimuli/spore_stims/complex_16_A_b.gif","images/stimuli/spore_stims/complex_08_A_a.gif","self_paced","","8","complex_dissimilar","images/stimuli/spore_stims/complex_08_A_a.gif","","","","",""
"","2604.784999974072","survey-multi-choice","105","1295053","0.0-26.0","SS1619740432849","math_question","","","","","","","","","","","","{""Q0"":""5""}","[0]","5","",""
"","null","html-keyboard-response","106","1296256","0.0-27.0-0.0","SS1619740432849","","","null","","","","","","<p><img src= images/blank.png width =""600"" height = ""600"" style=""position:fixed;top:50%; left:50%; transform: translate(-50%, -50%); border:5px solid black"">","","","","","","","",""
"","4067.5800000317395","sequential-stimulus-presentation-old","107","1315327","0.0-27.0-1.0","SS1619740432849","trial","","40","500","4567.5800000317395","images/stimuli/spore_stims/complex_07_A_b.gif","images/stimuli/spore_stims/complex_14_A_a.gif","forced_long","","9","complex_dissimilar","images/stimuli/spore_stims/complex_14_A_a.gif","","","","",""
"","null","html-keyboard-response","108","1316332","0.0-27.0-0.1","SS1619740432849","","","null","","","","","","<p><img src= images/blank.png width =""600"" height = ""600"" style=""position:fixed;top:50%; left:50%; transform: translate(-50%, -50%); border:5px solid black"">","","","","","","","",""
"","282.7749999705702","sequential-stimulus-presentation-old","109","1317119","0.0-27.0-1.1","SS1619740432849","trial","","40","500","782.7749999705702","images/stimuli/spore_stims/complex_07_A_b.gif","images/stimuli/spore_stims/complex_14_A_a.gif","forced_long","","9","complex_dissimilar","images/stimuli/spore_stims/complex_14_A_a.gif","","","","",""
"","null","html-keyboard-response","110","1318209","0.0-27.0-0.2","SS1619740432849","","","null","","","","","","<p><img src= images/blank.png width =""600"" height = ""600"" style=""position:fixed;top:50%; left:50%; transform: translate(-50%, -50%); border:5px solid black"">","","","","","","","",""
"","2325.569999986328","sequential-stimulus-presentation-old","111","1321039","0.0-27.0-1.2","SS1619740432849","trial","","40","500","2825.569999986328","images/stimuli/spore_stims/complex_07_A_b.gif","images/stimuli/spore_stims/complex_14_A_a.gif","forced_long","","9","complex_dissimilar","images/stimuli/spore_stims/complex_14_A_a.gif","","","","",""
"","null","html-keyboard-response","112","1322300","0.0-27.0-0.3","SS1619740432849","","","null","","","","","","<p><img src= images/blank.png width =""600"" height = ""600"" style=""position:fixed;top:50%; left:50%; transform: translate(-50%, -50%); border:5px solid black"">","","","","","","","",""
"","3307.314999983646","sequential-stimulus-presentation-old","113","1326112","0.0-27.0-1.3","SS1619740432849","trial","","40","500","3807.314999983646","images/stimuli/spore_stims/complex_07_A_b.gif","images/stimuli/spore_stims/complex_14_A_a.gif","forced_long","","9","complex_dissimilar","images/stimuli/spore_stims/complex_07_A_b.gif","","","","",""
"","null","html-keyboard-response","114","1327351","0.0-27.0-0.4","SS1619740432849","","","null","","","","","","<p><img src= images/blank.png width =""600"" height = ""600"" style=""position:fixed;top:50%; left:50%; transform: translate(-50%, -50%); border:5px solid black"">","","","","","","","",""
"","568.7449999386445","sequential-stimulus-presentation-old","115","1328424","0.0-27.0-1.4","SS1619740432849","trial","","40","500","1068.7449999386445","images/stimuli/spore_stims/complex_07_A_b.gif","images/stimuli/spore_stims/complex_14_A_a.gif","forced_long","","9","complex_dissimilar","images/stimuli/spore_stims/complex_14_A_a.gif","","","","",""
"","null","html-keyboard-response","116","1329488","0.0-27.0-0.5","SS1619740432849","","","null","","","","","","<p><img src= images/blank.png width =""600"" height = ""600"" style=""position:fixed;top:50%; left:50%; transform: translate(-50%, -50%); border:5px solid black"">","","","","","","","",""
"","207.07499992568046","sequential-stimulus-presentation-old","117","1330200","0.0-27.0-1.5","SS1619740432849","trial","","40","500","707.0749999256805","images/stimuli/spore_stims/complex_07_A_b.gif","images/stimuli/spore_stims/complex_14_A_a.gif","forced_long","","9","complex_dissimilar","images/stimuli/spore_stims/complex_07_A_b.gif","","","","",""
"","2325.0799999805167","survey-multi-choice","118","1332528","0.0-28.0","SS1619740432849","math_question","","","","","","","","","","","","{""Q0"":""6""}","[0]","6","",""
"","null","html-keyboard-response","119","1333624","0.0-29.0-0.0","SS1619740432849","","","null","","","","","","<p><img src= images/blank.png width =""600"" height = ""600"" style=""position:fixed;top:50%; left:50%; transform: translate(-50%, -50%); border:5px solid black"">","","","","","","","",""
"","4726.800000062212","sequential-stimulus-presentation-old","120","1353355","0.0-29.0-1.0","SS1619740432849","trial","","40","500","5226.800000062212","images/stimuli/spore_stims/simple_07_A_a.gif","images/stimuli/spore_stims/simple_14_A_b.gif","forced_long","","10","simple_dissimilar","images/stimuli/spore_stims/simple_14_A_b.gif","","","","",""
"","null","html-keyboard-response","121","1354462","0.0-29.0-0.1","SS1619740432849","","","null","","","","","","<p><img src= images/blank.png width =""600"" height = ""600"" style=""position:fixed;top:50%; left:50%; transform: translate(-50%, -50%); border:5px solid black"">","","","","","","","",""
"","795.7500000484288","sequential-stimulus-presentation-old","122","1355763","0.0-29.0-1.1","SS1619740432849","trial","","40","500","1295.7500000484288","images/stimuli/spore_stims/simple_07_A_a.gif","images/stimuli/spore_stims/simple_14_A_b.gif","forced_long","","10","simple_dissimilar","images/stimuli/spore_stims/simple_14_A_b.gif","","","","",""
"","null","html-keyboard-response","123","1356822","0.0-29.0-0.2","SS1619740432849","","","null","","","","","","<p><img src= images/blank.png width =""600"" height = ""600"" style=""position:fixed;top:50%; left:50%; transform: translate(-50%, -50%); border:5px solid black"">","","","","","","","",""
"","1219.8900000657886","sequential-stimulus-presentation-old","124","1358547","0.0-29.0-1.2","SS1619740432849","trial","","40","500","1719.8900000657886","images/stimuli/spore_stims/simple_07_A_a.gif","images/stimuli/spore_stims/simple_14_A_b.gif","forced_long","","10","simple_dissimilar","images/stimuli/spore_stims/simple_07_A_a.gif","","","","",""
"","null","html-keyboard-response","125","1359497","0.0-29.0-0.3","SS1619740432849","","","null","","","","","","<p><img src= images/blank.png width =""600"" height = ""600"" style=""position:fixed;top:50%; left:50%; transform: translate(-50%, -50%); border:5px solid black"">","","","","","","","",""
"","880.9650000184774","sequential-stimulus-presentation-old","126","1360883","0.0-29.0-1.3","SS1619740432849","trial","","40","500","1380.9650000184774","images/stimuli/spore_stims/simple_07_A_a.gif","images/stimuli/spore_stims/simple_14_A_b.gif","forced_long","","10","simple_dissimilar","images/stimuli/spore_stims/simple_14_A_b.gif","","","","",""
"","null","html-keyboard-response","127","1362048","0.0-29.0-0.4","SS1619740432849","","","null","","","","","","<p><img src= images/blank.png width =""600"" height = ""600"" style=""position:fixed;top:50%; left:50%; transform: translate(-50%, -50%); border:5px solid black"">","","","","","","","",""
"","682.730000000447","sequential-stimulus-presentation-old","128","1363236","0.0-29.0-1.4","SS1619740432849","trial","","40","500","1182.730000000447","images/stimuli/spore_stims/simple_07_A_a.gif","images/stimuli/spore_stims/simple_14_A_b.gif","forced_long","","10","simple_dissimilar","images/stimuli/spore_stims/simple_14_A_b.gif","","","","",""
"","null","html-keyboard-response","129","1364188","0.0-29.0-0.5","SS1619740432849","","","null","","","","","","<p><img src= images/blank.png width =""600"" height = ""600"" style=""position:fixed;top:50%; left:50%; transform: translate(-50%, -50%); border:5px solid black"">","","","","","","","",""
"","1263.145000091754","sequential-stimulus-presentation-old","130","1365956","0.0-29.0-1.5","SS1619740432849","trial","","40","500","1763.145000091754","images/stimuli/spore_stims/simple_07_A_a.gif","images/stimuli/spore_stims/simple_14_A_b.gif","forced_long","","10","simple_dissimilar","images/stimuli/spore_stims/simple_07_A_a.gif","","","","",""
"","2492.604999919422","survey-multi-choice","131","1368452","0.0-30.0","SS1619740432849","math_question","","","","","","","","","","","","{""Q0"":""16""}","[0]","16","",""
"","null","html-keyboard-response","132","1369550","0.0-31.0-0.0","SS1619740432849","","","null","","","","","","<p><img src= images/blank.png width =""600"" height = ""600"" style=""position:fixed;top:50%; left:50%; transform: translate(-50%, -50%); border:5px solid black"">","","","","","","","",""
"","4079.410000005737","sequential-stimulus-presentation-old","133","1374133","0.0-31.0-1.0","SS1619740432849","trial","","40","500","4579.410000005737","images/stimuli/spore_stims/simple_20_A_b.gif","images/stimuli/spore_stims/simple_06_A_a.gif","self_paced","","11","simple_dissimilar","images/stimuli/spore_stims/simple_06_A_a.gif","","","","",""
"","null","html-keyboard-response","134","1375158","0.0-31.0-0.1","SS1619740432849","","","null","","","","","","<p><img src= images/blank.png width =""600"" height = ""600"" style=""position:fixed;top:50%; left:50%; transform: translate(-50%, -50%); border:5px solid black"">","","","","","","","",""
"","318.2700000470504","sequential-stimulus-presentation-old","135","1375982","0.0-31.0-1.1","SS1619740432849","trial","","40","500","818.2700000470504","images/stimuli/spore_stims/simple_20_A_b.gif","images/stimuli/spore_stims/simple_06_A_a.gif","self_paced","","11","simple_dissimilar","images/stimuli/spore_stims/simple_06_A_a.gif","","","","",""
"","null","html-keyboard-response","136","1377249","0.0-31.0-0.2","SS1619740432849","","","null","","","","","","<p><img src= images/blank.png width =""600"" height = ""600"" style=""position:fixed;top:50%; left:50%; transform: translate(-50%, -50%); border:5px solid black"">","","","","","","","",""
"","3443.0600000778213","sequential-stimulus-presentation-old","137","1381197","0.0-31.0-1.2","SS1619740432849","trial","","40","500","3943.0600000778213","images/stimuli/spore_stims/simple_20_A_b.gif","images/stimuli/spore_stims/simple_06_A_a.gif","self_paced","","11","simple_dissimilar","images/stimuli/spore_stims/simple_06_A_a.gif","","","","",""
"","null","html-keyboard-response","138","1382268","0.0-31.0-0.3","SS1619740432849","","","null","","","","","","<p><img src= images/blank.png width =""600"" height = ""600"" style=""position:fixed;top:50%; left:50%; transform: translate(-50%, -50%); border:5px solid black"">","","","","","","","",""
"","2968.375000054948","sequential-stimulus-presentation-old","139","1385742","0.0-31.0-1.3","SS1619740432849","trial","","40","500","3468.375000054948","images/stimuli/spore_stims/simple_20_A_b.gif","images/stimuli/spore_stims/simple_06_A_a.gif","self_paced","","11","simple_dissimilar","images/stimuli/spore_stims/simple_06_A_a.gif","","","","",""
"","null","html-keyboard-response","140","1386760","0.0-31.0-0.4","SS1619740432849","","","null","","","","","","<p><img src= images/blank.png width =""600"" height = ""600"" style=""position:fixed;top:50%; left:50%; transform: translate(-50%, -50%); border:5px solid black"">","","","","","","","",""
"","564.2600000137463","sequential-stimulus-presentation-old","141","1387830","0.0-31.0-1.4","SS1619740432849","trial","","40","500","1064.2600000137463","images/stimuli/spore_stims/simple_20_A_b.gif","images/stimuli/spore_stims/simple_06_A_a.gif","self_paced","","11","simple_dissimilar","images/stimuli/spore_stims/simple_20_A_b.gif","","","","",""
"","null","html-keyboard-response","142","1388679","0.0-31.0-0.5","SS1619740432849","","","null","","","","","","<p><img src= images/blank.png width =""600"" height = ""600"" style=""position:fixed;top:50%; left:50%; transform: translate(-50%, -50%); border:5px solid black"">","","","","","","","",""
"","46.519999974407256","sequential-stimulus-presentation-old","143","1389230","0.0-31.0-1.5","SS1619740432849","trial","","40","500","546.5199999744073","images/stimuli/spore_stims/simple_20_A_b.gif","images/stimuli/spore_stims/simple_06_A_a.gif","self_paced","","11","simple_dissimilar","images/stimuli/spore_stims/simple_20_A_b.gif","","","","",""
"[{""page_index"":0,""viewing_time"":2884.650000021793}]","2885.03500004299","instructions","144","1392118","0.0-32.0","SS1619740432849","instructions","","","","","","","","","","","","","","","",""
"","3237.7100000157952","survey-likert","145","1395359","0.0-33.0","SS1619740432849","similarity_question","","","","","","","","","","","","{""Q0"":4}","[0]","","images/stimuli/spore_stims/complex_17_A_b.gif","images/stimuli/spore_stims/complex_06_A_a.gif"
"","4004.824999952689","survey-likert","146","1399367","0.0-34.0","SS1619740432849","similarity_question","","","","","","","","","","","","{""Q0"":1}","[0]","","images/stimuli/spore_stims/complex_19_A_b.gif","images/stimuli/spore_stims/complex_03_A_a.gif"
"","3316.980000003241","survey-likert","147","1402688","0.0-35.0","SS1619740432849","similarity_question","","","","","","","","","","","","{""Q0"":6}","[0]","","images/stimuli/spore_stims/simple_06_A_a.gif","images/stimuli/spore_stims/simple_20_A_b.gif"
"","2189.2249999800697","survey-likert","148","1404880","0.0-36.0","SS1619740432849","similarity_question","","","","","","","","","","","","{""Q0"":4}","[0]","","images/stimuli/spore_stims/simple_14_A_b.gif","images/stimuli/spore_stims/simple_07_A_a.gif"
"","3212.8350000130013","survey-likert","149","1408096","0.0-37.0","SS1619740432849","similarity_question","","","","","","","","","","","","{""Q0"":4}","[0]","","images/stimuli/spore_stims/simple_09_A_b.gif","images/stimuli/spore_stims/simple_16_A_a.gif"
"","2253.125000046566","survey-likert","150","1410352","0.0-38.0","SS1619740432849","similarity_question","","","","","","","","","","","","{""Q0"":2}","[0]","","images/stimuli/spore_stims/complex_18_A_b.gif","images/stimuli/spore_stims/complex_07_A_a.gif"
"","2309.190000058152","survey-likert","151","1412664","0.0-39.0","SS1619740432849","similarity_question","","","","","","","","","","","","{""Q0"":5}","[0]","","images/stimuli/spore_stims/simple_10_A_a.gif","images/stimuli/spore_stims/simple_18_A_b.gif"
"","1668.8149999827147","survey-likert","152","1414337","0.0-40.0","SS1619740432849","similarity_question","","","","","","","","","","","","{""Q0"":5}","[0]","","images/stimuli/spore_stims/simple_14_A_a.gif","images/stimuli/spore_stims/simple_07_A_b.gif"
"","8957.415000069886","survey-likert","153","1423297","0.0-41.0","SS1619740432849","similarity_question","","","","","","","","","","","","{""Q0"":0}","[0]","","images/stimuli/spore_stims/complex_06_A_b.gif","images/stimuli/spore_stims/complex_09_A_a.gif"
"","1877.059999969788","survey-likert","154","1425178","0.0-42.0","SS1619740432849","similarity_question","","","","","","","","","","","","{""Q0"":6}","[0]","","images/stimuli/spore_stims/simple_08_A_b.gif","images/stimuli/spore_stims/simple_03_A_a.gif"
"","2148.909999988973","survey-likert","155","1427330","0.0-43.0","SS1619740432849","similarity_question","","","","","","","","","","","","{""Q0"":3}","[0]","","images/stimuli/spore_stims/complex_07_A_b.gif","images/stimuli/spore_stims/complex_14_A_a.gif"
"","3373.7050000345334","survey-likert","156","1430706","0.0-44.0","SS1619740432849","similarity_question","","","","","","","","","","","","{""Q0"":4}","[0]","","images/stimuli/spore_stims/complex_08_A_a.gif","images/stimuli/spore_stims/complex_16_A_b.gif"
"[{""page_index"":0,""viewing_time"":2340.9600000595674}]","2341.2800000514835","instructions","157","1433050","0.0-45.0","SS1619740432849","instructions","","","","","","","","","","","","","","","",""
"","3101.6400000080466","survey-likert","158","1436155","0.0-46.0","SS1619740432849","","","","","","","","","images/stimuli/spore_stims/complex_07_A_a.gif","","","","{""Q0"":5}","[0]","","",""
"","1949.2649999447167","survey-likert","159","1438107","0.0-47.0","SS1619740432849","","","","","","","","","images/stimuli/spore_stims/simple_07_A_a.gif","","","","{""Q0"":0}","[0]","","",""
"","3781.3849999802187","survey-likert","160","1441891","0.0-48.0","SS1619740432849","","","","","","","","","images/stimuli/spore_stims/simple_07_A_b.gif","","","","{""Q0"":0}","[0]","","",""
"","2276.9700000062585","survey-likert","161","1444172","0.0-49.0","SS1619740432849","","","","","","","","","images/stimuli/spore_stims/simple_08_A_b.gif","","","","{""Q0"":0}","[0]","","",""
"","1532.9299999866635","survey-likert","162","1445708","0.0-50.0","SS1619740432849","","","","","","","","","images/stimuli/spore_stims/simple_20_A_b.gif","","","","{""Q0"":0}","[0]","","",""
"","2516.650000005029","survey-likert","163","1448228","0.0-51.0","SS1619740432849","","","","","","","","","images/stimuli/spore_stims/complex_03_A_a.gif","","","","{""Q0"":2}","[0]","","",""
"","2733.1400000257418","survey-likert","164","1450965","0.0-52.0","SS1619740432849","","","","","","","","","images/stimuli/spore_stims/complex_17_A_b.gif","","","","{""Q0"":4}","[0]","","",""
"","2140.995000023395","survey-likert","165","1453109","0.0-53.0","SS1619740432849","","","","","","","","","images/stimuli/spore_stims/complex_14_A_a.gif","","","","{""Q0"":5}","[0]","","",""
"","1716.8500000843778","survey-likert","166","1454829","0.0-54.0","SS1619740432849","","","","","","","","","images/stimuli/spore_stims/complex_06_A_b.gif","","","","{""Q0"":4}","[0]","","",""
"","3004.875000100583","survey-likert","167","1457837","0.0-55.0","SS1619740432849","","","","","","","","","images/stimuli/spore_stims/complex_08_A_a.gif","","","","{""Q0"":5}","[0]","","",""
"","5013.440000009723","survey-likert","168","1462854","0.0-56.0","SS1619740432849","","","","","","","","","images/stimuli/spore_stims/simple_09_A_b.gif","","","","{""Q0"":1}","[0]","","",""
"","1852.9249998973683","survey-likert","169","1464710","0.0-57.0","SS1619740432849","","","","","","","","","images/stimuli/spore_stims/simple_10_A_a.gif","","","","{""Q0"":2}","[0]","","",""
"[{""page_index"":0,""viewing_time"":1364.6749999606982}]","1365.0749999796972","instructions","170","1466078","0.0-58.0","SS1619740432849","instructions","","","","","","","","","","","","","","","",""
"","2124.5650000637397","demog-age","171","1468206","0.0-59.0","SS1619740432849","","","","","","","","","","","","","{""age"":""22""}","","","",""
"","4187.834999989718","demog-ethnic-US","172","1472399","0.0-60.0","SS1619740432849","","","","","","","","","","","","","{""ethnicity"":[""White""]}","[0]","","",""
"","4012.3850000090897","demog-gender-and-education","173","1476415","0.0-61.0","SS1619740432849","","","","","","","","","","","","","{""gender"":""Male"",""education"":""Bachelor's Degree""}","[0,1]","","",""
"","21213.409999967553","survey-text","174","1497633","0.0-62.0","SS1619740432849","feedback","","","","","","","","","","","","{""Q0"":""Simple yet interesting study. You kept the questions simple and straightforward. that's nice""}","","","",""
"[{""page_index"":0,""viewing_time"":1149.2050000233576}]","1149.5750000467524","instructions","175","1498785","0.0-63.0","SS1619740432849","instructions","","","","","","","","","","","","","","","",""
