"view_history","rt","trial_type","trial_index","time_elapsed","internal_node_id","subject","stimulus_type","trial_stimulus","key_press","minimum_viewing_duration","trial_looking_time","block_deviant","block_background","exposure_type","stimulus","block_number","block_type","stimulus_displayed","responses","question_order","math_correct_answer","stimulus_left","stimulus_right"
"[{""page_index"":0,""viewing_time"":11341.390000015963}]","11344.080000009853","instructions","0","11348","0.0-0.0","SS1619740057558","","","","","","","","","","","","","","","","",""
"[{""page_index"":0,""viewing_time"":27085.664999991423},{""page_index"":1,""viewing_time"":8227.169999998296}]","35313.750000001164","instructions","1","48684","0.0-1.0","SS1619740057558","instructions","","","","","","","","","","","","","","","",""
"","6315.11500000488","sequential-stimulus-presentation-old","2","55528","0.0-2.0","SS1619740057558","","","40","500","6815.11500000488","null","null","self_paced","","","","","","","","",""
"","5196.575000009034","sequential-stimulus-presentation-old","3","61238","0.0-3.0","SS1619740057558","","","40","500","5696.575000009034","null","null","self_paced","","","","","","","","",""
"[{""page_index"":0,""viewing_time"":17812.57999999798}]","17813.59999999404","instructions","4","79058","0.0-4.0","SS1619740057558","instructions","","","","","","","","","","","","","","","",""
"","1420.4700000118464","sequential-stimulus-presentation-old","5","95495","0.0-5.0","SS1619740057558","","","40","500","1920.4700000118464","null","null","forced_long","","","","","","","","",""
"","6120.5750000081025","sequential-stimulus-presentation-old","6","102129","0.0-6.0","SS1619740057558","","","40","500","6620.5750000081025","null","null","forced_long","","","","","","","","",""
"[{""page_index"":0,""viewing_time"":4204.924999998184}]","4206.36499999091","instructions","7","106336","0.0-7.0","SS1619740057558","instructions","","","","","","","","","","","","","","","",""
"[{""page_index"":0,""viewing_time"":17459.620000008726},{""page_index"":1,""viewing_time"":14539.415000006557},{""page_index"":2,""viewing_time"":10048.489999986487},{""page_index"":3,""viewing_time"":2828.945000015665},{""page_index"":4,""viewing_time"":5508.704999985639}]","50387.2449999908","instructions","8","156734","0.0-8.0","SS1619740057558","instructions","","","","","","","","","","","","","","","",""
"","null","html-keyboard-response","9","157779","0.0-9.0-0.0","SS1619740057558","","","null","","","","","","<p><img src= images/blank.png width =""600"" height = ""600"" style=""position:fixed;top:50%; left:50%; transform: translate(-50%, -50%); border:5px solid black"">","","","","","","","",""
"","2037.2700000007171","sequential-stimulus-presentation-old","10","174854","0.0-9.0-1.0","SS1619740057558","trial","","40","500","2537.270000000717","images/stimuli/spore_stims/complex_15_A_b.gif","images/stimuli/spore_stims/complex_07_A_a.gif","forced_long","","0","complex_dissimilar","images/stimuli/spore_stims/complex_07_A_a.gif","","","","",""
"","null","html-keyboard-response","11","176173","0.0-9.0-0.1","SS1619740057558","","","null","","","","","","<p><img src= images/blank.png width =""600"" height = ""600"" style=""position:fixed;top:50%; left:50%; transform: translate(-50%, -50%); border:5px solid black"">","","","","","","","",""
"","22172.34499999904","sequential-stimulus-presentation-old","12","198879","0.0-9.0-1.1","SS1619740057558","trial","","40","500","22672.34499999904","images/stimuli/spore_stims/complex_15_A_b.gif","images/stimuli/spore_stims/complex_07_A_a.gif","forced_long","","0","complex_dissimilar","images/stimuli/spore_stims/complex_07_A_a.gif","","","","",""
"","null","html-keyboard-response","13","200192","0.0-9.0-0.2","SS1619740057558","","","null","","","","","","<p><img src= images/blank.png width =""600"" height = ""600"" style=""position:fixed;top:50%; left:50%; transform: translate(-50%, -50%); border:5px solid black"">","","","","","","","",""
"","578.4500000008848","sequential-stimulus-presentation-old","14","201304","0.0-9.0-1.2","SS1619740057558","trial","","40","500","1078.4500000008848","images/stimuli/spore_stims/complex_15_A_b.gif","images/stimuli/spore_stims/complex_07_A_a.gif","forced_long","","0","complex_dissimilar","images/stimuli/spore_stims/complex_07_A_a.gif","","","","",""
"","null","html-keyboard-response","15","202553","0.0-9.0-0.3","SS1619740057558","","","null","","","","","","<p><img src= images/blank.png width =""600"" height = ""600"" style=""position:fixed;top:50%; left:50%; transform: translate(-50%, -50%); border:5px solid black"">","","","","","","","",""
"","675.9350000065751","sequential-stimulus-presentation-old","16","203739","0.0-9.0-1.3","SS1619740057558","trial","","40","500","1175.9350000065751","images/stimuli/spore_stims/complex_15_A_b.gif","images/stimuli/spore_stims/complex_07_A_a.gif","forced_long","","0","complex_dissimilar","images/stimuli/spore_stims/complex_07_A_a.gif","","","","",""
"","5232.734999997774","survey-multi-choice","17","208990","0.0-10.0","SS1619740057558","math_question","","","","","","","","","","","","{""Q0"":""10""}","[0]","10","",""
"","null","html-keyboard-response","18","209935","0.0-11.0-0.0","SS1619740057558","","","null","","","","","","<p><img src= images/blank.png width =""600"" height = ""600"" style=""position:fixed;top:50%; left:50%; transform: translate(-50%, -50%); border:5px solid black"">","","","","","","","",""
"","5293.444999988424","sequential-stimulus-presentation-old","19","215761","0.0-11.0-1.0","SS1619740057558","trial","","40","500","5793.444999988424","images/stimuli/spore_stims/simple_12_A_b.gif","images/stimuli/spore_stims/simple_06_A_a.gif","self_paced","","1","simple_dissimilar","images/stimuli/spore_stims/simple_06_A_a.gif","","","","",""
"","null","html-keyboard-response","20","216634","0.0-11.0-0.1","SS1619740057558","","","null","","","","","","<p><img src= images/blank.png width =""600"" height = ""600"" style=""position:fixed;top:50%; left:50%; transform: translate(-50%, -50%); border:5px solid black"">","","","","","","","",""
"","2034.91000001668","sequential-stimulus-presentation-old","21","219187","0.0-11.0-1.1","SS1619740057558","trial","","40","500","2534.91000001668","images/stimuli/spore_stims/simple_12_A_b.gif","images/stimuli/spore_stims/simple_06_A_a.gif","self_paced","","1","simple_dissimilar","images/stimuli/spore_stims/simple_06_A_a.gif","","","","",""
"","null","html-keyboard-response","22","220008","0.0-11.0-0.2","SS1619740057558","","","null","","","","","","<p><img src= images/blank.png width =""600"" height = ""600"" style=""position:fixed;top:50%; left:50%; transform: translate(-50%, -50%); border:5px solid black"">","","","","","","","",""
"","1951.3800000131596","sequential-stimulus-presentation-old","23","222481","0.0-11.0-1.2","SS1619740057558","trial","","40","500","2451.3800000131596","images/stimuli/spore_stims/simple_12_A_b.gif","images/stimuli/spore_stims/simple_06_A_a.gif","self_paced","","1","simple_dissimilar","images/stimuli/spore_stims/simple_06_A_a.gif","","","","",""
"","null","html-keyboard-response","24","223600","0.0-11.0-0.3","SS1619740057558","","","null","","","","","","<p><img src= images/blank.png width =""600"" height = ""600"" style=""position:fixed;top:50%; left:50%; transform: translate(-50%, -50%); border:5px solid black"">","","","","","","","",""
"","1882.9100000148173","sequential-stimulus-presentation-old","25","225997","0.0-11.0-1.3","SS1619740057558","trial","","40","500","2382.9100000148173","images/stimuli/spore_stims/simple_12_A_b.gif","images/stimuli/spore_stims/simple_06_A_a.gif","self_paced","","1","simple_dissimilar","images/stimuli/spore_stims/simple_06_A_a.gif","","","","",""
"","null","html-keyboard-response","26","227191","0.0-11.0-0.4","SS1619740057558","","","null","","","","","","<p><img src= images/blank.png width =""600"" height = ""600"" style=""position:fixed;top:50%; left:50%; transform: translate(-50%, -50%); border:5px solid black"">","","","","","","","",""
"","1011.6549999802373","sequential-stimulus-presentation-old","27","228726","0.0-11.0-1.4","SS1619740057558","trial","","40","500","1511.6549999802373","images/stimuli/spore_stims/simple_12_A_b.gif","images/stimuli/spore_stims/simple_06_A_a.gif","self_paced","","1","simple_dissimilar","images/stimuli/spore_stims/simple_06_A_a.gif","","","","",""
"","null","html-keyboard-response","28","229921","0.0-11.0-0.5","SS1619740057558","","","null","","","","","","<p><img src= images/blank.png width =""600"" height = ""600"" style=""position:fixed;top:50%; left:50%; transform: translate(-50%, -50%); border:5px solid black"">","","","","","","","",""
"","6070.065000007162","sequential-stimulus-presentation-old","29","236512","0.0-11.0-1.5","SS1619740057558","trial","","40","500","6570.065000007162","images/stimuli/spore_stims/simple_12_A_b.gif","images/stimuli/spore_stims/simple_06_A_a.gif","self_paced","","1","simple_dissimilar","images/stimuli/spore_stims/simple_12_A_b.gif","","","","",""
"","4649.264999985462","survey-multi-choice","30","241171","0.0-12.0","SS1619740057558","math_question","","","","","","","","","","","","{""Q0"":""9""}","[0]","9","",""
"","null","html-keyboard-response","31","242073","0.0-13.0-0.0","SS1619740057558","","","null","","","","","","<p><img src= images/blank.png width =""600"" height = ""600"" style=""position:fixed;top:50%; left:50%; transform: translate(-50%, -50%); border:5px solid black"">","","","","","","","",""
"","2115.5699999944773","sequential-stimulus-presentation-old","32","244712","0.0-13.0-1.0","SS1619740057558","trial","","40","500","2615.5699999944773","images/stimuli/spore_stims/simple_10_A_a.gif","images/stimuli/spore_stims/simple_14_A_b.gif","forced_short","","2","simple_dissimilar","images/stimuli/spore_stims/simple_14_A_b.gif","","","","",""
"","null","html-keyboard-response","33","245972","0.0-13.0-0.1","SS1619740057558","","","null","","","","","","<p><img src= images/blank.png width =""600"" height = ""600"" style=""position:fixed;top:50%; left:50%; transform: translate(-50%, -50%); border:5px solid black"">","","","","","","","",""
"","1722.3800000210758","sequential-stimulus-presentation-old","34","248205","0.0-13.0-1.1","SS1619740057558","trial","","40","500","2222.380000021076","images/stimuli/spore_stims/simple_10_A_a.gif","images/stimuli/spore_stims/simple_14_A_b.gif","forced_short","","2","simple_dissimilar","images/stimuli/spore_stims/simple_14_A_b.gif","","","","",""
"","null","html-keyboard-response","35","249254","0.0-13.0-0.2","SS1619740057558","","","null","","","","","","<p><img src= images/blank.png width =""600"" height = ""600"" style=""position:fixed;top:50%; left:50%; transform: translate(-50%, -50%); border:5px solid black"">","","","","","","","",""
"","338.1200000003446","sequential-stimulus-presentation-old","36","250108","0.0-13.0-1.2","SS1619740057558","trial","","40","500","838.1200000003446","images/stimuli/spore_stims/simple_10_A_a.gif","images/stimuli/spore_stims/simple_14_A_b.gif","forced_short","","2","simple_dissimilar","images/stimuli/spore_stims/simple_14_A_b.gif","","","","",""
"","null","html-keyboard-response","37","250959","0.0-13.0-0.3","SS1619740057558","","","null","","","","","","<p><img src= images/blank.png width =""600"" height = ""600"" style=""position:fixed;top:50%; left:50%; transform: translate(-50%, -50%); border:5px solid black"">","","","","","","","",""
"","1022.8749999951106","sequential-stimulus-presentation-old","38","252500","0.0-13.0-1.3","SS1619740057558","trial","","40","500","1522.8749999951106","images/stimuli/spore_stims/simple_10_A_a.gif","images/stimuli/spore_stims/simple_14_A_b.gif","forced_short","","2","simple_dissimilar","images/stimuli/spore_stims/simple_14_A_b.gif","","","","",""
"","13073.299999989104","survey-multi-choice","39","265585","0.0-14.0","SS1619740057558","math_question","","","","","","","","","","","","{""Q0"":""17""}","[0]","17","",""
"","null","html-keyboard-response","40","266443","0.0-15.0-0.0","SS1619740057558","","","null","","","","","","<p><img src= images/blank.png width =""600"" height = ""600"" style=""position:fixed;top:50%; left:50%; transform: translate(-50%, -50%); border:5px solid black"">","","","","","","","",""
"","1618.5549999936484","sequential-stimulus-presentation-old","41","283080","0.0-15.0-1.0","SS1619740057558","trial","","40","500","2118.5549999936484","images/stimuli/spore_stims/simple_01_A_a.gif","images/stimuli/spore_stims/simple_17_A_b.gif","forced_long","","3","simple_dissimilar","images/stimuli/spore_stims/simple_17_A_b.gif","","","","",""
"","null","html-keyboard-response","42","284378","0.0-15.0-0.1","SS1619740057558","","","null","","","","","","<p><img src= images/blank.png width =""600"" height = ""600"" style=""position:fixed;top:50%; left:50%; transform: translate(-50%, -50%); border:5px solid black"">","","","","","","","",""
"","375.7749999931548","sequential-stimulus-presentation-old","43","285276","0.0-15.0-1.1","SS1619740057558","trial","","40","500","875.7749999931548","images/stimuli/spore_stims/simple_01_A_a.gif","images/stimuli/spore_stims/simple_17_A_b.gif","forced_long","","3","simple_dissimilar","images/stimuli/spore_stims/simple_17_A_b.gif","","","","",""
"","null","html-keyboard-response","44","286413","0.0-15.0-0.2","SS1619740057558","","","null","","","","","","<p><img src= images/blank.png width =""600"" height = ""600"" style=""position:fixed;top:50%; left:50%; transform: translate(-50%, -50%); border:5px solid black"">","","","","","","","",""
"","1660.4800000204705","sequential-stimulus-presentation-old","45","288596","0.0-15.0-1.2","SS1619740057558","trial","","40","500","2160.4800000204705","images/stimuli/spore_stims/simple_01_A_a.gif","images/stimuli/spore_stims/simple_17_A_b.gif","forced_long","","3","simple_dissimilar","images/stimuli/spore_stims/simple_01_A_a.gif","","","","",""
"","null","html-keyboard-response","46","289887","0.0-15.0-0.3","SS1619740057558","","","null","","","","","","<p><img src= images/blank.png width =""600"" height = ""600"" style=""position:fixed;top:50%; left:50%; transform: translate(-50%, -50%); border:5px solid black"">","","","","","","","",""
"","104.16499999701045","sequential-stimulus-presentation-old","47","290515","0.0-15.0-1.3","SS1619740057558","trial","","40","500","604.1649999970105","images/stimuli/spore_stims/simple_01_A_a.gif","images/stimuli/spore_stims/simple_17_A_b.gif","forced_long","","3","simple_dissimilar","images/stimuli/spore_stims/simple_17_A_b.gif","","","","",""
"","null","html-keyboard-response","48","291693","0.0-15.0-0.4","SS1619740057558","","","null","","","","","","<p><img src= images/blank.png width =""600"" height = ""600"" style=""position:fixed;top:50%; left:50%; transform: translate(-50%, -50%); border:5px solid black"">","","","","","","","",""
"","2479.705000005197","sequential-stimulus-presentation-old","49","294680","0.0-15.0-1.4","SS1619740057558","trial","","40","500","2979.705000005197","images/stimuli/spore_stims/simple_01_A_a.gif","images/stimuli/spore_stims/simple_17_A_b.gif","forced_long","","3","simple_dissimilar","images/stimuli/spore_stims/simple_17_A_b.gif","","","","",""
"","null","html-keyboard-response","50","295879","0.0-15.0-0.5","SS1619740057558","","","null","","","","","","<p><img src= images/blank.png width =""600"" height = ""600"" style=""position:fixed;top:50%; left:50%; transform: translate(-50%, -50%); border:5px solid black"">","","","","","","","",""
"","1518.7499999883585","sequential-stimulus-presentation-old","51","297917","0.0-15.0-1.5","SS1619740057558","trial","","40","500","2018.7499999883585","images/stimuli/spore_stims/simple_01_A_a.gif","images/stimuli/spore_stims/simple_17_A_b.gif","forced_long","","3","simple_dissimilar","images/stimuli/spore_stims/simple_01_A_a.gif","","","","",""
"","6919.200000003912","survey-multi-choice","52","304853","0.0-16.0","SS1619740057558","math_question","","","","","","","","","","","","{""Q0"":""11""}","[0]","11","",""
"","null","html-keyboard-response","53","306088","0.0-17.0-0.0","SS1619740057558","","","null","","","","","","<p><img src= images/blank.png width =""600"" height = ""600"" style=""position:fixed;top:50%; left:50%; transform: translate(-50%, -50%); border:5px solid black"">","","","","","","","",""
"","4090.939999994589","sequential-stimulus-presentation-old","54","310697","0.0-17.0-1.0","SS1619740057558","trial","","40","500","4590.939999994589","images/stimuli/spore_stims/simple_11_A_b.gif","images/stimuli/spore_stims/simple_20_A_a.gif","forced_short","","4","simple_dissimilar","images/stimuli/spore_stims/simple_20_A_a.gif","","","","",""
"","null","html-keyboard-response","55","311583","0.0-17.0-0.1","SS1619740057558","","","null","","","","","","<p><img src= images/blank.png width =""600"" height = ""600"" style=""position:fixed;top:50%; left:50%; transform: translate(-50%, -50%); border:5px solid black"">","","","","","","","",""
"","4824.475000001257","sequential-stimulus-presentation-old","56","316919","0.0-17.0-1.1","SS1619740057558","trial","","40","500","5324.475000001257","images/stimuli/spore_stims/simple_11_A_b.gif","images/stimuli/spore_stims/simple_20_A_a.gif","forced_short","","4","simple_dissimilar","images/stimuli/spore_stims/simple_20_A_a.gif","","","","",""
"","null","html-keyboard-response","57","318103","0.0-17.0-0.2","SS1619740057558","","","null","","","","","","<p><img src= images/blank.png width =""600"" height = ""600"" style=""position:fixed;top:50%; left:50%; transform: translate(-50%, -50%); border:5px solid black"">","","","","","","","",""
"","1845.9299999813084","sequential-stimulus-presentation-old","58","320480","0.0-17.0-1.2","SS1619740057558","trial","","40","500","2345.9299999813084","images/stimuli/spore_stims/simple_11_A_b.gif","images/stimuli/spore_stims/simple_20_A_a.gif","forced_short","","4","simple_dissimilar","images/stimuli/spore_stims/simple_11_A_b.gif","","","","",""
"","null","html-keyboard-response","59","321357","0.0-17.0-0.3","SS1619740057558","","","null","","","","","","<p><img src= images/blank.png width =""600"" height = ""600"" style=""position:fixed;top:50%; left:50%; transform: translate(-50%, -50%); border:5px solid black"">","","","","","","","",""
"","1193.6200000054669","sequential-stimulus-presentation-old","60","323068","0.0-17.0-1.3","SS1619740057558","trial","","40","500","1693.6200000054669","images/stimuli/spore_stims/simple_11_A_b.gif","images/stimuli/spore_stims/simple_20_A_a.gif","forced_short","","4","simple_dissimilar","images/stimuli/spore_stims/simple_20_A_a.gif","","","","",""
"","null","html-keyboard-response","61","324178","0.0-17.0-0.4","SS1619740057558","","","null","","","","","","<p><img src= images/blank.png width =""600"" height = ""600"" style=""position:fixed;top:50%; left:50%; transform: translate(-50%, -50%); border:5px solid black"">","","","","","","","",""
"","239.18499998399056","sequential-stimulus-presentation-old","62","324935","0.0-17.0-1.4","SS1619740057558","trial","","40","500","739.1849999839906","images/stimuli/spore_stims/simple_11_A_b.gif","images/stimuli/spore_stims/simple_20_A_a.gif","forced_short","","4","simple_dissimilar","images/stimuli/spore_stims/simple_20_A_a.gif","","","","",""
"","null","html-keyboard-response","63","325977","0.0-17.0-0.5","SS1619740057558","","","null","","","","","","<p><img src= images/blank.png width =""600"" height = ""600"" style=""position:fixed;top:50%; left:50%; transform: translate(-50%, -50%); border:5px solid black"">","","","","","","","",""
"","222.33499999856576","sequential-stimulus-presentation-old","64","326740","0.0-17.0-1.5","SS1619740057558","trial","","40","500","722.3349999985658","images/stimuli/spore_stims/simple_11_A_b.gif","images/stimuli/spore_stims/simple_20_A_a.gif","forced_short","","4","simple_dissimilar","images/stimuli/spore_stims/simple_11_A_b.gif","","","","",""
"","5273.0299999821","survey-multi-choice","65","332023","0.0-18.0","SS1619740057558","math_question","","","","","","","","","","","","{""Q0"":""8""}","[0]","8","",""
"","null","html-keyboard-response","66","333162","0.0-19.0-0.0","SS1619740057558","","","null","","","","","","<p><img src= images/blank.png width =""600"" height = ""600"" style=""position:fixed;top:50%; left:50%; transform: translate(-50%, -50%); border:5px solid black"">","","","","","","","",""
"","2208.4100000211038","sequential-stimulus-presentation-old","67","335904","0.0-19.0-1.0","SS1619740057558","trial","","40","500","2708.4100000211038","images/stimuli/spore_stims/complex_06_A_b.gif","images/stimuli/spore_stims/complex_19_A_a.gif","forced_short","","5","complex_dissimilar","images/stimuli/spore_stims/complex_19_A_a.gif","","","","",""
"","null","html-keyboard-response","68","336719","0.0-19.0-0.1","SS1619740057558","","","null","","","","","","<p><img src= images/blank.png width =""600"" height = ""600"" style=""position:fixed;top:50%; left:50%; transform: translate(-50%, -50%); border:5px solid black"">","","","","","","","",""
"","5399.1600000008475","sequential-stimulus-presentation-old","69","342646","0.0-19.0-1.1","SS1619740057558","trial","","40","500","5899.1600000008475","images/stimuli/spore_stims/complex_06_A_b.gif","images/stimuli/spore_stims/complex_19_A_a.gif","forced_short","","5","complex_dissimilar","images/stimuli/spore_stims/complex_19_A_a.gif","","","","",""
"","null","html-keyboard-response","70","343935","0.0-19.0-0.2","SS1619740057558","","","null","","","","","","<p><img src= images/blank.png width =""600"" height = ""600"" style=""position:fixed;top:50%; left:50%; transform: translate(-50%, -50%); border:5px solid black"">","","","","","","","",""
"","3090.9000000101514","sequential-stimulus-presentation-old","71","347552","0.0-19.0-1.2","SS1619740057558","trial","","40","500","3590.9000000101514","images/stimuli/spore_stims/complex_06_A_b.gif","images/stimuli/spore_stims/complex_19_A_a.gif","forced_short","","5","complex_dissimilar","images/stimuli/spore_stims/complex_06_A_b.gif","","","","",""
"","null","html-keyboard-response","72","348756","0.0-19.0-0.3","SS1619740057558","","","null","","","","","","<p><img src= images/blank.png width =""600"" height = ""600"" style=""position:fixed;top:50%; left:50%; transform: translate(-50%, -50%); border:5px solid black"">","","","","","","","",""
"","170.83499999716878","sequential-stimulus-presentation-old","73","349447","0.0-19.0-1.3","SS1619740057558","trial","","40","500","670.8349999971688","images/stimuli/spore_stims/complex_06_A_b.gif","images/stimuli/spore_stims/complex_19_A_a.gif","forced_short","","5","complex_dissimilar","images/stimuli/spore_stims/complex_06_A_b.gif","","","","",""
"","null","html-keyboard-response","74","350630","0.0-19.0-0.4","SS1619740057558","","","null","","","","","","<p><img src= images/blank.png width =""600"" height = ""600"" style=""position:fixed;top:50%; left:50%; transform: translate(-50%, -50%); border:5px solid black"">","","","","","","","",""
"","124.15000001783483","sequential-stimulus-presentation-old","75","351276","0.0-19.0-1.4","SS1619740057558","trial","","40","500","624.1500000178348","images/stimuli/spore_stims/complex_06_A_b.gif","images/stimuli/spore_stims/complex_19_A_a.gif","forced_short","","5","complex_dissimilar","images/stimuli/spore_stims/complex_19_A_a.gif","","","","",""
"","null","html-keyboard-response","76","352455","0.0-19.0-0.5","SS1619740057558","","","null","","","","","","<p><img src= images/blank.png width =""600"" height = ""600"" style=""position:fixed;top:50%; left:50%; transform: translate(-50%, -50%); border:5px solid black"">","","","","","","","",""
"","661.2749999912921","sequential-stimulus-presentation-old","77","353636","0.0-19.0-1.5","SS1619740057558","trial","","40","500","1161.2749999912921","images/stimuli/spore_stims/complex_06_A_b.gif","images/stimuli/spore_stims/complex_19_A_a.gif","forced_short","","5","complex_dissimilar","images/stimuli/spore_stims/complex_19_A_a.gif","","","","",""
"","3644.2999999853782","survey-multi-choice","78","357295","0.0-20.0","SS1619740057558","math_question","","","","","","","","","","","","{""Q0"":""9""}","[0]","9","",""
"","null","html-keyboard-response","79","358340","0.0-21.0-0.0","SS1619740057558","","","null","","","","","","<p><img src= images/blank.png width =""600"" height = ""600"" style=""position:fixed;top:50%; left:50%; transform: translate(-50%, -50%); border:5px solid black"">","","","","","","","",""
"","1985.8800000220072","sequential-stimulus-presentation-old","80","360860","0.0-21.0-1.0","SS1619740057558","trial","","40","500","2485.880000022007","images/stimuli/spore_stims/complex_13_A_b.gif","images/stimuli/spore_stims/complex_15_A_a.gif","forced_short","","6","complex_dissimilar","images/stimuli/spore_stims/complex_15_A_a.gif","","","","",""
"","null","html-keyboard-response","81","361790","0.0-21.0-0.1","SS1619740057558","","","null","","","","","","<p><img src= images/blank.png width =""600"" height = ""600"" style=""position:fixed;top:50%; left:50%; transform: translate(-50%, -50%); border:5px solid black"">","","","","","","","",""
"","1367.6649999979418","sequential-stimulus-presentation-old","82","363684","0.0-21.0-1.1","SS1619740057558","trial","","40","500","1867.6649999979418","images/stimuli/spore_stims/complex_13_A_b.gif","images/stimuli/spore_stims/complex_15_A_a.gif","forced_short","","6","complex_dissimilar","images/stimuli/spore_stims/complex_15_A_a.gif","","","","",""
"","null","html-keyboard-response","83","364948","0.0-21.0-0.2","SS1619740057558","","","null","","","","","","<p><img src= images/blank.png width =""600"" height = ""600"" style=""position:fixed;top:50%; left:50%; transform: translate(-50%, -50%); border:5px solid black"">","","","","","","","",""
"","162.83499999553896","sequential-stimulus-presentation-old","84","365628","0.0-21.0-1.2","SS1619740057558","trial","","40","500","662.834999995539","images/stimuli/spore_stims/complex_13_A_b.gif","images/stimuli/spore_stims/complex_15_A_a.gif","forced_short","","6","complex_dissimilar","images/stimuli/spore_stims/complex_15_A_a.gif","","","","",""
"","null","html-keyboard-response","85","366950","0.0-21.0-0.3","SS1619740057558","","","null","","","","","","<p><img src= images/blank.png width =""600"" height = ""600"" style=""position:fixed;top:50%; left:50%; transform: translate(-50%, -50%); border:5px solid black"">","","","","","","","",""
"","1797.64500001329","sequential-stimulus-presentation-old","86","369267","0.0-21.0-1.3","SS1619740057558","trial","","40","500","2297.64500001329","images/stimuli/spore_stims/complex_13_A_b.gif","images/stimuli/spore_stims/complex_15_A_a.gif","forced_short","","6","complex_dissimilar","images/stimuli/spore_stims/complex_15_A_a.gif","","","","",""
"","null","html-keyboard-response","87","370396","0.0-21.0-0.4","SS1619740057558","","","null","","","","","","<p><img src= images/blank.png width =""600"" height = ""600"" style=""position:fixed;top:50%; left:50%; transform: translate(-50%, -50%); border:5px solid black"">","","","","","","","",""
"","74.85000000451691","sequential-stimulus-presentation-old","88","370990","0.0-21.0-1.4","SS1619740057558","trial","","40","500","574.8500000045169","images/stimuli/spore_stims/complex_13_A_b.gif","images/stimuli/spore_stims/complex_15_A_a.gif","forced_short","","6","complex_dissimilar","images/stimuli/spore_stims/complex_15_A_a.gif","","","","",""
"","8431.129999982659","survey-multi-choice","89","379436","0.0-22.0","SS1619740057558","math_question","","","","","","","","","","","","{""Q0"":""17""}","[0]","17","",""
"","null","html-keyboard-response","90","380326","0.0-23.0-0.0","SS1619740057558","","","null","","","","","","<p><img src= images/blank.png width =""600"" height = ""600"" style=""position:fixed;top:50%; left:50%; transform: translate(-50%, -50%); border:5px solid black"">","","","","","","","",""
"","3057.585000002291","sequential-stimulus-presentation-old","91","383920","0.0-23.0-1.0","SS1619740057558","trial","","40","500","3557.585000002291","images/stimuli/spore_stims/complex_10_A_b.gif","images/stimuli/spore_stims/complex_18_A_a.gif","self_paced","","7","complex_dissimilar","images/stimuli/spore_stims/complex_18_A_a.gif","","","","",""
"","null","html-keyboard-response","92","385044","0.0-23.0-0.1","SS1619740057558","","","null","","","","","","<p><img src= images/blank.png width =""600"" height = ""600"" style=""position:fixed;top:50%; left:50%; transform: translate(-50%, -50%); border:5px solid black"">","","","","","","","",""
"","786.13000002224","sequential-stimulus-presentation-old","93","386362","0.0-23.0-1.1","SS1619740057558","trial","","40","500","1286.13000002224","images/stimuli/spore_stims/complex_10_A_b.gif","images/stimuli/spore_stims/complex_18_A_a.gif","self_paced","","7","complex_dissimilar","images/stimuli/spore_stims/complex_18_A_a.gif","","","","",""
"","null","html-keyboard-response","94","387444","0.0-23.0-0.2","SS1619740057558","","","null","","","","","","<p><img src= images/blank.png width =""600"" height = ""600"" style=""position:fixed;top:50%; left:50%; transform: translate(-50%, -50%); border:5px solid black"">","","","","","","","",""
"","920.6000000122003","sequential-stimulus-presentation-old","95","388886","0.0-23.0-1.2","SS1619740057558","trial","","40","500","1420.6000000122003","images/stimuli/spore_stims/complex_10_A_b.gif","images/stimuli/spore_stims/complex_18_A_a.gif","self_paced","","7","complex_dissimilar","images/stimuli/spore_stims/complex_18_A_a.gif","","","","",""
"","null","html-keyboard-response","96","389899","0.0-23.0-0.3","SS1619740057558","","","null","","","","","","<p><img src= images/blank.png width =""600"" height = ""600"" style=""position:fixed;top:50%; left:50%; transform: translate(-50%, -50%); border:5px solid black"">","","","","","","","",""
"","319.1400000068825","sequential-stimulus-presentation-old","97","390738","0.0-23.0-1.3","SS1619740057558","trial","","40","500","819.1400000068825","images/stimuli/spore_stims/complex_10_A_b.gif","images/stimuli/spore_stims/complex_18_A_a.gif","self_paced","","7","complex_dissimilar","images/stimuli/spore_stims/complex_10_A_b.gif","","","","",""
"","null","html-keyboard-response","98","391825","0.0-23.0-0.4","SS1619740057558","","","null","","","","","","<p><img src= images/blank.png width =""600"" height = ""600"" style=""position:fixed;top:50%; left:50%; transform: translate(-50%, -50%); border:5px solid black"">","","","","","","","",""
"","958.3349999738857","sequential-stimulus-presentation-old","99","393317","0.0-23.0-1.4","SS1619740057558","trial","","40","500","1458.3349999738857","images/stimuli/spore_stims/complex_10_A_b.gif","images/stimuli/spore_stims/complex_18_A_a.gif","self_paced","","7","complex_dissimilar","images/stimuli/spore_stims/complex_18_A_a.gif","","","","",""
"","3538.235000014538","survey-multi-choice","100","396865","0.0-24.0","SS1619740057558","math_question","","","","","","","","","","","","{""Q0"":""5""}","[0]","5","",""
"","null","html-keyboard-response","101","398047","0.0-25.0-0.0","SS1619740057558","","","null","","","","","","<p><img src= images/blank.png width =""600"" height = ""600"" style=""position:fixed;top:50%; left:50%; transform: translate(-50%, -50%); border:5px solid black"">","","","","","","","",""
"","3366.7199999908917","sequential-stimulus-presentation-old","102","401935","0.0-25.0-1.0","SS1619740057558","trial","","40","500","3866.7199999908917","images/stimuli/spore_stims/simple_04_A_a.gif","images/stimuli/spore_stims/simple_16_A_b.gif","self_paced","","8","simple_dissimilar","images/stimuli/spore_stims/simple_16_A_b.gif","","","","",""
"","null","html-keyboard-response","103","403076","0.0-25.0-0.1","SS1619740057558","","","null","","","","","","<p><img src= images/blank.png width =""600"" height = ""600"" style=""position:fixed;top:50%; left:50%; transform: translate(-50%, -50%); border:5px solid black"">","","","","","","","",""
"","124.52499999199063","sequential-stimulus-presentation-old","104","403728","0.0-25.0-1.1","SS1619740057558","trial","","40","500","624.5249999919906","images/stimuli/spore_stims/simple_04_A_a.gif","images/stimuli/spore_stims/simple_16_A_b.gif","self_paced","","8","simple_dissimilar","images/stimuli/spore_stims/simple_16_A_b.gif","","","","",""
"","null","html-keyboard-response","105","404819","0.0-25.0-0.2","SS1619740057558","","","null","","","","","","<p><img src= images/blank.png width =""600"" height = ""600"" style=""position:fixed;top:50%; left:50%; transform: translate(-50%, -50%); border:5px solid black"">","","","","","","","",""
"","2160.5950000230223","sequential-stimulus-presentation-old","106","407508","0.0-25.0-1.2","SS1619740057558","trial","","40","500","2660.5950000230223","images/stimuli/spore_stims/simple_04_A_a.gif","images/stimuli/spore_stims/simple_16_A_b.gif","self_paced","","8","simple_dissimilar","images/stimuli/spore_stims/simple_16_A_b.gif","","","","",""
"","null","html-keyboard-response","107","408707","0.0-25.0-0.3","SS1619740057558","","","null","","","","","","<p><img src= images/blank.png width =""600"" height = ""600"" style=""position:fixed;top:50%; left:50%; transform: translate(-50%, -50%); border:5px solid black"">","","","","","","","",""
"","53.07500000344589","sequential-stimulus-presentation-old","108","409278","0.0-25.0-1.3","SS1619740057558","trial","","40","500","553.0750000034459","images/stimuli/spore_stims/simple_04_A_a.gif","images/stimuli/spore_stims/simple_16_A_b.gif","self_paced","","8","simple_dissimilar","images/stimuli/spore_stims/simple_16_A_b.gif","","","","",""
"","null","html-keyboard-response","109","410517","0.0-25.0-0.4","SS1619740057558","","","null","","","","","","<p><img src= images/blank.png width =""600"" height = ""600"" style=""position:fixed;top:50%; left:50%; transform: translate(-50%, -50%); border:5px solid black"">","","","","","","","",""
"","443.9800000109244","sequential-stimulus-presentation-old","110","411484","0.0-25.0-1.4","SS1619740057558","trial","","40","500","943.9800000109244","images/stimuli/spore_stims/simple_04_A_a.gif","images/stimuli/spore_stims/simple_16_A_b.gif","self_paced","","8","simple_dissimilar","images/stimuli/spore_stims/simple_16_A_b.gif","","","","",""
"","null","html-keyboard-response","111","412546","0.0-25.0-0.5","SS1619740057558","","","null","","","","","","<p><img src= images/blank.png width =""600"" height = ""600"" style=""position:fixed;top:50%; left:50%; transform: translate(-50%, -50%); border:5px solid black"">","","","","","","","",""
"","763.3050000004005","sequential-stimulus-presentation-old","112","413830","0.0-25.0-1.5","SS1619740057558","trial","","40","500","1263.3050000004005","images/stimuli/spore_stims/simple_04_A_a.gif","images/stimuli/spore_stims/simple_16_A_b.gif","self_paced","","8","simple_dissimilar","images/stimuli/spore_stims/simple_16_A_b.gif","","","","",""
"","3500.27499999851","survey-multi-choice","113","417343","0.0-26.0","SS1619740057558","math_question","","","","","","","","","","","","{""Q0"":""10""}","[0]","10","",""
"","null","html-keyboard-response","114","418564","0.0-27.0-0.0","SS1619740057558","","","null","","","","","","<p><img src= images/blank.png width =""600"" height = ""600"" style=""position:fixed;top:50%; left:50%; transform: translate(-50%, -50%); border:5px solid black"">","","","","","","","",""
"","2613.8999999966472","sequential-stimulus-presentation-old","115","421708","0.0-27.0-1.0","SS1619740057558","trial","","40","500","3113.8999999966472","images/stimuli/spore_stims/complex_06_A_a.gif","images/stimuli/spore_stims/complex_03_A_b.gif","self_paced","","9","complex_dissimilar","images/stimuli/spore_stims/complex_03_A_b.gif","","","","",""
"","null","html-keyboard-response","116","422583","0.0-27.0-0.1","SS1619740057558","","","null","","","","","","<p><img src= images/blank.png width =""600"" height = ""600"" style=""position:fixed;top:50%; left:50%; transform: translate(-50%, -50%); border:5px solid black"">","","","","","","","",""
"","2503.44000000041","sequential-stimulus-presentation-old","117","425625","0.0-27.0-1.1","SS1619740057558","trial","","40","500","3003.44000000041","images/stimuli/spore_stims/complex_06_A_a.gif","images/stimuli/spore_stims/complex_03_A_b.gif","self_paced","","9","complex_dissimilar","images/stimuli/spore_stims/complex_06_A_a.gif","","","","",""
"","null","html-keyboard-response","118","426942","0.0-27.0-0.2","SS1619740057558","","","null","","","","","","<p><img src= images/blank.png width =""600"" height = ""600"" style=""position:fixed;top:50%; left:50%; transform: translate(-50%, -50%); border:5px solid black"">","","","","","","","",""
"","1714.5000000018626","sequential-stimulus-presentation-old","119","429187","0.0-27.0-1.2","SS1619740057558","trial","","40","500","2214.5000000018626","images/stimuli/spore_stims/complex_06_A_a.gif","images/stimuli/spore_stims/complex_03_A_b.gif","self_paced","","9","complex_dissimilar","images/stimuli/spore_stims/complex_03_A_b.gif","","","","",""
"","null","html-keyboard-response","120","430369","0.0-27.0-0.3","SS1619740057558","","","null","","","","","","<p><img src= images/blank.png width =""600"" height = ""600"" style=""position:fixed;top:50%; left:50%; transform: translate(-50%, -50%); border:5px solid black"">","","","","","","","",""
"","915.6850000144914","sequential-stimulus-presentation-old","121","431806","0.0-27.0-1.3","SS1619740057558","trial","","40","500","1415.6850000144914","images/stimuli/spore_stims/complex_06_A_a.gif","images/stimuli/spore_stims/complex_03_A_b.gif","self_paced","","9","complex_dissimilar","images/stimuli/spore_stims/complex_03_A_b.gif","","","","",""
"","null","html-keyboard-response","122","432772","0.0-27.0-0.4","SS1619740057558","","","null","","","","","","<p><img src= images/blank.png width =""600"" height = ""600"" style=""position:fixed;top:50%; left:50%; transform: translate(-50%, -50%); border:5px solid black"">","","","","","","","",""
"","959.0549999848008","sequential-stimulus-presentation-old","123","434260","0.0-27.0-1.4","SS1619740057558","trial","","40","500","1459.0549999848008","images/stimuli/spore_stims/complex_06_A_a.gif","images/stimuli/spore_stims/complex_03_A_b.gif","self_paced","","9","complex_dissimilar","images/stimuli/spore_stims/complex_03_A_b.gif","","","","",""
"","null","html-keyboard-response","124","435307","0.0-27.0-0.5","SS1619740057558","","","null","","","","","","<p><img src= images/blank.png width =""600"" height = ""600"" style=""position:fixed;top:50%; left:50%; transform: translate(-50%, -50%); border:5px solid black"">","","","","","","","",""
"","902.2000000113621","sequential-stimulus-presentation-old","125","436732","0.0-27.0-1.5","SS1619740057558","trial","","40","500","1402.2000000113621","images/stimuli/spore_stims/complex_06_A_a.gif","images/stimuli/spore_stims/complex_03_A_b.gif","self_paced","","9","complex_dissimilar","images/stimuli/spore_stims/complex_03_A_b.gif","","","","",""
"","5725.204999995185","survey-multi-choice","126","442471","0.0-28.0","SS1619740057558","math_question","","","","","","","","","","","","{""Q0"":""12""}","[0]","12","",""
"","null","html-keyboard-response","127","443644","0.0-29.0-0.0","SS1619740057558","","","null","","","","","","<p><img src= images/blank.png width =""600"" height = ""600"" style=""position:fixed;top:50%; left:50%; transform: translate(-50%, -50%); border:5px solid black"">","","","","","","","",""
"","1552.65500000678","sequential-stimulus-presentation-old","128","460230","0.0-29.0-1.0","SS1619740057558","trial","","40","500","2052.65500000678","images/stimuli/spore_stims/complex_07_A_b.gif","images/stimuli/spore_stims/complex_12_A_a.gif","forced_long","","10","complex_dissimilar","images/stimuli/spore_stims/complex_12_A_a.gif","","","","",""
"","null","html-keyboard-response","129","461465","0.0-29.0-0.1","SS1619740057558","","","null","","","","","","<p><img src= images/blank.png width =""600"" height = ""600"" style=""position:fixed;top:50%; left:50%; transform: translate(-50%, -50%); border:5px solid black"">","","","","","","","",""
"","110.820000001695","sequential-stimulus-presentation-old","130","462096","0.0-29.0-1.1","SS1619740057558","trial","","40","500","610.820000001695","images/stimuli/spore_stims/complex_07_A_b.gif","images/stimuli/spore_stims/complex_12_A_a.gif","forced_long","","10","complex_dissimilar","images/stimuli/spore_stims/complex_12_A_a.gif","","","","",""
"","null","html-keyboard-response","131","463256","0.0-29.0-0.2","SS1619740057558","","","null","","","","","","<p><img src= images/blank.png width =""600"" height = ""600"" style=""position:fixed;top:50%; left:50%; transform: translate(-50%, -50%); border:5px solid black"">","","","","","","","",""
"","2274.519999977201","sequential-stimulus-presentation-old","132","466053","0.0-29.0-1.2","SS1619740057558","trial","","40","500","2774.519999977201","images/stimuli/spore_stims/complex_07_A_b.gif","images/stimuli/spore_stims/complex_12_A_a.gif","forced_long","","10","complex_dissimilar","images/stimuli/spore_stims/complex_07_A_b.gif","","","","",""
"","null","html-keyboard-response","133","467044","0.0-29.0-0.3","SS1619740057558","","","null","","","","","","<p><img src= images/blank.png width =""600"" height = ""600"" style=""position:fixed;top:50%; left:50%; transform: translate(-50%, -50%); border:5px solid black"">","","","","","","","",""
"","437.80499999411404","sequential-stimulus-presentation-old","134","467999","0.0-29.0-1.3","SS1619740057558","trial","","40","500","937.804999994114","images/stimuli/spore_stims/complex_07_A_b.gif","images/stimuli/spore_stims/complex_12_A_a.gif","forced_long","","10","complex_dissimilar","images/stimuli/spore_stims/complex_12_A_a.gif","","","","",""
"","null","html-keyboard-response","135","468863","0.0-29.0-0.4","SS1619740057558","","","null","","","","","","<p><img src= images/blank.png width =""600"" height = ""600"" style=""position:fixed;top:50%; left:50%; transform: translate(-50%, -50%); border:5px solid black"">","","","","","","","",""
"","1856.130000000121","sequential-stimulus-presentation-old","136","471249","0.0-29.0-1.4","SS1619740057558","trial","","40","500","2356.130000000121","images/stimuli/spore_stims/complex_07_A_b.gif","images/stimuli/spore_stims/complex_12_A_a.gif","forced_long","","10","complex_dissimilar","images/stimuli/spore_stims/complex_07_A_b.gif","","","","",""
"","6111.625000019558","survey-multi-choice","137","477373","0.0-30.0","SS1619740057558","math_question","","","","","","","","","","","","{""Q0"":""17""}","[0]","17","",""
"","null","html-keyboard-response","138","478568","0.0-31.0-0.0","SS1619740057558","","","null","","","","","","<p><img src= images/blank.png width =""600"" height = ""600"" style=""position:fixed;top:50%; left:50%; transform: translate(-50%, -50%); border:5px solid black"">","","","","","","","",""
"","9966.390000015963","sequential-stimulus-presentation-old","139","503561","0.0-31.0-1.0","SS1619740057558","trial","","40","500","10466.390000015963","images/stimuli/spore_stims/simple_20_A_b.gif","images/stimuli/spore_stims/simple_18_A_a.gif","forced_long","","11","simple_dissimilar","images/stimuli/spore_stims/simple_18_A_a.gif","","","","",""
"","null","html-keyboard-response","140","504530","0.0-31.0-0.1","SS1619740057558","","","null","","","","","","<p><img src= images/blank.png width =""600"" height = ""600"" style=""position:fixed;top:50%; left:50%; transform: translate(-50%, -50%); border:5px solid black"">","","","","","","","",""
"","940.4199999989942","sequential-stimulus-presentation-old","141","505995","0.0-31.0-1.1","SS1619740057558","trial","","40","500","1440.4199999989942","images/stimuli/spore_stims/simple_20_A_b.gif","images/stimuli/spore_stims/simple_18_A_a.gif","forced_long","","11","simple_dissimilar","images/stimuli/spore_stims/simple_18_A_a.gif","","","","",""
"","null","html-keyboard-response","142","507036","0.0-31.0-0.2","SS1619740057558","","","null","","","","","","<p><img src= images/blank.png width =""600"" height = ""600"" style=""position:fixed;top:50%; left:50%; transform: translate(-50%, -50%); border:5px solid black"">","","","","","","","",""
"","299.3449999776203","sequential-stimulus-presentation-old","143","507868","0.0-31.0-1.2","SS1619740057558","trial","","40","500","799.3449999776203","images/stimuli/spore_stims/simple_20_A_b.gif","images/stimuli/spore_stims/simple_18_A_a.gif","forced_long","","11","simple_dissimilar","images/stimuli/spore_stims/simple_18_A_a.gif","","","","",""
"","null","html-keyboard-response","144","508965","0.0-31.0-0.3","SS1619740057558","","","null","","","","","","<p><img src= images/blank.png width =""600"" height = ""600"" style=""position:fixed;top:50%; left:50%; transform: translate(-50%, -50%); border:5px solid black"">","","","","","","","",""
"","710.0199999986216","sequential-stimulus-presentation-old","145","510215","0.0-31.0-1.3","SS1619740057558","trial","","40","500","1210.0199999986216","images/stimuli/spore_stims/simple_20_A_b.gif","images/stimuli/spore_stims/simple_18_A_a.gif","forced_long","","11","simple_dissimilar","images/stimuli/spore_stims/simple_18_A_a.gif","","","","",""
"","null","html-keyboard-response","146","511338","0.0-31.0-0.4","SS1619740057558","","","null","","","","","","<p><img src= images/blank.png width =""600"" height = ""600"" style=""position:fixed;top:50%; left:50%; transform: translate(-50%, -50%); border:5px solid black"">","","","","","","","",""
"","2272.2950000024866","sequential-stimulus-presentation-old","147","514124","0.0-31.0-1.4","SS1619740057558","trial","","40","500","2772.2950000024866","images/stimuli/spore_stims/simple_20_A_b.gif","images/stimuli/spore_stims/simple_18_A_a.gif","forced_long","","11","simple_dissimilar","images/stimuli/spore_stims/simple_18_A_a.gif","","","","",""
"[{""page_index"":0,""viewing_time"":5638.189999997849}]","5641.9000000169035","instructions","148","519779","0.0-32.0","SS1619740057558","instructions","","","","","","","","","","","","","","","",""
"","17278.129999991506","survey-likert","149","537081","0.0-33.0","SS1619740057558","similarity_question","","","","","","","","","","","","{""Q0"":2}","[0]","","images/stimuli/spore_stims/complex_12_A_a.gif","images/stimuli/spore_stims/complex_07_A_b.gif"
"","5823.860000004061","survey-likert","150","542925","0.0-34.0","SS1619740057558","similarity_question","","","","","","","","","","","","{""Q0"":3}","[0]","","images/stimuli/spore_stims/simple_16_A_b.gif","images/stimuli/spore_stims/simple_04_A_a.gif"
"","6106.710000021849","survey-likert","151","549055","0.0-35.0","SS1619740057558","similarity_question","","","","","","","","","","","","{""Q0"":4}","[0]","","images/stimuli/spore_stims/simple_20_A_b.gif","images/stimuli/spore_stims/simple_18_A_a.gif"
"","4031.215000024531","survey-likert","152","553104","0.0-36.0","SS1619740057558","similarity_question","","","","","","","","","","","","{""Q0"":3}","[0]","","images/stimuli/spore_stims/simple_10_A_a.gif","images/stimuli/spore_stims/simple_14_A_b.gif"
"","6100.814999983413","survey-likert","153","559226","0.0-37.0","SS1619740057558","similarity_question","","","","","","","","","","","","{""Q0"":1}","[0]","","images/stimuli/spore_stims/complex_10_A_b.gif","images/stimuli/spore_stims/complex_18_A_a.gif"
"","5180.735000001732","survey-likert","154","564428","0.0-38.0","SS1619740057558","similarity_question","","","","","","","","","","","","{""Q0"":4}","[0]","","images/stimuli/spore_stims/complex_19_A_a.gif","images/stimuli/spore_stims/complex_06_A_b.gif"
"","5005.134999984875","survey-likert","155","569466","0.0-39.0","SS1619740057558","similarity_question","","","","","","","","","","","","{""Q0"":3}","[0]","","images/stimuli/spore_stims/simple_12_A_b.gif","images/stimuli/spore_stims/simple_06_A_a.gif"
"","4638.999999995576","survey-likert","156","574126","0.0-40.0","SS1619740057558","similarity_question","","","","","","","","","","","","{""Q0"":3}","[0]","","images/stimuli/spore_stims/simple_11_A_b.gif","images/stimuli/spore_stims/simple_20_A_a.gif"
"","6148.244999989402","survey-likert","157","580295","0.0-41.0","SS1619740057558","similarity_question","","","","","","","","","","","","{""Q0"":1}","[0]","","images/stimuli/spore_stims/complex_07_A_a.gif","images/stimuli/spore_stims/complex_15_A_b.gif"
"","5203.524999989895","survey-likert","158","585524","0.0-42.0","SS1619740057558","similarity_question","","","","","","","","","","","","{""Q0"":2}","[0]","","images/stimuli/spore_stims/complex_06_A_a.gif","images/stimuli/spore_stims/complex_03_A_b.gif"
"","9028.229999996256","survey-likert","159","594573","0.0-43.0","SS1619740057558","similarity_question","","","","","","","","","","","","{""Q0"":5}","[0]","","images/stimuli/spore_stims/simple_01_A_a.gif","images/stimuli/spore_stims/simple_17_A_b.gif"
"","7279.739999998128","survey-likert","160","601870","0.0-44.0","SS1619740057558","similarity_question","","","","","","","","","","","","{""Q0"":5}","[0]","","images/stimuli/spore_stims/complex_15_A_a.gif","images/stimuli/spore_stims/complex_13_A_b.gif"
"[{""page_index"":0,""viewing_time"":6406.619999994291}]","6407.54499999457","instructions","161","608293","0.0-45.0","SS1619740057558","instructions","","","","","","","","","","","","","","","",""
"","5127.299999992829","survey-likert","162","613438","0.0-46.0","SS1619740057558","","","","","","","","","images/stimuli/spore_stims/complex_13_A_b.gif","","","","{""Q0"":4}","[0]","","",""
"","4200.050000014016","survey-likert","163","617658","0.0-47.0","SS1619740057558","","","","","","","","","images/stimuli/spore_stims/complex_10_A_b.gif","","","","{""Q0"":4}","[0]","","",""
"","5256.3300000038","survey-likert","164","622943","0.0-48.0","SS1619740057558","","","","","","","","","images/stimuli/spore_stims/simple_20_A_b.gif","","","","{""Q0"":1}","[0]","","",""
"","2882.6049999915995","survey-likert","165","625854","0.0-49.0","SS1619740057558","","","","","","","","","images/stimuli/spore_stims/simple_20_A_a.gif","","","","{""Q0"":1}","[0]","","",""
"","3769.4400000036694","survey-likert","166","629645","0.0-50.0","SS1619740057558","","","","","","","","","images/stimuli/spore_stims/simple_12_A_b.gif","","","","{""Q0"":1}","[0]","","",""
"","5212.720000010449","survey-likert","167","634874","0.0-51.0","SS1619740057558","","","","","","","","","images/stimuli/spore_stims/complex_15_A_b.gif","","","","{""Q0"":4}","[0]","","",""
"","1818.1399999884889","survey-likert","168","636711","0.0-52.0","SS1619740057558","","","","","","","","","images/stimuli/spore_stims/complex_06_A_a.gif","","","","{""Q0"":4}","[0]","","",""
"","2932.860000000801","survey-likert","169","639664","0.0-53.0","SS1619740057558","","","","","","","","","images/stimuli/spore_stims/simple_17_A_b.gif","","","","{""Q0"":0}","[0]","","",""
"","1837.8049999882933","survey-likert","170","641519","0.0-54.0","SS1619740057558","","","","","","","","","images/stimuli/spore_stims/simple_16_A_b.gif","","","","{""Q0"":0}","[0]","","",""
"","3186.485000012908","survey-likert","171","644725","0.0-55.0","SS1619740057558","","","","","","","","","images/stimuli/spore_stims/simple_10_A_a.gif","","","","{""Q0"":0}","[0]","","",""
"","5553.320000006352","survey-likert","172","650295","0.0-56.0","SS1619740057558","","","","","","","","","images/stimuli/spore_stims/complex_06_A_b.gif","","","","{""Q0"":5}","[0]","","",""
"","1622.3549999995157","survey-likert","173","651935","0.0-57.0","SS1619740057558","","","","","","","","","images/stimuli/spore_stims/complex_07_A_b.gif","","","","{""Q0"":5}","[0]","","",""
"[{""page_index"":0,""viewing_time"":2546.9650000159163}]","2549.0649999992456","instructions","174","654505","0.0-58.0","SS1619740057558","instructions","","","","","","","","","","","","","","","",""
"","4818.580000021029","demog-age","175","659363","0.0-59.0","SS1619740057558","","","","","","","","","","","","","{""age"":""24""}","","","",""
"","6845.239999995101","demog-ethnic-US","176","666243","0.0-60.0","SS1619740057558","","","","","","","","","","","","","{""ethnicity"":[""Black or African American""]}","[0]","","",""
"","28518.719999992754","demog-gender-and-education","177","694792","0.0-61.0","SS1619740057558","","","","","","","","","","","","","{""gender"":""Male"",""education"":""Bachelor's Degree""}","[0,1]","","",""
"","17727.339999983087","survey-text","178","712559","0.0-62.0","SS1619740057558","feedback","","","","","","","","","","","","{""Q0"":""no""}","","","",""
"[{""page_index"":0,""viewing_time"":2516.4550000044983}]","2517.280000000028","instructions","179","715093","0.0-63.0","SS1619740057558","instructions","","","","","","","","","","","","","","","",""
