"view_history","rt","trial_type","trial_index","time_elapsed","internal_node_id","subject","stimulus_type","trial_stimulus","key_press","minimum_viewing_duration","trial_looking_time","block_deviant","block_background","exposure_type","stimulus","block_number","block_type","stimulus_displayed","responses","question_order","math_correct_answer","stimulus_left","stimulus_right"
"[{""page_index"":0,""viewing_time"":3309.000000000002}]","3309.999999999998","instructions","0","3313","0.0-0.0","SS1619740056399","","","","","","","","","","","","","","","","",""
"[{""page_index"":0,""viewing_time"":12143.000000000004},{""page_index"":1,""viewing_time"":6252.999999999996}]","18396","instructions","1","23715","0.0-1.0","SS1619740056399","instructions","","","","","","","","","","","","","","","",""
"","9775.000000000007","sequential-stimulus-presentation-old","2","33995","0.0-2.0","SS1619740056399","","","40","500","10275.000000000007","null","null","self_paced","","","","","","","","",""
"","2933","sequential-stimulus-presentation-old","3","37431","0.0-3.0","SS1619740056399","","","40","500","3433","null","null","self_paced","","","","","","","","",""
"[{""page_index"":0,""viewing_time"":9517}]","9517","instructions","4","46949","0.0-4.0","SS1619740056399","instructions","","","","","","","","","","","","","","","",""
"","1382","sequential-stimulus-presentation-old","5","63336","0.0-5.0","SS1619740056399","","","40","500","1882","null","null","forced_long","","","","","","","","",""
"","5313.000000000015","sequential-stimulus-presentation-old","6","69152","0.0-6.0","SS1619740056399","","","40","500","5813.000000000015","null","null","forced_long","","","","","","","","",""
"[{""page_index"":0,""viewing_time"":3876.9999999999854}]","3878","instructions","7","73032","0.0-7.0","SS1619740056399","instructions","","","","","","","","","","","","","","","",""
"[{""page_index"":0,""viewing_time"":10800},{""page_index"":1,""viewing_time"":7499},{""page_index"":2,""viewing_time"":6032},{""page_index"":3,""viewing_time"":1196},{""page_index"":4,""viewing_time"":1295}]","26822","instructions","8","99856","0.0-8.0","SS1619740056399","instructions","","","","","","","","","","","","","","","",""
"","null","html-keyboard-response","9","100983","0.0-9.0-0.0","SS1619740056399","","","null","","","","","","<p><img src= images/blank.png width =""600"" height = ""600"" style=""position:fixed;top:50%; left:50%; transform: translate(-50%, -50%); border:5px solid black"">","","","","","","","",""
"","2062.0000000000146","sequential-stimulus-presentation-old","10","103550","0.0-9.0-1.0","SS1619740056399","trial","","40","500","2562.0000000000146","images/stimuli/spore_stims/complex_16_A_b.gif","images/stimuli/spore_stims/complex_09_A_a.gif","forced_short","","0","complex_dissimilar","images/stimuli/spore_stims/complex_09_A_a.gif","","","","",""
"","null","html-keyboard-response","11","104644","0.0-9.0-0.1","SS1619740056399","","","null","","","","","","<p><img src= images/blank.png width =""600"" height = ""600"" style=""position:fixed;top:50%; left:50%; transform: translate(-50%, -50%); border:5px solid black"">","","","","","","","",""
"","5467","sequential-stimulus-presentation-old","12","110615","0.0-9.0-1.1","SS1619740056399","trial","","40","500","5967","images/stimuli/spore_stims/complex_16_A_b.gif","images/stimuli/spore_stims/complex_09_A_a.gif","forced_short","","0","complex_dissimilar","images/stimuli/spore_stims/complex_09_A_a.gif","","","","",""
"","null","html-keyboard-response","13","111878","0.0-9.0-0.2","SS1619740056399","","","null","","","","","","<p><img src= images/blank.png width =""600"" height = ""600"" style=""position:fixed;top:50%; left:50%; transform: translate(-50%, -50%); border:5px solid black"">","","","","","","","",""
"","2774","sequential-stimulus-presentation-old","14","115158","0.0-9.0-1.2","SS1619740056399","trial","","40","500","3274","images/stimuli/spore_stims/complex_16_A_b.gif","images/stimuli/spore_stims/complex_09_A_a.gif","forced_short","","0","complex_dissimilar","images/stimuli/spore_stims/complex_09_A_a.gif","","","","",""
"","null","html-keyboard-response","15","116247","0.0-9.0-0.3","SS1619740056399","","","null","","","","","","<p><img src= images/blank.png width =""600"" height = ""600"" style=""position:fixed;top:50%; left:50%; transform: translate(-50%, -50%); border:5px solid black"">","","","","","","","",""
"","3683","sequential-stimulus-presentation-old","16","120435","0.0-9.0-1.3","SS1619740056399","trial","","40","500","4183","images/stimuli/spore_stims/complex_16_A_b.gif","images/stimuli/spore_stims/complex_09_A_a.gif","forced_short","","0","complex_dissimilar","images/stimuli/spore_stims/complex_09_A_a.gif","","","","",""
"","null","html-keyboard-response","17","121280","0.0-9.0-0.4","SS1619740056399","","","null","","","","","","<p><img src= images/blank.png width =""600"" height = ""600"" style=""position:fixed;top:50%; left:50%; transform: translate(-50%, -50%); border:5px solid black"">","","","","","","","",""
"","2756","sequential-stimulus-presentation-old","18","124540","0.0-9.0-1.4","SS1619740056399","trial","","40","500","3256","images/stimuli/spore_stims/complex_16_A_b.gif","images/stimuli/spore_stims/complex_09_A_a.gif","forced_short","","0","complex_dissimilar","images/stimuli/spore_stims/complex_16_A_b.gif","","","","",""
"","4469","survey-multi-choice","19","129013","0.0-10.0","SS1619740056399","math_question","","","","","","","","","","","","{""Q0"":""5""}","[0]","5","",""
"","null","html-keyboard-response","20","130177","0.0-11.0-0.0","SS1619740056399","","","null","","","","","","<p><img src= images/blank.png width =""600"" height = ""600"" style=""position:fixed;top:50%; left:50%; transform: translate(-50%, -50%); border:5px solid black"">","","","","","","","",""
"","2662","sequential-stimulus-presentation-old","21","133342","0.0-11.0-1.0","SS1619740056399","trial","","40","500","3162","images/stimuli/spore_stims/complex_04_A_a.gif","images/stimuli/spore_stims/complex_14_A_b.gif","self_paced","","1","complex_dissimilar","images/stimuli/spore_stims/complex_14_A_b.gif","","","","",""
"","null","html-keyboard-response","22","134389","0.0-11.0-0.1","SS1619740056399","","","null","","","","","","<p><img src= images/blank.png width =""600"" height = ""600"" style=""position:fixed;top:50%; left:50%; transform: translate(-50%, -50%); border:5px solid black"">","","","","","","","",""
"","581","sequential-stimulus-presentation-old","23","135476","0.0-11.0-1.1","SS1619740056399","trial","","40","500","1081","images/stimuli/spore_stims/complex_04_A_a.gif","images/stimuli/spore_stims/complex_14_A_b.gif","self_paced","","1","complex_dissimilar","images/stimuli/spore_stims/complex_14_A_b.gif","","","","",""
"","null","html-keyboard-response","24","136627","0.0-11.0-0.2","SS1619740056399","","","null","","","","","","<p><img src= images/blank.png width =""600"" height = ""600"" style=""position:fixed;top:50%; left:50%; transform: translate(-50%, -50%); border:5px solid black"">","","","","","","","",""
"","1862.000000000029","sequential-stimulus-presentation-old","25","138993","0.0-11.0-1.2","SS1619740056399","trial","","40","500","2362.000000000029","images/stimuli/spore_stims/complex_04_A_a.gif","images/stimuli/spore_stims/complex_14_A_b.gif","self_paced","","1","complex_dissimilar","images/stimuli/spore_stims/complex_14_A_b.gif","","","","",""
"","null","html-keyboard-response","26","140177","0.0-11.0-0.3","SS1619740056399","","","null","","","","","","<p><img src= images/blank.png width =""600"" height = ""600"" style=""position:fixed;top:50%; left:50%; transform: translate(-50%, -50%); border:5px solid black"">","","","","","","","",""
"","726","sequential-stimulus-presentation-old","27","141407","0.0-11.0-1.3","SS1619740056399","trial","","40","500","1226","images/stimuli/spore_stims/complex_04_A_a.gif","images/stimuli/spore_stims/complex_14_A_b.gif","self_paced","","1","complex_dissimilar","images/stimuli/spore_stims/complex_14_A_b.gif","","","","",""
"","null","html-keyboard-response","28","142533","0.0-11.0-0.4","SS1619740056399","","","null","","","","","","<p><img src= images/blank.png width =""600"" height = ""600"" style=""position:fixed;top:50%; left:50%; transform: translate(-50%, -50%); border:5px solid black"">","","","","","","","",""
"","982","sequential-stimulus-presentation-old","29","144019","0.0-11.0-1.4","SS1619740056399","trial","","40","500","1482","images/stimuli/spore_stims/complex_04_A_a.gif","images/stimuli/spore_stims/complex_14_A_b.gif","self_paced","","1","complex_dissimilar","images/stimuli/spore_stims/complex_14_A_b.gif","","","","",""
"","2556","survey-multi-choice","30","146579","0.0-12.0","SS1619740056399","math_question","","","","","","","","","","","","{""Q0"":""11""}","[0]","11","",""
"","null","html-keyboard-response","31","147397","0.0-13.0-0.0","SS1619740056399","","","null","","","","","","<p><img src= images/blank.png width =""600"" height = ""600"" style=""position:fixed;top:50%; left:50%; transform: translate(-50%, -50%); border:5px solid black"">","","","","","","","",""
"","1876","sequential-stimulus-presentation-old","32","164278","0.0-13.0-1.0","SS1619740056399","trial","","40","500","2376","images/stimuli/spore_stims/complex_13_A_a.gif","images/stimuli/spore_stims/complex_19_A_b.gif","forced_long","","2","complex_dissimilar","images/stimuli/spore_stims/complex_19_A_b.gif","","","","",""
"","null","html-keyboard-response","33","165286","0.0-13.0-0.1","SS1619740056399","","","null","","","","","","<p><img src= images/blank.png width =""600"" height = ""600"" style=""position:fixed;top:50%; left:50%; transform: translate(-50%, -50%); border:5px solid black"">","","","","","","","",""
"","1609","sequential-stimulus-presentation-old","34","167399","0.0-13.0-1.1","SS1619740056399","trial","","40","500","2109","images/stimuli/spore_stims/complex_13_A_a.gif","images/stimuli/spore_stims/complex_19_A_b.gif","forced_long","","2","complex_dissimilar","images/stimuli/spore_stims/complex_19_A_b.gif","","","","",""
"","null","html-keyboard-response","35","168297","0.0-13.0-0.2","SS1619740056399","","","null","","","","","","<p><img src= images/blank.png width =""600"" height = ""600"" style=""position:fixed;top:50%; left:50%; transform: translate(-50%, -50%); border:5px solid black"">","","","","","","","",""
"","841.0000000000291","sequential-stimulus-presentation-old","36","169643","0.0-13.0-1.2","SS1619740056399","trial","","40","500","1341.000000000029","images/stimuli/spore_stims/complex_13_A_a.gif","images/stimuli/spore_stims/complex_19_A_b.gif","forced_long","","2","complex_dissimilar","images/stimuli/spore_stims/complex_19_A_b.gif","","","","",""
"","null","html-keyboard-response","37","170779","0.0-13.0-0.3","SS1619740056399","","","null","","","","","","<p><img src= images/blank.png width =""600"" height = ""600"" style=""position:fixed;top:50%; left:50%; transform: translate(-50%, -50%); border:5px solid black"">","","","","","","","",""
"","718","sequential-stimulus-presentation-old","38","172001","0.0-13.0-1.3","SS1619740056399","trial","","40","500","1218","images/stimuli/spore_stims/complex_13_A_a.gif","images/stimuli/spore_stims/complex_19_A_b.gif","forced_long","","2","complex_dissimilar","images/stimuli/spore_stims/complex_13_A_a.gif","","","","",""
"","null","html-keyboard-response","39","173085","0.0-13.0-0.4","SS1619740056399","","","null","","","","","","<p><img src= images/blank.png width =""600"" height = ""600"" style=""position:fixed;top:50%; left:50%; transform: translate(-50%, -50%); border:5px solid black"">","","","","","","","",""
"","922.0000000000291","sequential-stimulus-presentation-old","40","174512","0.0-13.0-1.4","SS1619740056399","trial","","40","500","1422.000000000029","images/stimuli/spore_stims/complex_13_A_a.gif","images/stimuli/spore_stims/complex_19_A_b.gif","forced_long","","2","complex_dissimilar","images/stimuli/spore_stims/complex_19_A_b.gif","","","","",""
"","null","html-keyboard-response","41","175703","0.0-13.0-0.5","SS1619740056399","","","null","","","","","","<p><img src= images/blank.png width =""600"" height = ""600"" style=""position:fixed;top:50%; left:50%; transform: translate(-50%, -50%); border:5px solid black"">","","","","","","","",""
"","379","sequential-stimulus-presentation-old","42","176587","0.0-13.0-1.5","SS1619740056399","trial","","40","500","879","images/stimuli/spore_stims/complex_13_A_a.gif","images/stimuli/spore_stims/complex_19_A_b.gif","forced_long","","2","complex_dissimilar","images/stimuli/spore_stims/complex_19_A_b.gif","","","","",""
"","2696.000000000029","survey-multi-choice","43","179285","0.0-14.0","SS1619740056399","math_question","","","","","","","","","","","","{""Q0"":""11""}","[0]","11","",""
"","null","html-keyboard-response","44","180486","0.0-15.0-0.0","SS1619740056399","","","null","","","","","","<p><img src= images/blank.png width =""600"" height = ""600"" style=""position:fixed;top:50%; left:50%; transform: translate(-50%, -50%); border:5px solid black"">","","","","","","","",""
"","2728","sequential-stimulus-presentation-old","45","198219","0.0-15.0-1.0","SS1619740056399","trial","","40","500","3228","images/stimuli/spore_stims/simple_15_A_a.gif","images/stimuli/spore_stims/simple_13_A_b.gif","forced_long","","3","simple_dissimilar","images/stimuli/spore_stims/simple_13_A_b.gif","","","","",""
"","null","html-keyboard-response","46","199366","0.0-15.0-0.1","SS1619740056399","","","null","","","","","","<p><img src= images/blank.png width =""600"" height = ""600"" style=""position:fixed;top:50%; left:50%; transform: translate(-50%, -50%); border:5px solid black"">","","","","","","","",""
"","4544","sequential-stimulus-presentation-old","47","204414","0.0-15.0-1.1","SS1619740056399","trial","","40","500","5044","images/stimuli/spore_stims/simple_15_A_a.gif","images/stimuli/spore_stims/simple_13_A_b.gif","forced_long","","3","simple_dissimilar","images/stimuli/spore_stims/simple_13_A_b.gif","","","","",""
"","null","html-keyboard-response","48","205339","0.0-15.0-0.2","SS1619740056399","","","null","","","","","","<p><img src= images/blank.png width =""600"" height = ""600"" style=""position:fixed;top:50%; left:50%; transform: translate(-50%, -50%); border:5px solid black"">","","","","","","","",""
"","164","sequential-stimulus-presentation-old","49","206007","0.0-15.0-1.2","SS1619740056399","trial","","40","500","664","images/stimuli/spore_stims/simple_15_A_a.gif","images/stimuli/spore_stims/simple_13_A_b.gif","forced_long","","3","simple_dissimilar","images/stimuli/spore_stims/simple_13_A_b.gif","","","","",""
"","null","html-keyboard-response","50","207034","0.0-15.0-0.3","SS1619740056399","","","null","","","","","","<p><img src= images/blank.png width =""600"" height = ""600"" style=""position:fixed;top:50%; left:50%; transform: translate(-50%, -50%); border:5px solid black"">","","","","","","","",""
"","644","sequential-stimulus-presentation-old","51","208182","0.0-15.0-1.3","SS1619740056399","trial","","40","500","1144","images/stimuli/spore_stims/simple_15_A_a.gif","images/stimuli/spore_stims/simple_13_A_b.gif","forced_long","","3","simple_dissimilar","images/stimuli/spore_stims/simple_13_A_b.gif","","","","",""
"","null","html-keyboard-response","52","209076","0.0-15.0-0.4","SS1619740056399","","","null","","","","","","<p><img src= images/blank.png width =""600"" height = ""600"" style=""position:fixed;top:50%; left:50%; transform: translate(-50%, -50%); border:5px solid black"">","","","","","","","",""
"","560","sequential-stimulus-presentation-old","53","210141","0.0-15.0-1.4","SS1619740056399","trial","","40","500","1060","images/stimuli/spore_stims/simple_15_A_a.gif","images/stimuli/spore_stims/simple_13_A_b.gif","forced_long","","3","simple_dissimilar","images/stimuli/spore_stims/simple_15_A_a.gif","","","","",""
"","null","html-keyboard-response","54","211250","0.0-15.0-0.5","SS1619740056399","","","null","","","","","","<p><img src= images/blank.png width =""600"" height = ""600"" style=""position:fixed;top:50%; left:50%; transform: translate(-50%, -50%); border:5px solid black"">","","","","","","","",""
"","1200","sequential-stimulus-presentation-old","55","212954","0.0-15.0-1.5","SS1619740056399","trial","","40","500","1700","images/stimuli/spore_stims/simple_15_A_a.gif","images/stimuli/spore_stims/simple_13_A_b.gif","forced_long","","3","simple_dissimilar","images/stimuli/spore_stims/simple_13_A_b.gif","","","","",""
"","2909","survey-multi-choice","56","215867","0.0-16.0","SS1619740056399","math_question","","","","","","","","","","","","{""Q0"":""14""}","[0]","14","",""
"","null","html-keyboard-response","57","217159","0.0-17.0-0.0","SS1619740056399","","","null","","","","","","<p><img src= images/blank.png width =""600"" height = ""600"" style=""position:fixed;top:50%; left:50%; transform: translate(-50%, -50%); border:5px solid black"">","","","","","","","",""
"","1205","sequential-stimulus-presentation-old","58","218868","0.0-17.0-1.0","SS1619740056399","trial","","40","500","1705","images/stimuli/spore_stims/complex_08_A_b.gif","images/stimuli/spore_stims/complex_01_A_a.gif","forced_short","","4","complex_dissimilar","images/stimuli/spore_stims/complex_01_A_a.gif","","","","",""
"","null","html-keyboard-response","59","219810","0.0-17.0-0.1","SS1619740056399","","","null","","","","","","<p><img src= images/blank.png width =""600"" height = ""600"" style=""position:fixed;top:50%; left:50%; transform: translate(-50%, -50%); border:5px solid black"">","","","","","","","",""
"","1893","sequential-stimulus-presentation-old","60","222208","0.0-17.0-1.1","SS1619740056399","trial","","40","500","2393","images/stimuli/spore_stims/complex_08_A_b.gif","images/stimuli/spore_stims/complex_01_A_a.gif","forced_short","","4","complex_dissimilar","images/stimuli/spore_stims/complex_01_A_a.gif","","","","",""
"","null","html-keyboard-response","61","223164","0.0-17.0-0.2","SS1619740056399","","","null","","","","","","<p><img src= images/blank.png width =""600"" height = ""600"" style=""position:fixed;top:50%; left:50%; transform: translate(-50%, -50%); border:5px solid black"">","","","","","","","",""
"","2091","sequential-stimulus-presentation-old","62","225760","0.0-17.0-1.2","SS1619740056399","trial","","40","500","2591","images/stimuli/spore_stims/complex_08_A_b.gif","images/stimuli/spore_stims/complex_01_A_a.gif","forced_short","","4","complex_dissimilar","images/stimuli/spore_stims/complex_08_A_b.gif","","","","",""
"","null","html-keyboard-response","63","226591","0.0-17.0-0.3","SS1619740056399","","","null","","","","","","<p><img src= images/blank.png width =""600"" height = ""600"" style=""position:fixed;top:50%; left:50%; transform: translate(-50%, -50%); border:5px solid black"">","","","","","","","",""
"","834.9999999999709","sequential-stimulus-presentation-old","64","227930","0.0-17.0-1.3","SS1619740056399","trial","","40","500","1334.999999999971","images/stimuli/spore_stims/complex_08_A_b.gif","images/stimuli/spore_stims/complex_01_A_a.gif","forced_short","","4","complex_dissimilar","images/stimuli/spore_stims/complex_01_A_a.gif","","","","",""
"","null","html-keyboard-response","65","228975","0.0-17.0-0.4","SS1619740056399","","","null","","","","","","<p><img src= images/blank.png width =""600"" height = ""600"" style=""position:fixed;top:50%; left:50%; transform: translate(-50%, -50%); border:5px solid black"">","","","","","","","",""
"","391","sequential-stimulus-presentation-old","66","229872","0.0-17.0-1.4","SS1619740056399","trial","","40","500","891","images/stimuli/spore_stims/complex_08_A_b.gif","images/stimuli/spore_stims/complex_01_A_a.gif","forced_short","","4","complex_dissimilar","images/stimuli/spore_stims/complex_08_A_b.gif","","","","",""
"","2932","survey-multi-choice","67","232808","0.0-18.0","SS1619740056399","math_question","","","","","","","","","","","","{""Q0"":""5""}","[0]","5","",""
"","null","html-keyboard-response","68","233638","0.0-19.0-0.0","SS1619740056399","","","null","","","","","","<p><img src= images/blank.png width =""600"" height = ""600"" style=""position:fixed;top:50%; left:50%; transform: translate(-50%, -50%); border:5px solid black"">","","","","","","","",""
"","934.0000000000291","sequential-stimulus-presentation-old","69","235079","0.0-19.0-1.0","SS1619740056399","trial","","40","500","1434.000000000029","images/stimuli/spore_stims/simple_06_A_b.gif","images/stimuli/spore_stims/simple_03_A_a.gif","forced_short","","5","simple_dissimilar","images/stimuli/spore_stims/simple_03_A_a.gif","","","","",""
"","null","html-keyboard-response","70","236319","0.0-19.0-0.1","SS1619740056399","","","null","","","","","","<p><img src= images/blank.png width =""600"" height = ""600"" style=""position:fixed;top:50%; left:50%; transform: translate(-50%, -50%); border:5px solid black"">","","","","","","","",""
"","1052","sequential-stimulus-presentation-old","71","237877","0.0-19.0-1.1","SS1619740056399","trial","","40","500","1552","images/stimuli/spore_stims/simple_06_A_b.gif","images/stimuli/spore_stims/simple_03_A_a.gif","forced_short","","5","simple_dissimilar","images/stimuli/spore_stims/simple_03_A_a.gif","","","","",""
"","null","html-keyboard-response","72","239170","0.0-19.0-0.2","SS1619740056399","","","null","","","","","","<p><img src= images/blank.png width =""600"" height = ""600"" style=""position:fixed;top:50%; left:50%; transform: translate(-50%, -50%); border:5px solid black"">","","","","","","","",""
"","2493.000000000029","sequential-stimulus-presentation-old","73","242168","0.0-19.0-1.2","SS1619740056399","trial","","40","500","2993.000000000029","images/stimuli/spore_stims/simple_06_A_b.gif","images/stimuli/spore_stims/simple_03_A_a.gif","forced_short","","5","simple_dissimilar","images/stimuli/spore_stims/simple_03_A_a.gif","","","","",""
"","null","html-keyboard-response","74","243155","0.0-19.0-0.3","SS1619740056399","","","null","","","","","","<p><img src= images/blank.png width =""600"" height = ""600"" style=""position:fixed;top:50%; left:50%; transform: translate(-50%, -50%); border:5px solid black"">","","","","","","","",""
"","534","sequential-stimulus-presentation-old","75","244195","0.0-19.0-1.3","SS1619740056399","trial","","40","500","1034","images/stimuli/spore_stims/simple_06_A_b.gif","images/stimuli/spore_stims/simple_03_A_a.gif","forced_short","","5","simple_dissimilar","images/stimuli/spore_stims/simple_06_A_b.gif","","","","",""
"","null","html-keyboard-response","76","245124","0.0-19.0-0.4","SS1619740056399","","","null","","","","","","<p><img src= images/blank.png width =""600"" height = ""600"" style=""position:fixed;top:50%; left:50%; transform: translate(-50%, -50%); border:5px solid black"">","","","","","","","",""
"","1486","sequential-stimulus-presentation-old","77","247115","0.0-19.0-1.4","SS1619740056399","trial","","40","500","1986","images/stimuli/spore_stims/simple_06_A_b.gif","images/stimuli/spore_stims/simple_03_A_a.gif","forced_short","","5","simple_dissimilar","images/stimuli/spore_stims/simple_03_A_a.gif","","","","",""
"","null","html-keyboard-response","78","248255","0.0-19.0-0.5","SS1619740056399","","","null","","","","","","<p><img src= images/blank.png width =""600"" height = ""600"" style=""position:fixed;top:50%; left:50%; transform: translate(-50%, -50%); border:5px solid black"">","","","","","","","",""
"","2249","sequential-stimulus-presentation-old","79","251011","0.0-19.0-1.5","SS1619740056399","trial","","40","500","2749","images/stimuli/spore_stims/simple_06_A_b.gif","images/stimuli/spore_stims/simple_03_A_a.gif","forced_short","","5","simple_dissimilar","images/stimuli/spore_stims/simple_06_A_b.gif","","","","",""
"","2503","survey-multi-choice","80","253517","0.0-20.0","SS1619740056399","math_question","","","","","","","","","","","","{""Q0"":""11""}","[0]","11","",""
"","null","html-keyboard-response","81","254496","0.0-21.0-0.0","SS1619740056399","","","null","","","","","","<p><img src= images/blank.png width =""600"" height = ""600"" style=""position:fixed;top:50%; left:50%; transform: translate(-50%, -50%); border:5px solid black"">","","","","","","","",""
"","957","sequential-stimulus-presentation-old","82","255959","0.0-21.0-1.0","SS1619740056399","trial","","40","500","1457","images/stimuli/spore_stims/simple_03_A_b.gif","images/stimuli/spore_stims/simple_18_A_a.gif","forced_short","","6","simple_dissimilar","images/stimuli/spore_stims/simple_18_A_a.gif","","","","",""
"","null","html-keyboard-response","83","256953","0.0-21.0-0.1","SS1619740056399","","","null","","","","","","<p><img src= images/blank.png width =""600"" height = ""600"" style=""position:fixed;top:50%; left:50%; transform: translate(-50%, -50%); border:5px solid black"">","","","","","","","",""
"","1222","sequential-stimulus-presentation-old","84","258680","0.0-21.0-1.1","SS1619740056399","trial","","40","500","1722","images/stimuli/spore_stims/simple_03_A_b.gif","images/stimuli/spore_stims/simple_18_A_a.gif","forced_short","","6","simple_dissimilar","images/stimuli/spore_stims/simple_18_A_a.gif","","","","",""
"","null","html-keyboard-response","85","259617","0.0-21.0-0.2","SS1619740056399","","","null","","","","","","<p><img src= images/blank.png width =""600"" height = ""600"" style=""position:fixed;top:50%; left:50%; transform: translate(-50%, -50%); border:5px solid black"">","","","","","","","",""
"","828","sequential-stimulus-presentation-old","86","260950","0.0-21.0-1.2","SS1619740056399","trial","","40","500","1328","images/stimuli/spore_stims/simple_03_A_b.gif","images/stimuli/spore_stims/simple_18_A_a.gif","forced_short","","6","simple_dissimilar","images/stimuli/spore_stims/simple_03_A_b.gif","","","","",""
"","null","html-keyboard-response","87","262119","0.0-21.0-0.3","SS1619740056399","","","null","","","","","","<p><img src= images/blank.png width =""600"" height = ""600"" style=""position:fixed;top:50%; left:50%; transform: translate(-50%, -50%); border:5px solid black"">","","","","","","","",""
"","889","sequential-stimulus-presentation-old","88","263514","0.0-21.0-1.3","SS1619740056399","trial","","40","500","1389","images/stimuli/spore_stims/simple_03_A_b.gif","images/stimuli/spore_stims/simple_18_A_a.gif","forced_short","","6","simple_dissimilar","images/stimuli/spore_stims/simple_18_A_a.gif","","","","",""
"","null","html-keyboard-response","89","264528","0.0-21.0-0.4","SS1619740056399","","","null","","","","","","<p><img src= images/blank.png width =""600"" height = ""600"" style=""position:fixed;top:50%; left:50%; transform: translate(-50%, -50%); border:5px solid black"">","","","","","","","",""
"","360","sequential-stimulus-presentation-old","90","265394","0.0-21.0-1.4","SS1619740056399","trial","","40","500","860","images/stimuli/spore_stims/simple_03_A_b.gif","images/stimuli/spore_stims/simple_18_A_a.gif","forced_short","","6","simple_dissimilar","images/stimuli/spore_stims/simple_18_A_a.gif","","","","",""
"","null","html-keyboard-response","91","266359","0.0-21.0-0.5","SS1619740056399","","","null","","","","","","<p><img src= images/blank.png width =""600"" height = ""600"" style=""position:fixed;top:50%; left:50%; transform: translate(-50%, -50%); border:5px solid black"">","","","","","","","",""
"","318","sequential-stimulus-presentation-old","92","267183","0.0-21.0-1.5","SS1619740056399","trial","","40","500","818","images/stimuli/spore_stims/simple_03_A_b.gif","images/stimuli/spore_stims/simple_18_A_a.gif","forced_short","","6","simple_dissimilar","images/stimuli/spore_stims/simple_03_A_b.gif","","","","",""
"","2854","survey-multi-choice","93","270040","0.0-22.0","SS1619740056399","math_question","","","","","","","","","","","","{""Q0"":""15""}","[0]","15","",""
"","null","html-keyboard-response","94","270916","0.0-23.0-0.0","SS1619740056399","","","null","","","","","","<p><img src= images/blank.png width =""600"" height = ""600"" style=""position:fixed;top:50%; left:50%; transform: translate(-50%, -50%); border:5px solid black"">","","","","","","","",""
"","1822","sequential-stimulus-presentation-old","95","273243","0.0-23.0-1.0","SS1619740056399","trial","","40","500","2322","images/stimuli/spore_stims/simple_04_A_a.gif","images/stimuli/spore_stims/simple_09_A_b.gif","self_paced","","7","simple_dissimilar","images/stimuli/spore_stims/simple_09_A_b.gif","","","","",""
"","null","html-keyboard-response","96","274291","0.0-23.0-0.1","SS1619740056399","","","null","","","","","","<p><img src= images/blank.png width =""600"" height = ""600"" style=""position:fixed;top:50%; left:50%; transform: translate(-50%, -50%); border:5px solid black"">","","","","","","","",""
"","404","sequential-stimulus-presentation-old","97","275201","0.0-23.0-1.1","SS1619740056399","trial","","40","500","904","images/stimuli/spore_stims/simple_04_A_a.gif","images/stimuli/spore_stims/simple_09_A_b.gif","self_paced","","7","simple_dissimilar","images/stimuli/spore_stims/simple_09_A_b.gif","","","","",""
"","null","html-keyboard-response","98","276280","0.0-23.0-0.2","SS1619740056399","","","null","","","","","","<p><img src= images/blank.png width =""600"" height = ""600"" style=""position:fixed;top:50%; left:50%; transform: translate(-50%, -50%); border:5px solid black"">","","","","","","","",""
"","699","sequential-stimulus-presentation-old","99","277486","0.0-23.0-1.2","SS1619740056399","trial","","40","500","1199","images/stimuli/spore_stims/simple_04_A_a.gif","images/stimuli/spore_stims/simple_09_A_b.gif","self_paced","","7","simple_dissimilar","images/stimuli/spore_stims/simple_09_A_b.gif","","","","",""
"","null","html-keyboard-response","100","278419","0.0-23.0-0.3","SS1619740056399","","","null","","","","","","<p><img src= images/blank.png width =""600"" height = ""600"" style=""position:fixed;top:50%; left:50%; transform: translate(-50%, -50%); border:5px solid black"">","","","","","","","",""
"","781","sequential-stimulus-presentation-old","101","279706","0.0-23.0-1.3","SS1619740056399","trial","","40","500","1281","images/stimuli/spore_stims/simple_04_A_a.gif","images/stimuli/spore_stims/simple_09_A_b.gif","self_paced","","7","simple_dissimilar","images/stimuli/spore_stims/simple_09_A_b.gif","","","","",""
"","2441","survey-multi-choice","102","282150","0.0-24.0","SS1619740056399","math_question","","","","","","","","","","","","{""Q0"":""11""}","[0]","11","",""
"","null","html-keyboard-response","103","283295","0.0-25.0-0.0","SS1619740056399","","","null","","","","","","<p><img src= images/blank.png width =""600"" height = ""600"" style=""position:fixed;top:50%; left:50%; transform: translate(-50%, -50%); border:5px solid black"">","","","","","","","",""
"","783.9999999999418","sequential-stimulus-presentation-old","104","284586","0.0-25.0-1.0","SS1619740056399","trial","","40","500","1283.9999999999418","images/stimuli/spore_stims/simple_06_A_a.gif","images/stimuli/spore_stims/simple_11_A_b.gif","self_paced","","8","simple_dissimilar","images/stimuli/spore_stims/simple_11_A_b.gif","","","","",""
"","null","html-keyboard-response","105","285830","0.0-25.0-0.1","SS1619740056399","","","null","","","","","","<p><img src= images/blank.png width =""600"" height = ""600"" style=""position:fixed;top:50%; left:50%; transform: translate(-50%, -50%); border:5px solid black"">","","","","","","","",""
"","588","sequential-stimulus-presentation-old","106","286925","0.0-25.0-1.1","SS1619740056399","trial","","40","500","1088","images/stimuli/spore_stims/simple_06_A_a.gif","images/stimuli/spore_stims/simple_11_A_b.gif","self_paced","","8","simple_dissimilar","images/stimuli/spore_stims/simple_11_A_b.gif","","","","",""
"","null","html-keyboard-response","107","288214","0.0-25.0-0.2","SS1619740056399","","","null","","","","","","<p><img src= images/blank.png width =""600"" height = ""600"" style=""position:fixed;top:50%; left:50%; transform: translate(-50%, -50%); border:5px solid black"">","","","","","","","",""
"","638","sequential-stimulus-presentation-old","108","289358","0.0-25.0-1.2","SS1619740056399","trial","","40","500","1138","images/stimuli/spore_stims/simple_06_A_a.gif","images/stimuli/spore_stims/simple_11_A_b.gif","self_paced","","8","simple_dissimilar","images/stimuli/spore_stims/simple_11_A_b.gif","","","","",""
"","null","html-keyboard-response","109","290221","0.0-25.0-0.3","SS1619740056399","","","null","","","","","","<p><img src= images/blank.png width =""600"" height = ""600"" style=""position:fixed;top:50%; left:50%; transform: translate(-50%, -50%); border:5px solid black"">","","","","","","","",""
"","345","sequential-stimulus-presentation-old","110","291072","0.0-25.0-1.3","SS1619740056399","trial","","40","500","845","images/stimuli/spore_stims/simple_06_A_a.gif","images/stimuli/spore_stims/simple_11_A_b.gif","self_paced","","8","simple_dissimilar","images/stimuli/spore_stims/simple_11_A_b.gif","","","","",""
"","null","html-keyboard-response","111","292148","0.0-25.0-0.4","SS1619740056399","","","null","","","","","","<p><img src= images/blank.png width =""600"" height = ""600"" style=""position:fixed;top:50%; left:50%; transform: translate(-50%, -50%); border:5px solid black"">","","","","","","","",""
"","809","sequential-stimulus-presentation-old","112","293463","0.0-25.0-1.4","SS1619740056399","trial","","40","500","1309","images/stimuli/spore_stims/simple_06_A_a.gif","images/stimuli/spore_stims/simple_11_A_b.gif","self_paced","","8","simple_dissimilar","images/stimuli/spore_stims/simple_11_A_b.gif","","","","",""
"","2520.000000000058","survey-multi-choice","113","295987","0.0-26.0","SS1619740056399","math_question","","","","","","","","","","","","{""Q0"":""17""}","[0]","17","",""
"","null","html-keyboard-response","114","296899","0.0-27.0-0.0","SS1619740056399","","","null","","","","","","<p><img src= images/blank.png width =""600"" height = ""600"" style=""position:fixed;top:50%; left:50%; transform: translate(-50%, -50%); border:5px solid black"">","","","","","","","",""
"","1212","sequential-stimulus-presentation-old","115","313118","0.0-27.0-1.0","SS1619740056399","trial","","40","500","1712","images/stimuli/spore_stims/complex_20_A_b.gif","images/stimuli/spore_stims/complex_03_A_a.gif","forced_long","","9","complex_dissimilar","images/stimuli/spore_stims/complex_03_A_a.gif","","","","",""
"","null","html-keyboard-response","116","314213","0.0-27.0-0.1","SS1619740056399","","","null","","","","","","<p><img src= images/blank.png width =""600"" height = ""600"" style=""position:fixed;top:50%; left:50%; transform: translate(-50%, -50%); border:5px solid black"">","","","","","","","",""
"","597","sequential-stimulus-presentation-old","117","315315","0.0-27.0-1.1","SS1619740056399","trial","","40","500","1097","images/stimuli/spore_stims/complex_20_A_b.gif","images/stimuli/spore_stims/complex_03_A_a.gif","forced_long","","9","complex_dissimilar","images/stimuli/spore_stims/complex_03_A_a.gif","","","","",""
"","null","html-keyboard-response","118","316556","0.0-27.0-0.2","SS1619740056399","","","null","","","","","","<p><img src= images/blank.png width =""600"" height = ""600"" style=""position:fixed;top:50%; left:50%; transform: translate(-50%, -50%); border:5px solid black"">","","","","","","","",""
"","1323","sequential-stimulus-presentation-old","119","318384","0.0-27.0-1.2","SS1619740056399","trial","","40","500","1823","images/stimuli/spore_stims/complex_20_A_b.gif","images/stimuli/spore_stims/complex_03_A_a.gif","forced_long","","9","complex_dissimilar","images/stimuli/spore_stims/complex_03_A_a.gif","","","","",""
"","null","html-keyboard-response","120","319197","0.0-27.0-0.3","SS1619740056399","","","null","","","","","","<p><img src= images/blank.png width =""600"" height = ""600"" style=""position:fixed;top:50%; left:50%; transform: translate(-50%, -50%); border:5px solid black"">","","","","","","","",""
"","431","sequential-stimulus-presentation-old","121","320133","0.0-27.0-1.3","SS1619740056399","trial","","40","500","931","images/stimuli/spore_stims/complex_20_A_b.gif","images/stimuli/spore_stims/complex_03_A_a.gif","forced_long","","9","complex_dissimilar","images/stimuli/spore_stims/complex_03_A_a.gif","","","","",""
"","null","html-keyboard-response","122","321214","0.0-27.0-0.4","SS1619740056399","","","null","","","","","","<p><img src= images/blank.png width =""600"" height = ""600"" style=""position:fixed;top:50%; left:50%; transform: translate(-50%, -50%); border:5px solid black"">","","","","","","","",""
"","34","sequential-stimulus-presentation-old","123","321757","0.0-27.0-1.4","SS1619740056399","trial","","40","500","534","images/stimuli/spore_stims/complex_20_A_b.gif","images/stimuli/spore_stims/complex_03_A_a.gif","forced_long","","9","complex_dissimilar","images/stimuli/spore_stims/complex_03_A_a.gif","","","","",""
"","null","html-keyboard-response","124","322601","0.0-27.0-0.5","SS1619740056399","","","null","","","","","","<p><img src= images/blank.png width =""600"" height = ""600"" style=""position:fixed;top:50%; left:50%; transform: translate(-50%, -50%); border:5px solid black"">","","","","","","","",""
"","251","sequential-stimulus-presentation-old","125","323358","0.0-27.0-1.5","SS1619740056399","trial","","40","500","751","images/stimuli/spore_stims/complex_20_A_b.gif","images/stimuli/spore_stims/complex_03_A_a.gif","forced_long","","9","complex_dissimilar","images/stimuli/spore_stims/complex_03_A_a.gif","","","","",""
"","2399.999999999942","survey-multi-choice","126","325761","0.0-28.0","SS1619740056399","math_question","","","","","","","","","","","","{""Q0"":""14""}","[0]","14","",""
"","null","html-keyboard-response","127","326730","0.0-29.0-0.0","SS1619740056399","","","null","","","","","","<p><img src= images/blank.png width =""600"" height = ""600"" style=""position:fixed;top:50%; left:50%; transform: translate(-50%, -50%); border:5px solid black"">","","","","","","","",""
"","878","sequential-stimulus-presentation-old","128","342614","0.0-29.0-1.0","SS1619740056399","trial","","40","500","1378","images/stimuli/spore_stims/simple_15_A_b.gif","images/stimuli/spore_stims/simple_17_A_a.gif","forced_long","","10","simple_dissimilar","images/stimuli/spore_stims/simple_17_A_a.gif","","","","",""
"","null","html-keyboard-response","129","343659","0.0-29.0-0.1","SS1619740056399","","","null","","","","","","<p><img src= images/blank.png width =""600"" height = ""600"" style=""position:fixed;top:50%; left:50%; transform: translate(-50%, -50%); border:5px solid black"">","","","","","","","",""
"","298.9999999999418","sequential-stimulus-presentation-old","130","344464","0.0-29.0-1.1","SS1619740056399","trial","","40","500","798.9999999999418","images/stimuli/spore_stims/simple_15_A_b.gif","images/stimuli/spore_stims/simple_17_A_a.gif","forced_long","","10","simple_dissimilar","images/stimuli/spore_stims/simple_17_A_a.gif","","","","",""
"","null","html-keyboard-response","131","345559","0.0-29.0-0.2","SS1619740056399","","","null","","","","","","<p><img src= images/blank.png width =""600"" height = ""600"" style=""position:fixed;top:50%; left:50%; transform: translate(-50%, -50%); border:5px solid black"">","","","","","","","",""
"","131.9999999999418","sequential-stimulus-presentation-old","132","346196","0.0-29.0-1.2","SS1619740056399","trial","","40","500","631.9999999999418","images/stimuli/spore_stims/simple_15_A_b.gif","images/stimuli/spore_stims/simple_17_A_a.gif","forced_long","","10","simple_dissimilar","images/stimuli/spore_stims/simple_15_A_b.gif","","","","",""
"","null","html-keyboard-response","133","347039","0.0-29.0-0.3","SS1619740056399","","","null","","","","","","<p><img src= images/blank.png width =""600"" height = ""600"" style=""position:fixed;top:50%; left:50%; transform: translate(-50%, -50%); border:5px solid black"">","","","","","","","",""
"","8124","sequential-stimulus-presentation-old","134","355669","0.0-29.0-1.3","SS1619740056399","trial","","40","500","8624","images/stimuli/spore_stims/simple_15_A_b.gif","images/stimuli/spore_stims/simple_17_A_a.gif","forced_long","","10","simple_dissimilar","images/stimuli/spore_stims/simple_17_A_a.gif","","","","",""
"","2895","survey-multi-choice","135","358568","0.0-30.0","SS1619740056399","math_question","","","","","","","","","","","","{""Q0"":""12""}","[0]","12","",""
"","null","html-keyboard-response","136","359760","0.0-31.0-0.0","SS1619740056399","","","null","","","","","","<p><img src= images/blank.png width =""600"" height = ""600"" style=""position:fixed;top:50%; left:50%; transform: translate(-50%, -50%); border:5px solid black"">","","","","","","","",""
"","1246","sequential-stimulus-presentation-old","137","361514","0.0-31.0-1.0","SS1619740056399","trial","","40","500","1746","images/stimuli/spore_stims/complex_12_A_a.gif","images/stimuli/spore_stims/complex_03_A_b.gif","self_paced","","11","complex_dissimilar","images/stimuli/spore_stims/complex_03_A_b.gif","","","","",""
"","null","html-keyboard-response","138","362701","0.0-31.0-0.1","SS1619740056399","","","null","","","","","","<p><img src= images/blank.png width =""600"" height = ""600"" style=""position:fixed;top:50%; left:50%; transform: translate(-50%, -50%); border:5px solid black"">","","","","","","","",""
"","1127","sequential-stimulus-presentation-old","139","364333","0.0-31.0-1.1","SS1619740056399","trial","","40","500","1627","images/stimuli/spore_stims/complex_12_A_a.gif","images/stimuli/spore_stims/complex_03_A_b.gif","self_paced","","11","complex_dissimilar","images/stimuli/spore_stims/complex_03_A_b.gif","","","","",""
"","null","html-keyboard-response","140","365343","0.0-31.0-0.2","SS1619740056399","","","null","","","","","","<p><img src= images/blank.png width =""600"" height = ""600"" style=""position:fixed;top:50%; left:50%; transform: translate(-50%, -50%); border:5px solid black"">","","","","","","","",""
"","2086.999999999942","sequential-stimulus-presentation-old","141","367937","0.0-31.0-1.2","SS1619740056399","trial","","40","500","2586.999999999942","images/stimuli/spore_stims/complex_12_A_a.gif","images/stimuli/spore_stims/complex_03_A_b.gif","self_paced","","11","complex_dissimilar","images/stimuli/spore_stims/complex_12_A_a.gif","","","","",""
"","null","html-keyboard-response","142","368938","0.0-31.0-0.3","SS1619740056399","","","null","","","","","","<p><img src= images/blank.png width =""600"" height = ""600"" style=""position:fixed;top:50%; left:50%; transform: translate(-50%, -50%); border:5px solid black"">","","","","","","","",""
"","781","sequential-stimulus-presentation-old","143","370224","0.0-31.0-1.3","SS1619740056399","trial","","40","500","1281","images/stimuli/spore_stims/complex_12_A_a.gif","images/stimuli/spore_stims/complex_03_A_b.gif","self_paced","","11","complex_dissimilar","images/stimuli/spore_stims/complex_03_A_b.gif","","","","",""
"","null","html-keyboard-response","144","371264","0.0-31.0-0.4","SS1619740056399","","","null","","","","","","<p><img src= images/blank.png width =""600"" height = ""600"" style=""position:fixed;top:50%; left:50%; transform: translate(-50%, -50%); border:5px solid black"">","","","","","","","",""
"","631","sequential-stimulus-presentation-old","145","372402","0.0-31.0-1.4","SS1619740056399","trial","","40","500","1131","images/stimuli/spore_stims/complex_12_A_a.gif","images/stimuli/spore_stims/complex_03_A_b.gif","self_paced","","11","complex_dissimilar","images/stimuli/spore_stims/complex_12_A_a.gif","","","","",""
"[{""page_index"":0,""viewing_time"":5971}]","5971","instructions","146","378377","0.0-32.0","SS1619740056399","instructions","","","","","","","","","","","","","","","",""
"","8435","survey-likert","147","386817","0.0-33.0","SS1619740056399","similarity_question","","","","","","","","","","","","{""Q0"":2}","[0]","","images/stimuli/spore_stims/simple_09_A_b.gif","images/stimuli/spore_stims/simple_04_A_a.gif"
"","4380","survey-likert","148","391200","0.0-34.0","SS1619740056399","similarity_question","","","","","","","","","","","","{""Q0"":4}","[0]","","images/stimuli/spore_stims/complex_03_A_b.gif","images/stimuli/spore_stims/complex_12_A_a.gif"
"","3087.000000000058","survey-likert","149","394289","0.0-35.0","SS1619740056399","similarity_question","","","","","","","","","","","","{""Q0"":4}","[0]","","images/stimuli/spore_stims/complex_08_A_b.gif","images/stimuli/spore_stims/complex_01_A_a.gif"
"","5367","survey-likert","150","399659","0.0-36.0","SS1619740056399","similarity_question","","","","","","","","","","","","{""Q0"":4}","[0]","","images/stimuli/spore_stims/simple_06_A_b.gif","images/stimuli/spore_stims/simple_03_A_a.gif"
"","2470","survey-likert","151","402132","0.0-37.0","SS1619740056399","similarity_question","","","","","","","","","","","","{""Q0"":4}","[0]","","images/stimuli/spore_stims/simple_15_A_b.gif","images/stimuli/spore_stims/simple_17_A_a.gif"
"","3778","survey-likert","152","405913","0.0-38.0","SS1619740056399","similarity_question","","","","","","","","","","","","{""Q0"":5}","[0]","","images/stimuli/spore_stims/simple_11_A_b.gif","images/stimuli/spore_stims/simple_06_A_a.gif"
"","2820","survey-likert","153","408736","0.0-39.0","SS1619740056399","similarity_question","","","","","","","","","","","","{""Q0"":4}","[0]","","images/stimuli/spore_stims/complex_09_A_a.gif","images/stimuli/spore_stims/complex_16_A_b.gif"
"","7666","survey-likert","154","416405","0.0-40.0","SS1619740056399","similarity_question","","","","","","","","","","","","{""Q0"":4}","[0]","","images/stimuli/spore_stims/complex_13_A_a.gif","images/stimuli/spore_stims/complex_19_A_b.gif"
"","2869.000000000058","survey-likert","155","419279","0.0-41.0","SS1619740056399","similarity_question","","","","","","","","","","","","{""Q0"":5}","[0]","","images/stimuli/spore_stims/simple_15_A_a.gif","images/stimuli/spore_stims/simple_13_A_b.gif"
"","2227","survey-likert","156","421510","0.0-42.0","SS1619740056399","similarity_question","","","","","","","","","","","","{""Q0"":4}","[0]","","images/stimuli/spore_stims/simple_18_A_a.gif","images/stimuli/spore_stims/simple_03_A_b.gif"
"","2741.000000000058","survey-likert","157","424254","0.0-43.0","SS1619740056399","similarity_question","","","","","","","","","","","","{""Q0"":4}","[0]","","images/stimuli/spore_stims/complex_03_A_a.gif","images/stimuli/spore_stims/complex_20_A_b.gif"
"","2415.000000000058","survey-likert","158","426672","0.0-44.0","SS1619740056399","similarity_question","","","","","","","","","","","","{""Q0"":4}","[0]","","images/stimuli/spore_stims/complex_14_A_b.gif","images/stimuli/spore_stims/complex_04_A_a.gif"
"[{""page_index"":0,""viewing_time"":4223}]","4223","instructions","159","430897","0.0-45.0","SS1619740056399","instructions","","","","","","","","","","","","","","","",""
"","7094.999999999942","survey-likert","160","437998","0.0-46.0","SS1619740056399","","","","","","","","","images/stimuli/spore_stims/complex_14_A_b.gif","","","","{""Q0"":5}","[0]","","",""
"","1983","survey-likert","161","439985","0.0-47.0","SS1619740056399","","","","","","","","","images/stimuli/spore_stims/complex_20_A_b.gif","","","","{""Q0"":5}","[0]","","",""
"","4054","survey-likert","162","444043","0.0-48.0","SS1619740056399","","","","","","","","","images/stimuli/spore_stims/simple_06_A_a.gif","","","","{""Q0"":1}","[0]","","",""
"","3201","survey-likert","163","447246","0.0-49.0","SS1619740056399","","","","","","","","","images/stimuli/spore_stims/simple_18_A_a.gif","","","","{""Q0"":1}","[0]","","",""
"","3353.999999999942","survey-likert","164","450604","0.0-50.0","SS1619740056399","","","","","","","","","images/stimuli/spore_stims/simple_17_A_a.gif","","","","{""Q0"":2}","[0]","","",""
"","3242.000000000058","survey-likert","165","453850","0.0-51.0","SS1619740056399","","","","","","","","","images/stimuli/spore_stims/simple_09_A_b.gif","","","","{""Q0"":0}","[0]","","",""
"","4553","survey-likert","166","458406","0.0-52.0","SS1619740056399","","","","","","","","","images/stimuli/spore_stims/complex_16_A_b.gif","","","","{""Q0"":6}","[0]","","",""
"","2965.000000000058","survey-likert","167","461374","0.0-53.0","SS1619740056399","","","","","","","","","images/stimuli/spore_stims/simple_06_A_b.gif","","","","{""Q0"":1}","[0]","","",""
"","3217","survey-likert","168","464594","0.0-54.0","SS1619740056399","","","","","","","","","images/stimuli/spore_stims/simple_15_A_a.gif","","","","{""Q0"":0}","[0]","","",""
"","2099","survey-likert","169","466698","0.0-55.0","SS1619740056399","","","","","","","","","images/stimuli/spore_stims/complex_03_A_b.gif","","","","{""Q0"":4}","[0]","","",""
"","2066.999999999942","survey-likert","170","468768","0.0-56.0","SS1619740056399","","","","","","","","","images/stimuli/spore_stims/complex_01_A_a.gif","","","","{""Q0"":4}","[0]","","",""
"","2095.000000000058","survey-likert","171","470868","0.0-57.0","SS1619740056399","","","","","","","","","images/stimuli/spore_stims/complex_19_A_b.gif","","","","{""Q0"":5}","[0]","","",""
"[{""page_index"":0,""viewing_time"":3485.000000000058}]","3485.000000000058","instructions","172","474355","0.0-58.0","SS1619740056399","instructions","","","","","","","","","","","","","","","",""
"","2282","demog-age","173","476647","0.0-59.0","SS1619740056399","","","","","","","","","","","","","{""age"":""42""}","","","",""
"","3803","demog-ethnic-US","174","480456","0.0-60.0","SS1619740056399","","","","","","","","","","","","","{""ethnicity"":[""Asian""]}","[0]","","",""
"","4810","demog-gender-and-education","175","485269","0.0-61.0","SS1619740056399","","","","","","","","","","","","","{""gender"":""Male"",""education"":""Doctorate/Professional degree""}","[0,1]","","",""
"","16031.999999999942","survey-text","176","501313","0.0-62.0","SS1619740056399","feedback","","","","","","","","","","","","{""Q0"":""All very smooth.""}","","","",""
"[{""page_index"":0,""viewing_time"":3296.000000000058}]","3296.000000000058","instructions","177","504613","0.0-63.0","SS1619740056399","instructions","","","","","","","","","","","","","","","",""
