"view_history","rt","trial_type","trial_index","time_elapsed","internal_node_id","subject","stimulus_type","trial_stimulus","key_press","minimum_viewing_duration","trial_looking_time","block_deviant","block_background","exposure_type","stimulus","block_number","block_type","stimulus_displayed","responses","question_order","math_correct_answer","stimulus_left","stimulus_right"
"[{""page_index"":0,""viewing_time"":7844.2400000003545}]","7844.779999999446","instructions","0","7845","0.0-0.0","SS1619739706244","","","","","","","","","","","","","","","","",""
"[{""page_index"":0,""viewing_time"":14117.044999999052},{""page_index"":1,""viewing_time"":6478.399999999965}]","20595.58499999912","instructions","1","30445","0.0-1.0","SS1619739706244","instructions","","","","","","","","","","","","","","","",""
"","5977.010000000519","sequential-stimulus-presentation-old","2","36926","0.0-2.0","SS1619739706244","","","40","500","6477.010000000519","null","null","self_paced","","","","","","","","",""
"","5979.360000001179","sequential-stimulus-presentation-old","3","43408","0.0-3.0","SS1619739706244","","","40","500","6479.360000001179","null","null","self_paced","","","","","","","","",""
"[{""page_index"":0,""viewing_time"":14998.970000000554}]","14999.110000000655","instructions","4","58408","0.0-4.0","SS1619739706244","instructions","","","","","","","","","","","","","","","",""
"","1108.5200000015902","sequential-stimulus-presentation-old","5","74520","0.0-5.0","SS1619739706244","","","40","500","1608.5200000015902","null","null","forced_long","","","","","","","","",""
"","2005.445000000691","sequential-stimulus-presentation-old","6","77034","0.0-6.0","SS1619739706244","","","40","500","2505.445000000691","null","null","forced_long","","","","","","","","",""
"[{""page_index"":0,""viewing_time"":3050.3349999999045}]","3050.439999999071","instructions","7","80087","0.0-7.0","SS1619739706244","instructions","","","","","","","","","","","","","","","",""
"[{""page_index"":0,""viewing_time"":23733.17500000121},{""page_index"":1,""viewing_time"":16530.07499999876},{""page_index"":2,""viewing_time"":5425.279999999475},{""page_index"":3,""viewing_time"":1795.6700000013516},{""page_index"":4,""viewing_time"":2039.0250000000233}]","49523.355000001175","instructions","8","129611","0.0-8.0","SS1619739706244","instructions","","","","","","","","","","","","","","","",""
"","null","html-keyboard-response","9","130792","0.0-9.0-0.0","SS1619739706244","","","null","","","","","","<p><img src= images/blank.png width =""600"" height = ""600"" style=""position:fixed;top:50%; left:50%; transform: translate(-50%, -50%); border:5px solid black"">","","","","","","","",""
"","748.6800000005751","sequential-stimulus-presentation-old","10","146554","0.0-9.0-1.0","SS1619739706244","trial","","40","500","1248.680000000575","images/stimuli/spore_stims/simple_15_A_b.gif","images/stimuli/spore_stims/simple_02_A_a.gif","forced_long","","0","simple_dissimilar","images/stimuli/spore_stims/simple_02_A_a.gif","","","","",""
"","null","html-keyboard-response","11","147605","0.0-9.0-0.1","SS1619739706244","","","null","","","","","","<p><img src= images/blank.png width =""600"" height = ""600"" style=""position:fixed;top:50%; left:50%; transform: translate(-50%, -50%); border:5px solid black"">","","","","","","","",""
"","14685.639999999694","sequential-stimulus-presentation-old","12","162800","0.0-9.0-1.1","SS1619739706244","trial","","40","500","15185.639999999694","images/stimuli/spore_stims/simple_15_A_b.gif","images/stimuli/spore_stims/simple_02_A_a.gif","forced_long","","0","simple_dissimilar","images/stimuli/spore_stims/simple_02_A_a.gif","","","","",""
"","null","html-keyboard-response","13","164093","0.0-9.0-0.2","SS1619739706244","","","null","","","","","","<p><img src= images/blank.png width =""600"" height = ""600"" style=""position:fixed;top:50%; left:50%; transform: translate(-50%, -50%); border:5px solid black"">","","","","","","","",""
"","3035.385000001028","sequential-stimulus-presentation-old","14","167636","0.0-9.0-1.2","SS1619739706244","trial","","40","500","3535.385000001028","images/stimuli/spore_stims/simple_15_A_b.gif","images/stimuli/spore_stims/simple_02_A_a.gif","forced_long","","0","simple_dissimilar","images/stimuli/spore_stims/simple_15_A_b.gif","","","","",""
"","null","html-keyboard-response","15","168678","0.0-9.0-0.3","SS1619739706244","","","null","","","","","","<p><img src= images/blank.png width =""600"" height = ""600"" style=""position:fixed;top:50%; left:50%; transform: translate(-50%, -50%); border:5px solid black"">","","","","","","","",""
"","2193.3700000008685","sequential-stimulus-presentation-old","16","171380","0.0-9.0-1.3","SS1619739706244","trial","","40","500","2693.3700000008685","images/stimuli/spore_stims/simple_15_A_b.gif","images/stimuli/spore_stims/simple_02_A_a.gif","forced_long","","0","simple_dissimilar","images/stimuli/spore_stims/simple_15_A_b.gif","","","","",""
"","null","html-keyboard-response","17","172215","0.0-9.0-0.4","SS1619739706244","","","null","","","","","","<p><img src= images/blank.png width =""600"" height = ""600"" style=""position:fixed;top:50%; left:50%; transform: translate(-50%, -50%); border:5px solid black"">","","","","","","","",""
"","2026.8849999993108","sequential-stimulus-presentation-old","18","174755","0.0-9.0-1.4","SS1619739706244","trial","","40","500","2526.884999999311","images/stimuli/spore_stims/simple_15_A_b.gif","images/stimuli/spore_stims/simple_02_A_a.gif","forced_long","","0","simple_dissimilar","images/stimuli/spore_stims/simple_02_A_a.gif","","","","",""
"","null","html-keyboard-response","19","175813","0.0-9.0-0.5","SS1619739706244","","","null","","","","","","<p><img src= images/blank.png width =""600"" height = ""600"" style=""position:fixed;top:50%; left:50%; transform: translate(-50%, -50%); border:5px solid black"">","","","","","","","",""
"","2225.0050000002375","sequential-stimulus-presentation-old","20","178546","0.0-9.0-1.5","SS1619739706244","trial","","40","500","2725.0050000002375","images/stimuli/spore_stims/simple_15_A_b.gif","images/stimuli/spore_stims/simple_02_A_a.gif","forced_long","","0","simple_dissimilar","images/stimuli/spore_stims/simple_02_A_a.gif","","","","",""
"","5448.884999999806","survey-multi-choice","21","184002","0.0-10.0","SS1619739706244","math_question","","","","","","","","","","","","{""Q0"":""15""}","[0]","15","",""
"","null","html-keyboard-response","22","185176","0.0-11.0-0.0","SS1619739706244","","","null","","","","","","<p><img src= images/blank.png width =""600"" height = ""600"" style=""position:fixed;top:50%; left:50%; transform: translate(-50%, -50%); border:5px solid black"">","","","","","","","",""
"","1509.8099999995611","sequential-stimulus-presentation-old","23","187190","0.0-11.0-1.0","SS1619739706244","trial","","40","500","2009.8099999995611","images/stimuli/spore_stims/complex_15_A_a.gif","images/stimuli/spore_stims/complex_18_A_b.gif","forced_short","","1","complex_dissimilar","images/stimuli/spore_stims/complex_18_A_b.gif","","","","",""
"","null","html-keyboard-response","24","188414","0.0-11.0-0.1","SS1619739706244","","","null","","","","","","<p><img src= images/blank.png width =""600"" height = ""600"" style=""position:fixed;top:50%; left:50%; transform: translate(-50%, -50%); border:5px solid black"">","","","","","","","",""
"","4248.960000000778","sequential-stimulus-presentation-old","25","193169","0.0-11.0-1.1","SS1619739706244","trial","","40","500","4748.960000000778","images/stimuli/spore_stims/complex_15_A_a.gif","images/stimuli/spore_stims/complex_18_A_b.gif","forced_short","","1","complex_dissimilar","images/stimuli/spore_stims/complex_18_A_b.gif","","","","",""
"","null","html-keyboard-response","26","194435","0.0-11.0-0.2","SS1619739706244","","","null","","","","","","<p><img src= images/blank.png width =""600"" height = ""600"" style=""position:fixed;top:50%; left:50%; transform: translate(-50%, -50%); border:5px solid black"">","","","","","","","",""
"","3559.724999999162","sequential-stimulus-presentation-old","27","198507","0.0-11.0-1.2","SS1619739706244","trial","","40","500","4059.724999999162","images/stimuli/spore_stims/complex_15_A_a.gif","images/stimuli/spore_stims/complex_18_A_b.gif","forced_short","","1","complex_dissimilar","images/stimuli/spore_stims/complex_18_A_b.gif","","","","",""
"","null","html-keyboard-response","28","199797","0.0-11.0-0.3","SS1619739706244","","","null","","","","","","<p><img src= images/blank.png width =""600"" height = ""600"" style=""position:fixed;top:50%; left:50%; transform: translate(-50%, -50%); border:5px solid black"">","","","","","","","",""
"","2718.739999998448","sequential-stimulus-presentation-old","29","203024","0.0-11.0-1.3","SS1619739706244","trial","","40","500","3218.739999998448","images/stimuli/spore_stims/complex_15_A_a.gif","images/stimuli/spore_stims/complex_18_A_b.gif","forced_short","","1","complex_dissimilar","images/stimuli/spore_stims/complex_18_A_b.gif","","","","",""
"","null","html-keyboard-response","30","204309","0.0-11.0-0.4","SS1619739706244","","","null","","","","","","<p><img src= images/blank.png width =""600"" height = ""600"" style=""position:fixed;top:50%; left:50%; transform: translate(-50%, -50%); border:5px solid black"">","","","","","","","",""
"","1850.08500000005","sequential-stimulus-presentation-old","31","206668","0.0-11.0-1.4","SS1619739706244","trial","","40","500","2350.08500000005","images/stimuli/spore_stims/complex_15_A_a.gif","images/stimuli/spore_stims/complex_18_A_b.gif","forced_short","","1","complex_dissimilar","images/stimuli/spore_stims/complex_18_A_b.gif","","","","",""
"","null","html-keyboard-response","32","207750","0.0-11.0-0.5","SS1619739706244","","","null","","","","","","<p><img src= images/blank.png width =""600"" height = ""600"" style=""position:fixed;top:50%; left:50%; transform: translate(-50%, -50%); border:5px solid black"">","","","","","","","",""
"","3095.8150000005844","sequential-stimulus-presentation-old","33","211357","0.0-11.0-1.5","SS1619739706244","trial","","40","500","3595.8150000005844","images/stimuli/spore_stims/complex_15_A_a.gif","images/stimuli/spore_stims/complex_18_A_b.gif","forced_short","","1","complex_dissimilar","images/stimuli/spore_stims/complex_15_A_a.gif","","","","",""
"","5392.6650000012305","survey-multi-choice","34","216756","0.0-12.0","SS1619739706244","math_question","","","","","","","","","","","","{""Q0"":""11""}","[0]","11","",""
"","null","html-keyboard-response","35","217682","0.0-13.0-0.0","SS1619739706244","","","null","","","","","","<p><img src= images/blank.png width =""600"" height = ""600"" style=""position:fixed;top:50%; left:50%; transform: translate(-50%, -50%); border:5px solid black"">","","","","","","","",""
"","1779.6499999985972","sequential-stimulus-presentation-old","36","234473","0.0-13.0-1.0","SS1619739706244","trial","","40","500","2279.649999998597","images/stimuli/spore_stims/complex_19_A_a.gif","images/stimuli/spore_stims/complex_08_A_b.gif","forced_long","","2","complex_dissimilar","images/stimuli/spore_stims/complex_08_A_b.gif","","","","",""
"","null","html-keyboard-response","37","235292","0.0-13.0-0.1","SS1619739706244","","","null","","","","","","<p><img src= images/blank.png width =""600"" height = ""600"" style=""position:fixed;top:50%; left:50%; transform: translate(-50%, -50%); border:5px solid black"">","","","","","","","",""
"","981.3400000002875","sequential-stimulus-presentation-old","38","236782","0.0-13.0-1.1","SS1619739706244","trial","","40","500","1481.3400000002875","images/stimuli/spore_stims/complex_19_A_a.gif","images/stimuli/spore_stims/complex_08_A_b.gif","forced_long","","2","complex_dissimilar","images/stimuli/spore_stims/complex_08_A_b.gif","","","","",""
"","null","html-keyboard-response","39","237713","0.0-13.0-0.2","SS1619739706244","","","null","","","","","","<p><img src= images/blank.png width =""600"" height = ""600"" style=""position:fixed;top:50%; left:50%; transform: translate(-50%, -50%); border:5px solid black"">","","","","","","","",""
"","1547.8400000010733","sequential-stimulus-presentation-old","40","239764","0.0-13.0-1.2","SS1619739706244","trial","","40","500","2047.8400000010733","images/stimuli/spore_stims/complex_19_A_a.gif","images/stimuli/spore_stims/complex_08_A_b.gif","forced_long","","2","complex_dissimilar","images/stimuli/spore_stims/complex_08_A_b.gif","","","","",""
"","null","html-keyboard-response","41","240634","0.0-13.0-0.3","SS1619739706244","","","null","","","","","","<p><img src= images/blank.png width =""600"" height = ""600"" style=""position:fixed;top:50%; left:50%; transform: translate(-50%, -50%); border:5px solid black"">","","","","","","","",""
"","3159.92499999993","sequential-stimulus-presentation-old","42","244303","0.0-13.0-1.3","SS1619739706244","trial","","40","500","3659.92499999993","images/stimuli/spore_stims/complex_19_A_a.gif","images/stimuli/spore_stims/complex_08_A_b.gif","forced_long","","2","complex_dissimilar","images/stimuli/spore_stims/complex_19_A_a.gif","","","","",""
"","null","html-keyboard-response","43","245209","0.0-13.0-0.4","SS1619739706244","","","null","","","","","","<p><img src= images/blank.png width =""600"" height = ""600"" style=""position:fixed;top:50%; left:50%; transform: translate(-50%, -50%); border:5px solid black"">","","","","","","","",""
"","1258.0900000011898","sequential-stimulus-presentation-old","44","246978","0.0-13.0-1.4","SS1619739706244","trial","","40","500","1758.0900000011898","images/stimuli/spore_stims/complex_19_A_a.gif","images/stimuli/spore_stims/complex_08_A_b.gif","forced_long","","2","complex_dissimilar","images/stimuli/spore_stims/complex_08_A_b.gif","","","","",""
"","null","html-keyboard-response","45","247825","0.0-13.0-0.5","SS1619739706244","","","null","","","","","","<p><img src= images/blank.png width =""600"" height = ""600"" style=""position:fixed;top:50%; left:50%; transform: translate(-50%, -50%); border:5px solid black"">","","","","","","","",""
"","1610.6400000007998","sequential-stimulus-presentation-old","46","249944","0.0-13.0-1.5","SS1619739706244","trial","","40","500","2110.6400000008","images/stimuli/spore_stims/complex_19_A_a.gif","images/stimuli/spore_stims/complex_08_A_b.gif","forced_long","","2","complex_dissimilar","images/stimuli/spore_stims/complex_19_A_a.gif","","","","",""
"","5753.290000000532","survey-multi-choice","47","255699","0.0-14.0","SS1619739706244","math_question","","","","","","","","","","","","{""Q0"":""8""}","[0]","8","",""
"","null","html-keyboard-response","48","256788","0.0-15.0-0.0","SS1619739706244","","","null","","","","","","<p><img src= images/blank.png width =""600"" height = ""600"" style=""position:fixed;top:50%; left:50%; transform: translate(-50%, -50%); border:5px solid black"">","","","","","","","",""
"","998.9549999991432","sequential-stimulus-presentation-old","49","258296","0.0-15.0-1.0","SS1619739706244","trial","","40","500","1498.9549999991432","images/stimuli/spore_stims/simple_03_A_a.gif","images/stimuli/spore_stims/simple_11_A_b.gif","self_paced","","3","simple_dissimilar","images/stimuli/spore_stims/simple_11_A_b.gif","","","","",""
"","null","html-keyboard-response","50","259431","0.0-15.0-0.1","SS1619739706244","","","null","","","","","","<p><img src= images/blank.png width =""600"" height = ""600"" style=""position:fixed;top:50%; left:50%; transform: translate(-50%, -50%); border:5px solid black"">","","","","","","","",""
"","528.3099999997066","sequential-stimulus-presentation-old","51","260466","0.0-15.0-1.1","SS1619739706244","trial","","40","500","1028.3099999997066","images/stimuli/spore_stims/simple_03_A_a.gif","images/stimuli/spore_stims/simple_11_A_b.gif","self_paced","","3","simple_dissimilar","images/stimuli/spore_stims/simple_11_A_b.gif","","","","",""
"","null","html-keyboard-response","52","261289","0.0-15.0-0.2","SS1619739706244","","","null","","","","","","<p><img src= images/blank.png width =""600"" height = ""600"" style=""position:fixed;top:50%; left:50%; transform: translate(-50%, -50%); border:5px solid black"">","","","","","","","",""
"","722.9000000006054","sequential-stimulus-presentation-old","53","262519","0.0-15.0-1.2","SS1619739706244","trial","","40","500","1222.9000000006054","images/stimuli/spore_stims/simple_03_A_a.gif","images/stimuli/spore_stims/simple_11_A_b.gif","self_paced","","3","simple_dissimilar","images/stimuli/spore_stims/simple_11_A_b.gif","","","","",""
"","null","html-keyboard-response","54","263698","0.0-15.0-0.3","SS1619739706244","","","null","","","","","","<p><img src= images/blank.png width =""600"" height = ""600"" style=""position:fixed;top:50%; left:50%; transform: translate(-50%, -50%); border:5px solid black"">","","","","","","","",""
"","1026.7449999991804","sequential-stimulus-presentation-old","55","265233","0.0-15.0-1.3","SS1619739706244","trial","","40","500","1526.7449999991804","images/stimuli/spore_stims/simple_03_A_a.gif","images/stimuli/spore_stims/simple_11_A_b.gif","self_paced","","3","simple_dissimilar","images/stimuli/spore_stims/simple_11_A_b.gif","","","","",""
"","null","html-keyboard-response","56","266273","0.0-15.0-0.4","SS1619739706244","","","null","","","","","","<p><img src= images/blank.png width =""600"" height = ""600"" style=""position:fixed;top:50%; left:50%; transform: translate(-50%, -50%); border:5px solid black"">","","","","","","","",""
"","501.2349999997532","sequential-stimulus-presentation-old","57","267294","0.0-15.0-1.4","SS1619739706244","trial","","40","500","1001.2349999997532","images/stimuli/spore_stims/simple_03_A_a.gif","images/stimuli/spore_stims/simple_11_A_b.gif","self_paced","","3","simple_dissimilar","images/stimuli/spore_stims/simple_11_A_b.gif","","","","",""
"","null","html-keyboard-response","58","268535","0.0-15.0-0.5","SS1619739706244","","","null","","","","","","<p><img src= images/blank.png width =""600"" height = ""600"" style=""position:fixed;top:50%; left:50%; transform: translate(-50%, -50%); border:5px solid black"">","","","","","","","",""
"","781.5399999999208","sequential-stimulus-presentation-old","59","269825","0.0-15.0-1.5","SS1619739706244","trial","","40","500","1281.5399999999208","images/stimuli/spore_stims/simple_03_A_a.gif","images/stimuli/spore_stims/simple_11_A_b.gif","self_paced","","3","simple_dissimilar","images/stimuli/spore_stims/simple_11_A_b.gif","","","","",""
"","2723.3999999989173","survey-multi-choice","60","272549","0.0-16.0","SS1619739706244","math_question","","","","","","","","","","","","{""Q0"":""6""}","[0]","6","",""
"","null","html-keyboard-response","61","273423","0.0-17.0-0.0","SS1619739706244","","","null","","","","","","<p><img src= images/blank.png width =""600"" height = ""600"" style=""position:fixed;top:50%; left:50%; transform: translate(-50%, -50%); border:5px solid black"">","","","","","","","",""
"","1357.4300000000512","sequential-stimulus-presentation-old","62","275289","0.0-17.0-1.0","SS1619739706244","trial","","40","500","1857.4300000000512","images/stimuli/spore_stims/simple_12_A_a.gif","images/stimuli/spore_stims/simple_09_A_b.gif","forced_short","","4","simple_dissimilar","images/stimuli/spore_stims/simple_09_A_b.gif","","","","",""
"","null","html-keyboard-response","63","276578","0.0-17.0-0.1","SS1619739706244","","","null","","","","","","<p><img src= images/blank.png width =""600"" height = ""600"" style=""position:fixed;top:50%; left:50%; transform: translate(-50%, -50%); border:5px solid black"">","","","","","","","",""
"","665.204999999376","sequential-stimulus-presentation-old","64","277755","0.0-17.0-1.1","SS1619739706244","trial","","40","500","1165.204999999376","images/stimuli/spore_stims/simple_12_A_a.gif","images/stimuli/spore_stims/simple_09_A_b.gif","forced_short","","4","simple_dissimilar","images/stimuli/spore_stims/simple_09_A_b.gif","","","","",""
"","null","html-keyboard-response","65","278691","0.0-17.0-0.2","SS1619739706244","","","null","","","","","","<p><img src= images/blank.png width =""600"" height = ""600"" style=""position:fixed;top:50%; left:50%; transform: translate(-50%, -50%); border:5px solid black"">","","","","","","","",""
"","902.1150000008056","sequential-stimulus-presentation-old","66","280097","0.0-17.0-1.2","SS1619739706244","trial","","40","500","1402.1150000008056","images/stimuli/spore_stims/simple_12_A_a.gif","images/stimuli/spore_stims/simple_09_A_b.gif","forced_short","","4","simple_dissimilar","images/stimuli/spore_stims/simple_09_A_b.gif","","","","",""
"","null","html-keyboard-response","67","281103","0.0-17.0-0.3","SS1619739706244","","","null","","","","","","<p><img src= images/blank.png width =""600"" height = ""600"" style=""position:fixed;top:50%; left:50%; transform: translate(-50%, -50%); border:5px solid black"">","","","","","","","",""
"","942.4600000001956","sequential-stimulus-presentation-old","68","282557","0.0-17.0-1.3","SS1619739706244","trial","","40","500","1442.4600000001956","images/stimuli/spore_stims/simple_12_A_a.gif","images/stimuli/spore_stims/simple_09_A_b.gif","forced_short","","4","simple_dissimilar","images/stimuli/spore_stims/simple_09_A_b.gif","","","","",""
"","null","html-keyboard-response","69","283843","0.0-17.0-0.4","SS1619739706244","","","null","","","","","","<p><img src= images/blank.png width =""600"" height = ""600"" style=""position:fixed;top:50%; left:50%; transform: translate(-50%, -50%); border:5px solid black"">","","","","","","","",""
"","1372.4199999996927","sequential-stimulus-presentation-old","70","285732","0.0-17.0-1.4","SS1619739706244","trial","","40","500","1872.4199999996927","images/stimuli/spore_stims/simple_12_A_a.gif","images/stimuli/spore_stims/simple_09_A_b.gif","forced_short","","4","simple_dissimilar","images/stimuli/spore_stims/simple_12_A_a.gif","","","","",""
"","2771.0299999999115","survey-multi-choice","71","288509","0.0-18.0","SS1619739706244","math_question","","","","","","","","","","","","{""Q0"":""9""}","[0]","9","",""
"","null","html-keyboard-response","72","289682","0.0-19.0-0.0","SS1619739706244","","","null","","","","","","<p><img src= images/blank.png width =""600"" height = ""600"" style=""position:fixed;top:50%; left:50%; transform: translate(-50%, -50%); border:5px solid black"">","","","","","","","",""
"","595.8200000004726","sequential-stimulus-presentation-old","73","305289","0.0-19.0-1.0","SS1619739706244","trial","","40","500","1095.8200000004726","images/stimuli/spore_stims/complex_04_A_b.gif","images/stimuli/spore_stims/complex_20_A_a.gif","forced_long","","5","complex_dissimilar","images/stimuli/spore_stims/complex_20_A_a.gif","","","","",""
"","null","html-keyboard-response","74","306439","0.0-19.0-0.1","SS1619739706244","","","null","","","","","","<p><img src= images/blank.png width =""600"" height = ""600"" style=""position:fixed;top:50%; left:50%; transform: translate(-50%, -50%); border:5px solid black"">","","","","","","","",""
"","1390.4800000000396","sequential-stimulus-presentation-old","75","308344","0.0-19.0-1.1","SS1619739706244","trial","","40","500","1890.4800000000396","images/stimuli/spore_stims/complex_04_A_b.gif","images/stimuli/spore_stims/complex_20_A_a.gif","forced_long","","5","complex_dissimilar","images/stimuli/spore_stims/complex_20_A_a.gif","","","","",""
"","null","html-keyboard-response","76","309220","0.0-19.0-0.2","SS1619739706244","","","null","","","","","","<p><img src= images/blank.png width =""600"" height = ""600"" style=""position:fixed;top:50%; left:50%; transform: translate(-50%, -50%); border:5px solid black"">","","","","","","","",""
"","1366.5450000007986","sequential-stimulus-presentation-old","77","311096","0.0-19.0-1.2","SS1619739706244","trial","","40","500","1866.5450000007986","images/stimuli/spore_stims/complex_04_A_b.gif","images/stimuli/spore_stims/complex_20_A_a.gif","forced_long","","5","complex_dissimilar","images/stimuli/spore_stims/complex_20_A_a.gif","","","","",""
"","null","html-keyboard-response","78","312378","0.0-19.0-0.3","SS1619739706244","","","null","","","","","","<p><img src= images/blank.png width =""600"" height = ""600"" style=""position:fixed;top:50%; left:50%; transform: translate(-50%, -50%); border:5px solid black"">","","","","","","","",""
"","650.074999999546","sequential-stimulus-presentation-old","79","313538","0.0-19.0-1.3","SS1619739706244","trial","","40","500","1150.074999999546","images/stimuli/spore_stims/complex_04_A_b.gif","images/stimuli/spore_stims/complex_20_A_a.gif","forced_long","","5","complex_dissimilar","images/stimuli/spore_stims/complex_20_A_a.gif","","","","",""
"","null","html-keyboard-response","80","314727","0.0-19.0-0.4","SS1619739706244","","","null","","","","","","<p><img src= images/blank.png width =""600"" height = ""600"" style=""position:fixed;top:50%; left:50%; transform: translate(-50%, -50%); border:5px solid black"">","","","","","","","",""
"","590.9550000014715","sequential-stimulus-presentation-old","81","315827","0.0-19.0-1.4","SS1619739706244","trial","","40","500","1090.9550000014715","images/stimuli/spore_stims/complex_04_A_b.gif","images/stimuli/spore_stims/complex_20_A_a.gif","forced_long","","5","complex_dissimilar","images/stimuli/spore_stims/complex_20_A_a.gif","","","","",""
"","null","html-keyboard-response","82","316823","0.0-19.0-0.5","SS1619739706244","","","null","","","","","","<p><img src= images/blank.png width =""600"" height = ""600"" style=""position:fixed;top:50%; left:50%; transform: translate(-50%, -50%); border:5px solid black"">","","","","","","","",""
"","1110.479999999341","sequential-stimulus-presentation-old","83","318437","0.0-19.0-1.5","SS1619739706244","trial","","40","500","1610.479999999341","images/stimuli/spore_stims/complex_04_A_b.gif","images/stimuli/spore_stims/complex_20_A_a.gif","forced_long","","5","complex_dissimilar","images/stimuli/spore_stims/complex_20_A_a.gif","","","","",""
"","2595.535000000382","survey-multi-choice","84","321042","0.0-20.0","SS1619739706244","math_question","","","","","","","","","","","","{""Q0"":""5""}","[0]","5","",""
"","null","html-keyboard-response","85","322215","0.0-21.0-0.0","SS1619739706244","","","null","","","","","","<p><img src= images/blank.png width =""600"" height = ""600"" style=""position:fixed;top:50%; left:50%; transform: translate(-50%, -50%); border:5px solid black"">","","","","","","","",""
"","1061.4500000010594","sequential-stimulus-presentation-old","86","323787","0.0-21.0-1.0","SS1619739706244","trial","","40","500","1561.4500000010594","images/stimuli/spore_stims/complex_07_A_b.gif","images/stimuli/spore_stims/complex_14_A_a.gif","forced_short","","6","complex_dissimilar","images/stimuli/spore_stims/complex_14_A_a.gif","","","","",""
"","null","html-keyboard-response","87","324596","0.0-21.0-0.1","SS1619739706244","","","null","","","","","","<p><img src= images/blank.png width =""600"" height = ""600"" style=""position:fixed;top:50%; left:50%; transform: translate(-50%, -50%); border:5px solid black"">","","","","","","","",""
"","1371.3799999986659","sequential-stimulus-presentation-old","88","326477","0.0-21.0-1.1","SS1619739706244","trial","","40","500","1871.3799999986659","images/stimuli/spore_stims/complex_07_A_b.gif","images/stimuli/spore_stims/complex_14_A_a.gif","forced_short","","6","complex_dissimilar","images/stimuli/spore_stims/complex_07_A_b.gif","","","","",""
"","null","html-keyboard-response","89","327463","0.0-21.0-0.2","SS1619739706244","","","null","","","","","","<p><img src= images/blank.png width =""600"" height = ""600"" style=""position:fixed;top:50%; left:50%; transform: translate(-50%, -50%); border:5px solid black"">","","","","","","","",""
"","1433.4099999996251","sequential-stimulus-presentation-old","90","329409","0.0-21.0-1.2","SS1619739706244","trial","","40","500","1933.4099999996251","images/stimuli/spore_stims/complex_07_A_b.gif","images/stimuli/spore_stims/complex_14_A_a.gif","forced_short","","6","complex_dissimilar","images/stimuli/spore_stims/complex_14_A_a.gif","","","","",""
"","null","html-keyboard-response","91","330381","0.0-21.0-0.3","SS1619739706244","","","null","","","","","","<p><img src= images/blank.png width =""600"" height = ""600"" style=""position:fixed;top:50%; left:50%; transform: translate(-50%, -50%); border:5px solid black"">","","","","","","","",""
"","657.7049999996088","sequential-stimulus-presentation-old","92","331550","0.0-21.0-1.3","SS1619739706244","trial","","40","500","1157.7049999996088","images/stimuli/spore_stims/complex_07_A_b.gif","images/stimuli/spore_stims/complex_14_A_a.gif","forced_short","","6","complex_dissimilar","images/stimuli/spore_stims/complex_14_A_a.gif","","","","",""
"","2531.2849999991013","survey-multi-choice","93","334086","0.0-22.0","SS1619739706244","math_question","","","","","","","","","","","","{""Q0"":""10""}","[0]","10","",""
"","null","html-keyboard-response","94","335127","0.0-23.0-0.0","SS1619739706244","","","null","","","","","","<p><img src= images/blank.png width =""600"" height = ""600"" style=""position:fixed;top:50%; left:50%; transform: translate(-50%, -50%); border:5px solid black"">","","","","","","","",""
"","2673.629999999306","sequential-stimulus-presentation-old","95","352812","0.0-23.0-1.0","SS1619739706244","trial","","40","500","3173.629999999306","images/stimuli/spore_stims/simple_13_A_a.gif","images/stimuli/spore_stims/simple_05_A_b.gif","forced_long","","7","simple_dissimilar","images/stimuli/spore_stims/simple_05_A_b.gif","","","","",""
"","null","html-keyboard-response","96","353856","0.0-23.0-0.1","SS1619739706244","","","null","","","","","","<p><img src= images/blank.png width =""600"" height = ""600"" style=""position:fixed;top:50%; left:50%; transform: translate(-50%, -50%); border:5px solid black"">","","","","","","","",""
"","1287.330000001064","sequential-stimulus-presentation-old","97","355650","0.0-23.0-1.1","SS1619739706244","trial","","40","500","1787.330000001064","images/stimuli/spore_stims/simple_13_A_a.gif","images/stimuli/spore_stims/simple_05_A_b.gif","forced_long","","7","simple_dissimilar","images/stimuli/spore_stims/simple_05_A_b.gif","","","","",""
"","null","html-keyboard-response","98","356908","0.0-23.0-0.2","SS1619739706244","","","null","","","","","","<p><img src= images/blank.png width =""600"" height = ""600"" style=""position:fixed;top:50%; left:50%; transform: translate(-50%, -50%); border:5px solid black"">","","","","","","","",""
"","967.1150000013295","sequential-stimulus-presentation-old","99","358381","0.0-23.0-1.2","SS1619739706244","trial","","40","500","1467.1150000013295","images/stimuli/spore_stims/simple_13_A_a.gif","images/stimuli/spore_stims/simple_05_A_b.gif","forced_long","","7","simple_dissimilar","images/stimuli/spore_stims/simple_05_A_b.gif","","","","",""
"","null","html-keyboard-response","100","359327","0.0-23.0-0.3","SS1619739706244","","","null","","","","","","<p><img src= images/blank.png width =""600"" height = ""600"" style=""position:fixed;top:50%; left:50%; transform: translate(-50%, -50%); border:5px solid black"">","","","","","","","",""
"","882.0449999984703","sequential-stimulus-presentation-old","101","360719","0.0-23.0-1.3","SS1619739706244","trial","","40","500","1382.0449999984703","images/stimuli/spore_stims/simple_13_A_a.gif","images/stimuli/spore_stims/simple_05_A_b.gif","forced_long","","7","simple_dissimilar","images/stimuli/spore_stims/simple_05_A_b.gif","","","","",""
"","null","html-keyboard-response","102","361826","0.0-23.0-0.4","SS1619739706244","","","null","","","","","","<p><img src= images/blank.png width =""600"" height = ""600"" style=""position:fixed;top:50%; left:50%; transform: translate(-50%, -50%); border:5px solid black"">","","","","","","","",""
"","155.61499999964144","sequential-stimulus-presentation-old","103","362493","0.0-23.0-1.4","SS1619739706244","trial","","40","500","655.6149999996414","images/stimuli/spore_stims/simple_13_A_a.gif","images/stimuli/spore_stims/simple_05_A_b.gif","forced_long","","7","simple_dissimilar","images/stimuli/spore_stims/simple_05_A_b.gif","","","","",""
"","2582.10500000132","survey-multi-choice","104","365083","0.0-24.0","SS1619739706244","math_question","","","","","","","","","","","","{""Q0"":""6""}","[0]","6","",""
"","null","html-keyboard-response","105","366104","0.0-25.0-0.0","SS1619739706244","","","null","","","","","","<p><img src= images/blank.png width =""600"" height = ""600"" style=""position:fixed;top:50%; left:50%; transform: translate(-50%, -50%); border:5px solid black"">","","","","","","","",""
"","1664.435000000638","sequential-stimulus-presentation-old","106","368283","0.0-25.0-1.0","SS1619739706244","trial","","40","500","2164.435000000638","images/stimuli/spore_stims/complex_10_A_a.gif","images/stimuli/spore_stims/complex_16_A_b.gif","self_paced","","8","complex_dissimilar","images/stimuli/spore_stims/complex_16_A_b.gif","","","","",""
"","null","html-keyboard-response","107","369434","0.0-25.0-0.1","SS1619739706244","","","null","","","","","","<p><img src= images/blank.png width =""600"" height = ""600"" style=""position:fixed;top:50%; left:50%; transform: translate(-50%, -50%); border:5px solid black"">","","","","","","","",""
"","277.7000000005355","sequential-stimulus-presentation-old","108","370232","0.0-25.0-1.1","SS1619739706244","trial","","40","500","777.7000000005355","images/stimuli/spore_stims/complex_10_A_a.gif","images/stimuli/spore_stims/complex_16_A_b.gif","self_paced","","8","complex_dissimilar","images/stimuli/spore_stims/complex_16_A_b.gif","","","","",""
"","null","html-keyboard-response","109","371281","0.0-25.0-0.2","SS1619739706244","","","null","","","","","","<p><img src= images/blank.png width =""600"" height = ""600"" style=""position:fixed;top:50%; left:50%; transform: translate(-50%, -50%); border:5px solid black"">","","","","","","","",""
"","176.21499999950174","sequential-stimulus-presentation-old","110","371964","0.0-25.0-1.2","SS1619739706244","trial","","40","500","676.2149999995017","images/stimuli/spore_stims/complex_10_A_a.gif","images/stimuli/spore_stims/complex_16_A_b.gif","self_paced","","8","complex_dissimilar","images/stimuli/spore_stims/complex_16_A_b.gif","","","","",""
"","null","html-keyboard-response","111","372804","0.0-25.0-0.3","SS1619739706244","","","null","","","","","","<p><img src= images/blank.png width =""600"" height = ""600"" style=""position:fixed;top:50%; left:50%; transform: translate(-50%, -50%); border:5px solid black"">","","","","","","","",""
"","1182.830000001588","sequential-stimulus-presentation-old","112","374497","0.0-25.0-1.3","SS1619739706244","trial","","40","500","1682.830000001588","images/stimuli/spore_stims/complex_10_A_a.gif","images/stimuli/spore_stims/complex_16_A_b.gif","self_paced","","8","complex_dissimilar","images/stimuli/spore_stims/complex_10_A_a.gif","","","","",""
"","null","html-keyboard-response","113","375353","0.0-25.0-0.4","SS1619739706244","","","null","","","","","","<p><img src= images/blank.png width =""600"" height = ""600"" style=""position:fixed;top:50%; left:50%; transform: translate(-50%, -50%); border:5px solid black"">","","","","","","","",""
"","1047.3750000001164","sequential-stimulus-presentation-old","114","376912","0.0-25.0-1.4","SS1619739706244","trial","","40","500","1547.3750000001164","images/stimuli/spore_stims/complex_10_A_a.gif","images/stimuli/spore_stims/complex_16_A_b.gif","self_paced","","8","complex_dissimilar","images/stimuli/spore_stims/complex_16_A_b.gif","","","","",""
"","null","html-keyboard-response","115","377990","0.0-25.0-0.5","SS1619739706244","","","null","","","","","","<p><img src= images/blank.png width =""600"" height = ""600"" style=""position:fixed;top:50%; left:50%; transform: translate(-50%, -50%); border:5px solid black"">","","","","","","","",""
"","345.9800000000396","sequential-stimulus-presentation-old","116","378843","0.0-25.0-1.5","SS1619739706244","trial","","40","500","845.9800000000396","images/stimuli/spore_stims/complex_10_A_a.gif","images/stimuli/spore_stims/complex_16_A_b.gif","self_paced","","8","complex_dissimilar","images/stimuli/spore_stims/complex_10_A_a.gif","","","","",""
"","2438.8349999990314","survey-multi-choice","117","381292","0.0-26.0","SS1619739706244","math_question","","","","","","","","","","","","{""Q0"":""14""}","[0]","14","",""
"","null","html-keyboard-response","118","382151","0.0-27.0-0.0","SS1619739706244","","","null","","","","","","<p><img src= images/blank.png width =""600"" height = ""600"" style=""position:fixed;top:50%; left:50%; transform: translate(-50%, -50%); border:5px solid black"">","","","","","","","",""
"","461.4849999998114","sequential-stimulus-presentation-old","119","383124","0.0-27.0-1.0","SS1619739706244","trial","","40","500","961.4849999998114","images/stimuli/spore_stims/simple_15_A_a.gif","images/stimuli/spore_stims/simple_01_A_b.gif","forced_short","","9","simple_dissimilar","images/stimuli/spore_stims/simple_01_A_b.gif","","","","",""
"","null","html-keyboard-response","120","383980","0.0-27.0-0.1","SS1619739706244","","","null","","","","","","<p><img src= images/blank.png width =""600"" height = ""600"" style=""position:fixed;top:50%; left:50%; transform: translate(-50%, -50%); border:5px solid black"">","","","","","","","",""
"","576.7649999997811","sequential-stimulus-presentation-old","121","385068","0.0-27.0-1.1","SS1619739706244","trial","","40","500","1076.7649999997811","images/stimuli/spore_stims/simple_15_A_a.gif","images/stimuli/spore_stims/simple_01_A_b.gif","forced_short","","9","simple_dissimilar","images/stimuli/spore_stims/simple_01_A_b.gif","","","","",""
"","null","html-keyboard-response","122","386203","0.0-27.0-0.2","SS1619739706244","","","null","","","","","","<p><img src= images/blank.png width =""600"" height = ""600"" style=""position:fixed;top:50%; left:50%; transform: translate(-50%, -50%); border:5px solid black"">","","","","","","","",""
"","712.3449999999139","sequential-stimulus-presentation-old","123","387426","0.0-27.0-1.2","SS1619739706244","trial","","40","500","1212.3449999999139","images/stimuli/spore_stims/simple_15_A_a.gif","images/stimuli/spore_stims/simple_01_A_b.gif","forced_short","","9","simple_dissimilar","images/stimuli/spore_stims/simple_01_A_b.gif","","","","",""
"","null","html-keyboard-response","124","388377","0.0-27.0-0.3","SS1619739706244","","","null","","","","","","<p><img src= images/blank.png width =""600"" height = ""600"" style=""position:fixed;top:50%; left:50%; transform: translate(-50%, -50%); border:5px solid black"">","","","","","","","",""
"","572.4000000008964","sequential-stimulus-presentation-old","125","389462","0.0-27.0-1.3","SS1619739706244","trial","","40","500","1072.4000000008964","images/stimuli/spore_stims/simple_15_A_a.gif","images/stimuli/spore_stims/simple_01_A_b.gif","forced_short","","9","simple_dissimilar","images/stimuli/spore_stims/simple_15_A_a.gif","","","","",""
"","null","html-keyboard-response","126","390668","0.0-27.0-0.4","SS1619739706244","","","null","","","","","","<p><img src= images/blank.png width =""600"" height = ""600"" style=""position:fixed;top:50%; left:50%; transform: translate(-50%, -50%); border:5px solid black"">","","","","","","","",""
"","615.8250000007683","sequential-stimulus-presentation-old","127","391793","0.0-27.0-1.4","SS1619739706244","trial","","40","500","1115.8250000007683","images/stimuli/spore_stims/simple_15_A_a.gif","images/stimuli/spore_stims/simple_01_A_b.gif","forced_short","","9","simple_dissimilar","images/stimuli/spore_stims/simple_15_A_a.gif","","","","",""
"","2532.124999999709","survey-multi-choice","128","394337","0.0-28.0","SS1619739706244","math_question","","","","","","","","","","","","{""Q0"":""7""}","[0]","7","",""
"","null","html-keyboard-response","129","395532","0.0-29.0-0.0","SS1619739706244","","","null","","","","","","<p><img src= images/blank.png width =""600"" height = ""600"" style=""position:fixed;top:50%; left:50%; transform: translate(-50%, -50%); border:5px solid black"">","","","","","","","",""
"","1088.5099999996019","sequential-stimulus-presentation-old","130","397131","0.0-29.0-1.0","SS1619739706244","trial","","40","500","1588.5099999996019","images/stimuli/spore_stims/complex_13_A_b.gif","images/stimuli/spore_stims/complex_18_A_a.gif","self_paced","","10","complex_dissimilar","images/stimuli/spore_stims/complex_18_A_a.gif","","","","",""
"","null","html-keyboard-response","131","398096","0.0-29.0-0.1","SS1619739706244","","","null","","","","","","<p><img src= images/blank.png width =""600"" height = ""600"" style=""position:fixed;top:50%; left:50%; transform: translate(-50%, -50%); border:5px solid black"">","","","","","","","",""
"","448.66999999975087","sequential-stimulus-presentation-old","132","399054","0.0-29.0-1.1","SS1619739706244","trial","","40","500","948.6699999997509","images/stimuli/spore_stims/complex_13_A_b.gif","images/stimuli/spore_stims/complex_18_A_a.gif","self_paced","","10","complex_dissimilar","images/stimuli/spore_stims/complex_13_A_b.gif","","","","",""
"","null","html-keyboard-response","133","400194","0.0-29.0-0.2","SS1619739706244","","","null","","","","","","<p><img src= images/blank.png width =""600"" height = ""600"" style=""position:fixed;top:50%; left:50%; transform: translate(-50%, -50%); border:5px solid black"">","","","","","","","",""
"","203.00000000133878","sequential-stimulus-presentation-old","134","400907","0.0-29.0-1.2","SS1619739706244","trial","","40","500","703.0000000013388","images/stimuli/spore_stims/complex_13_A_b.gif","images/stimuli/spore_stims/complex_18_A_a.gif","self_paced","","10","complex_dissimilar","images/stimuli/spore_stims/complex_18_A_a.gif","","","","",""
"","null","html-keyboard-response","135","401877","0.0-29.0-0.3","SS1619739706244","","","null","","","","","","<p><img src= images/blank.png width =""600"" height = ""600"" style=""position:fixed;top:50%; left:50%; transform: translate(-50%, -50%); border:5px solid black"">","","","","","","","",""
"","74.16499999997905","sequential-stimulus-presentation-old","136","402465","0.0-29.0-1.3","SS1619739706244","trial","","40","500","574.164999999979","images/stimuli/spore_stims/complex_13_A_b.gif","images/stimuli/spore_stims/complex_18_A_a.gif","self_paced","","10","complex_dissimilar","images/stimuli/spore_stims/complex_18_A_a.gif","","","","",""
"","2392.8699999997043","survey-multi-choice","137","404865","0.0-30.0","SS1619739706244","math_question","","","","","","","","","","","","{""Q0"":""10""}","[0]","10","",""
"","null","html-keyboard-response","138","405691","0.0-31.0-0.0","SS1619739706244","","","null","","","","","","<p><img src= images/blank.png width =""600"" height = ""600"" style=""position:fixed;top:50%; left:50%; transform: translate(-50%, -50%); border:5px solid black"">","","","","","","","",""
"","828.7300000010873","sequential-stimulus-presentation-old","139","407034","0.0-31.0-1.0","SS1619739706244","trial","","40","500","1328.7300000010873","images/stimuli/spore_stims/simple_19_A_a.gif","images/stimuli/spore_stims/simple_13_A_b.gif","self_paced","","11","simple_dissimilar","images/stimuli/spore_stims/simple_13_A_b.gif","","","","",""
"","null","html-keyboard-response","140","408166","0.0-31.0-0.1","SS1619739706244","","","null","","","","","","<p><img src= images/blank.png width =""600"" height = ""600"" style=""position:fixed;top:50%; left:50%; transform: translate(-50%, -50%); border:5px solid black"">","","","","","","","",""
"","1460.044999999809","sequential-stimulus-presentation-old","141","410137","0.0-31.0-1.1","SS1619739706244","trial","","40","500","1960.044999999809","images/stimuli/spore_stims/simple_19_A_a.gif","images/stimuli/spore_stims/simple_13_A_b.gif","self_paced","","11","simple_dissimilar","images/stimuli/spore_stims/simple_13_A_b.gif","","","","",""
"","null","html-keyboard-response","142","411173","0.0-31.0-0.2","SS1619739706244","","","null","","","","","","<p><img src= images/blank.png width =""600"" height = ""600"" style=""position:fixed;top:50%; left:50%; transform: translate(-50%, -50%); border:5px solid black"">","","","","","","","",""
"","800.7050000014715","sequential-stimulus-presentation-old","143","412485","0.0-31.0-1.2","SS1619739706244","trial","","40","500","1300.7050000014715","images/stimuli/spore_stims/simple_19_A_a.gif","images/stimuli/spore_stims/simple_13_A_b.gif","self_paced","","11","simple_dissimilar","images/stimuli/spore_stims/simple_19_A_a.gif","","","","",""
"","null","html-keyboard-response","144","413420","0.0-31.0-0.3","SS1619739706244","","","null","","","","","","<p><img src= images/blank.png width =""600"" height = ""600"" style=""position:fixed;top:50%; left:50%; transform: translate(-50%, -50%); border:5px solid black"">","","","","","","","",""
"","1186.8949999989127","sequential-stimulus-presentation-old","145","415113","0.0-31.0-1.3","SS1619739706244","trial","","40","500","1686.8949999989127","images/stimuli/spore_stims/simple_19_A_a.gif","images/stimuli/spore_stims/simple_13_A_b.gif","self_paced","","11","simple_dissimilar","images/stimuli/spore_stims/simple_19_A_a.gif","","","","",""
"","null","html-keyboard-response","146","416230","0.0-31.0-0.4","SS1619739706244","","","null","","","","","","<p><img src= images/blank.png width =""600"" height = ""600"" style=""position:fixed;top:50%; left:50%; transform: translate(-50%, -50%); border:5px solid black"">","","","","","","","",""
"","357.99000000045635","sequential-stimulus-presentation-old","147","417100","0.0-31.0-1.4","SS1619739706244","trial","","40","500","857.9900000004563","images/stimuli/spore_stims/simple_19_A_a.gif","images/stimuli/spore_stims/simple_13_A_b.gif","self_paced","","11","simple_dissimilar","images/stimuli/spore_stims/simple_13_A_b.gif","","","","",""
"[{""page_index"":0,""viewing_time"":4563.804999999818}]","4563.925000000396","instructions","148","421672","0.0-32.0","SS1619739706244","instructions","","","","","","","","","","","","","","","",""
"","6582.005000000179","survey-likert","149","428257","0.0-33.0","SS1619739706244","similarity_question","","","","","","","","","","","","{""Q0"":0}","[0]","","images/stimuli/spore_stims/complex_19_A_a.gif","images/stimuli/spore_stims/complex_08_A_b.gif"
"","4568.465000000258","survey-likert","150","432829","0.0-34.0","SS1619739706244","similarity_question","","","","","","","","","","","","{""Q0"":0}","[0]","","images/stimuli/spore_stims/complex_13_A_b.gif","images/stimuli/spore_stims/complex_18_A_a.gif"
"","4497.339999999851","survey-likert","151","437330","0.0-35.0","SS1619739706244","similarity_question","","","","","","","","","","","","{""Q0"":4}","[0]","","images/stimuli/spore_stims/simple_15_A_a.gif","images/stimuli/spore_stims/simple_01_A_b.gif"
"","3444.3649999993504","survey-likert","152","440777","0.0-36.0","SS1619739706244","similarity_question","","","","","","","","","","","","{""Q0"":5}","[0]","","images/stimuli/spore_stims/simple_05_A_b.gif","images/stimuli/spore_stims/simple_13_A_a.gif"
"","3024.89499999868","survey-likert","153","443805","0.0-37.0","SS1619739706244","similarity_question","","","","","","","","","","","","{""Q0"":4}","[0]","","images/stimuli/spore_stims/simple_15_A_b.gif","images/stimuli/spore_stims/simple_02_A_a.gif"
"","7306.27000000095","survey-likert","154","451115","0.0-38.0","SS1619739706244","similarity_question","","","","","","","","","","","","{""Q0"":1}","[0]","","images/stimuli/spore_stims/complex_04_A_b.gif","images/stimuli/spore_stims/complex_20_A_a.gif"
"","2841.244999999646","survey-likert","155","453959","0.0-39.0","SS1619739706244","similarity_question","","","","","","","","","","","","{""Q0"":0}","[0]","","images/stimuli/spore_stims/complex_14_A_a.gif","images/stimuli/spore_stims/complex_07_A_b.gif"
"","2678.5","survey-likert","156","456641","0.0-40.0","SS1619739706244","similarity_question","","","","","","","","","","","","{""Q0"":3}","[0]","","images/stimuli/spore_stims/simple_03_A_a.gif","images/stimuli/spore_stims/simple_11_A_b.gif"
"","3196.0849999996135","survey-likert","157","459840","0.0-41.0","SS1619739706244","similarity_question","","","","","","","","","","","","{""Q0"":5}","[0]","","images/stimuli/spore_stims/simple_12_A_a.gif","images/stimuli/spore_stims/simple_09_A_b.gif"
"","3384.9950000003446","survey-likert","158","463228","0.0-42.0","SS1619739706244","similarity_question","","","","","","","","","","","","{""Q0"":0}","[0]","","images/stimuli/spore_stims/complex_18_A_b.gif","images/stimuli/spore_stims/complex_15_A_a.gif"
"","2505.3899999985006","survey-likert","159","465736","0.0-43.0","SS1619739706244","similarity_question","","","","","","","","","","","","{""Q0"":0}","[0]","","images/stimuli/spore_stims/complex_10_A_a.gif","images/stimuli/spore_stims/complex_16_A_b.gif"
"","2922.9950000008103","survey-likert","160","468662","0.0-44.0","SS1619739706244","similarity_question","","","","","","","","","","","","{""Q0"":3}","[0]","","images/stimuli/spore_stims/simple_19_A_a.gif","images/stimuli/spore_stims/simple_13_A_b.gif"
"[{""page_index"":0,""viewing_time"":3551.6950000001234}]","3551.844999999972","instructions","161","472216","0.0-45.0","SS1619739706244","instructions","","","","","","","","","","","","","","","",""
"","2660.0749999997206","survey-likert","162","474880","0.0-46.0","SS1619739706244","","","","","","","","","images/stimuli/spore_stims/simple_02_A_a.gif","","","","{""Q0"":0}","[0]","","",""
"","5189.244999999588","survey-likert","163","480072","0.0-47.0","SS1619739706244","","","","","","","","","images/stimuli/spore_stims/complex_13_A_b.gif","","","","{""Q0"":5}","[0]","","",""
"","2514.5400000000955","survey-likert","164","482590","0.0-48.0","SS1619739706244","","","","","","","","","images/stimuli/spore_stims/complex_04_A_b.gif","","","","{""Q0"":5}","[0]","","",""
"","3062.689999998838","survey-likert","165","485656","0.0-49.0","SS1619739706244","","","","","","","","","images/stimuli/spore_stims/simple_11_A_b.gif","","","","{""Q0"":1}","[0]","","",""
"","2665.7650000015856","survey-likert","166","488326","0.0-50.0","SS1619739706244","","","","","","","","","images/stimuli/spore_stims/complex_08_A_b.gif","","","","{""Q0"":5}","[0]","","",""
"","2931.7950000004494","survey-likert","167","491262","0.0-51.0","SS1619739706244","","","","","","","","","images/stimuli/spore_stims/simple_19_A_a.gif","","","","{""Q0"":1}","[0]","","",""
"","2854.559999999765","survey-likert","168","494120","0.0-52.0","SS1619739706244","","","","","","","","","images/stimuli/spore_stims/complex_10_A_a.gif","","","","{""Q0"":5}","[0]","","",""
"","1991.2650000005378","survey-likert","169","496115","0.0-53.0","SS1619739706244","","","","","","","","","images/stimuli/spore_stims/simple_09_A_b.gif","","","","{""Q0"":0}","[0]","","",""
"","3987.419999999518","survey-likert","170","500107","0.0-54.0","SS1619739706244","","","","","","","","","images/stimuli/spore_stims/complex_07_A_b.gif","","","","{""Q0"":6}","[0]","","",""
"","2732.8249999991385","survey-likert","171","502842","0.0-55.0","SS1619739706244","","","","","","","","","images/stimuli/spore_stims/simple_05_A_b.gif","","","","{""Q0"":0}","[0]","","",""
"","4712.03000000061","survey-likert","172","507558","0.0-56.0","SS1619739706244","","","","","","","","","images/stimuli/spore_stims/complex_18_A_b.gif","","","","{""Q0"":4}","[0]","","",""
"","2205.484999998589","survey-likert","173","509767","0.0-57.0","SS1619739706244","","","","","","","","","images/stimuli/spore_stims/simple_01_A_b.gif","","","","{""Q0"":1}","[0]","","",""
"[{""page_index"":0,""viewing_time"":1995.5899999986286}]","1995.7549999999464","instructions","174","511765","0.0-58.0","SS1619739706244","instructions","","","","","","","","","","","","","","","",""
"","2917.8100000008126","demog-age","175","514689","0.0-59.0","SS1619739706244","","","","","","","","","","","","","{""age"":""27""}","","","",""
"","4161.935000000172","demog-ethnic-US","176","518860","0.0-60.0","SS1619739706244","","","","","","","","","","","","","{""ethnicity"":[""Hispanic or Latino""]}","[0]","","",""
"","9305.080000000075","demog-gender-and-education","177","528169","0.0-61.0","SS1619739706244","","","","","","","","","","","","","{""gender"":""Male"",""education"":""High school diploma""}","[0,1]","","",""
"","13156.430000000983","survey-text","178","541331","0.0-62.0","SS1619739706244","feedback","","","","","","","","","","","","{""Q0"":""i like spore so this was fun""}","","","",""
"[{""page_index"":0,""viewing_time"":1736.014999998617}]","1736.1599999986356","instructions","179","543070","0.0-63.0","SS1619739706244","instructions","","","","","","","","","","","","","","","",""
