"view_history","rt","trial_type","trial_index","time_elapsed","internal_node_id","subject","stimulus_type","trial_stimulus","key_press","minimum_viewing_duration","trial_looking_time","block_deviant","block_background","exposure_type","stimulus","block_number","block_type","stimulus_displayed","responses","question_order","math_correct_answer","stimulus_left","stimulus_right"
"[{""page_index"":0,""viewing_time"":15903.679999995802}]","15904.31499999977","instructions","0","15905","0.0-0.0","SS1619740126590","","","","","","","","","","","","","","","","",""
"[{""page_index"":0,""viewing_time"":23623.520000001008},{""page_index"":1,""viewing_time"":7040.834999999788}]","30664.57999999693","instructions","1","48572","0.0-1.0","SS1619740126590","instructions","","","","","","","","","","","","","","","",""
"","18290.180000003602","sequential-stimulus-presentation-old","2","67365","0.0-2.0","SS1619740126590","","","40","500","18790.180000003602","null","null","self_paced","","","","","","","","",""
"","8827.129999997851","sequential-stimulus-presentation-old","3","76694","0.0-3.0","SS1619740126590","","","40","500","9327.129999997851","null","null","self_paced","","","","","","","","",""
"[{""page_index"":0,""viewing_time"":25394.49500000046}]","25394.820000001346","instructions","4","102090","0.0-4.0","SS1619740126590","instructions","","","","","","","","","","","","","","","",""
"","3198.7799999988056","sequential-stimulus-presentation-old","5","120291","0.0-5.0","SS1619740126590","","","40","500","3698.7799999988056","null","null","forced_long","","","","","","","","",""
"","5690.780000004452","sequential-stimulus-presentation-old","6","126483","0.0-6.0","SS1619740126590","","","40","500","6190.780000004452","null","null","forced_long","","","","","","","","",""
"[{""page_index"":0,""viewing_time"":5800.770000001648}]","5800.970000003872","instructions","7","132285","0.0-7.0","SS1619740126590","instructions","","","","","","","","","","","","","","","",""
"[{""page_index"":0,""viewing_time"":15416.165000002366},{""page_index"":1,""viewing_time"":26922.22000000038},{""page_index"":2,""viewing_time"":7016.429999996035},{""page_index"":3,""viewing_time"":1635.614999999234},{""page_index"":4,""viewing_time"":1652.7050000004238}]","52643.49999999831","instructions","8","184930","0.0-8.0","SS1619740126590","instructions","","","","","","","","","","","","","","","",""
"","null","html-keyboard-response","9","186151","0.0-9.0-0.0","SS1619740126590","","","null","","","","","","<p><img src= images/blank.png width =""600"" height = ""600"" style=""position:fixed;top:50%; left:50%; transform: translate(-50%, -50%); border:5px solid black"">","","","","","","","",""
"","20724.39000000304","sequential-stimulus-presentation-old","10","207380","0.0-9.0-1.0","SS1619740126590","trial","","40","500","21224.39000000304","images/stimuli/spore_stims/simple_18_A_b.gif","images/stimuli/spore_stims/simple_03_A_a.gif","self_paced","","0","simple_dissimilar","images/stimuli/spore_stims/simple_03_A_a.gif","","","","",""
"","null","html-keyboard-response","11","208328","0.0-9.0-0.1","SS1619740126590","","","null","","","","","","<p><img src= images/blank.png width =""600"" height = ""600"" style=""position:fixed;top:50%; left:50%; transform: translate(-50%, -50%); border:5px solid black"">","","","","","","","",""
"","7060.914999994566","sequential-stimulus-presentation-old","12","215893","0.0-9.0-1.1","SS1619740126590","trial","","40","500","7560.914999994566","images/stimuli/spore_stims/simple_18_A_b.gif","images/stimuli/spore_stims/simple_03_A_a.gif","self_paced","","0","simple_dissimilar","images/stimuli/spore_stims/simple_03_A_a.gif","","","","",""
"","null","html-keyboard-response","13","216769","0.0-9.0-0.2","SS1619740126590","","","null","","","","","","<p><img src= images/blank.png width =""600"" height = ""600"" style=""position:fixed;top:50%; left:50%; transform: translate(-50%, -50%); border:5px solid black"">","","","","","","","",""
"","6757.324999998673","sequential-stimulus-presentation-old","14","224029","0.0-9.0-1.2","SS1619740126590","trial","","40","500","7257.324999998673","images/stimuli/spore_stims/simple_18_A_b.gif","images/stimuli/spore_stims/simple_03_A_a.gif","self_paced","","0","simple_dissimilar","images/stimuli/spore_stims/simple_03_A_a.gif","","","","",""
"","null","html-keyboard-response","15","224861","0.0-9.0-0.3","SS1619740126590","","","null","","","","","","<p><img src= images/blank.png width =""600"" height = ""600"" style=""position:fixed;top:50%; left:50%; transform: translate(-50%, -50%); border:5px solid black"">","","","","","","","",""
"","33236.980000001495","sequential-stimulus-presentation-old","16","258600","0.0-9.0-1.3","SS1619740126590","trial","","40","500","33736.980000001495","images/stimuli/spore_stims/simple_18_A_b.gif","images/stimuli/spore_stims/simple_03_A_a.gif","self_paced","","0","simple_dissimilar","images/stimuli/spore_stims/simple_03_A_a.gif","","","","",""
"","6079.244999993534","survey-multi-choice","17","264683","0.0-10.0","SS1619740126590","math_question","","","","","","","","","","","","{""Q0"":""10""}","[0]","10","",""
"","null","html-keyboard-response","18","265866","0.0-11.0-0.0","SS1619740126590","","","null","","","","","","<p><img src= images/blank.png width =""600"" height = ""600"" style=""position:fixed;top:50%; left:50%; transform: translate(-50%, -50%); border:5px solid black"">","","","","","","","",""
"","533.674999998766","sequential-stimulus-presentation-old","19","281403","0.0-11.0-1.0","SS1619740126590","trial","","40","500","1033.674999998766","images/stimuli/spore_stims/complex_09_A_a.gif","images/stimuli/spore_stims/complex_10_A_b.gif","forced_long","","1","complex_dissimilar","images/stimuli/spore_stims/complex_10_A_b.gif","","","","",""
"","null","html-keyboard-response","20","282393","0.0-11.0-0.1","SS1619740126590","","","null","","","","","","<p><img src= images/blank.png width =""600"" height = ""600"" style=""position:fixed;top:50%; left:50%; transform: translate(-50%, -50%); border:5px solid black"">","","","","","","","",""
"","20558.04999999964","sequential-stimulus-presentation-old","21","303453","0.0-11.0-1.1","SS1619740126590","trial","","40","500","21058.04999999964","images/stimuli/spore_stims/complex_09_A_a.gif","images/stimuli/spore_stims/complex_10_A_b.gif","forced_long","","1","complex_dissimilar","images/stimuli/spore_stims/complex_09_A_a.gif","","","","",""
"","null","html-keyboard-response","22","304557","0.0-11.0-0.2","SS1619740126590","","","null","","","","","","<p><img src= images/blank.png width =""600"" height = ""600"" style=""position:fixed;top:50%; left:50%; transform: translate(-50%, -50%); border:5px solid black"">","","","","","","","",""
"","2546.055000006163","sequential-stimulus-presentation-old","23","307606","0.0-11.0-1.2","SS1619740126590","trial","","40","500","3046.055000006163","images/stimuli/spore_stims/complex_09_A_a.gif","images/stimuli/spore_stims/complex_10_A_b.gif","forced_long","","1","complex_dissimilar","images/stimuli/spore_stims/complex_10_A_b.gif","","","","",""
"","null","html-keyboard-response","24","308599","0.0-11.0-0.3","SS1619740126590","","","null","","","","","","<p><img src= images/blank.png width =""600"" height = ""600"" style=""position:fixed;top:50%; left:50%; transform: translate(-50%, -50%); border:5px solid black"">","","","","","","","",""
"","665.4150000031223","sequential-stimulus-presentation-old","25","309766","0.0-11.0-1.3","SS1619740126590","trial","","40","500","1165.4150000031223","images/stimuli/spore_stims/complex_09_A_a.gif","images/stimuli/spore_stims/complex_10_A_b.gif","forced_long","","1","complex_dissimilar","images/stimuli/spore_stims/complex_10_A_b.gif","","","","",""
"","null","html-keyboard-response","26","311033","0.0-11.0-0.4","SS1619740126590","","","null","","","","","","<p><img src= images/blank.png width =""600"" height = ""600"" style=""position:fixed;top:50%; left:50%; transform: translate(-50%, -50%); border:5px solid black"">","","","","","","","",""
"","678.3599999980652","sequential-stimulus-presentation-old","27","312214","0.0-11.0-1.4","SS1619740126590","trial","","40","500","1178.3599999980652","images/stimuli/spore_stims/complex_09_A_a.gif","images/stimuli/spore_stims/complex_10_A_b.gif","forced_long","","1","complex_dissimilar","images/stimuli/spore_stims/complex_10_A_b.gif","","","","",""
"","null","html-keyboard-response","28","313438","0.0-11.0-0.5","SS1619740126590","","","null","","","","","","<p><img src= images/blank.png width =""600"" height = ""600"" style=""position:fixed;top:50%; left:50%; transform: translate(-50%, -50%); border:5px solid black"">","","","","","","","",""
"","6954.939999995986","sequential-stimulus-presentation-old","29","320895","0.0-11.0-1.5","SS1619740126590","trial","","40","500","7454.939999995986","images/stimuli/spore_stims/complex_09_A_a.gif","images/stimuli/spore_stims/complex_10_A_b.gif","forced_long","","1","complex_dissimilar","images/stimuli/spore_stims/complex_10_A_b.gif","","","","",""
"","3856.0599999982514","survey-multi-choice","30","324753","0.0-12.0","SS1619740126590","math_question","","","","","","","","","","","","{""Q0"":""13""}","[0]","13","",""
"","null","html-keyboard-response","31","325872","0.0-13.0-0.0","SS1619740126590","","","null","","","","","","<p><img src= images/blank.png width =""600"" height = ""600"" style=""position:fixed;top:50%; left:50%; transform: translate(-50%, -50%); border:5px solid black"">","","","","","","","",""
"","1425.5800000028103","sequential-stimulus-presentation-old","32","327801","0.0-13.0-1.0","SS1619740126590","trial","","40","500","1925.5800000028103","images/stimuli/spore_stims/simple_02_A_a.gif","images/stimuli/spore_stims/simple_06_A_b.gif","forced_short","","2","simple_dissimilar","images/stimuli/spore_stims/simple_06_A_b.gif","","","","",""
"","null","html-keyboard-response","33","329011","0.0-13.0-0.1","SS1619740126590","","","null","","","","","","<p><img src= images/blank.png width =""600"" height = ""600"" style=""position:fixed;top:50%; left:50%; transform: translate(-50%, -50%); border:5px solid black"">","","","","","","","",""
"","3207.2400000033667","sequential-stimulus-presentation-old","34","332720","0.0-13.0-1.1","SS1619740126590","trial","","40","500","3707.2400000033667","images/stimuli/spore_stims/simple_02_A_a.gif","images/stimuli/spore_stims/simple_06_A_b.gif","forced_short","","2","simple_dissimilar","images/stimuli/spore_stims/simple_02_A_a.gif","","","","",""
"","null","html-keyboard-response","35","333945","0.0-13.0-0.2","SS1619740126590","","","null","","","","","","<p><img src= images/blank.png width =""600"" height = ""600"" style=""position:fixed;top:50%; left:50%; transform: translate(-50%, -50%); border:5px solid black"">","","","","","","","",""
"","2786.710000000312","sequential-stimulus-presentation-old","36","337233","0.0-13.0-1.2","SS1619740126590","trial","","40","500","3286.710000000312","images/stimuli/spore_stims/simple_02_A_a.gif","images/stimuli/spore_stims/simple_06_A_b.gif","forced_short","","2","simple_dissimilar","images/stimuli/spore_stims/simple_06_A_b.gif","","","","",""
"","null","html-keyboard-response","37","338312","0.0-13.0-0.3","SS1619740126590","","","null","","","","","","<p><img src= images/blank.png width =""600"" height = ""600"" style=""position:fixed;top:50%; left:50%; transform: translate(-50%, -50%); border:5px solid black"">","","","","","","","",""
"","338.62999999837484","sequential-stimulus-presentation-old","38","339153","0.0-13.0-1.3","SS1619740126590","trial","","40","500","838.6299999983748","images/stimuli/spore_stims/simple_02_A_a.gif","images/stimuli/spore_stims/simple_06_A_b.gif","forced_short","","2","simple_dissimilar","images/stimuli/spore_stims/simple_06_A_b.gif","","","","",""
"","null","html-keyboard-response","39","340391","0.0-13.0-0.4","SS1619740126590","","","null","","","","","","<p><img src= images/blank.png width =""600"" height = ""600"" style=""position:fixed;top:50%; left:50%; transform: translate(-50%, -50%); border:5px solid black"">","","","","","","","",""
"","1627.8800000000047","sequential-stimulus-presentation-old","40","342521","0.0-13.0-1.4","SS1619740126590","trial","","40","500","2127.8800000000047","images/stimuli/spore_stims/simple_02_A_a.gif","images/stimuli/spore_stims/simple_06_A_b.gif","forced_short","","2","simple_dissimilar","images/stimuli/spore_stims/simple_02_A_a.gif","","","","",""
"","4191.559999999299","survey-multi-choice","41","346715","0.0-14.0","SS1619740126590","math_question","","","","","","","","","","","","{""Q0"":""7""}","[0]","7","",""
"","null","html-keyboard-response","42","347624","0.0-15.0-0.0","SS1619740126590","","","null","","","","","","<p><img src= images/blank.png width =""600"" height = ""600"" style=""position:fixed;top:50%; left:50%; transform: translate(-50%, -50%); border:5px solid black"">","","","","","","","",""
"","577.1150000000489","sequential-stimulus-presentation-old","43","363203","0.0-15.0-1.0","SS1619740126590","trial","","40","500","1077.115000000049","images/stimuli/spore_stims/simple_13_A_a.gif","images/stimuli/spore_stims/simple_02_A_b.gif","forced_long","","3","simple_dissimilar","images/stimuli/spore_stims/simple_02_A_b.gif","","","","",""
"","null","html-keyboard-response","44","364124","0.0-15.0-0.1","SS1619740126590","","","null","","","","","","<p><img src= images/blank.png width =""600"" height = ""600"" style=""position:fixed;top:50%; left:50%; transform: translate(-50%, -50%); border:5px solid black"">","","","","","","","",""
"","1705.260000002454","sequential-stimulus-presentation-old","45","366331","0.0-15.0-1.1","SS1619740126590","trial","","40","500","2205.260000002454","images/stimuli/spore_stims/simple_13_A_a.gif","images/stimuli/spore_stims/simple_02_A_b.gif","forced_long","","3","simple_dissimilar","images/stimuli/spore_stims/simple_02_A_b.gif","","","","",""
"","null","html-keyboard-response","46","367515","0.0-15.0-0.2","SS1619740126590","","","null","","","","","","<p><img src= images/blank.png width =""600"" height = ""600"" style=""position:fixed;top:50%; left:50%; transform: translate(-50%, -50%); border:5px solid black"">","","","","","","","",""
"","1186.6999999983818","sequential-stimulus-presentation-old","47","369205","0.0-15.0-1.2","SS1619740126590","trial","","40","500","1686.6999999983818","images/stimuli/spore_stims/simple_13_A_a.gif","images/stimuli/spore_stims/simple_02_A_b.gif","forced_long","","3","simple_dissimilar","images/stimuli/spore_stims/simple_02_A_b.gif","","","","",""
"","null","html-keyboard-response","48","370483","0.0-15.0-0.3","SS1619740126590","","","null","","","","","","<p><img src= images/blank.png width =""600"" height = ""600"" style=""position:fixed;top:50%; left:50%; transform: translate(-50%, -50%); border:5px solid black"">","","","","","","","",""
"","1779.1649999999208","sequential-stimulus-presentation-old","49","372765","0.0-15.0-1.3","SS1619740126590","trial","","40","500","2279.164999999921","images/stimuli/spore_stims/simple_13_A_a.gif","images/stimuli/spore_stims/simple_02_A_b.gif","forced_long","","3","simple_dissimilar","images/stimuli/spore_stims/simple_02_A_b.gif","","","","",""
"","null","html-keyboard-response","50","373805","0.0-15.0-0.4","SS1619740126590","","","null","","","","","","<p><img src= images/blank.png width =""600"" height = ""600"" style=""position:fixed;top:50%; left:50%; transform: translate(-50%, -50%); border:5px solid black"">","","","","","","","",""
"","433.0150000023423","sequential-stimulus-presentation-old","51","374740","0.0-15.0-1.4","SS1619740126590","trial","","40","500","933.0150000023423","images/stimuli/spore_stims/simple_13_A_a.gif","images/stimuli/spore_stims/simple_02_A_b.gif","forced_long","","3","simple_dissimilar","images/stimuli/spore_stims/simple_02_A_b.gif","","","","",""
"","5039.9450000040815","survey-multi-choice","52","379783","0.0-16.0","SS1619740126590","math_question","","","","","","","","","","","","{""Q0"":""12""}","[0]","12","",""
"","null","html-keyboard-response","53","381057","0.0-17.0-0.0","SS1619740126590","","","null","","","","","","<p><img src= images/blank.png width =""600"" height = ""600"" style=""position:fixed;top:50%; left:50%; transform: translate(-50%, -50%); border:5px solid black"">","","","","","","","",""
"","3391.074999999546","sequential-stimulus-presentation-old","54","384950","0.0-17.0-1.0","SS1619740126590","trial","","40","500","3891.074999999546","images/stimuli/spore_stims/complex_03_A_b.gif","images/stimuli/spore_stims/complex_07_A_a.gif","forced_short","","4","complex_dissimilar","images/stimuli/spore_stims/complex_07_A_a.gif","","","","",""
"","null","html-keyboard-response","55","386222","0.0-17.0-0.1","SS1619740126590","","","null","","","","","","<p><img src= images/blank.png width =""600"" height = ""600"" style=""position:fixed;top:50%; left:50%; transform: translate(-50%, -50%); border:5px solid black"">","","","","","","","",""
"","6906.535000001895","sequential-stimulus-presentation-old","56","393631","0.0-17.0-1.1","SS1619740126590","trial","","40","500","7406.535000001895","images/stimuli/spore_stims/complex_03_A_b.gif","images/stimuli/spore_stims/complex_07_A_a.gif","forced_short","","4","complex_dissimilar","images/stimuli/spore_stims/complex_07_A_a.gif","","","","",""
"","null","html-keyboard-response","57","394882","0.0-17.0-0.2","SS1619740126590","","","null","","","","","","<p><img src= images/blank.png width =""600"" height = ""600"" style=""position:fixed;top:50%; left:50%; transform: translate(-50%, -50%); border:5px solid black"">","","","","","","","",""
"","822.5100000054226","sequential-stimulus-presentation-old","58","396207","0.0-17.0-1.2","SS1619740126590","trial","","40","500","1322.5100000054226","images/stimuli/spore_stims/complex_03_A_b.gif","images/stimuli/spore_stims/complex_07_A_a.gif","forced_short","","4","complex_dissimilar","images/stimuli/spore_stims/complex_07_A_a.gif","","","","",""
"","null","html-keyboard-response","59","397286","0.0-17.0-0.3","SS1619740126590","","","null","","","","","","<p><img src= images/blank.png width =""600"" height = ""600"" style=""position:fixed;top:50%; left:50%; transform: translate(-50%, -50%); border:5px solid black"">","","","","","","","",""
"","2057.4350000024424","sequential-stimulus-presentation-old","60","399847","0.0-17.0-1.3","SS1619740126590","trial","","40","500","2557.4350000024424","images/stimuli/spore_stims/complex_03_A_b.gif","images/stimuli/spore_stims/complex_07_A_a.gif","forced_short","","4","complex_dissimilar","images/stimuli/spore_stims/complex_07_A_a.gif","","","","",""
"","null","html-keyboard-response","61","400825","0.0-17.0-0.4","SS1619740126590","","","null","","","","","","<p><img src= images/blank.png width =""600"" height = ""600"" style=""position:fixed;top:50%; left:50%; transform: translate(-50%, -50%); border:5px solid black"">","","","","","","","",""
"","5969.324999998207","sequential-stimulus-presentation-old","62","407296","0.0-17.0-1.4","SS1619740126590","trial","","40","500","6469.324999998207","images/stimuli/spore_stims/complex_03_A_b.gif","images/stimuli/spore_stims/complex_07_A_a.gif","forced_short","","4","complex_dissimilar","images/stimuli/spore_stims/complex_03_A_b.gif","","","","",""
"","null","html-keyboard-response","63","408287","0.0-17.0-0.5","SS1619740126590","","","null","","","","","","<p><img src= images/blank.png width =""600"" height = ""600"" style=""position:fixed;top:50%; left:50%; transform: translate(-50%, -50%); border:5px solid black"">","","","","","","","",""
"","866.0499999969034","sequential-stimulus-presentation-old","64","409656","0.0-17.0-1.5","SS1619740126590","trial","","40","500","1366.0499999969034","images/stimuli/spore_stims/complex_03_A_b.gif","images/stimuli/spore_stims/complex_07_A_a.gif","forced_short","","4","complex_dissimilar","images/stimuli/spore_stims/complex_03_A_b.gif","","","","",""
"","3863.6750000005122","survey-multi-choice","65","413521","0.0-18.0","SS1619740126590","math_question","","","","","","","","","","","","{""Q0"":""12""}","[0]","12","",""
"","null","html-keyboard-response","66","414817","0.0-19.0-0.0","SS1619740126590","","","null","","","","","","<p><img src= images/blank.png width =""600"" height = ""600"" style=""position:fixed;top:50%; left:50%; transform: translate(-50%, -50%); border:5px solid black"">","","","","","","","",""
"","15522.97499999986","sequential-stimulus-presentation-old","67","430842","0.0-19.0-1.0","SS1619740126590","trial","","40","500","16022.97499999986","images/stimuli/spore_stims/complex_19_A_a.gif","images/stimuli/spore_stims/complex_17_A_b.gif","self_paced","","5","complex_dissimilar","images/stimuli/spore_stims/complex_17_A_b.gif","","","","",""
"","null","html-keyboard-response","68","432036","0.0-19.0-0.1","SS1619740126590","","","null","","","","","","<p><img src= images/blank.png width =""600"" height = ""600"" style=""position:fixed;top:50%; left:50%; transform: translate(-50%, -50%); border:5px solid black"">","","","","","","","",""
"","2327.1349999995437","sequential-stimulus-presentation-old","69","434867","0.0-19.0-1.1","SS1619740126590","trial","","40","500","2827.1349999995437","images/stimuli/spore_stims/complex_19_A_a.gif","images/stimuli/spore_stims/complex_17_A_b.gif","self_paced","","5","complex_dissimilar","images/stimuli/spore_stims/complex_17_A_b.gif","","","","",""
"","null","html-keyboard-response","70","435844","0.0-19.0-0.2","SS1619740126590","","","null","","","","","","<p><img src= images/blank.png width =""600"" height = ""600"" style=""position:fixed;top:50%; left:50%; transform: translate(-50%, -50%); border:5px solid black"">","","","","","","","",""
"","312.4499999976251","sequential-stimulus-presentation-old","71","436659","0.0-19.0-1.2","SS1619740126590","trial","","40","500","812.4499999976251","images/stimuli/spore_stims/complex_19_A_a.gif","images/stimuli/spore_stims/complex_17_A_b.gif","self_paced","","5","complex_dissimilar","images/stimuli/spore_stims/complex_17_A_b.gif","","","","",""
"","null","html-keyboard-response","72","437541","0.0-19.0-0.3","SS1619740126590","","","null","","","","","","<p><img src= images/blank.png width =""600"" height = ""600"" style=""position:fixed;top:50%; left:50%; transform: translate(-50%, -50%); border:5px solid black"">","","","","","","","",""
"","2471.914999994624","sequential-stimulus-presentation-old","73","440517","0.0-19.0-1.3","SS1619740126590","trial","","40","500","2971.914999994624","images/stimuli/spore_stims/complex_19_A_a.gif","images/stimuli/spore_stims/complex_17_A_b.gif","self_paced","","5","complex_dissimilar","images/stimuli/spore_stims/complex_17_A_b.gif","","","","",""
"","null","html-keyboard-response","74","441507","0.0-19.0-0.4","SS1619740126590","","","null","","","","","","<p><img src= images/blank.png width =""600"" height = ""600"" style=""position:fixed;top:50%; left:50%; transform: translate(-50%, -50%); border:5px solid black"">","","","","","","","",""
"","5571.065000003728","sequential-stimulus-presentation-old","75","447581","0.0-19.0-1.4","SS1619740126590","trial","","40","500","6071.065000003728","images/stimuli/spore_stims/complex_19_A_a.gif","images/stimuli/spore_stims/complex_17_A_b.gif","self_paced","","5","complex_dissimilar","images/stimuli/spore_stims/complex_19_A_a.gif","","","","",""
"","null","html-keyboard-response","76","448523","0.0-19.0-0.5","SS1619740126590","","","null","","","","","","<p><img src= images/blank.png width =""600"" height = ""600"" style=""position:fixed;top:50%; left:50%; transform: translate(-50%, -50%); border:5px solid black"">","","","","","","","",""
"","1539.8500000010245","sequential-stimulus-presentation-old","77","450565","0.0-19.0-1.5","SS1619740126590","trial","","40","500","2039.8500000010245","images/stimuli/spore_stims/complex_19_A_a.gif","images/stimuli/spore_stims/complex_17_A_b.gif","self_paced","","5","complex_dissimilar","images/stimuli/spore_stims/complex_17_A_b.gif","","","","",""
"","2791.2649999998393","survey-multi-choice","78","453358","0.0-20.0","SS1619740126590","math_question","","","","","","","","","","","","{""Q0"":""9""}","[0]","9","",""
"","null","html-keyboard-response","79","454539","0.0-21.0-0.0","SS1619740126590","","","null","","","","","","<p><img src= images/blank.png width =""600"" height = ""600"" style=""position:fixed;top:50%; left:50%; transform: translate(-50%, -50%); border:5px solid black"">","","","","","","","",""
"","3179.355000000214","sequential-stimulus-presentation-old","80","458221","0.0-21.0-1.0","SS1619740126590","trial","","40","500","3679.355000000214","images/stimuli/spore_stims/complex_19_A_b.gif","images/stimuli/spore_stims/complex_02_A_a.gif","self_paced","","6","complex_dissimilar","images/stimuli/spore_stims/complex_02_A_a.gif","","","","",""
"","null","html-keyboard-response","81","459226","0.0-21.0-0.1","SS1619740126590","","","null","","","","","","<p><img src= images/blank.png width =""600"" height = ""600"" style=""position:fixed;top:50%; left:50%; transform: translate(-50%, -50%); border:5px solid black"">","","","","","","","",""
"","1668.3499999999185","sequential-stimulus-presentation-old","82","461398","0.0-21.0-1.1","SS1619740126590","trial","","40","500","2168.3499999999185","images/stimuli/spore_stims/complex_19_A_b.gif","images/stimuli/spore_stims/complex_02_A_a.gif","self_paced","","6","complex_dissimilar","images/stimuli/spore_stims/complex_02_A_a.gif","","","","",""
"","null","html-keyboard-response","83","462358","0.0-21.0-0.2","SS1619740126590","","","null","","","","","","<p><img src= images/blank.png width =""600"" height = ""600"" style=""position:fixed;top:50%; left:50%; transform: translate(-50%, -50%); border:5px solid black"">","","","","","","","",""
"","1880.895000002056","sequential-stimulus-presentation-old","84","464742","0.0-21.0-1.2","SS1619740126590","trial","","40","500","2380.895000002056","images/stimuli/spore_stims/complex_19_A_b.gif","images/stimuli/spore_stims/complex_02_A_a.gif","self_paced","","6","complex_dissimilar","images/stimuli/spore_stims/complex_19_A_b.gif","","","","",""
"","null","html-keyboard-response","85","465778","0.0-21.0-0.3","SS1619740126590","","","null","","","","","","<p><img src= images/blank.png width =""600"" height = ""600"" style=""position:fixed;top:50%; left:50%; transform: translate(-50%, -50%); border:5px solid black"">","","","","","","","",""
"","1141.7699999947217","sequential-stimulus-presentation-old","86","467423","0.0-21.0-1.3","SS1619740126590","trial","","40","500","1641.7699999947217","images/stimuli/spore_stims/complex_19_A_b.gif","images/stimuli/spore_stims/complex_02_A_a.gif","self_paced","","6","complex_dissimilar","images/stimuli/spore_stims/complex_02_A_a.gif","","","","",""
"","null","html-keyboard-response","87","468372","0.0-21.0-0.4","SS1619740126590","","","null","","","","","","<p><img src= images/blank.png width =""600"" height = ""600"" style=""position:fixed;top:50%; left:50%; transform: translate(-50%, -50%); border:5px solid black"">","","","","","","","",""
"","2260.419999998703","sequential-stimulus-presentation-old","88","471135","0.0-21.0-1.4","SS1619740126590","trial","","40","500","2760.419999998703","images/stimuli/spore_stims/complex_19_A_b.gif","images/stimuli/spore_stims/complex_02_A_a.gif","self_paced","","6","complex_dissimilar","images/stimuli/spore_stims/complex_02_A_a.gif","","","","",""
"","6535.215000003518","survey-multi-choice","89","477672","0.0-22.0","SS1619740126590","math_question","","","","","","","","","","","","{""Q0"":""15""}","[0]","15","",""
"","null","html-keyboard-response","90","478573","0.0-23.0-0.0","SS1619740126590","","","null","","","","","","<p><img src= images/blank.png width =""600"" height = ""600"" style=""position:fixed;top:50%; left:50%; transform: translate(-50%, -50%); border:5px solid black"">","","","","","","","",""
"","1227.0300000018324","sequential-stimulus-presentation-old","91","480303","0.0-23.0-1.0","SS1619740126590","trial","","40","500","1727.0300000018324","images/stimuli/spore_stims/complex_08_A_b.gif","images/stimuli/spore_stims/complex_16_A_a.gif","forced_short","","7","complex_dissimilar","images/stimuli/spore_stims/complex_16_A_a.gif","","","","",""
"","null","html-keyboard-response","92","481305","0.0-23.0-0.1","SS1619740126590","","","null","","","","","","<p><img src= images/blank.png width =""600"" height = ""600"" style=""position:fixed;top:50%; left:50%; transform: translate(-50%, -50%); border:5px solid black"">","","","","","","","",""
"","4377.094999996189","sequential-stimulus-presentation-old","93","486184","0.0-23.0-1.1","SS1619740126590","trial","","40","500","4877.094999996189","images/stimuli/spore_stims/complex_08_A_b.gif","images/stimuli/spore_stims/complex_16_A_a.gif","forced_short","","7","complex_dissimilar","images/stimuli/spore_stims/complex_16_A_a.gif","","","","",""
"","null","html-keyboard-response","94","487436","0.0-23.0-0.2","SS1619740126590","","","null","","","","","","<p><img src= images/blank.png width =""600"" height = ""600"" style=""position:fixed;top:50%; left:50%; transform: translate(-50%, -50%); border:5px solid black"">","","","","","","","",""
"","419.7799999965355","sequential-stimulus-presentation-old","95","488360","0.0-23.0-1.2","SS1619740126590","trial","","40","500","919.7799999965355","images/stimuli/spore_stims/complex_08_A_b.gif","images/stimuli/spore_stims/complex_16_A_a.gif","forced_short","","7","complex_dissimilar","images/stimuli/spore_stims/complex_16_A_a.gif","","","","",""
"","null","html-keyboard-response","96","489549","0.0-23.0-0.3","SS1619740126590","","","null","","","","","","<p><img src= images/blank.png width =""600"" height = ""600"" style=""position:fixed;top:50%; left:50%; transform: translate(-50%, -50%); border:5px solid black"">","","","","","","","",""
"","2335.5000000010477","sequential-stimulus-presentation-old","97","492393","0.0-23.0-1.3","SS1619740126590","trial","","40","500","2835.5000000010477","images/stimuli/spore_stims/complex_08_A_b.gif","images/stimuli/spore_stims/complex_16_A_a.gif","forced_short","","7","complex_dissimilar","images/stimuli/spore_stims/complex_16_A_a.gif","","","","",""
"","null","html-keyboard-response","98","493453","0.0-23.0-0.4","SS1619740126590","","","null","","","","","","<p><img src= images/blank.png width =""600"" height = ""600"" style=""position:fixed;top:50%; left:50%; transform: translate(-50%, -50%); border:5px solid black"">","","","","","","","",""
"","1060.6550000011339","sequential-stimulus-presentation-old","99","495017","0.0-23.0-1.4","SS1619740126590","trial","","40","500","1560.6550000011339","images/stimuli/spore_stims/complex_08_A_b.gif","images/stimuli/spore_stims/complex_16_A_a.gif","forced_short","","7","complex_dissimilar","images/stimuli/spore_stims/complex_16_A_a.gif","","","","",""
"","null","html-keyboard-response","100","496056","0.0-23.0-0.5","SS1619740126590","","","null","","","","","","<p><img src= images/blank.png width =""600"" height = ""600"" style=""position:fixed;top:50%; left:50%; transform: translate(-50%, -50%); border:5px solid black"">","","","","","","","",""
"","1354.7099999996135","sequential-stimulus-presentation-old","101","497913","0.0-23.0-1.5","SS1619740126590","trial","","40","500","1854.7099999996135","images/stimuli/spore_stims/complex_08_A_b.gif","images/stimuli/spore_stims/complex_16_A_a.gif","forced_short","","7","complex_dissimilar","images/stimuli/spore_stims/complex_16_A_a.gif","","","","",""
"","3030.910000001313","survey-multi-choice","102","500947","0.0-24.0","SS1619740126590","math_question","","","","","","","","","","","","{""Q0"":""5""}","[0]","5","",""
"","null","html-keyboard-response","103","502022","0.0-25.0-0.0","SS1619740126590","","","null","","","","","","<p><img src= images/blank.png width =""600"" height = ""600"" style=""position:fixed;top:50%; left:50%; transform: translate(-50%, -50%); border:5px solid black"">","","","","","","","",""
"","2958.504999995057","sequential-stimulus-presentation-old","104","505483","0.0-25.0-1.0","SS1619740126590","trial","","40","500","3458.504999995057","images/stimuli/spore_stims/simple_10_A_a.gif","images/stimuli/spore_stims/simple_19_A_b.gif","self_paced","","8","simple_dissimilar","images/stimuli/spore_stims/simple_19_A_b.gif","","","","",""
"","null","html-keyboard-response","105","506639","0.0-25.0-0.1","SS1619740126590","","","null","","","","","","<p><img src= images/blank.png width =""600"" height = ""600"" style=""position:fixed;top:50%; left:50%; transform: translate(-50%, -50%); border:5px solid black"">","","","","","","","",""
"","163.78000000258908","sequential-stimulus-presentation-old","106","507307","0.0-25.0-1.1","SS1619740126590","trial","","40","500","663.7800000025891","images/stimuli/spore_stims/simple_10_A_a.gif","images/stimuli/spore_stims/simple_19_A_b.gif","self_paced","","8","simple_dissimilar","images/stimuli/spore_stims/simple_19_A_b.gif","","","","",""
"","null","html-keyboard-response","107","508263","0.0-25.0-0.2","SS1619740126590","","","null","","","","","","<p><img src= images/blank.png width =""600"" height = ""600"" style=""position:fixed;top:50%; left:50%; transform: translate(-50%, -50%); border:5px solid black"">","","","","","","","",""
"","1436.4749999949709","sequential-stimulus-presentation-old","108","510203","0.0-25.0-1.2","SS1619740126590","trial","","40","500","1936.4749999949709","images/stimuli/spore_stims/simple_10_A_a.gif","images/stimuli/spore_stims/simple_19_A_b.gif","self_paced","","8","simple_dissimilar","images/stimuli/spore_stims/simple_19_A_b.gif","","","","",""
"","null","html-keyboard-response","109","511052","0.0-25.0-0.3","SS1619740126590","","","null","","","","","","<p><img src= images/blank.png width =""600"" height = ""600"" style=""position:fixed;top:50%; left:50%; transform: translate(-50%, -50%); border:5px solid black"">","","","","","","","",""
"","1632.2550000040792","sequential-stimulus-presentation-old","110","513187","0.0-25.0-1.3","SS1619740126590","trial","","40","500","2132.255000004079","images/stimuli/spore_stims/simple_10_A_a.gif","images/stimuli/spore_stims/simple_19_A_b.gif","self_paced","","8","simple_dissimilar","images/stimuli/spore_stims/simple_19_A_b.gif","","","","",""
"","3007.6699999990524","survey-multi-choice","111","516197","0.0-26.0","SS1619740126590","math_question","","","","","","","","","","","","{""Q0"":""11""}","[0]","11","",""
"","null","html-keyboard-response","112","517382","0.0-27.0-0.0","SS1619740126590","","","null","","","","","","<p><img src= images/blank.png width =""600"" height = ""600"" style=""position:fixed;top:50%; left:50%; transform: translate(-50%, -50%); border:5px solid black"">","","","","","","","",""
"","8469.199999999488","sequential-stimulus-presentation-old","113","540854","0.0-27.0-1.0","SS1619740126590","trial","","40","500","8969.199999999488","images/stimuli/spore_stims/simple_14_A_b.gif","images/stimuli/spore_stims/simple_11_A_a.gif","forced_long","","9","simple_dissimilar","images/stimuli/spore_stims/simple_11_A_a.gif","","","","",""
"","null","html-keyboard-response","114","541963","0.0-27.0-0.1","SS1619740126590","","","null","","","","","","<p><img src= images/blank.png width =""600"" height = ""600"" style=""position:fixed;top:50%; left:50%; transform: translate(-50%, -50%); border:5px solid black"">","","","","","","","",""
"","284.0950000026496","sequential-stimulus-presentation-old","115","542750","0.0-27.0-1.1","SS1619740126590","trial","","40","500","784.0950000026496","images/stimuli/spore_stims/simple_14_A_b.gif","images/stimuli/spore_stims/simple_11_A_a.gif","forced_long","","9","simple_dissimilar","images/stimuli/spore_stims/simple_11_A_a.gif","","","","",""
"","null","html-keyboard-response","116","543932","0.0-27.0-0.2","SS1619740126590","","","null","","","","","","<p><img src= images/blank.png width =""600"" height = ""600"" style=""position:fixed;top:50%; left:50%; transform: translate(-50%, -50%); border:5px solid black"">","","","","","","","",""
"","115.7999999995809","sequential-stimulus-presentation-old","117","544550","0.0-27.0-1.2","SS1619740126590","trial","","40","500","615.7999999995809","images/stimuli/spore_stims/simple_14_A_b.gif","images/stimuli/spore_stims/simple_11_A_a.gif","forced_long","","9","simple_dissimilar","images/stimuli/spore_stims/simple_14_A_b.gif","","","","",""
"","null","html-keyboard-response","118","545602","0.0-27.0-0.3","SS1619740126590","","","null","","","","","","<p><img src= images/blank.png width =""600"" height = ""600"" style=""position:fixed;top:50%; left:50%; transform: translate(-50%, -50%); border:5px solid black"">","","","","","","","",""
"","1861.3600000025472","sequential-stimulus-presentation-old","119","547966","0.0-27.0-1.3","SS1619740126590","trial","","40","500","2361.360000002547","images/stimuli/spore_stims/simple_14_A_b.gif","images/stimuli/spore_stims/simple_11_A_a.gif","forced_long","","9","simple_dissimilar","images/stimuli/spore_stims/simple_14_A_b.gif","","","","",""
"","3646.6500000023516","survey-multi-choice","120","551615","0.0-28.0","SS1619740126590","math_question","","","","","","","","","","","","{""Q0"":""14""}","[0]","14","",""
"","null","html-keyboard-response","121","552465","0.0-29.0-0.0","SS1619740126590","","","null","","","","","","<p><img src= images/blank.png width =""600"" height = ""600"" style=""position:fixed;top:50%; left:50%; transform: translate(-50%, -50%); border:5px solid black"">","","","","","","","",""
"","1094.570000001113","sequential-stimulus-presentation-old","122","554063","0.0-29.0-1.0","SS1619740126590","trial","","40","500","1594.570000001113","images/stimuli/spore_stims/simple_08_A_a.gif","images/stimuli/spore_stims/simple_20_A_b.gif","forced_short","","10","simple_dissimilar","images/stimuli/spore_stims/simple_20_A_b.gif","","","","",""
"","null","html-keyboard-response","123","554996","0.0-29.0-0.1","SS1619740126590","","","null","","","","","","<p><img src= images/blank.png width =""600"" height = ""600"" style=""position:fixed;top:50%; left:50%; transform: translate(-50%, -50%); border:5px solid black"">","","","","","","","",""
"","37687.364999997895","sequential-stimulus-presentation-old","124","593187","0.0-29.0-1.1","SS1619740126590","trial","","40","500","38187.364999997895","images/stimuli/spore_stims/simple_08_A_a.gif","images/stimuli/spore_stims/simple_20_A_b.gif","forced_short","","10","simple_dissimilar","images/stimuli/spore_stims/simple_20_A_b.gif","","","","",""
"","null","html-keyboard-response","125","594483","0.0-29.0-0.2","SS1619740126590","","","null","","","","","","<p><img src= images/blank.png width =""600"" height = ""600"" style=""position:fixed;top:50%; left:50%; transform: translate(-50%, -50%); border:5px solid black"">","","","","","","","",""
"","753.4299999970244","sequential-stimulus-presentation-old","126","595740","0.0-29.0-1.2","SS1619740126590","trial","","40","500","1253.4299999970244","images/stimuli/spore_stims/simple_08_A_a.gif","images/stimuli/spore_stims/simple_20_A_b.gif","forced_short","","10","simple_dissimilar","images/stimuli/spore_stims/simple_20_A_b.gif","","","","",""
"","null","html-keyboard-response","127","596670","0.0-29.0-0.3","SS1619740126590","","","null","","","","","","<p><img src= images/blank.png width =""600"" height = ""600"" style=""position:fixed;top:50%; left:50%; transform: translate(-50%, -50%); border:5px solid black"">","","","","","","","",""
"","270.2849999986356","sequential-stimulus-presentation-old","128","597444","0.0-29.0-1.3","SS1619740126590","trial","","40","500","770.2849999986356","images/stimuli/spore_stims/simple_08_A_a.gif","images/stimuli/spore_stims/simple_20_A_b.gif","forced_short","","10","simple_dissimilar","images/stimuli/spore_stims/simple_20_A_b.gif","","","","",""
"","null","html-keyboard-response","129","598697","0.0-29.0-0.4","SS1619740126590","","","null","","","","","","<p><img src= images/blank.png width =""600"" height = ""600"" style=""position:fixed;top:50%; left:50%; transform: translate(-50%, -50%); border:5px solid black"">","","","","","","","",""
"","211.48499999986961","sequential-stimulus-presentation-old","130","599412","0.0-29.0-1.4","SS1619740126590","trial","","40","500","711.4849999998696","images/stimuli/spore_stims/simple_08_A_a.gif","images/stimuli/spore_stims/simple_20_A_b.gif","forced_short","","10","simple_dissimilar","images/stimuli/spore_stims/simple_20_A_b.gif","","","","",""
"","null","html-keyboard-response","131","600576","0.0-29.0-0.5","SS1619740126590","","","null","","","","","","<p><img src= images/blank.png width =""600"" height = ""600"" style=""position:fixed;top:50%; left:50%; transform: translate(-50%, -50%); border:5px solid black"">","","","","","","","",""
"","787.8350000027567","sequential-stimulus-presentation-old","132","601868","0.0-29.0-1.5","SS1619740126590","trial","","40","500","1287.8350000027567","images/stimuli/spore_stims/simple_08_A_a.gif","images/stimuli/spore_stims/simple_20_A_b.gif","forced_short","","10","simple_dissimilar","images/stimuli/spore_stims/simple_20_A_b.gif","","","","",""
"","2222.640000000014","survey-multi-choice","133","604093","0.0-30.0","SS1619740126590","math_question","","","","","","","","","","","","{""Q0"":""10""}","[0]","10","",""
"","null","html-keyboard-response","134","605342","0.0-31.0-0.0","SS1619740126590","","","null","","","","","","<p><img src= images/blank.png width =""600"" height = ""600"" style=""position:fixed;top:50%; left:50%; transform: translate(-50%, -50%); border:5px solid black"">","","","","","","","",""
"","2523.760000003618","sequential-stimulus-presentation-old","135","622871","0.0-31.0-1.0","SS1619740126590","trial","","40","500","3023.760000003618","images/stimuli/spore_stims/complex_06_A_a.gif","images/stimuli/spore_stims/complex_09_A_b.gif","forced_long","","11","complex_dissimilar","images/stimuli/spore_stims/complex_09_A_b.gif","","","","",""
"","null","html-keyboard-response","136","623823","0.0-31.0-0.1","SS1619740126590","","","null","","","","","","<p><img src= images/blank.png width =""600"" height = ""600"" style=""position:fixed;top:50%; left:50%; transform: translate(-50%, -50%); border:5px solid black"">","","","","","","","",""
"","64.48999999696389","sequential-stimulus-presentation-old","137","624391","0.0-31.0-1.1","SS1619740126590","trial","","40","500","564.4899999969639","images/stimuli/spore_stims/complex_06_A_a.gif","images/stimuli/spore_stims/complex_09_A_b.gif","forced_long","","11","complex_dissimilar","images/stimuli/spore_stims/complex_09_A_b.gif","","","","",""
"","null","html-keyboard-response","138","625554","0.0-31.0-0.2","SS1619740126590","","","null","","","","","","<p><img src= images/blank.png width =""600"" height = ""600"" style=""position:fixed;top:50%; left:50%; transform: translate(-50%, -50%); border:5px solid black"">","","","","","","","",""
"","341.52500000351574","sequential-stimulus-presentation-old","139","626399","0.0-31.0-1.2","SS1619740126590","trial","","40","500","841.5250000035157","images/stimuli/spore_stims/complex_06_A_a.gif","images/stimuli/spore_stims/complex_09_A_b.gif","forced_long","","11","complex_dissimilar","images/stimuli/spore_stims/complex_09_A_b.gif","","","","",""
"","null","html-keyboard-response","140","627669","0.0-31.0-0.3","SS1619740126590","","","null","","","","","","<p><img src= images/blank.png width =""600"" height = ""600"" style=""position:fixed;top:50%; left:50%; transform: translate(-50%, -50%); border:5px solid black"">","","","","","","","",""
"","370.43500000447966","sequential-stimulus-presentation-old","141","628543","0.0-31.0-1.3","SS1619740126590","trial","","40","500","870.4350000044797","images/stimuli/spore_stims/complex_06_A_a.gif","images/stimuli/spore_stims/complex_09_A_b.gif","forced_long","","11","complex_dissimilar","images/stimuli/spore_stims/complex_09_A_b.gif","","","","",""
"","null","html-keyboard-response","142","629743","0.0-31.0-0.4","SS1619740126590","","","null","","","","","","<p><img src= images/blank.png width =""600"" height = ""600"" style=""position:fixed;top:50%; left:50%; transform: translate(-50%, -50%); border:5px solid black"">","","","","","","","",""
"","1576.4799999960233","sequential-stimulus-presentation-old","143","631823","0.0-31.0-1.4","SS1619740126590","trial","","40","500","2076.4799999960233","images/stimuli/spore_stims/complex_06_A_a.gif","images/stimuli/spore_stims/complex_09_A_b.gif","forced_long","","11","complex_dissimilar","images/stimuli/spore_stims/complex_09_A_b.gif","","","","",""
"[{""page_index"":0,""viewing_time"":7791.774999997811}]","7792.50000000326","instructions","144","639618","0.0-32.0","SS1619740126590","instructions","","","","","","","","","","","","","","","",""
"","27958.365000005928","survey-likert","145","667580","0.0-33.0","SS1619740126590","similarity_question","","","","","","","","","","","","{""Q0"":1}","[0]","","images/stimuli/spore_stims/complex_08_A_b.gif","images/stimuli/spore_stims/complex_16_A_a.gif"
"","10910.17500000447","survey-likert","146","678493","0.0-34.0","SS1619740126590","similarity_question","","","","","","","","","","","","{""Q0"":5}","[0]","","images/stimuli/spore_stims/simple_11_A_a.gif","images/stimuli/spore_stims/simple_14_A_b.gif"
"","8484.865000005811","survey-likert","147","686982","0.0-35.0","SS1619740126590","similarity_question","","","","","","","","","","","","{""Q0"":1}","[0]","","images/stimuli/spore_stims/complex_03_A_b.gif","images/stimuli/spore_stims/complex_07_A_a.gif"
"","10174.229999996955","survey-likert","148","697160","0.0-36.0","SS1619740126590","similarity_question","","","","","","","","","","","","{""Q0"":3}","[0]","","images/stimuli/spore_stims/simple_18_A_b.gif","images/stimuli/spore_stims/simple_03_A_a.gif"
"","4004.4249999992317","survey-likert","149","701168","0.0-37.0","SS1619740126590","similarity_question","","","","","","","","","","","","{""Q0"":5}","[0]","","images/stimuli/spore_stims/simple_02_A_a.gif","images/stimuli/spore_stims/simple_06_A_b.gif"
"","3037.4349999983096","survey-likert","150","704209","0.0-38.0","SS1619740126590","similarity_question","","","","","","","","","","","","{""Q0"":5}","[0]","","images/stimuli/spore_stims/simple_08_A_a.gif","images/stimuli/spore_stims/simple_20_A_b.gif"
"","5668.24500000081","survey-likert","151","709882","0.0-39.0","SS1619740126590","similarity_question","","","","","","","","","","","","{""Q0"":5}","[0]","","images/stimuli/spore_stims/simple_19_A_b.gif","images/stimuli/spore_stims/simple_10_A_a.gif"
"","4786.27000000421","survey-likert","152","714673","0.0-40.0","SS1619740126590","similarity_question","","","","","","","","","","","","{""Q0"":1}","[0]","","images/stimuli/spore_stims/complex_19_A_a.gif","images/stimuli/spore_stims/complex_17_A_b.gif"
"","4358.124999998836","survey-likert","153","719034","0.0-41.0","SS1619740126590","similarity_question","","","","","","","","","","","","{""Q0"":1}","[0]","","images/stimuli/spore_stims/complex_09_A_b.gif","images/stimuli/spore_stims/complex_06_A_a.gif"
"","2317.429999995511","survey-likert","154","721355","0.0-42.0","SS1619740126590","similarity_question","","","","","","","","","","","","{""Q0"":1}","[0]","","images/stimuli/spore_stims/complex_02_A_a.gif","images/stimuli/spore_stims/complex_19_A_b.gif"
"","3995.0450000033015","survey-likert","155","725354","0.0-43.0","SS1619740126590","similarity_question","","","","","","","","","","","","{""Q0"":0}","[0]","","images/stimuli/spore_stims/complex_09_A_a.gif","images/stimuli/spore_stims/complex_10_A_b.gif"
"","3284.1899999984307","survey-likert","156","728641","0.0-44.0","SS1619740126590","similarity_question","","","","","","","","","","","","{""Q0"":5}","[0]","","images/stimuli/spore_stims/simple_13_A_a.gif","images/stimuli/spore_stims/simple_02_A_b.gif"
"[{""page_index"":0,""viewing_time"":6189.815000005299}]","6190.085000002058","instructions","157","734834","0.0-45.0","SS1619740126590","instructions","","","","","","","","","","","","","","","",""
"","6341.70499999891","survey-likert","158","741180","0.0-46.0","SS1619740126590","","","","","","","","","images/stimuli/spore_stims/complex_07_A_a.gif","","","","{""Q0"":5}","[0]","","",""
"","2767.0650000000605","survey-likert","159","743950","0.0-47.0","SS1619740126590","","","","","","","","","images/stimuli/spore_stims/simple_13_A_a.gif","","","","{""Q0"":0}","[0]","","",""
"","2355.489999994519","survey-likert","160","746308","0.0-48.0","SS1619740126590","","","","","","","","","images/stimuli/spore_stims/simple_19_A_b.gif","","","","{""Q0"":1}","[0]","","",""
"","2413.150000000256","survey-likert","161","748725","0.0-49.0","SS1619740126590","","","","","","","","","images/stimuli/spore_stims/simple_06_A_b.gif","","","","{""Q0"":0}","[0]","","",""
"","3356.2799999999115","survey-likert","162","752085","0.0-50.0","SS1619740126590","","","","","","","","","images/stimuli/spore_stims/simple_14_A_b.gif","","","","{""Q0"":0}","[0]","","",""
"","4317.279999995721","survey-likert","163","756406","0.0-51.0","SS1619740126590","","","","","","","","","images/stimuli/spore_stims/complex_08_A_b.gif","","","","{""Q0"":4}","[0]","","",""
"","2596.689999998547","survey-likert","164","759006","0.0-52.0","SS1619740126590","","","","","","","","","images/stimuli/spore_stims/complex_19_A_a.gif","","","","{""Q0"":5}","[0]","","",""
"","4212.214999999502","survey-likert","165","763222","0.0-53.0","SS1619740126590","","","","","","","","","images/stimuli/spore_stims/simple_03_A_a.gif","","","","{""Q0"":0}","[0]","","",""
"","3156.8350000015926","survey-likert","166","766383","0.0-54.0","SS1619740126590","","","","","","","","","images/stimuli/spore_stims/complex_09_A_b.gif","","","","{""Q0"":5}","[0]","","",""
"","4285.315000001108","survey-likert","167","770671","0.0-55.0","SS1619740126590","","","","","","","","","images/stimuli/spore_stims/complex_10_A_b.gif","","","","{""Q0"":5}","[0]","","",""
"","2068.5599999997066","survey-likert","168","772743","0.0-56.0","SS1619740126590","","","","","","","","","images/stimuli/spore_stims/complex_19_A_b.gif","","","","{""Q0"":5}","[0]","","",""
"","2196.750000002794","survey-likert","169","774943","0.0-57.0","SS1619740126590","","","","","","","","","images/stimuli/spore_stims/simple_20_A_b.gif","","","","{""Q0"":1}","[0]","","",""
"[{""page_index"":0,""viewing_time"":3157.6749999949243}]","3158.049999998184","instructions","170","778103","0.0-58.0","SS1619740126590","instructions","","","","","","","","","","","","","","","",""
"","5548.519999996526","demog-age","171","783656","0.0-59.0","SS1619740126590","","","","","","","","","","","","","{""age"":""33""}","","","",""
"","6459.100000000093","demog-ethnic-US","172","790121","0.0-60.0","SS1619740126590","","","","","","","","","","","","","{""ethnicity"":[""White""]}","[0]","","",""
"","12644.695000002743","demog-gender-and-education","173","802771","0.0-61.0","SS1619740126590","","","","","","","","","","","","","{""gender"":""Male"",""education"":""High school diploma""}","[0,1]","","",""
"","9012.110000003362","survey-text","174","811787","0.0-62.0","SS1619740126590","feedback","","","","","","","","","","","","{""Q0"":""no""}","","","",""
"[{""page_index"":0,""viewing_time"":2756.9749999966007}]","2757.3299999930896","instructions","175","814547","0.0-63.0","SS1619740126590","instructions","","","","","","","","","","","","","","","",""
