"view_history","rt","trial_type","trial_index","time_elapsed","internal_node_id","subject","stimulus_type","trial_stimulus","key_press","minimum_viewing_duration","trial_looking_time","block_deviant","block_background","exposure_type","stimulus","block_number","block_type","stimulus_displayed","responses","question_order","math_correct_answer","stimulus_left","stimulus_right"
"[{""page_index"":0,""viewing_time"":24555.145000020275}]","24556.065000011586","instructions","0","24558","0.0-0.0","SS1619740107605","","","","","","","","","","","","","","","","",""
"[{""page_index"":0,""viewing_time"":15546.005000011064},{""page_index"":1,""viewing_time"":5720.014999998966}]","21266.46499999333","instructions","1","47829","0.0-1.0","SS1619740107605","instructions","","","","","","","","","","","","","","","",""
"","5302.7100000181235","sequential-stimulus-presentation-old","2","53636","0.0-2.0","SS1619740107605","","","40","500","5802.7100000181235","null","null","self_paced","","","","","","","","",""
"","6022.3149999801535","sequential-stimulus-presentation-old","3","60163","0.0-3.0","SS1619740107605","","","40","500","6522.3149999801535","null","null","self_paced","","","","","","","","",""
"[{""page_index"":0,""viewing_time"":22576.57000000472}]","22577.019999996992","instructions","4","82741","0.0-4.0","SS1619740107605","instructions","","","","","","","","","","","","","","","",""
"","766.1249999946449","sequential-stimulus-presentation-old","5","98511","0.0-5.0","SS1619740107605","","","40","500","1266.124999994645","null","null","forced_long","","","","","","","","",""
"","2378.225000022212","sequential-stimulus-presentation-old","6","101396","0.0-6.0","SS1619740107605","","","40","500","2878.225000022212","null","null","forced_long","","","","","","","","",""
"[{""page_index"":0,""viewing_time"":5678.855000005569}]","5679.275000002235","instructions","7","107078","0.0-7.0","SS1619740107605","instructions","","","","","","","","","","","","","","","",""
"[{""page_index"":0,""viewing_time"":12814.36499999836},{""page_index"":1,""viewing_time"":9192.000000010012},{""page_index"":2,""viewing_time"":7119.9499999929685},{""page_index"":3,""viewing_time"":1464.0850000141654},{""page_index"":4,""viewing_time"":1103.8899999985006}]","31694.65499999933","instructions","8","138774","0.0-8.0","SS1619740107605","instructions","","","","","","","","","","","","","","","",""
"","null","html-keyboard-response","9","139681","0.0-9.0-0.0","SS1619740107605","","","null","","","","","","<p><img src= images/blank.png width =""600"" height = ""600"" style=""position:fixed;top:50%; left:50%; transform: translate(-50%, -50%); border:5px solid black"">","","","","","","","",""
"","1379.5850000169594","sequential-stimulus-presentation-old","10","141579","0.0-9.0-1.0","SS1619740107605","trial","","40","500","1879.5850000169594","images/stimuli/spore_stims/simple_19_A_a.gif","images/stimuli/spore_stims/simple_02_A_b.gif","forced_short","","0","simple_dissimilar","images/stimuli/spore_stims/simple_02_A_b.gif","","","","",""
"","null","html-keyboard-response","11","142392","0.0-9.0-0.1","SS1619740107605","","","null","","","","","","<p><img src= images/blank.png width =""600"" height = ""600"" style=""position:fixed;top:50%; left:50%; transform: translate(-50%, -50%); border:5px solid black"">","","","","","","","",""
"","10199.129999993602","sequential-stimulus-presentation-old","12","153103","0.0-9.0-1.1","SS1619740107605","trial","","40","500","10699.129999993602","images/stimuli/spore_stims/simple_19_A_a.gif","images/stimuli/spore_stims/simple_02_A_b.gif","forced_short","","0","simple_dissimilar","images/stimuli/spore_stims/simple_02_A_b.gif","","","","",""
"","null","html-keyboard-response","13","154037","0.0-9.0-0.2","SS1619740107605","","","null","","","","","","<p><img src= images/blank.png width =""600"" height = ""600"" style=""position:fixed;top:50%; left:50%; transform: translate(-50%, -50%); border:5px solid black"">","","","","","","","",""
"","6165.86500001722","sequential-stimulus-presentation-old","14","160718","0.0-9.0-1.2","SS1619740107605","trial","","40","500","6665.86500001722","images/stimuli/spore_stims/simple_19_A_a.gif","images/stimuli/spore_stims/simple_02_A_b.gif","forced_short","","0","simple_dissimilar","images/stimuli/spore_stims/simple_02_A_b.gif","","","","",""
"","null","html-keyboard-response","15","161915","0.0-9.0-0.3","SS1619740107605","","","null","","","","","","<p><img src= images/blank.png width =""600"" height = ""600"" style=""position:fixed;top:50%; left:50%; transform: translate(-50%, -50%); border:5px solid black"">","","","","","","","",""
"","6559.320000000298","sequential-stimulus-presentation-old","16","168991","0.0-9.0-1.3","SS1619740107605","trial","","40","500","7059.320000000298","images/stimuli/spore_stims/simple_19_A_a.gif","images/stimuli/spore_stims/simple_02_A_b.gif","forced_short","","0","simple_dissimilar","images/stimuli/spore_stims/simple_02_A_b.gif","","","","",""
"","null","html-keyboard-response","17","170080","0.0-9.0-0.4","SS1619740107605","","","null","","","","","","<p><img src= images/blank.png width =""600"" height = ""600"" style=""position:fixed;top:50%; left:50%; transform: translate(-50%, -50%); border:5px solid black"">","","","","","","","",""
"","2331.7800000077114","sequential-stimulus-presentation-old","18","172926","0.0-9.0-1.4","SS1619740107605","trial","","40","500","2831.7800000077114","images/stimuli/spore_stims/simple_19_A_a.gif","images/stimuli/spore_stims/simple_02_A_b.gif","forced_short","","0","simple_dissimilar","images/stimuli/spore_stims/simple_02_A_b.gif","","","","",""
"","2909.844999987399","survey-multi-choice","19","175846","0.0-10.0","SS1619740107605","math_question","","","","","","","","","","","","{""Q0"":""9""}","[0]","9","",""
"","null","html-keyboard-response","20","176851","0.0-11.0-0.0","SS1619740107605","","","null","","","","","","<p><img src= images/blank.png width =""600"" height = ""600"" style=""position:fixed;top:50%; left:50%; transform: translate(-50%, -50%); border:5px solid black"">","","","","","","","",""
"","3919.979999976931","sequential-stimulus-presentation-old","21","181279","0.0-11.0-1.0","SS1619740107605","trial","","40","500","4419.979999976931","images/stimuli/spore_stims/simple_03_A_a.gif","images/stimuli/spore_stims/simple_13_A_b.gif","self_paced","","1","simple_dissimilar","images/stimuli/spore_stims/simple_13_A_b.gif","","","","",""
"","null","html-keyboard-response","22","182359","0.0-11.0-0.1","SS1619740107605","","","null","","","","","","<p><img src= images/blank.png width =""600"" height = ""600"" style=""position:fixed;top:50%; left:50%; transform: translate(-50%, -50%); border:5px solid black"">","","","","","","","",""
"","3899.52499998617","sequential-stimulus-presentation-old","23","186775","0.0-11.0-1.1","SS1619740107605","trial","","40","500","4399.52499998617","images/stimuli/spore_stims/simple_03_A_a.gif","images/stimuli/spore_stims/simple_13_A_b.gif","self_paced","","1","simple_dissimilar","images/stimuli/spore_stims/simple_03_A_a.gif","","","","",""
"","null","html-keyboard-response","24","187607","0.0-11.0-0.2","SS1619740107605","","","null","","","","","","<p><img src= images/blank.png width =""600"" height = ""600"" style=""position:fixed;top:50%; left:50%; transform: translate(-50%, -50%); border:5px solid black"">","","","","","","","",""
"","3299.430000013672","sequential-stimulus-presentation-old","25","191419","0.0-11.0-1.2","SS1619740107605","trial","","40","500","3799.430000013672","images/stimuli/spore_stims/simple_03_A_a.gif","images/stimuli/spore_stims/simple_13_A_b.gif","self_paced","","1","simple_dissimilar","images/stimuli/spore_stims/simple_13_A_b.gif","","","","",""
"","null","html-keyboard-response","26","192470","0.0-11.0-0.3","SS1619740107605","","","null","","","","","","<p><img src= images/blank.png width =""600"" height = ""600"" style=""position:fixed;top:50%; left:50%; transform: translate(-50%, -50%); border:5px solid black"">","","","","","","","",""
"","3299.1049999836832","sequential-stimulus-presentation-old","27","196284","0.0-11.0-1.3","SS1619740107605","trial","","40","500","3799.1049999836832","images/stimuli/spore_stims/simple_03_A_a.gif","images/stimuli/spore_stims/simple_13_A_b.gif","self_paced","","1","simple_dissimilar","images/stimuli/spore_stims/simple_13_A_b.gif","","","","",""
"","null","html-keyboard-response","28","197178","0.0-11.0-0.4","SS1619740107605","","","null","","","","","","<p><img src= images/blank.png width =""600"" height = ""600"" style=""position:fixed;top:50%; left:50%; transform: translate(-50%, -50%); border:5px solid black"">","","","","","","","",""
"","2659.795000014128","sequential-stimulus-presentation-old","29","200354","0.0-11.0-1.4","SS1619740107605","trial","","40","500","3159.795000014128","images/stimuli/spore_stims/simple_03_A_a.gif","images/stimuli/spore_stims/simple_13_A_b.gif","self_paced","","1","simple_dissimilar","images/stimuli/spore_stims/simple_13_A_b.gif","","","","",""
"","null","html-keyboard-response","30","201507","0.0-11.0-0.5","SS1619740107605","","","null","","","","","","<p><img src= images/blank.png width =""600"" height = ""600"" style=""position:fixed;top:50%; left:50%; transform: translate(-50%, -50%); border:5px solid black"">","","","","","","","",""
"","3351.4650000142865","sequential-stimulus-presentation-old","31","205379","0.0-11.0-1.5","SS1619740107605","trial","","40","500","3851.4650000142865","images/stimuli/spore_stims/simple_03_A_a.gif","images/stimuli/spore_stims/simple_13_A_b.gif","self_paced","","1","simple_dissimilar","images/stimuli/spore_stims/simple_13_A_b.gif","","","","",""
"","3134.409999998752","survey-multi-choice","32","208517","0.0-12.0","SS1619740107605","math_question","","","","","","","","","","","","{""Q0"":""12""}","[0]","12","",""
"","null","html-keyboard-response","33","209362","0.0-13.0-0.0","SS1619740107605","","","null","","","","","","<p><img src= images/blank.png width =""600"" height = ""600"" style=""position:fixed;top:50%; left:50%; transform: translate(-50%, -50%); border:5px solid black"">","","","","","","","",""
"","1220.9049999946728","sequential-stimulus-presentation-old","34","225592","0.0-13.0-1.0","SS1619740107605","trial","","40","500","1720.9049999946728","images/stimuli/spore_stims/complex_16_A_a.gif","images/stimuli/spore_stims/complex_03_A_b.gif","forced_long","","2","complex_dissimilar","images/stimuli/spore_stims/complex_03_A_b.gif","","","","",""
"","null","html-keyboard-response","35","226569","0.0-13.0-0.1","SS1619740107605","","","null","","","","","","<p><img src= images/blank.png width =""600"" height = ""600"" style=""position:fixed;top:50%; left:50%; transform: translate(-50%, -50%); border:5px solid black"">","","","","","","","",""
"","15579.389999998966","sequential-stimulus-presentation-old","36","242666","0.0-13.0-1.1","SS1619740107605","trial","","40","500","16079.389999998966","images/stimuli/spore_stims/complex_16_A_a.gif","images/stimuli/spore_stims/complex_03_A_b.gif","forced_long","","2","complex_dissimilar","images/stimuli/spore_stims/complex_03_A_b.gif","","","","",""
"","null","html-keyboard-response","37","243584","0.0-13.0-0.2","SS1619740107605","","","null","","","","","","<p><img src= images/blank.png width =""600"" height = ""600"" style=""position:fixed;top:50%; left:50%; transform: translate(-50%, -50%); border:5px solid black"">","","","","","","","",""
"","4395.805000007385","sequential-stimulus-presentation-old","38","248492","0.0-13.0-1.2","SS1619740107605","trial","","40","500","4895.805000007385","images/stimuli/spore_stims/complex_16_A_a.gif","images/stimuli/spore_stims/complex_03_A_b.gif","forced_long","","2","complex_dissimilar","images/stimuli/spore_stims/complex_03_A_b.gif","","","","",""
"","null","html-keyboard-response","39","249608","0.0-13.0-0.3","SS1619740107605","","","null","","","","","","<p><img src= images/blank.png width =""600"" height = ""600"" style=""position:fixed;top:50%; left:50%; transform: translate(-50%, -50%); border:5px solid black"">","","","","","","","",""
"","2560.2950000029523","sequential-stimulus-presentation-old","40","252685","0.0-13.0-1.3","SS1619740107605","trial","","40","500","3060.2950000029523","images/stimuli/spore_stims/complex_16_A_a.gif","images/stimuli/spore_stims/complex_03_A_b.gif","forced_long","","2","complex_dissimilar","images/stimuli/spore_stims/complex_03_A_b.gif","","","","",""
"","null","html-keyboard-response","41","253785","0.0-13.0-0.4","SS1619740107605","","","null","","","","","","<p><img src= images/blank.png width =""600"" height = ""600"" style=""position:fixed;top:50%; left:50%; transform: translate(-50%, -50%); border:5px solid black"">","","","","","","","",""
"","1286.0950000176672","sequential-stimulus-presentation-old","42","255580","0.0-13.0-1.4","SS1619740107605","trial","","40","500","1786.0950000176672","images/stimuli/spore_stims/complex_16_A_a.gif","images/stimuli/spore_stims/complex_03_A_b.gif","forced_long","","2","complex_dissimilar","images/stimuli/spore_stims/complex_03_A_b.gif","","","","",""
"","4004.6350000193343","survey-multi-choice","43","259590","0.0-14.0","SS1619740107605","math_question","","","","","","","","","","","","{""Q0"":""13""}","[0]","13","",""
"","null","html-keyboard-response","44","260641","0.0-15.0-0.0","SS1619740107605","","","null","","","","","","<p><img src= images/blank.png width =""600"" height = ""600"" style=""position:fixed;top:50%; left:50%; transform: translate(-50%, -50%); border:5px solid black"">","","","","","","","",""
"","2562.6650000049267","sequential-stimulus-presentation-old","45","263720","0.0-15.0-1.0","SS1619740107605","trial","","40","500","3062.6650000049267","images/stimuli/spore_stims/simple_18_A_a.gif","images/stimuli/spore_stims/simple_05_A_b.gif","self_paced","","3","simple_dissimilar","images/stimuli/spore_stims/simple_05_A_b.gif","","","","",""
"","null","html-keyboard-response","46","264601","0.0-15.0-0.1","SS1619740107605","","","null","","","","","","<p><img src= images/blank.png width =""600"" height = ""600"" style=""position:fixed;top:50%; left:50%; transform: translate(-50%, -50%); border:5px solid black"">","","","","","","","",""
"","1094.5599999977276","sequential-stimulus-presentation-old","47","266209","0.0-15.0-1.1","SS1619740107605","trial","","40","500","1594.5599999977276","images/stimuli/spore_stims/simple_18_A_a.gif","images/stimuli/spore_stims/simple_05_A_b.gif","self_paced","","3","simple_dissimilar","images/stimuli/spore_stims/simple_05_A_b.gif","","","","",""
"","null","html-keyboard-response","48","267340","0.0-15.0-0.2","SS1619740107605","","","null","","","","","","<p><img src= images/blank.png width =""600"" height = ""600"" style=""position:fixed;top:50%; left:50%; transform: translate(-50%, -50%); border:5px solid black"">","","","","","","","",""
"","843.1149999960326","sequential-stimulus-presentation-old","49","268698","0.0-15.0-1.2","SS1619740107605","trial","","40","500","1343.1149999960326","images/stimuli/spore_stims/simple_18_A_a.gif","images/stimuli/spore_stims/simple_05_A_b.gif","self_paced","","3","simple_dissimilar","images/stimuli/spore_stims/simple_05_A_b.gif","","","","",""
"","null","html-keyboard-response","50","269595","0.0-15.0-0.3","SS1619740107605","","","null","","","","","","<p><img src= images/blank.png width =""600"" height = ""600"" style=""position:fixed;top:50%; left:50%; transform: translate(-50%, -50%); border:5px solid black"">","","","","","","","",""
"","4431.849999993574","sequential-stimulus-presentation-old","51","274535","0.0-15.0-1.3","SS1619740107605","trial","","40","500","4931.849999993574","images/stimuli/spore_stims/simple_18_A_a.gif","images/stimuli/spore_stims/simple_05_A_b.gif","self_paced","","3","simple_dissimilar","images/stimuli/spore_stims/simple_18_A_a.gif","","","","",""
"","null","html-keyboard-response","52","275497","0.0-15.0-0.4","SS1619740107605","","","null","","","","","","<p><img src= images/blank.png width =""600"" height = ""600"" style=""position:fixed;top:50%; left:50%; transform: translate(-50%, -50%); border:5px solid black"">","","","","","","","",""
"","515.190000005532","sequential-stimulus-presentation-old","53","276529","0.0-15.0-1.4","SS1619740107605","trial","","40","500","1015.190000005532","images/stimuli/spore_stims/simple_18_A_a.gif","images/stimuli/spore_stims/simple_05_A_b.gif","self_paced","","3","simple_dissimilar","images/stimuli/spore_stims/simple_05_A_b.gif","","","","",""
"","null","html-keyboard-response","54","277535","0.0-15.0-0.5","SS1619740107605","","","null","","","","","","<p><img src= images/blank.png width =""600"" height = ""600"" style=""position:fixed;top:50%; left:50%; transform: translate(-50%, -50%); border:5px solid black"">","","","","","","","",""
"","542.7449999842793","sequential-stimulus-presentation-old","55","278590","0.0-15.0-1.5","SS1619740107605","trial","","40","500","1042.7449999842793","images/stimuli/spore_stims/simple_18_A_a.gif","images/stimuli/spore_stims/simple_05_A_b.gif","self_paced","","3","simple_dissimilar","images/stimuli/spore_stims/simple_05_A_b.gif","","","","",""
"","2401.450000004843","survey-multi-choice","56","280998","0.0-16.0","SS1619740107605","math_question","","","","","","","","","","","","{""Q0"":""9""}","[0]","9","",""
"","null","html-keyboard-response","57","281955","0.0-17.0-0.0","SS1619740107605","","","null","","","","","","<p><img src= images/blank.png width =""600"" height = ""600"" style=""position:fixed;top:50%; left:50%; transform: translate(-50%, -50%); border:5px solid black"">","","","","","","","",""
"","517.2400000155903","sequential-stimulus-presentation-old","58","297482","0.0-17.0-1.0","SS1619740107605","trial","","40","500","1017.2400000155903","images/stimuli/spore_stims/simple_15_A_a.gif","images/stimuli/spore_stims/simple_08_A_b.gif","forced_long","","4","simple_dissimilar","images/stimuli/spore_stims/simple_08_A_b.gif","","","","",""
"","null","html-keyboard-response","59","298545","0.0-17.0-0.1","SS1619740107605","","","null","","","","","","<p><img src= images/blank.png width =""600"" height = ""600"" style=""position:fixed;top:50%; left:50%; transform: translate(-50%, -50%); border:5px solid black"">","","","","","","","",""
"","1407.0950000023004","sequential-stimulus-presentation-old","60","300478","0.0-17.0-1.1","SS1619740107605","trial","","40","500","1907.0950000023004","images/stimuli/spore_stims/simple_15_A_a.gif","images/stimuli/spore_stims/simple_08_A_b.gif","forced_long","","4","simple_dissimilar","images/stimuli/spore_stims/simple_08_A_b.gif","","","","",""
"","null","html-keyboard-response","61","301466","0.0-17.0-0.2","SS1619740107605","","","null","","","","","","<p><img src= images/blank.png width =""600"" height = ""600"" style=""position:fixed;top:50%; left:50%; transform: translate(-50%, -50%); border:5px solid black"">","","","","","","","",""
"","716.1849999974947","sequential-stimulus-presentation-old","62","302690","0.0-17.0-1.2","SS1619740107605","trial","","40","500","1216.1849999974947","images/stimuli/spore_stims/simple_15_A_a.gif","images/stimuli/spore_stims/simple_08_A_b.gif","forced_long","","4","simple_dissimilar","images/stimuli/spore_stims/simple_08_A_b.gif","","","","",""
"","null","html-keyboard-response","63","303616","0.0-17.0-0.3","SS1619740107605","","","null","","","","","","<p><img src= images/blank.png width =""600"" height = ""600"" style=""position:fixed;top:50%; left:50%; transform: translate(-50%, -50%); border:5px solid black"">","","","","","","","",""
"","4044.2800000018906","sequential-stimulus-presentation-old","64","308175","0.0-17.0-1.3","SS1619740107605","trial","","40","500","4544.280000001891","images/stimuli/spore_stims/simple_15_A_a.gif","images/stimuli/spore_stims/simple_08_A_b.gif","forced_long","","4","simple_dissimilar","images/stimuli/spore_stims/simple_15_A_a.gif","","","","",""
"","2379.5800000079907","survey-multi-choice","65","310560","0.0-18.0","SS1619740107605","math_question","","","","","","","","","","","","{""Q0"":""10""}","[0]","10","",""
"","null","html-keyboard-response","66","311526","0.0-19.0-0.0","SS1619740107605","","","null","","","","","","<p><img src= images/blank.png width =""600"" height = ""600"" style=""position:fixed;top:50%; left:50%; transform: translate(-50%, -50%); border:5px solid black"">","","","","","","","",""
"","7238.389999984065","sequential-stimulus-presentation-old","67","319275","0.0-19.0-1.0","SS1619740107605","trial","","40","500","7738.389999984065","images/stimuli/spore_stims/complex_20_A_a.gif","images/stimuli/spore_stims/complex_12_A_b.gif","self_paced","","5","complex_dissimilar","images/stimuli/spore_stims/complex_12_A_b.gif","","","","",""
"","null","html-keyboard-response","68","320273","0.0-19.0-0.1","SS1619740107605","","","null","","","","","","<p><img src= images/blank.png width =""600"" height = ""600"" style=""position:fixed;top:50%; left:50%; transform: translate(-50%, -50%); border:5px solid black"">","","","","","","","",""
"","4610.409999993863","sequential-stimulus-presentation-old","69","325398","0.0-19.0-1.1","SS1619740107605","trial","","40","500","5110.409999993863","images/stimuli/spore_stims/complex_20_A_a.gif","images/stimuli/spore_stims/complex_12_A_b.gif","self_paced","","5","complex_dissimilar","images/stimuli/spore_stims/complex_12_A_b.gif","","","","",""
"","null","html-keyboard-response","70","326677","0.0-19.0-0.2","SS1619740107605","","","null","","","","","","<p><img src= images/blank.png width =""600"" height = ""600"" style=""position:fixed;top:50%; left:50%; transform: translate(-50%, -50%); border:5px solid black"">","","","","","","","",""
"","1028.5499999881722","sequential-stimulus-presentation-old","71","328218","0.0-19.0-1.2","SS1619740107605","trial","","40","500","1528.5499999881722","images/stimuli/spore_stims/complex_20_A_a.gif","images/stimuli/spore_stims/complex_12_A_b.gif","self_paced","","5","complex_dissimilar","images/stimuli/spore_stims/complex_12_A_b.gif","","","","",""
"","null","html-keyboard-response","72","329259","0.0-19.0-0.3","SS1619740107605","","","null","","","","","","<p><img src= images/blank.png width =""600"" height = ""600"" style=""position:fixed;top:50%; left:50%; transform: translate(-50%, -50%); border:5px solid black"">","","","","","","","",""
"","4194.120000000112","sequential-stimulus-presentation-old","73","333967","0.0-19.0-1.3","SS1619740107605","trial","","40","500","4694.120000000112","images/stimuli/spore_stims/complex_20_A_a.gif","images/stimuli/spore_stims/complex_12_A_b.gif","self_paced","","5","complex_dissimilar","images/stimuli/spore_stims/complex_20_A_a.gif","","","","",""
"","null","html-keyboard-response","74","335211","0.0-19.0-0.4","SS1619740107605","","","null","","","","","","<p><img src= images/blank.png width =""600"" height = ""600"" style=""position:fixed;top:50%; left:50%; transform: translate(-50%, -50%); border:5px solid black"">","","","","","","","",""
"","3162.190000002738","sequential-stimulus-presentation-old","75","338887","0.0-19.0-1.4","SS1619740107605","trial","","40","500","3662.190000002738","images/stimuli/spore_stims/complex_20_A_a.gif","images/stimuli/spore_stims/complex_12_A_b.gif","self_paced","","5","complex_dissimilar","images/stimuli/spore_stims/complex_12_A_b.gif","","","","",""
"","null","html-keyboard-response","76","339985","0.0-19.0-0.5","SS1619740107605","","","null","","","","","","<p><img src= images/blank.png width =""600"" height = ""600"" style=""position:fixed;top:50%; left:50%; transform: translate(-50%, -50%); border:5px solid black"">","","","","","","","",""
"","5896.524999989197","sequential-stimulus-presentation-old","77","346393","0.0-19.0-1.5","SS1619740107605","trial","","40","500","6396.524999989197","images/stimuli/spore_stims/complex_20_A_a.gif","images/stimuli/spore_stims/complex_12_A_b.gif","self_paced","","5","complex_dissimilar","images/stimuli/spore_stims/complex_20_A_a.gif","","","","",""
"","2544.5400000025984","survey-multi-choice","78","348943","0.0-20.0","SS1619740107605","math_question","","","","","","","","","","","","{""Q0"":""9""}","[0]","9","",""
"","null","html-keyboard-response","79","350253","0.0-21.0-0.0","SS1619740107605","","","null","","","","","","<p><img src= images/blank.png width =""600"" height = ""600"" style=""position:fixed;top:50%; left:50%; transform: translate(-50%, -50%); border:5px solid black"">","","","","","","","",""
"","1222.3850000009406","sequential-stimulus-presentation-old","80","351997","0.0-21.0-1.0","SS1619740107605","trial","","40","500","1722.3850000009406","images/stimuli/spore_stims/simple_13_A_a.gif","images/stimuli/spore_stims/simple_04_A_b.gif","forced_short","","6","simple_dissimilar","images/stimuli/spore_stims/simple_04_A_b.gif","","","","",""
"","null","html-keyboard-response","81","352992","0.0-21.0-0.1","SS1619740107605","","","null","","","","","","<p><img src= images/blank.png width =""600"" height = ""600"" style=""position:fixed;top:50%; left:50%; transform: translate(-50%, -50%); border:5px solid black"">","","","","","","","",""
"","554.0899999905378","sequential-stimulus-presentation-old","82","354057","0.0-21.0-1.1","SS1619740107605","trial","","40","500","1054.0899999905378","images/stimuli/spore_stims/simple_13_A_a.gif","images/stimuli/spore_stims/simple_04_A_b.gif","forced_short","","6","simple_dissimilar","images/stimuli/spore_stims/simple_04_A_b.gif","","","","",""
"","null","html-keyboard-response","83","355165","0.0-21.0-0.2","SS1619740107605","","","null","","","","","","<p><img src= images/blank.png width =""600"" height = ""600"" style=""position:fixed;top:50%; left:50%; transform: translate(-50%, -50%); border:5px solid black"">","","","","","","","",""
"","1543.774999998277","sequential-stimulus-presentation-old","84","357221","0.0-21.0-1.2","SS1619740107605","trial","","40","500","2043.774999998277","images/stimuli/spore_stims/simple_13_A_a.gif","images/stimuli/spore_stims/simple_04_A_b.gif","forced_short","","6","simple_dissimilar","images/stimuli/spore_stims/simple_13_A_a.gif","","","","",""
"","null","html-keyboard-response","85","358042","0.0-21.0-0.3","SS1619740107605","","","null","","","","","","<p><img src= images/blank.png width =""600"" height = ""600"" style=""position:fixed;top:50%; left:50%; transform: translate(-50%, -50%); border:5px solid black"">","","","","","","","",""
"","3019.91000000271","sequential-stimulus-presentation-old","86","361577","0.0-21.0-1.3","SS1619740107605","trial","","40","500","3519.91000000271","images/stimuli/spore_stims/simple_13_A_a.gif","images/stimuli/spore_stims/simple_04_A_b.gif","forced_short","","6","simple_dissimilar","images/stimuli/spore_stims/simple_13_A_a.gif","","","","",""
"","null","html-keyboard-response","87","362465","0.0-21.0-0.4","SS1619740107605","","","null","","","","","","<p><img src= images/blank.png width =""600"" height = ""600"" style=""position:fixed;top:50%; left:50%; transform: translate(-50%, -50%); border:5px solid black"">","","","","","","","",""
"","1224.3449999950826","sequential-stimulus-presentation-old","88","364215","0.0-21.0-1.4","SS1619740107605","trial","","40","500","1724.3449999950826","images/stimuli/spore_stims/simple_13_A_a.gif","images/stimuli/spore_stims/simple_04_A_b.gif","forced_short","","6","simple_dissimilar","images/stimuli/spore_stims/simple_04_A_b.gif","","","","",""
"","null","html-keyboard-response","89","365080","0.0-21.0-0.5","SS1619740107605","","","null","","","","","","<p><img src= images/blank.png width =""600"" height = ""600"" style=""position:fixed;top:50%; left:50%; transform: translate(-50%, -50%); border:5px solid black"">","","","","","","","",""
"","1479.2899999883957","sequential-stimulus-presentation-old","90","367072","0.0-21.0-1.5","SS1619740107605","trial","","40","500","1979.2899999883957","images/stimuli/spore_stims/simple_13_A_a.gif","images/stimuli/spore_stims/simple_04_A_b.gif","forced_short","","6","simple_dissimilar","images/stimuli/spore_stims/simple_04_A_b.gif","","","","",""
"","2655.979999981355","survey-multi-choice","91","369733","0.0-22.0","SS1619740107605","math_question","","","","","","","","","","","","{""Q0"":""12""}","[0]","12","",""
"","null","html-keyboard-response","92","370958","0.0-23.0-0.0","SS1619740107605","","","null","","","","","","<p><img src= images/blank.png width =""600"" height = ""600"" style=""position:fixed;top:50%; left:50%; transform: translate(-50%, -50%); border:5px solid black"">","","","","","","","",""
"","374.2050000000745","sequential-stimulus-presentation-old","93","386356","0.0-23.0-1.0","SS1619740107605","trial","","40","500","874.2050000000745","images/stimuli/spore_stims/complex_02_A_b.gif","images/stimuli/spore_stims/complex_12_A_a.gif","forced_long","","7","complex_dissimilar","images/stimuli/spore_stims/complex_12_A_a.gif","","","","",""
"","null","html-keyboard-response","94","387640","0.0-23.0-0.1","SS1619740107605","","","null","","","","","","<p><img src= images/blank.png width =""600"" height = ""600"" style=""position:fixed;top:50%; left:50%; transform: translate(-50%, -50%); border:5px solid black"">","","","","","","","",""
"","2039.085000025807","sequential-stimulus-presentation-old","95","390200","0.0-23.0-1.1","SS1619740107605","trial","","40","500","2539.085000025807","images/stimuli/spore_stims/complex_02_A_b.gif","images/stimuli/spore_stims/complex_12_A_a.gif","forced_long","","7","complex_dissimilar","images/stimuli/spore_stims/complex_12_A_a.gif","","","","",""
"","null","html-keyboard-response","96","391020","0.0-23.0-0.2","SS1619740107605","","","null","","","","","","<p><img src= images/blank.png width =""600"" height = ""600"" style=""position:fixed;top:50%; left:50%; transform: translate(-50%, -50%); border:5px solid black"">","","","","","","","",""
"","6416.930000006687","sequential-stimulus-presentation-old","97","397954","0.0-23.0-1.2","SS1619740107605","trial","","40","500","6916.930000006687","images/stimuli/spore_stims/complex_02_A_b.gif","images/stimuli/spore_stims/complex_12_A_a.gif","forced_long","","7","complex_dissimilar","images/stimuli/spore_stims/complex_02_A_b.gif","","","","",""
"","null","html-keyboard-response","98","398836","0.0-23.0-0.3","SS1619740107605","","","null","","","","","","<p><img src= images/blank.png width =""600"" height = ""600"" style=""position:fixed;top:50%; left:50%; transform: translate(-50%, -50%); border:5px solid black"">","","","","","","","",""
"","464.90500000072643","sequential-stimulus-presentation-old","99","399819","0.0-23.0-1.3","SS1619740107605","trial","","40","500","964.9050000007264","images/stimuli/spore_stims/complex_02_A_b.gif","images/stimuli/spore_stims/complex_12_A_a.gif","forced_long","","7","complex_dissimilar","images/stimuli/spore_stims/complex_12_A_a.gif","","","","",""
"","null","html-keyboard-response","100","401111","0.0-23.0-0.4","SS1619740107605","","","null","","","","","","<p><img src= images/blank.png width =""600"" height = ""600"" style=""position:fixed;top:50%; left:50%; transform: translate(-50%, -50%); border:5px solid black"">","","","","","","","",""
"","536.2600000225939","sequential-stimulus-presentation-old","101","402160","0.0-23.0-1.4","SS1619740107605","trial","","40","500","1036.2600000225939","images/stimuli/spore_stims/complex_02_A_b.gif","images/stimuli/spore_stims/complex_12_A_a.gif","forced_long","","7","complex_dissimilar","images/stimuli/spore_stims/complex_12_A_a.gif","","","","",""
"","null","html-keyboard-response","102","403120","0.0-23.0-0.5","SS1619740107605","","","null","","","","","","<p><img src= images/blank.png width =""600"" height = ""600"" style=""position:fixed;top:50%; left:50%; transform: translate(-50%, -50%); border:5px solid black"">","","","","","","","",""
"","126.06499998946674","sequential-stimulus-presentation-old","103","403771","0.0-23.0-1.5","SS1619740107605","trial","","40","500","626.0649999894667","images/stimuli/spore_stims/complex_02_A_b.gif","images/stimuli/spore_stims/complex_12_A_a.gif","forced_long","","7","complex_dissimilar","images/stimuli/spore_stims/complex_12_A_a.gif","","","","",""
"","2459.8450000048615","survey-multi-choice","104","406237","0.0-24.0","SS1619740107605","math_question","","","","","","","","","","","","{""Q0"":""10""}","[0]","10","",""
"","null","html-keyboard-response","105","407191","0.0-25.0-0.0","SS1619740107605","","","null","","","","","","<p><img src= images/blank.png width =""600"" height = ""600"" style=""position:fixed;top:50%; left:50%; transform: translate(-50%, -50%); border:5px solid black"">","","","","","","","",""
"","2086.269999999786","sequential-stimulus-presentation-old","106","409790","0.0-25.0-1.0","SS1619740107605","trial","","40","500","2586.269999999786","images/stimuli/spore_stims/complex_18_A_b.gif","images/stimuli/spore_stims/complex_03_A_a.gif","self_paced","","8","complex_dissimilar","images/stimuli/spore_stims/complex_03_A_a.gif","","","","",""
"","null","html-keyboard-response","107","410867","0.0-25.0-0.1","SS1619740107605","","","null","","","","","","<p><img src= images/blank.png width =""600"" height = ""600"" style=""position:fixed;top:50%; left:50%; transform: translate(-50%, -50%); border:5px solid black"">","","","","","","","",""
"","6155.220000015106","sequential-stimulus-presentation-old","108","417540","0.0-25.0-1.1","SS1619740107605","trial","","40","500","6655.220000015106","images/stimuli/spore_stims/complex_18_A_b.gif","images/stimuli/spore_stims/complex_03_A_a.gif","self_paced","","8","complex_dissimilar","images/stimuli/spore_stims/complex_18_A_b.gif","","","","",""
"","null","html-keyboard-response","109","418576","0.0-25.0-0.2","SS1619740107605","","","null","","","","","","<p><img src= images/blank.png width =""600"" height = ""600"" style=""position:fixed;top:50%; left:50%; transform: translate(-50%, -50%); border:5px solid black"">","","","","","","","",""
"","2155.574999982491","sequential-stimulus-presentation-old","110","421244","0.0-25.0-1.2","SS1619740107605","trial","","40","500","2655.574999982491","images/stimuli/spore_stims/complex_18_A_b.gif","images/stimuli/spore_stims/complex_03_A_a.gif","self_paced","","8","complex_dissimilar","images/stimuli/spore_stims/complex_03_A_a.gif","","","","",""
"","null","html-keyboard-response","111","422105","0.0-25.0-0.3","SS1619740107605","","","null","","","","","","<p><img src= images/blank.png width =""600"" height = ""600"" style=""position:fixed;top:50%; left:50%; transform: translate(-50%, -50%); border:5px solid black"">","","","","","","","",""
"","541.2299999734387","sequential-stimulus-presentation-old","112","423159","0.0-25.0-1.3","SS1619740107605","trial","","40","500","1041.2299999734387","images/stimuli/spore_stims/complex_18_A_b.gif","images/stimuli/spore_stims/complex_03_A_a.gif","self_paced","","8","complex_dissimilar","images/stimuli/spore_stims/complex_03_A_a.gif","","","","",""
"","null","html-keyboard-response","113","424120","0.0-25.0-0.4","SS1619740107605","","","null","","","","","","<p><img src= images/blank.png width =""600"" height = ""600"" style=""position:fixed;top:50%; left:50%; transform: translate(-50%, -50%); border:5px solid black"">","","","","","","","",""
"","1443.7650000036228","sequential-stimulus-presentation-old","114","426088","0.0-25.0-1.4","SS1619740107605","trial","","40","500","1943.7650000036228","images/stimuli/spore_stims/complex_18_A_b.gif","images/stimuli/spore_stims/complex_03_A_a.gif","self_paced","","8","complex_dissimilar","images/stimuli/spore_stims/complex_03_A_a.gif","","","","",""
"","2368.029999983264","survey-multi-choice","115","428461","0.0-26.0","SS1619740107605","math_question","","","","","","","","","","","","{""Q0"":""6""}","[0]","6","",""
"","null","html-keyboard-response","116","429725","0.0-27.0-0.0","SS1619740107605","","","null","","","","","","<p><img src= images/blank.png width =""600"" height = ""600"" style=""position:fixed;top:50%; left:50%; transform: translate(-50%, -50%); border:5px solid black"">","","","","","","","",""
"","481.0050000087358","sequential-stimulus-presentation-old","117","445217","0.0-27.0-1.0","SS1619740107605","trial","","40","500","981.0050000087358","images/stimuli/spore_stims/simple_20_A_b.gif","images/stimuli/spore_stims/simple_06_A_a.gif","forced_long","","9","simple_dissimilar","images/stimuli/spore_stims/simple_06_A_a.gif","","","","",""
"","null","html-keyboard-response","118","446403","0.0-27.0-0.1","SS1619740107605","","","null","","","","","","<p><img src= images/blank.png width =""600"" height = ""600"" style=""position:fixed;top:50%; left:50%; transform: translate(-50%, -50%); border:5px solid black"">","","","","","","","",""
"","1353.5549999796785","sequential-stimulus-presentation-old","119","448277","0.0-27.0-1.1","SS1619740107605","trial","","40","500","1853.5549999796785","images/stimuli/spore_stims/simple_20_A_b.gif","images/stimuli/spore_stims/simple_06_A_a.gif","forced_long","","9","simple_dissimilar","images/stimuli/spore_stims/simple_06_A_a.gif","","","","",""
"","null","html-keyboard-response","120","449117","0.0-27.0-0.2","SS1619740107605","","","null","","","","","","<p><img src= images/blank.png width =""600"" height = ""600"" style=""position:fixed;top:50%; left:50%; transform: translate(-50%, -50%); border:5px solid black"">","","","","","","","",""
"","2833.829999988666","sequential-stimulus-presentation-old","121","452468","0.0-27.0-1.2","SS1619740107605","trial","","40","500","3333.829999988666","images/stimuli/spore_stims/simple_20_A_b.gif","images/stimuli/spore_stims/simple_06_A_a.gif","forced_long","","9","simple_dissimilar","images/stimuli/spore_stims/simple_20_A_b.gif","","","","",""
"","null","html-keyboard-response","122","453681","0.0-27.0-0.3","SS1619740107605","","","null","","","","","","<p><img src= images/blank.png width =""600"" height = ""600"" style=""position:fixed;top:50%; left:50%; transform: translate(-50%, -50%); border:5px solid black"">","","","","","","","",""
"","779.9200000008568","sequential-stimulus-presentation-old","123","454981","0.0-27.0-1.3","SS1619740107605","trial","","40","500","1279.9200000008568","images/stimuli/spore_stims/simple_20_A_b.gif","images/stimuli/spore_stims/simple_06_A_a.gif","forced_long","","9","simple_dissimilar","images/stimuli/spore_stims/simple_06_A_a.gif","","","","",""
"","null","html-keyboard-response","124","456160","0.0-27.0-0.4","SS1619740107605","","","null","","","","","","<p><img src= images/blank.png width =""600"" height = ""600"" style=""position:fixed;top:50%; left:50%; transform: translate(-50%, -50%); border:5px solid black"">","","","","","","","",""
"","1331.6850000119302","sequential-stimulus-presentation-old","125","458006","0.0-27.0-1.4","SS1619740107605","trial","","40","500","1831.6850000119302","images/stimuli/spore_stims/simple_20_A_b.gif","images/stimuli/spore_stims/simple_06_A_a.gif","forced_long","","9","simple_dissimilar","images/stimuli/spore_stims/simple_06_A_a.gif","","","","",""
"","null","html-keyboard-response","126","458841","0.0-27.0-0.5","SS1619740107605","","","null","","","","","","<p><img src= images/blank.png width =""600"" height = ""600"" style=""position:fixed;top:50%; left:50%; transform: translate(-50%, -50%); border:5px solid black"">","","","","","","","",""
"","1009.9449999979697","sequential-stimulus-presentation-old","127","460366","0.0-27.0-1.5","SS1619740107605","trial","","40","500","1509.9449999979697","images/stimuli/spore_stims/simple_20_A_b.gif","images/stimuli/spore_stims/simple_06_A_a.gif","forced_long","","9","simple_dissimilar","images/stimuli/spore_stims/simple_20_A_b.gif","","","","",""
"","2637.575000000652","survey-multi-choice","128","463013","0.0-28.0","SS1619740107605","math_question","","","","","","","","","","","","{""Q0"":""10""}","[0]","10","",""
"","null","html-keyboard-response","129","464170","0.0-29.0-0.0","SS1619740107605","","","null","","","","","","<p><img src= images/blank.png width =""600"" height = ""600"" style=""position:fixed;top:50%; left:50%; transform: translate(-50%, -50%); border:5px solid black"">","","","","","","","",""
"","2047.4899999971967","sequential-stimulus-presentation-old","130","466733","0.0-29.0-1.0","SS1619740107605","trial","","40","500","2547.4899999971967","images/stimuli/spore_stims/complex_16_A_b.gif","images/stimuli/spore_stims/complex_13_A_a.gif","forced_short","","10","complex_dissimilar","images/stimuli/spore_stims/complex_13_A_a.gif","","","","",""
"","null","html-keyboard-response","131","467907","0.0-29.0-0.1","SS1619740107605","","","null","","","","","","<p><img src= images/blank.png width =""600"" height = ""600"" style=""position:fixed;top:50%; left:50%; transform: translate(-50%, -50%); border:5px solid black"">","","","","","","","",""
"","5116.074999998091","sequential-stimulus-presentation-old","132","473535","0.0-29.0-1.1","SS1619740107605","trial","","40","500","5616.074999998091","images/stimuli/spore_stims/complex_16_A_b.gif","images/stimuli/spore_stims/complex_13_A_a.gif","forced_short","","10","complex_dissimilar","images/stimuli/spore_stims/complex_16_A_b.gif","","","","",""
"","null","html-keyboard-response","133","474822","0.0-29.0-0.2","SS1619740107605","","","null","","","","","","<p><img src= images/blank.png width =""600"" height = ""600"" style=""position:fixed;top:50%; left:50%; transform: translate(-50%, -50%); border:5px solid black"">","","","","","","","",""
"","1894.384999992326","sequential-stimulus-presentation-old","134","477232","0.0-29.0-1.2","SS1619740107605","trial","","40","500","2394.384999992326","images/stimuli/spore_stims/complex_16_A_b.gif","images/stimuli/spore_stims/complex_13_A_a.gif","forced_short","","10","complex_dissimilar","images/stimuli/spore_stims/complex_16_A_b.gif","","","","",""
"","null","html-keyboard-response","135","478545","0.0-29.0-0.3","SS1619740107605","","","null","","","","","","<p><img src= images/blank.png width =""600"" height = ""600"" style=""position:fixed;top:50%; left:50%; transform: translate(-50%, -50%); border:5px solid black"">","","","","","","","",""
"","4006.935000012163","sequential-stimulus-presentation-old","136","483065","0.0-29.0-1.3","SS1619740107605","trial","","40","500","4506.935000012163","images/stimuli/spore_stims/complex_16_A_b.gif","images/stimuli/spore_stims/complex_13_A_a.gif","forced_short","","10","complex_dissimilar","images/stimuli/spore_stims/complex_13_A_a.gif","","","","",""
"","null","html-keyboard-response","137","484011","0.0-29.0-0.4","SS1619740107605","","","null","","","","","","<p><img src= images/blank.png width =""600"" height = ""600"" style=""position:fixed;top:50%; left:50%; transform: translate(-50%, -50%); border:5px solid black"">","","","","","","","",""
"","1150.5999999935739","sequential-stimulus-presentation-old","138","485685","0.0-29.0-1.4","SS1619740107605","trial","","40","500","1650.5999999935739","images/stimuli/spore_stims/complex_16_A_b.gif","images/stimuli/spore_stims/complex_13_A_a.gif","forced_short","","10","complex_dissimilar","images/stimuli/spore_stims/complex_13_A_a.gif","","","","",""
"","null","html-keyboard-response","139","486662","0.0-29.0-0.5","SS1619740107605","","","null","","","","","","<p><img src= images/blank.png width =""600"" height = ""600"" style=""position:fixed;top:50%; left:50%; transform: translate(-50%, -50%); border:5px solid black"">","","","","","","","",""
"","2121.8100000114646","sequential-stimulus-presentation-old","140","489299","0.0-29.0-1.5","SS1619740107605","trial","","40","500","2621.8100000114646","images/stimuli/spore_stims/complex_16_A_b.gif","images/stimuli/spore_stims/complex_13_A_a.gif","forced_short","","10","complex_dissimilar","images/stimuli/spore_stims/complex_13_A_a.gif","","","","",""
"","3049.3249999999534","survey-multi-choice","141","492357","0.0-30.0","SS1619740107605","math_question","","","","","","","","","","","","{""Q0"":""8""}","[0]","8","",""
"","null","html-keyboard-response","142","493622","0.0-31.0-0.0","SS1619740107605","","","null","","","","","","<p><img src= images/blank.png width =""600"" height = ""600"" style=""position:fixed;top:50%; left:50%; transform: translate(-50%, -50%); border:5px solid black"">","","","","","","","",""
"","1257.1199999947567","sequential-stimulus-presentation-old","143","495385","0.0-31.0-1.0","SS1619740107605","trial","","40","500","1757.1199999947567","images/stimuli/spore_stims/complex_10_A_a.gif","images/stimuli/spore_stims/complex_20_A_b.gif","forced_short","","11","complex_dissimilar","images/stimuli/spore_stims/complex_20_A_b.gif","","","","",""
"","null","html-keyboard-response","144","496430","0.0-31.0-0.1","SS1619740107605","","","null","","","","","","<p><img src= images/blank.png width =""600"" height = ""600"" style=""position:fixed;top:50%; left:50%; transform: translate(-50%, -50%); border:5px solid black"">","","","","","","","",""
"","1089.8349999915808","sequential-stimulus-presentation-old","145","498025","0.0-31.0-1.1","SS1619740107605","trial","","40","500","1589.8349999915808","images/stimuli/spore_stims/complex_10_A_a.gif","images/stimuli/spore_stims/complex_20_A_b.gif","forced_short","","11","complex_dissimilar","images/stimuli/spore_stims/complex_20_A_b.gif","","","","",""
"","null","html-keyboard-response","146","499254","0.0-31.0-0.2","SS1619740107605","","","null","","","","","","<p><img src= images/blank.png width =""600"" height = ""600"" style=""position:fixed;top:50%; left:50%; transform: translate(-50%, -50%); border:5px solid black"">","","","","","","","",""
"","368.9800000283867","sequential-stimulus-presentation-old","147","500138","0.0-31.0-1.2","SS1619740107605","trial","","40","500","868.9800000283867","images/stimuli/spore_stims/complex_10_A_a.gif","images/stimuli/spore_stims/complex_20_A_b.gif","forced_short","","11","complex_dissimilar","images/stimuli/spore_stims/complex_20_A_b.gif","","","","",""
"","null","html-keyboard-response","148","501389","0.0-31.0-0.3","SS1619740107605","","","null","","","","","","<p><img src= images/blank.png width =""600"" height = ""600"" style=""position:fixed;top:50%; left:50%; transform: translate(-50%, -50%); border:5px solid black"">","","","","","","","",""
"","297.0750000094995","sequential-stimulus-presentation-old","149","502214","0.0-31.0-1.3","SS1619740107605","trial","","40","500","797.0750000094995","images/stimuli/spore_stims/complex_10_A_a.gif","images/stimuli/spore_stims/complex_20_A_b.gif","forced_short","","11","complex_dissimilar","images/stimuli/spore_stims/complex_20_A_b.gif","","","","",""
"","null","html-keyboard-response","150","503426","0.0-31.0-0.4","SS1619740107605","","","null","","","","","","<p><img src= images/blank.png width =""600"" height = ""600"" style=""position:fixed;top:50%; left:50%; transform: translate(-50%, -50%); border:5px solid black"">","","","","","","","",""
"","4974.48499998427","sequential-stimulus-presentation-old","151","508914","0.0-31.0-1.4","SS1619740107605","trial","","40","500","5474.48499998427","images/stimuli/spore_stims/complex_10_A_a.gif","images/stimuli/spore_stims/complex_20_A_b.gif","forced_short","","11","complex_dissimilar","images/stimuli/spore_stims/complex_10_A_a.gif","","","","",""
"[{""page_index"":0,""viewing_time"":6084.264999983134}]","6084.594999992987","instructions","152","515004","0.0-32.0","SS1619740107605","instructions","","","","","","","","","","","","","","","",""
"","19475.210000004154","survey-likert","153","534486","0.0-33.0","SS1619740107605","similarity_question","","","","","","","","","","","","{""Q0"":3}","[0]","","images/stimuli/spore_stims/simple_06_A_a.gif","images/stimuli/spore_stims/simple_20_A_b.gif"
"","12816.08999997843","survey-likert","154","547326","0.0-34.0","SS1619740107605","similarity_question","","","","","","","","","","","","{""Q0"":0}","[0]","","images/stimuli/spore_stims/complex_20_A_a.gif","images/stimuli/spore_stims/complex_12_A_b.gif"
"","5234.165000001667","survey-likert","155","552574","0.0-35.0","SS1619740107605","similarity_question","","","","","","","","","","","","{""Q0"":0}","[0]","","images/stimuli/spore_stims/complex_03_A_a.gif","images/stimuli/spore_stims/complex_18_A_b.gif"
"","6770.814999996219","survey-likert","156","559358","0.0-36.0","SS1619740107605","similarity_question","","","","","","","","","","","","{""Q0"":3}","[0]","","images/stimuli/spore_stims/simple_03_A_a.gif","images/stimuli/spore_stims/simple_13_A_b.gif"
"","9898.500000010245","survey-likert","157","569270","0.0-37.0","SS1619740107605","similarity_question","","","","","","","","","","","","{""Q0"":0}","[0]","","images/stimuli/spore_stims/complex_13_A_a.gif","images/stimuli/spore_stims/complex_16_A_b.gif"
"","6306.500000006054","survey-likert","158","575591","0.0-38.0","SS1619740107605","similarity_question","","","","","","","","","","","","{""Q0"":0}","[0]","","images/stimuli/spore_stims/complex_16_A_a.gif","images/stimuli/spore_stims/complex_03_A_b.gif"
"","4672.469999990426","survey-likert","159","580278","0.0-39.0","SS1619740107605","similarity_question","","","","","","","","","","","","{""Q0"":2}","[0]","","images/stimuli/spore_stims/simple_05_A_b.gif","images/stimuli/spore_stims/simple_18_A_a.gif"
"","4674.064999999246","survey-likert","160","584966","0.0-40.0","SS1619740107605","similarity_question","","","","","","","","","","","","{""Q0"":3}","[0]","","images/stimuli/spore_stims/simple_19_A_a.gif","images/stimuli/spore_stims/simple_02_A_b.gif"
"","4610.679999983404","survey-likert","161","589590","0.0-41.0","SS1619740107605","similarity_question","","","","","","","","","","","","{""Q0"":5}","[0]","","images/stimuli/spore_stims/simple_04_A_b.gif","images/stimuli/spore_stims/simple_13_A_a.gif"
"","20370.785000006435","survey-likert","162","609974","0.0-42.0","SS1619740107605","similarity_question","","","","","","","","","","","","{""Q0"":4}","[0]","","images/stimuli/spore_stims/complex_10_A_a.gif","images/stimuli/spore_stims/complex_20_A_b.gif"
"","7529.810000007274","survey-likert","163","617518","0.0-43.0","SS1619740107605","similarity_question","","","","","","","","","","","","{""Q0"":3}","[0]","","images/stimuli/spore_stims/complex_12_A_a.gif","images/stimuli/spore_stims/complex_02_A_b.gif"
"","5954.195000027539","survey-likert","164","623486","0.0-44.0","SS1619740107605","similarity_question","","","","","","","","","","","","{""Q0"":3}","[0]","","images/stimuli/spore_stims/simple_08_A_b.gif","images/stimuli/spore_stims/simple_15_A_a.gif"
"[{""page_index"":0,""viewing_time"":4410.550000000512}]","4410.869999992428","instructions","165","627910","0.0-45.0","SS1619740107605","instructions","","","","","","","","","","","","","","","",""
"","6075.920000002952","survey-likert","166","633990","0.0-46.0","SS1619740107605","","","","","","","","","images/stimuli/spore_stims/simple_19_A_a.gif","","","","{""Q0"":2}","[0]","","",""
"","4594.964999996591","survey-likert","167","638598","0.0-47.0","SS1619740107605","","","","","","","","","images/stimuli/spore_stims/complex_16_A_a.gif","","","","{""Q0"":5}","[0]","","",""
"","3858.4399999817833","survey-likert","168","642470","0.0-48.0","SS1619740107605","","","","","","","","","images/stimuli/spore_stims/complex_12_A_b.gif","","","","{""Q0"":6}","[0]","","",""
"","4210.279999999329","survey-likert","169","646694","0.0-49.0","SS1619740107605","","","","","","","","","images/stimuli/spore_stims/simple_08_A_b.gif","","","","{""Q0"":2}","[0]","","",""
"","3799.494999984745","survey-likert","170","650510","0.0-50.0","SS1619740107605","","","","","","","","","images/stimuli/spore_stims/complex_18_A_b.gif","","","","{""Q0"":6}","[0]","","",""
"","3887.654999998631","survey-likert","171","654414","0.0-51.0","SS1619740107605","","","","","","","","","images/stimuli/spore_stims/complex_13_A_a.gif","","","","{""Q0"":6}","[0]","","",""
"","3946.39999998617","survey-likert","172","658374","0.0-52.0","SS1619740107605","","","","","","","","","images/stimuli/spore_stims/simple_03_A_a.gif","","","","{""Q0"":2}","[0]","","",""
"","2337.7350000082515","survey-likert","173","660726","0.0-53.0","SS1619740107605","","","","","","","","","images/stimuli/spore_stims/simple_18_A_a.gif","","","","{""Q0"":1}","[0]","","",""
"","1698.3049999980722","survey-likert","174","662438","0.0-54.0","SS1619740107605","","","","","","","","","images/stimuli/spore_stims/simple_06_A_a.gif","","","","{""Q0"":0}","[0]","","",""
"","4330.600000015693","survey-likert","175","666782","0.0-55.0","SS1619740107605","","","","","","","","","images/stimuli/spore_stims/complex_10_A_a.gif","","","","{""Q0"":4}","[0]","","",""
"","3066.5850000223145","survey-likert","176","669862","0.0-56.0","SS1619740107605","","","","","","","","","images/stimuli/spore_stims/simple_04_A_b.gif","","","","{""Q0"":0}","[0]","","",""
"","6802.360000001499","survey-likert","177","676678","0.0-57.0","SS1619740107605","","","","","","","","","images/stimuli/spore_stims/complex_02_A_b.gif","","","","{""Q0"":3}","[0]","","",""
"[{""page_index"":0,""viewing_time"":1938.3099999977276}]","1938.8050000125077","instructions","178","678629","0.0-58.0","SS1619740107605","instructions","","","","","","","","","","","","","","","",""
"","3054.1899999952875","demog-age","179","681693","0.0-59.0","SS1619740107605","","","","","","","","","","","","","{""age"":""27""}","","","",""
"","2637.830000021495","demog-ethnic-US","180","684342","0.0-60.0","SS1619740107605","","","","","","","","","","","","","{""ethnicity"":[""Hispanic or Latino""]}","[0]","","",""
"","5753.570000000764","demog-gender-and-education","181","690110","0.0-61.0","SS1619740107605","","","","","","","","","","","","","{""gender"":""Male"",""education"":""Master's Degree""}","[0,1]","","",""
"","47141.15999999922","survey-text","182","737270","0.0-62.0","SS1619740107605","feedback","","","","","","","","","","","","{""Q0"":""I did not notice any lag, the animation had low fps I guess.""}","","","",""
"[{""page_index"":0,""viewing_time"":2499.2850000271574}]","2499.775000003865","instructions","183","739774","0.0-63.0","SS1619740107605","instructions","","","","","","","","","","","","","","","",""
