"view_history","rt","trial_type","trial_index","time_elapsed","internal_node_id","subject","stimulus_type","trial_stimulus","key_press","minimum_viewing_duration","trial_looking_time","block_deviant","block_background","exposure_type","stimulus","block_number","block_type","stimulus_displayed","responses","question_order","math_correct_answer","stimulus_left","stimulus_right"
"[{""page_index"":0,""viewing_time"":11479.825000002165}]","11480.28499999782","instructions","0","11481","0.0-0.0","SS1619743511856","","","","","","","","","","","","","","","","",""
"[{""page_index"":0,""viewing_time"":12847.89499999897},{""page_index"":1,""viewing_time"":6121.01999999868}]","18969.0799999953","instructions","1","32452","0.0-1.0","SS1619743511856","instructions","","","","","","","","","","","","","","","",""
"","6263.8500000030035","sequential-stimulus-presentation-old","2","39218","0.0-2.0","SS1619743511856","","","40","500","6763.8500000030035","null","null","self_paced","","","","","","","","",""
"","5743.940000000293","sequential-stimulus-presentation-old","3","45463","0.0-3.0","SS1619743511856","","","40","500","6243.940000000293","null","null","self_paced","","","","","","","","",""
"[{""page_index"":0,""viewing_time"":28586.575000001176}]","28586.75999999832","instructions","4","74051","0.0-4.0","SS1619743511856","instructions","","","","","","","","","","","","","","","",""
"","334.9750000052154","sequential-stimulus-presentation-old","5","89388","0.0-5.0","SS1619743511856","","","40","500","834.9750000052154","null","null","forced_long","","","","","","","","",""
"","715.649999998277","sequential-stimulus-presentation-old","6","90606","0.0-6.0","SS1619743511856","","","40","500","1215.649999998277","null","null","forced_long","","","","","","","","",""
"[{""page_index"":0,""viewing_time"":6125.695000002452}]","6125.830000004498","instructions","7","96732","0.0-7.0","SS1619743511856","instructions","","","","","","","","","","","","","","","",""
"[{""page_index"":0,""viewing_time"":9639.214999995602},{""page_index"":1,""viewing_time"":11791.025000005902},{""page_index"":2,""viewing_time"":4929.084999996121},{""page_index"":3,""viewing_time"":1053.9149999967776},{""page_index"":4,""viewing_time"":1435.0350000022445}]","28848.42999999819","instructions","8","125581","0.0-8.0","SS1619743511856","instructions","","","","","","","","","","","","","","","",""
"","null","html-keyboard-response","9","126643","0.0-9.0-0.0","SS1619743511856","","","null","","","","","","<p><img src= images/blank.png width =""600"" height = ""600"" style=""position:fixed;top:50%; left:50%; transform: translate(-50%, -50%); border:5px solid black"">","","","","","","","",""
"","401.79499999794643","sequential-stimulus-presentation-old","10","142048","0.0-9.0-1.0","SS1619743511856","trial","","40","500","901.7949999979464","images/stimuli/spore_stims/simple_02_A_b.gif","images/stimuli/spore_stims/simple_11_A_a.gif","forced_long","","0","simple_dissimilar","images/stimuli/spore_stims/simple_11_A_a.gif","","","","",""
"","null","html-keyboard-response","11","143204","0.0-9.0-0.1","SS1619743511856","","","null","","","","","","<p><img src= images/blank.png width =""600"" height = ""600"" style=""position:fixed;top:50%; left:50%; transform: translate(-50%, -50%); border:5px solid black"">","","","","","","","",""
"","61661.87499999796","sequential-stimulus-presentation-old","12","205369","0.0-9.0-1.1","SS1619743511856","trial","","40","500","62161.87499999796","images/stimuli/spore_stims/simple_02_A_b.gif","images/stimuli/spore_stims/simple_11_A_a.gif","forced_long","","0","simple_dissimilar","images/stimuli/spore_stims/simple_02_A_b.gif","","","","",""
"","null","html-keyboard-response","13","206228","0.0-9.0-0.2","SS1619743511856","","","null","","","","","","<p><img src= images/blank.png width =""600"" height = ""600"" style=""position:fixed;top:50%; left:50%; transform: translate(-50%, -50%); border:5px solid black"">","","","","","","","",""
"","62683.47999999969","sequential-stimulus-presentation-old","14","269415","0.0-9.0-1.2","SS1619743511856","trial","","40","500","63183.47999999969","images/stimuli/spore_stims/simple_02_A_b.gif","images/stimuli/spore_stims/simple_11_A_a.gif","forced_long","","0","simple_dissimilar","images/stimuli/spore_stims/simple_11_A_a.gif","","","","",""
"","null","html-keyboard-response","15","270583","0.0-9.0-0.3","SS1619743511856","","","null","","","","","","<p><img src= images/blank.png width =""600"" height = ""600"" style=""position:fixed;top:50%; left:50%; transform: translate(-50%, -50%); border:5px solid black"">","","","","","","","",""
"","28327.510000002803","sequential-stimulus-presentation-old","16","299413","0.0-9.0-1.3","SS1619743511856","trial","","40","500","28827.510000002803","images/stimuli/spore_stims/simple_02_A_b.gif","images/stimuli/spore_stims/simple_11_A_a.gif","forced_long","","0","simple_dissimilar","images/stimuli/spore_stims/simple_02_A_b.gif","","","","",""
"","null","html-keyboard-response","17","300693","0.0-9.0-0.4","SS1619743511856","","","null","","","","","","<p><img src= images/blank.png width =""600"" height = ""600"" style=""position:fixed;top:50%; left:50%; transform: translate(-50%, -50%); border:5px solid black"">","","","","","","","",""
"","31103.95000000426","sequential-stimulus-presentation-old","18","332300","0.0-9.0-1.4","SS1619743511856","trial","","40","500","31603.95000000426","images/stimuli/spore_stims/simple_02_A_b.gif","images/stimuli/spore_stims/simple_11_A_a.gif","forced_long","","0","simple_dissimilar","images/stimuli/spore_stims/simple_11_A_a.gif","","","","",""
"","null","html-keyboard-response","19","333467","0.0-9.0-0.5","SS1619743511856","","","null","","","","","","<p><img src= images/blank.png width =""600"" height = ""600"" style=""position:fixed;top:50%; left:50%; transform: translate(-50%, -50%); border:5px solid black"">","","","","","","","",""
"","28672.449999998207","sequential-stimulus-presentation-old","20","362642","0.0-9.0-1.5","SS1619743511856","trial","","40","500","29172.449999998207","images/stimuli/spore_stims/simple_02_A_b.gif","images/stimuli/spore_stims/simple_11_A_a.gif","forced_long","","0","simple_dissimilar","images/stimuli/spore_stims/simple_11_A_a.gif","","","","",""
"","3265.364999999292","survey-multi-choice","21","365909","0.0-10.0","SS1619743511856","math_question","","","","","","","","","","","","{""Q0"":""9""}","[0]","9","",""
"","null","html-keyboard-response","22","366793","0.0-11.0-0.0","SS1619743511856","","","null","","","","","","<p><img src= images/blank.png width =""600"" height = ""600"" style=""position:fixed;top:50%; left:50%; transform: translate(-50%, -50%); border:5px solid black"">","","","","","","","",""
"","758.495000001858","sequential-stimulus-presentation-old","23","368053","0.0-11.0-1.0","SS1619743511856","trial","","40","500","1258.495000001858","images/stimuli/spore_stims/complex_08_A_b.gif","images/stimuli/spore_stims/complex_14_A_a.gif","forced_short","","1","complex_dissimilar","images/stimuli/spore_stims/complex_14_A_a.gif","","","","",""
"","null","html-keyboard-response","24","369266","0.0-11.0-0.1","SS1619743511856","","","null","","","","","","<p><img src= images/blank.png width =""600"" height = ""600"" style=""position:fixed;top:50%; left:50%; transform: translate(-50%, -50%); border:5px solid black"">","","","","","","","",""
"","39240.74500000279","sequential-stimulus-presentation-old","25","409010","0.0-11.0-1.1","SS1619743511856","trial","","40","500","39740.74500000279","images/stimuli/spore_stims/complex_08_A_b.gif","images/stimuli/spore_stims/complex_14_A_a.gif","forced_short","","1","complex_dissimilar","images/stimuli/spore_stims/complex_08_A_b.gif","","","","",""
"","null","html-keyboard-response","26","410299","0.0-11.0-0.2","SS1619743511856","","","null","","","","","","<p><img src= images/blank.png width =""600"" height = ""600"" style=""position:fixed;top:50%; left:50%; transform: translate(-50%, -50%); border:5px solid black"">","","","","","","","",""
"","35351.32000000158","sequential-stimulus-presentation-old","27","446153","0.0-11.0-1.2","SS1619743511856","trial","","40","500","35851.32000000158","images/stimuli/spore_stims/complex_08_A_b.gif","images/stimuli/spore_stims/complex_14_A_a.gif","forced_short","","1","complex_dissimilar","images/stimuli/spore_stims/complex_14_A_a.gif","","","","",""
"","null","html-keyboard-response","28","447021","0.0-11.0-0.3","SS1619743511856","","","null","","","","","","<p><img src= images/blank.png width =""600"" height = ""600"" style=""position:fixed;top:50%; left:50%; transform: translate(-50%, -50%); border:5px solid black"">","","","","","","","",""
"","20256.50499999756","sequential-stimulus-presentation-old","29","467781","0.0-11.0-1.3","SS1619743511856","trial","","40","500","20756.50499999756","images/stimuli/spore_stims/complex_08_A_b.gif","images/stimuli/spore_stims/complex_14_A_a.gif","forced_short","","1","complex_dissimilar","images/stimuli/spore_stims/complex_14_A_a.gif","","","","",""
"","null","html-keyboard-response","30","468872","0.0-11.0-0.4","SS1619743511856","","","null","","","","","","<p><img src= images/blank.png width =""600"" height = ""600"" style=""position:fixed;top:50%; left:50%; transform: translate(-50%, -50%); border:5px solid black"">","","","","","","","",""
"","18672.084999998333","sequential-stimulus-presentation-old","31","488047","0.0-11.0-1.4","SS1619743511856","trial","","40","500","19172.084999998333","images/stimuli/spore_stims/complex_08_A_b.gif","images/stimuli/spore_stims/complex_14_A_a.gif","forced_short","","1","complex_dissimilar","images/stimuli/spore_stims/complex_14_A_a.gif","","","","",""
"","null","html-keyboard-response","32","489145","0.0-11.0-0.5","SS1619743511856","","","null","","","","","","<p><img src= images/blank.png width =""600"" height = ""600"" style=""position:fixed;top:50%; left:50%; transform: translate(-50%, -50%); border:5px solid black"">","","","","","","","",""
"","19048.53500000172","sequential-stimulus-presentation-old","33","508697","0.0-11.0-1.5","SS1619743511856","trial","","40","500","19548.53500000172","images/stimuli/spore_stims/complex_08_A_b.gif","images/stimuli/spore_stims/complex_14_A_a.gif","forced_short","","1","complex_dissimilar","images/stimuli/spore_stims/complex_08_A_b.gif","","","","",""
"","2496.030000002065","survey-multi-choice","34","511195","0.0-12.0","SS1619743511856","math_question","","","","","","","","","","","","{""Q0"":""10""}","[0]","10","",""
"","null","html-keyboard-response","35","512003","0.0-13.0-0.0","SS1619743511856","","","null","","","","","","<p><img src= images/blank.png width =""600"" height = ""600"" style=""position:fixed;top:50%; left:50%; transform: translate(-50%, -50%); border:5px solid black"">","","","","","","","",""
"","442.41000000340864","sequential-stimulus-presentation-old","36","527448","0.0-13.0-1.0","SS1619743511856","trial","","40","500","942.4100000034086","images/stimuli/spore_stims/simple_03_A_b.gif","images/stimuli/spore_stims/simple_09_A_a.gif","forced_long","","2","simple_dissimilar","images/stimuli/spore_stims/simple_09_A_a.gif","","","","",""
"","null","html-keyboard-response","37","528737","0.0-13.0-0.1","SS1619743511856","","","null","","","","","","<p><img src= images/blank.png width =""600"" height = ""600"" style=""position:fixed;top:50%; left:50%; transform: translate(-50%, -50%); border:5px solid black"">","","","","","","","",""
"","23741.9749999973","sequential-stimulus-presentation-old","38","552983","0.0-13.0-1.1","SS1619743511856","trial","","40","500","24241.9749999973","images/stimuli/spore_stims/simple_03_A_b.gif","images/stimuli/spore_stims/simple_09_A_a.gif","forced_long","","2","simple_dissimilar","images/stimuli/spore_stims/simple_09_A_a.gif","","","","",""
"","null","html-keyboard-response","39","553972","0.0-13.0-0.2","SS1619743511856","","","null","","","","","","<p><img src= images/blank.png width =""600"" height = ""600"" style=""position:fixed;top:50%; left:50%; transform: translate(-50%, -50%); border:5px solid black"">","","","","","","","",""
"","8933.989999997779","sequential-stimulus-presentation-old","40","563410","0.0-13.0-1.2","SS1619743511856","trial","","40","500","9433.989999997779","images/stimuli/spore_stims/simple_03_A_b.gif","images/stimuli/spore_stims/simple_09_A_a.gif","forced_long","","2","simple_dissimilar","images/stimuli/spore_stims/simple_09_A_a.gif","","","","",""
"","null","html-keyboard-response","41","564291","0.0-13.0-0.3","SS1619743511856","","","null","","","","","","<p><img src= images/blank.png width =""600"" height = ""600"" style=""position:fixed;top:50%; left:50%; transform: translate(-50%, -50%); border:5px solid black"">","","","","","","","",""
"","236132.6849999969","sequential-stimulus-presentation-old","42","800927","0.0-13.0-1.3","SS1619743511856","trial","","40","500","236632.6849999969","images/stimuli/spore_stims/simple_03_A_b.gif","images/stimuli/spore_stims/simple_09_A_a.gif","forced_long","","2","simple_dissimilar","images/stimuli/spore_stims/simple_09_A_a.gif","","","","",""
"","null","html-keyboard-response","43","801906","0.0-13.0-0.4","SS1619743511856","","","null","","","","","","<p><img src= images/blank.png width =""600"" height = ""600"" style=""position:fixed;top:50%; left:50%; transform: translate(-50%, -50%); border:5px solid black"">","","","","","","","",""
"","16746.14500000456","sequential-stimulus-presentation-old","44","819156","0.0-13.0-1.4","SS1619743511856","trial","","40","500","17246.14500000456","images/stimuli/spore_stims/simple_03_A_b.gif","images/stimuli/spore_stims/simple_09_A_a.gif","forced_long","","2","simple_dissimilar","images/stimuli/spore_stims/simple_03_A_b.gif","","","","",""
"","2404.4149999972433","survey-multi-choice","45","821563","0.0-14.0","SS1619743511856","math_question","","","","","","","","","","","","{""Q0"":""3""}","[0]","3","",""
"","null","html-keyboard-response","46","822704","0.0-15.0-0.0","SS1619743511856","","","null","","","","","","<p><img src= images/blank.png width =""600"" height = ""600"" style=""position:fixed;top:50%; left:50%; transform: translate(-50%, -50%); border:5px solid black"">","","","","","","","",""
"","478.64999999734573","sequential-stimulus-presentation-old","47","838186","0.0-15.0-1.0","SS1619743511856","trial","","40","500","978.6499999973457","images/stimuli/spore_stims/complex_05_A_b.gif","images/stimuli/spore_stims/complex_10_A_a.gif","forced_long","","3","complex_dissimilar","images/stimuli/spore_stims/complex_10_A_a.gif","","","","",""
"","null","html-keyboard-response","48","839474","0.0-15.0-0.1","SS1619743511856","","","null","","","","","","<p><img src= images/blank.png width =""600"" height = ""600"" style=""position:fixed;top:50%; left:50%; transform: translate(-50%, -50%); border:5px solid black"">","","","","","","","",""
"","17065.594999999972","sequential-stimulus-presentation-old","49","857043","0.0-15.0-1.1","SS1619743511856","trial","","40","500","17565.594999999972","images/stimuli/spore_stims/complex_05_A_b.gif","images/stimuli/spore_stims/complex_10_A_a.gif","forced_long","","3","complex_dissimilar","images/stimuli/spore_stims/complex_10_A_a.gif","","","","",""
"","null","html-keyboard-response","50","858054","0.0-15.0-0.2","SS1619743511856","","","null","","","","","","<p><img src= images/blank.png width =""600"" height = ""600"" style=""position:fixed;top:50%; left:50%; transform: translate(-50%, -50%); border:5px solid black"">","","","","","","","",""
"","6306.490000002552","sequential-stimulus-presentation-old","51","864864","0.0-15.0-1.2","SS1619743511856","trial","","40","500","6806.490000002552","images/stimuli/spore_stims/complex_05_A_b.gif","images/stimuli/spore_stims/complex_10_A_a.gif","forced_long","","3","complex_dissimilar","images/stimuli/spore_stims/complex_10_A_a.gif","","","","",""
"","null","html-keyboard-response","52","865766","0.0-15.0-0.3","SS1619743511856","","","null","","","","","","<p><img src= images/blank.png width =""600"" height = ""600"" style=""position:fixed;top:50%; left:50%; transform: translate(-50%, -50%); border:5px solid black"">","","","","","","","",""
"","5828.885000002687","sequential-stimulus-presentation-old","53","872099","0.0-15.0-1.3","SS1619743511856","trial","","40","500","6328.885000002687","images/stimuli/spore_stims/complex_05_A_b.gif","images/stimuli/spore_stims/complex_10_A_a.gif","forced_long","","3","complex_dissimilar","images/stimuli/spore_stims/complex_10_A_a.gif","","","","",""
"","null","html-keyboard-response","54","873271","0.0-15.0-0.4","SS1619743511856","","","null","","","","","","<p><img src= images/blank.png width =""600"" height = ""600"" style=""position:fixed;top:50%; left:50%; transform: translate(-50%, -50%); border:5px solid black"">","","","","","","","",""
"","23180.019999999786","sequential-stimulus-presentation-old","55","896955","0.0-15.0-1.4","SS1619743511856","trial","","40","500","23680.019999999786","images/stimuli/spore_stims/complex_05_A_b.gif","images/stimuli/spore_stims/complex_10_A_a.gif","forced_long","","3","complex_dissimilar","images/stimuli/spore_stims/complex_05_A_b.gif","","","","",""
"","null","html-keyboard-response","56","897935","0.0-15.0-0.5","SS1619743511856","","","null","","","","","","<p><img src= images/blank.png width =""600"" height = ""600"" style=""position:fixed;top:50%; left:50%; transform: translate(-50%, -50%); border:5px solid black"">","","","","","","","",""
"","12164.880000003963","sequential-stimulus-presentation-old","57","910604","0.0-15.0-1.5","SS1619743511856","trial","","40","500","12664.880000003963","images/stimuli/spore_stims/complex_05_A_b.gif","images/stimuli/spore_stims/complex_10_A_a.gif","forced_long","","3","complex_dissimilar","images/stimuli/spore_stims/complex_05_A_b.gif","","","","",""
"","2808.7000000013504","survey-multi-choice","58","913415","0.0-16.0","SS1619743511856","math_question","","","","","","","","","","","","{""Q0"":""8""}","[0]","8","",""
"","null","html-keyboard-response","59","914366","0.0-17.0-0.0","SS1619743511856","","","null","","","","","","<p><img src= images/blank.png width =""600"" height = ""600"" style=""position:fixed;top:50%; left:50%; transform: translate(-50%, -50%); border:5px solid black"">","","","","","","","",""
"","309.8699999973178","sequential-stimulus-presentation-old","60","915180","0.0-17.0-1.0","SS1619743511856","trial","","40","500","809.8699999973178","images/stimuli/spore_stims/simple_18_A_b.gif","images/stimuli/spore_stims/simple_08_A_a.gif","forced_short","","4","simple_dissimilar","images/stimuli/spore_stims/simple_08_A_a.gif","","","","",""
"","null","html-keyboard-response","61","916279","0.0-17.0-0.1","SS1619743511856","","","null","","","","","","<p><img src= images/blank.png width =""600"" height = ""600"" style=""position:fixed;top:50%; left:50%; transform: translate(-50%, -50%); border:5px solid black"">","","","","","","","",""
"","3756.1399999976857","sequential-stimulus-presentation-old","62","920539","0.0-17.0-1.1","SS1619743511856","trial","","40","500","4256.139999997686","images/stimuli/spore_stims/simple_18_A_b.gif","images/stimuli/spore_stims/simple_08_A_a.gif","forced_short","","4","simple_dissimilar","images/stimuli/spore_stims/simple_08_A_a.gif","","","","",""
"","null","html-keyboard-response","63","921780","0.0-17.0-0.2","SS1619743511856","","","null","","","","","","<p><img src= images/blank.png width =""600"" height = ""600"" style=""position:fixed;top:50%; left:50%; transform: translate(-50%, -50%); border:5px solid black"">","","","","","","","",""
"","10217.725000002305","sequential-stimulus-presentation-old","64","932500","0.0-17.0-1.2","SS1619743511856","trial","","40","500","10717.725000002305","images/stimuli/spore_stims/simple_18_A_b.gif","images/stimuli/spore_stims/simple_08_A_a.gif","forced_short","","4","simple_dissimilar","images/stimuli/spore_stims/simple_18_A_b.gif","","","","",""
"","null","html-keyboard-response","65","933728","0.0-17.0-0.3","SS1619743511856","","","null","","","","","","<p><img src= images/blank.png width =""600"" height = ""600"" style=""position:fixed;top:50%; left:50%; transform: translate(-50%, -50%); border:5px solid black"">","","","","","","","",""
"","4577.710000004969","sequential-stimulus-presentation-old","66","938810","0.0-17.0-1.3","SS1619743511856","trial","","40","500","5077.710000004969","images/stimuli/spore_stims/simple_18_A_b.gif","images/stimuli/spore_stims/simple_08_A_a.gif","forced_short","","4","simple_dissimilar","images/stimuli/spore_stims/simple_08_A_a.gif","","","","",""
"","null","html-keyboard-response","67","940014","0.0-17.0-0.4","SS1619743511856","","","null","","","","","","<p><img src= images/blank.png width =""600"" height = ""600"" style=""position:fixed;top:50%; left:50%; transform: translate(-50%, -50%); border:5px solid black"">","","","","","","","",""
"","3572.795000000042","sequential-stimulus-presentation-old","68","944090","0.0-17.0-1.4","SS1619743511856","trial","","40","500","4072.795000000042","images/stimuli/spore_stims/simple_18_A_b.gif","images/stimuli/spore_stims/simple_08_A_a.gif","forced_short","","4","simple_dissimilar","images/stimuli/spore_stims/simple_18_A_b.gif","","","","",""
"","3582.955000005313","survey-multi-choice","69","947676","0.0-18.0","SS1619743511856","math_question","","","","","","","","","","","","{""Q0"":""15""}","[0]","15","",""
"","null","html-keyboard-response","70","948822","0.0-19.0-0.0","SS1619743511856","","","null","","","","","","<p><img src= images/blank.png width =""600"" height = ""600"" style=""position:fixed;top:50%; left:50%; transform: translate(-50%, -50%); border:5px solid black"">","","","","","","","",""
"","34085.895000003744","sequential-stimulus-presentation-old","71","983411","0.0-19.0-1.0","SS1619743511856","trial","","40","500","34585.895000003744","images/stimuli/spore_stims/simple_12_A_b.gif","images/stimuli/spore_stims/simple_10_A_a.gif","self_paced","","5","simple_dissimilar","images/stimuli/spore_stims/simple_10_A_a.gif","","","","",""
"","null","html-keyboard-response","72","984426","0.0-19.0-0.1","SS1619743511856","","","null","","","","","","<p><img src= images/blank.png width =""600"" height = ""600"" style=""position:fixed;top:50%; left:50%; transform: translate(-50%, -50%); border:5px solid black"">","","","","","","","",""
"","6671.590000005439","sequential-stimulus-presentation-old","73","991601","0.0-19.0-1.1","SS1619743511856","trial","","40","500","7171.590000005439","images/stimuli/spore_stims/simple_12_A_b.gif","images/stimuli/spore_stims/simple_10_A_a.gif","self_paced","","5","simple_dissimilar","images/stimuli/spore_stims/simple_10_A_a.gif","","","","",""
"","null","html-keyboard-response","74","992404","0.0-19.0-0.2","SS1619743511856","","","null","","","","","","<p><img src= images/blank.png width =""600"" height = ""600"" style=""position:fixed;top:50%; left:50%; transform: translate(-50%, -50%); border:5px solid black"">","","","","","","","",""
"","3430.1350000023376","sequential-stimulus-presentation-old","75","996338","0.0-19.0-1.2","SS1619743511856","trial","","40","500","3930.1350000023376","images/stimuli/spore_stims/simple_12_A_b.gif","images/stimuli/spore_stims/simple_10_A_a.gif","self_paced","","5","simple_dissimilar","images/stimuli/spore_stims/simple_10_A_a.gif","","","","",""
"","null","html-keyboard-response","76","997208","0.0-19.0-0.3","SS1619743511856","","","null","","","","","","<p><img src= images/blank.png width =""600"" height = ""600"" style=""position:fixed;top:50%; left:50%; transform: translate(-50%, -50%); border:5px solid black"">","","","","","","","",""
"","5706.445000003325","sequential-stimulus-presentation-old","77","1003418","0.0-19.0-1.3","SS1619743511856","trial","","40","500","6206.445000003325","images/stimuli/spore_stims/simple_12_A_b.gif","images/stimuli/spore_stims/simple_10_A_a.gif","self_paced","","5","simple_dissimilar","images/stimuli/spore_stims/simple_10_A_a.gif","","","","",""
"","2036.0700000019278","survey-multi-choice","78","1005457","0.0-20.0","SS1619743511856","math_question","","","","","","","","","","","","{""Q0"":""10""}","[0]","10","",""
"","null","html-keyboard-response","79","1006656","0.0-21.0-0.0","SS1619743511856","","","null","","","","","","<p><img src= images/blank.png width =""600"" height = ""600"" style=""position:fixed;top:50%; left:50%; transform: translate(-50%, -50%); border:5px solid black"">","","","","","","","",""
"","27809.570000004955","sequential-stimulus-presentation-old","80","1034970","0.0-21.0-1.0","SS1619743511856","trial","","40","500","28309.570000004955","images/stimuli/spore_stims/simple_15_A_a.gif","images/stimuli/spore_stims/simple_19_A_b.gif","self_paced","","6","simple_dissimilar","images/stimuli/spore_stims/simple_19_A_b.gif","","","","",""
"","null","html-keyboard-response","81","1035886","0.0-21.0-0.1","SS1619743511856","","","null","","","","","","<p><img src= images/blank.png width =""600"" height = ""600"" style=""position:fixed;top:50%; left:50%; transform: translate(-50%, -50%); border:5px solid black"">","","","","","","","",""
"","6888.2850000008475","sequential-stimulus-presentation-old","82","1043279","0.0-21.0-1.1","SS1619743511856","trial","","40","500","7388.2850000008475","images/stimuli/spore_stims/simple_15_A_a.gif","images/stimuli/spore_stims/simple_19_A_b.gif","self_paced","","6","simple_dissimilar","images/stimuli/spore_stims/simple_19_A_b.gif","","","","",""
"","null","html-keyboard-response","83","1044335","0.0-21.0-0.2","SS1619743511856","","","null","","","","","","<p><img src= images/blank.png width =""600"" height = ""600"" style=""position:fixed;top:50%; left:50%; transform: translate(-50%, -50%); border:5px solid black"">","","","","","","","",""
"","3764.704999994021","sequential-stimulus-presentation-old","84","1048604","0.0-21.0-1.2","SS1619743511856","trial","","40","500","4264.704999994021","images/stimuli/spore_stims/simple_15_A_a.gif","images/stimuli/spore_stims/simple_19_A_b.gif","self_paced","","6","simple_dissimilar","images/stimuli/spore_stims/simple_19_A_b.gif","","","","",""
"","null","html-keyboard-response","85","1049408","0.0-21.0-0.3","SS1619743511856","","","null","","","","","","<p><img src= images/blank.png width =""600"" height = ""600"" style=""position:fixed;top:50%; left:50%; transform: translate(-50%, -50%); border:5px solid black"">","","","","","","","",""
"","2990.590000001248","sequential-stimulus-presentation-old","86","1052903","0.0-21.0-1.3","SS1619743511856","trial","","40","500","3490.590000001248","images/stimuli/spore_stims/simple_15_A_a.gif","images/stimuli/spore_stims/simple_19_A_b.gif","self_paced","","6","simple_dissimilar","images/stimuli/spore_stims/simple_19_A_b.gif","","","","",""
"","null","html-keyboard-response","87","1054078","0.0-21.0-0.4","SS1619743511856","","","null","","","","","","<p><img src= images/blank.png width =""600"" height = ""600"" style=""position:fixed;top:50%; left:50%; transform: translate(-50%, -50%); border:5px solid black"">","","","","","","","",""
"","2944.1749999970198","sequential-stimulus-presentation-old","88","1057527","0.0-21.0-1.4","SS1619743511856","trial","","40","500","3444.1749999970198","images/stimuli/spore_stims/simple_15_A_a.gif","images/stimuli/spore_stims/simple_19_A_b.gif","self_paced","","6","simple_dissimilar","images/stimuli/spore_stims/simple_19_A_b.gif","","","","",""
"","1999.2649999985006","survey-multi-choice","89","1059529","0.0-22.0","SS1619743511856","math_question","","","","","","","","","","","","{""Q0"":""12""}","[0]","12","",""
"","null","html-keyboard-response","90","1060711","0.0-23.0-0.0","SS1619743511856","","","null","","","","","","<p><img src= images/blank.png width =""600"" height = ""600"" style=""position:fixed;top:50%; left:50%; transform: translate(-50%, -50%); border:5px solid black"">","","","","","","","",""
"","316.9599999967031","sequential-stimulus-presentation-old","91","1061533","0.0-23.0-1.0","SS1619743511856","trial","","40","500","816.9599999967031","images/stimuli/spore_stims/simple_08_A_b.gif","images/stimuli/spore_stims/simple_17_A_a.gif","forced_short","","7","simple_dissimilar","images/stimuli/spore_stims/simple_17_A_a.gif","","","","",""
"","null","html-keyboard-response","92","1062772","0.0-23.0-0.1","SS1619743511856","","","null","","","","","","<p><img src= images/blank.png width =""600"" height = ""600"" style=""position:fixed;top:50%; left:50%; transform: translate(-50%, -50%); border:5px solid black"">","","","","","","","",""
"","41455.60999999731","sequential-stimulus-presentation-old","93","1104732","0.0-23.0-1.1","SS1619743511856","trial","","40","500","41955.60999999731","images/stimuli/spore_stims/simple_08_A_b.gif","images/stimuli/spore_stims/simple_17_A_a.gif","forced_short","","7","simple_dissimilar","images/stimuli/spore_stims/simple_17_A_a.gif","","","","",""
"","null","html-keyboard-response","94","1105988","0.0-23.0-0.2","SS1619743511856","","","null","","","","","","<p><img src= images/blank.png width =""600"" height = ""600"" style=""position:fixed;top:50%; left:50%; transform: translate(-50%, -50%); border:5px solid black"">","","","","","","","",""
"","1124.7399999992922","sequential-stimulus-presentation-old","95","1107618","0.0-23.0-1.2","SS1619743511856","trial","","40","500","1624.7399999992922","images/stimuli/spore_stims/simple_08_A_b.gif","images/stimuli/spore_stims/simple_17_A_a.gif","forced_short","","7","simple_dissimilar","images/stimuli/spore_stims/simple_17_A_a.gif","","","","",""
"","null","html-keyboard-response","96","1108736","0.0-23.0-0.3","SS1619743511856","","","null","","","","","","<p><img src= images/blank.png width =""600"" height = ""600"" style=""position:fixed;top:50%; left:50%; transform: translate(-50%, -50%); border:5px solid black"">","","","","","","","",""
"","889.3200000019278","sequential-stimulus-presentation-old","97","1110130","0.0-23.0-1.3","SS1619743511856","trial","","40","500","1389.3200000019278","images/stimuli/spore_stims/simple_08_A_b.gif","images/stimuli/spore_stims/simple_17_A_a.gif","forced_short","","7","simple_dissimilar","images/stimuli/spore_stims/simple_17_A_a.gif","","","","",""
"","1855.9699999969453","survey-multi-choice","98","1111989","0.0-24.0","SS1619743511856","math_question","","","","","","","","","","","","{""Q0"":""9""}","[0]","9","",""
"","null","html-keyboard-response","99","1113087","0.0-25.0-0.0","SS1619743511856","","","null","","","","","","<p><img src= images/blank.png width =""600"" height = ""600"" style=""position:fixed;top:50%; left:50%; transform: translate(-50%, -50%); border:5px solid black"">","","","","","","","",""
"","17380.594999995083","sequential-stimulus-presentation-old","100","1130972","0.0-25.0-1.0","SS1619743511856","trial","","40","500","17880.594999995083","images/stimuli/spore_stims/complex_08_A_a.gif","images/stimuli/spore_stims/complex_10_A_b.gif","self_paced","","8","complex_dissimilar","images/stimuli/spore_stims/complex_10_A_b.gif","","","","",""
"","null","html-keyboard-response","101","1131827","0.0-25.0-0.1","SS1619743511856","","","null","","","","","","<p><img src= images/blank.png width =""600"" height = ""600"" style=""position:fixed;top:50%; left:50%; transform: translate(-50%, -50%); border:5px solid black"">","","","","","","","",""
"","3975.8349999974016","sequential-stimulus-presentation-old","102","1136308","0.0-25.0-1.1","SS1619743511856","trial","","40","500","4475.834999997402","images/stimuli/spore_stims/complex_08_A_a.gif","images/stimuli/spore_stims/complex_10_A_b.gif","self_paced","","8","complex_dissimilar","images/stimuli/spore_stims/complex_10_A_b.gif","","","","",""
"","null","html-keyboard-response","103","1137279","0.0-25.0-0.2","SS1619743511856","","","null","","","","","","<p><img src= images/blank.png width =""600"" height = ""600"" style=""position:fixed;top:50%; left:50%; transform: translate(-50%, -50%); border:5px solid black"">","","","","","","","",""
"","1282.81499999878","sequential-stimulus-presentation-old","104","1139067","0.0-25.0-1.2","SS1619743511856","trial","","40","500","1782.81499999878","images/stimuli/spore_stims/complex_08_A_a.gif","images/stimuli/spore_stims/complex_10_A_b.gif","self_paced","","8","complex_dissimilar","images/stimuli/spore_stims/complex_10_A_b.gif","","","","",""
"","null","html-keyboard-response","105","1140215","0.0-25.0-0.3","SS1619743511856","","","null","","","","","","<p><img src= images/blank.png width =""600"" height = ""600"" style=""position:fixed;top:50%; left:50%; transform: translate(-50%, -50%); border:5px solid black"">","","","","","","","",""
"","1050.7549999966286","sequential-stimulus-presentation-old","106","1141772","0.0-25.0-1.3","SS1619743511856","trial","","40","500","1550.7549999966286","images/stimuli/spore_stims/complex_08_A_a.gif","images/stimuli/spore_stims/complex_10_A_b.gif","self_paced","","8","complex_dissimilar","images/stimuli/spore_stims/complex_10_A_b.gif","","","","",""
"","null","html-keyboard-response","107","1142982","0.0-25.0-0.4","SS1619743511856","","","null","","","","","","<p><img src= images/blank.png width =""600"" height = ""600"" style=""position:fixed;top:50%; left:50%; transform: translate(-50%, -50%); border:5px solid black"">","","","","","","","",""
"","3370.9350000063423","sequential-stimulus-presentation-old","108","1146858","0.0-25.0-1.4","SS1619743511856","trial","","40","500","3870.9350000063423","images/stimuli/spore_stims/complex_08_A_a.gif","images/stimuli/spore_stims/complex_10_A_b.gif","self_paced","","8","complex_dissimilar","images/stimuli/spore_stims/complex_10_A_b.gif","","","","",""
"","null","html-keyboard-response","109","1148002","0.0-25.0-0.5","SS1619743511856","","","null","","","","","","<p><img src= images/blank.png width =""600"" height = ""600"" style=""position:fixed;top:50%; left:50%; transform: translate(-50%, -50%); border:5px solid black"">","","","","","","","",""
"","92938.85500000021","sequential-stimulus-presentation-old","110","1241446","0.0-25.0-1.5","SS1619743511856","trial","","40","500","93438.85500000021","images/stimuli/spore_stims/complex_08_A_a.gif","images/stimuli/spore_stims/complex_10_A_b.gif","self_paced","","8","complex_dissimilar","images/stimuli/spore_stims/complex_08_A_a.gif","","","","",""
"","2015.290000003064","survey-multi-choice","111","1243465","0.0-26.0","SS1619743511856","math_question","","","","","","","","","","","","{""Q0"":""4""}","[0]","4","",""
"","null","html-keyboard-response","112","1244485","0.0-27.0-0.0","SS1619743511856","","","null","","","","","","<p><img src= images/blank.png width =""600"" height = ""600"" style=""position:fixed;top:50%; left:50%; transform: translate(-50%, -50%); border:5px solid black"">","","","","","","","",""
"","551.500000001397","sequential-stimulus-presentation-old","113","1245542","0.0-27.0-1.0","SS1619743511856","trial","","40","500","1051.500000001397","images/stimuli/spore_stims/complex_04_A_a.gif","images/stimuli/spore_stims/complex_06_A_b.gif","forced_short","","9","complex_dissimilar","images/stimuli/spore_stims/complex_06_A_b.gif","","","","",""
"","null","html-keyboard-response","114","1246381","0.0-27.0-0.1","SS1619743511856","","","null","","","","","","<p><img src= images/blank.png width =""600"" height = ""600"" style=""position:fixed;top:50%; left:50%; transform: translate(-50%, -50%); border:5px solid black"">","","","","","","","",""
"","865.0249999992084","sequential-stimulus-presentation-old","115","1247750","0.0-27.0-1.1","SS1619743511856","trial","","40","500","1365.0249999992084","images/stimuli/spore_stims/complex_04_A_a.gif","images/stimuli/spore_stims/complex_06_A_b.gif","forced_short","","9","complex_dissimilar","images/stimuli/spore_stims/complex_06_A_b.gif","","","","",""
"","null","html-keyboard-response","116","1248658","0.0-27.0-0.2","SS1619743511856","","","null","","","","","","<p><img src= images/blank.png width =""600"" height = ""600"" style=""position:fixed;top:50%; left:50%; transform: translate(-50%, -50%); border:5px solid black"">","","","","","","","",""
"","239.494999994291","sequential-stimulus-presentation-old","117","1249403","0.0-27.0-1.2","SS1619743511856","trial","","40","500","739.494999994291","images/stimuli/spore_stims/complex_04_A_a.gif","images/stimuli/spore_stims/complex_06_A_b.gif","forced_short","","9","complex_dissimilar","images/stimuli/spore_stims/complex_06_A_b.gif","","","","",""
"","null","html-keyboard-response","118","1250539","0.0-27.0-0.3","SS1619743511856","","","null","","","","","","<p><img src= images/blank.png width =""600"" height = ""600"" style=""position:fixed;top:50%; left:50%; transform: translate(-50%, -50%); border:5px solid black"">","","","","","","","",""
"","144.95999999786727","sequential-stimulus-presentation-old","119","1251189","0.0-27.0-1.3","SS1619743511856","trial","","40","500","644.9599999978673","images/stimuli/spore_stims/complex_04_A_a.gif","images/stimuli/spore_stims/complex_06_A_b.gif","forced_short","","9","complex_dissimilar","images/stimuli/spore_stims/complex_06_A_b.gif","","","","",""
"","null","html-keyboard-response","120","1252051","0.0-27.0-0.4","SS1619743511856","","","null","","","","","","<p><img src= images/blank.png width =""600"" height = ""600"" style=""position:fixed;top:50%; left:50%; transform: translate(-50%, -50%); border:5px solid black"">","","","","","","","",""
"","198.69499999913387","sequential-stimulus-presentation-old","121","1252755","0.0-27.0-1.4","SS1619743511856","trial","","40","500","698.6949999991339","images/stimuli/spore_stims/complex_04_A_a.gif","images/stimuli/spore_stims/complex_06_A_b.gif","forced_short","","9","complex_dissimilar","images/stimuli/spore_stims/complex_06_A_b.gif","","","","",""
"","2467.9049999976996","survey-multi-choice","122","1255227","0.0-28.0","SS1619743511856","math_question","","","","","","","","","","","","{""Q0"":""14""}","[0]","14","",""
"","null","html-keyboard-response","123","1256193","0.0-29.0-0.0","SS1619743511856","","","null","","","","","","<p><img src= images/blank.png width =""600"" height = ""600"" style=""position:fixed;top:50%; left:50%; transform: translate(-50%, -50%); border:5px solid black"">","","","","","","","",""
"","436.1900000004098","sequential-stimulus-presentation-old","124","1271634","0.0-29.0-1.0","SS1619743511856","trial","","40","500","936.1900000004098","images/stimuli/spore_stims/complex_17_A_a.gif","images/stimuli/spore_stims/complex_13_A_b.gif","forced_long","","10","complex_dissimilar","images/stimuli/spore_stims/complex_13_A_b.gif","","","","",""
"","null","html-keyboard-response","125","1272502","0.0-29.0-0.1","SS1619743511856","","","null","","","","","","<p><img src= images/blank.png width =""600"" height = ""600"" style=""position:fixed;top:50%; left:50%; transform: translate(-50%, -50%); border:5px solid black"">","","","","","","","",""
"","2.039999999338761","sequential-stimulus-presentation-old","126","1273010","0.0-29.0-1.1","SS1619743511856","trial","","40","500","502.03999999933876","images/stimuli/spore_stims/complex_17_A_a.gif","images/stimuli/spore_stims/complex_13_A_b.gif","forced_long","","10","complex_dissimilar","images/stimuli/spore_stims/complex_13_A_b.gif","","","","",""
"","null","html-keyboard-response","127","1273845","0.0-29.0-0.2","SS1619743511856","","","null","","","","","","<p><img src= images/blank.png width =""600"" height = ""600"" style=""position:fixed;top:50%; left:50%; transform: translate(-50%, -50%); border:5px solid black"">","","","","","","","",""
"","226.77500000270084","sequential-stimulus-presentation-old","128","1274576","0.0-29.0-1.2","SS1619743511856","trial","","40","500","726.7750000027008","images/stimuli/spore_stims/complex_17_A_a.gif","images/stimuli/spore_stims/complex_13_A_b.gif","forced_long","","10","complex_dissimilar","images/stimuli/spore_stims/complex_13_A_b.gif","","","","",""
"","null","html-keyboard-response","129","1275742","0.0-29.0-0.3","SS1619743511856","","","null","","","","","","<p><img src= images/blank.png width =""600"" height = ""600"" style=""position:fixed;top:50%; left:50%; transform: translate(-50%, -50%); border:5px solid black"">","","","","","","","",""
"","4424.164999996545","sequential-stimulus-presentation-old","130","1280671","0.0-29.0-1.3","SS1619743511856","trial","","40","500","4924.164999996545","images/stimuli/spore_stims/complex_17_A_a.gif","images/stimuli/spore_stims/complex_13_A_b.gif","forced_long","","10","complex_dissimilar","images/stimuli/spore_stims/complex_17_A_a.gif","","","","",""
"","null","html-keyboard-response","131","1281691","0.0-29.0-0.4","SS1619743511856","","","null","","","","","","<p><img src= images/blank.png width =""600"" height = ""600"" style=""position:fixed;top:50%; left:50%; transform: translate(-50%, -50%); border:5px solid black"">","","","","","","","",""
"","523.3000000007451","sequential-stimulus-presentation-old","132","1282719","0.0-29.0-1.4","SS1619743511856","trial","","40","500","1023.3000000007451","images/stimuli/spore_stims/complex_17_A_a.gif","images/stimuli/spore_stims/complex_13_A_b.gif","forced_long","","10","complex_dissimilar","images/stimuli/spore_stims/complex_17_A_a.gif","","","","",""
"","2223.660000003176","survey-multi-choice","133","1284947","0.0-30.0","SS1619743511856","math_question","","","","","","","","","","","","{""Q0"":""9""}","[0]","9","",""
"","null","html-keyboard-response","134","1286227","0.0-31.0-0.0","SS1619743511856","","","null","","","","","","<p><img src= images/blank.png width =""600"" height = ""600"" style=""position:fixed;top:50%; left:50%; transform: translate(-50%, -50%); border:5px solid black"">","","","","","","","",""
"","15510.470000000903","sequential-stimulus-presentation-old","135","1302243","0.0-31.0-1.0","SS1619743511856","trial","","40","500","16010.470000000903","images/stimuli/spore_stims/complex_16_A_a.gif","images/stimuli/spore_stims/complex_18_A_b.gif","self_paced","","11","complex_dissimilar","images/stimuli/spore_stims/complex_18_A_b.gif","","","","",""
"","null","html-keyboard-response","136","1303170","0.0-31.0-0.1","SS1619743511856","","","null","","","","","","<p><img src= images/blank.png width =""600"" height = ""600"" style=""position:fixed;top:50%; left:50%; transform: translate(-50%, -50%); border:5px solid black"">","","","","","","","",""
"","897.3049999985378","sequential-stimulus-presentation-old","137","1304573","0.0-31.0-1.1","SS1619743511856","trial","","40","500","1397.3049999985378","images/stimuli/spore_stims/complex_16_A_a.gif","images/stimuli/spore_stims/complex_18_A_b.gif","self_paced","","11","complex_dissimilar","images/stimuli/spore_stims/complex_16_A_a.gif","","","","",""
"","null","html-keyboard-response","138","1305737","0.0-31.0-0.2","SS1619743511856","","","null","","","","","","<p><img src= images/blank.png width =""600"" height = ""600"" style=""position:fixed;top:50%; left:50%; transform: translate(-50%, -50%); border:5px solid black"">","","","","","","","",""
"","712.6849999984261","sequential-stimulus-presentation-old","139","1306955","0.0-31.0-1.2","SS1619743511856","trial","","40","500","1212.684999998426","images/stimuli/spore_stims/complex_16_A_a.gif","images/stimuli/spore_stims/complex_18_A_b.gif","self_paced","","11","complex_dissimilar","images/stimuli/spore_stims/complex_16_A_a.gif","","","","",""
"","null","html-keyboard-response","140","1307823","0.0-31.0-0.3","SS1619743511856","","","null","","","","","","<p><img src= images/blank.png width =""600"" height = ""600"" style=""position:fixed;top:50%; left:50%; transform: translate(-50%, -50%); border:5px solid black"">","","","","","","","",""
"","343.6849999995902","sequential-stimulus-presentation-old","141","1308672","0.0-31.0-1.3","SS1619743511856","trial","","40","500","843.6849999995902","images/stimuli/spore_stims/complex_16_A_a.gif","images/stimuli/spore_stims/complex_18_A_b.gif","self_paced","","11","complex_dissimilar","images/stimuli/spore_stims/complex_18_A_b.gif","","","","",""
"[{""page_index"":0,""viewing_time"":23639.95499999891}]","23640.375000002794","instructions","142","1332316","0.0-32.0","SS1619743511856","instructions","","","","","","","","","","","","","","","",""
"","9239.204999998212","survey-likert","143","1341560","0.0-33.0","SS1619743511856","similarity_question","","","","","","","","","","","","{""Q0"":0}","[0]","","images/stimuli/spore_stims/simple_18_A_b.gif","images/stimuli/spore_stims/simple_08_A_a.gif"
"","7574.010000003967","survey-likert","144","1349139","0.0-34.0","SS1619743511856","similarity_question","","","","","","","","","","","","{""Q0"":1}","[0]","","images/stimuli/spore_stims/complex_10_A_a.gif","images/stimuli/spore_stims/complex_05_A_b.gif"
"","7090.179999999236","survey-likert","145","1356234","0.0-35.0","SS1619743511856","similarity_question","","","","","","","","","","","","{""Q0"":2}","[0]","","images/stimuli/spore_stims/simple_11_A_a.gif","images/stimuli/spore_stims/simple_02_A_b.gif"
"","3195.195000000298","survey-likert","146","1359434","0.0-36.0","SS1619743511856","similarity_question","","","","","","","","","","","","{""Q0"":1}","[0]","","images/stimuli/spore_stims/simple_15_A_a.gif","images/stimuli/spore_stims/simple_19_A_b.gif"
"","5667.235000000801","survey-likert","147","1365106","0.0-37.0","SS1619743511856","similarity_question","","","","","","","","","","","","{""Q0"":1}","[0]","","images/stimuli/spore_stims/complex_06_A_b.gif","images/stimuli/spore_stims/complex_04_A_a.gif"
"","2297.1700000050478","survey-likert","148","1367408","0.0-38.0","SS1619743511856","similarity_question","","","","","","","","","","","","{""Q0"":0}","[0]","","images/stimuli/spore_stims/complex_08_A_b.gif","images/stimuli/spore_stims/complex_14_A_a.gif"
"","5056.960000001825","survey-likert","149","1372470","0.0-39.0","SS1619743511856","similarity_question","","","","","","","","","","","","{""Q0"":0}","[0]","","images/stimuli/spore_stims/complex_08_A_a.gif","images/stimuli/spore_stims/complex_10_A_b.gif"
"","4607.1149999988265","survey-likert","150","1377082","0.0-40.0","SS1619743511856","similarity_question","","","","","","","","","","","","{""Q0"":1}","[0]","","images/stimuli/spore_stims/complex_13_A_b.gif","images/stimuli/spore_stims/complex_17_A_a.gif"
"","3798.01000000583","survey-likert","151","1380885","0.0-41.0","SS1619743511856","similarity_question","","","","","","","","","","","","{""Q0"":4}","[0]","","images/stimuli/spore_stims/simple_03_A_b.gif","images/stimuli/spore_stims/simple_09_A_a.gif"
"","2404.0199999944307","survey-likert","152","1383294","0.0-42.0","SS1619743511856","similarity_question","","","","","","","","","","","","{""Q0"":1}","[0]","","images/stimuli/spore_stims/simple_17_A_a.gif","images/stimuli/spore_stims/simple_08_A_b.gif"
"","2693.0349999966566","survey-likert","153","1385992","0.0-43.0","SS1619743511856","similarity_question","","","","","","","","","","","","{""Q0"":2}","[0]","","images/stimuli/spore_stims/simple_10_A_a.gif","images/stimuli/spore_stims/simple_12_A_b.gif"
"","2986.6699999982957","survey-likert","154","1388984","0.0-44.0","SS1619743511856","similarity_question","","","","","","","","","","","","{""Q0"":2}","[0]","","images/stimuli/spore_stims/complex_18_A_b.gif","images/stimuli/spore_stims/complex_16_A_a.gif"
"[{""page_index"":0,""viewing_time"":2617.075000002049}]","2617.239999999758","instructions","155","1391606","0.0-45.0","SS1619743511856","instructions","","","","","","","","","","","","","","","",""
"","6698.524999999674","survey-likert","156","1398309","0.0-46.0","SS1619743511856","","","","","","","","","images/stimuli/spore_stims/simple_18_A_b.gif","","","","{""Q0"":1}","[0]","","",""
"","4773.605000002077","survey-likert","157","1403088","0.0-47.0","SS1619743511856","","","","","","","","","images/stimuli/spore_stims/complex_08_A_a.gif","","","","{""Q0"":4}","[0]","","",""
"","4101.6650000019","survey-likert","158","1407195","0.0-48.0","SS1619743511856","","","","","","","","","images/stimuli/spore_stims/simple_15_A_a.gif","","","","{""Q0"":1}","[0]","","",""
"","4127.829999997513","survey-likert","159","1411328","0.0-49.0","SS1619743511856","","","","","","","","","images/stimuli/spore_stims/complex_04_A_a.gif","","","","{""Q0"":5}","[0]","","",""
"","3825.8649999988265","survey-likert","160","1415159","0.0-50.0","SS1619743511856","","","","","","","","","images/stimuli/spore_stims/simple_10_A_a.gif","","","","{""Q0"":1}","[0]","","",""
"","3874.8549999943934","survey-likert","161","1419039","0.0-51.0","SS1619743511856","","","","","","","","","images/stimuli/spore_stims/simple_09_A_a.gif","","","","{""Q0"":1}","[0]","","",""
"","1942.090000004042","survey-likert","162","1420986","0.0-52.0","SS1619743511856","","","","","","","","","images/stimuli/spore_stims/simple_02_A_b.gif","","","","{""Q0"":0}","[0]","","",""
"","3537.655000000028","survey-likert","163","1424529","0.0-53.0","SS1619743511856","","","","","","","","","images/stimuli/spore_stims/complex_10_A_a.gif","","","","{""Q0"":4}","[0]","","",""
"","3373.724999997532","survey-likert","164","1427908","0.0-54.0","SS1619743511856","","","","","","","","","images/stimuli/spore_stims/complex_16_A_a.gif","","","","{""Q0"":6}","[0]","","",""
"","1858.8349999990314","survey-likert","165","1429772","0.0-55.0","SS1619743511856","","","","","","","","","images/stimuli/spore_stims/simple_17_A_a.gif","","","","{""Q0"":1}","[0]","","",""
"","2418.564999999944","survey-likert","166","1432196","0.0-56.0","SS1619743511856","","","","","","","","","images/stimuli/spore_stims/complex_14_A_a.gif","","","","{""Q0"":5}","[0]","","",""
"","5154.500000004191","survey-likert","167","1437356","0.0-57.0","SS1619743511856","","","","","","","","","images/stimuli/spore_stims/complex_17_A_a.gif","","","","{""Q0"":5}","[0]","","",""
"[{""page_index"":0,""viewing_time"":1513.9949999938253}]","1514.1699999948032","instructions","168","1438875","0.0-58.0","SS1619743511856","instructions","","","","","","","","","","","","","","","",""
"","2294.6149999990594","demog-age","169","1441176","0.0-59.0","SS1619743511856","","","","","","","","","","","","","{""age"":""25""}","","","",""
"","4887.829999999609","demog-ethnic-US","170","1446070","0.0-60.0","SS1619743511856","","","","","","","","","","","","","{""ethnicity"":[""White""]}","[0]","","",""
"","3703.079999999376","demog-gender-and-education","171","1449779","0.0-61.0","SS1619743511856","","","","","","","","","","","","","{""gender"":""Male"",""education"":""Bachelor's Degree""}","[0,1]","","",""
"","46493.5699999989","survey-text","172","1496279","0.0-62.0","SS1619743511856","feedback","","","","","","","","","","","","{""Q0"":""The animation wasn't laggy. However, it was strange to understand when the creatures would disappear or not""}","","","",""
"[{""page_index"":0,""viewing_time"":1753.6200000033714}]","1753.8249999999534","instructions","173","1498038","0.0-63.0","SS1619743511856","instructions","","","","","","","","","","","","","","","",""
