"view_history","rt","trial_type","trial_index","time_elapsed","internal_node_id","subject","stimulus_type","trial_stimulus","key_press","minimum_viewing_duration","trial_looking_time","block_deviant","block_background","exposure_type","stimulus","block_number","block_type","stimulus_displayed","responses","question_order","math_correct_answer","stimulus_left","stimulus_right"
"[{""page_index"":0,""viewing_time"":5169}]","5169","instructions","0","5171","0.0-0.0","SS1619739496757","","","","","","","","","","","","","","","","",""
"[{""page_index"":0,""viewing_time"":1417},{""page_index"":1,""viewing_time"":2907}]","4325","instructions","1","11499","0.0-1.0","SS1619739496757","instructions","","","","","","","","","","","","","","","",""
"","3914","sequential-stimulus-presentation-old","2","15930","0.0-2.0","SS1619739496757","","","40","500","4414","null","null","self_paced","","","","","","","","",""
"","2561","sequential-stimulus-presentation-old","3","18993","0.0-3.0","SS1619739496757","","","40","500","3061","null","null","self_paced","","","","","","","","",""
"[{""page_index"":0,""viewing_time"":15945}]","15945","instructions","4","34938","0.0-4.0","SS1619739496757","instructions","","","","","","","","","","","","","","","",""
"","1077","sequential-stimulus-presentation-old","5","51020","0.0-5.0","SS1619739496757","","","40","500","1577","null","null","forced_long","","","","","","","","",""
"","878","sequential-stimulus-presentation-old","6","52413","0.0-6.0","SS1619739496757","","","40","500","1378","null","null","forced_long","","","","","","","","",""
"[{""page_index"":0,""viewing_time"":30868}]","30868","instructions","7","83281","0.0-7.0","SS1619739496757","instructions","","","","","","","","","","","","","","","",""
"[{""page_index"":0,""viewing_time"":1974},{""page_index"":1,""viewing_time"":6690},{""page_index"":2,""viewing_time"":1036},{""page_index"":3,""viewing_time"":1164},{""page_index"":4,""viewing_time"":990}]","11854","instructions","8","95138","0.0-8.0","SS1619739496757","instructions","","","","","","","","","","","","","","","",""
"","null","html-keyboard-response","9","96297","0.0-9.0-0.0","SS1619739496757","","","null","","","","","","<p><img src= images/blank.png width =""600"" height = ""600"" style=""position:fixed;top:50%; left:50%; transform: translate(-50%, -50%); border:5px solid black"">","","","","","","","",""
"","353","sequential-stimulus-presentation-old","10","97165","0.0-9.0-1.0","SS1619739496757","trial","","40","500","853","images/stimuli/spore_stims/simple_07_A_a.gif","images/stimuli/spore_stims/simple_17_A_b.gif","forced_short","","0","simple_dissimilar","images/stimuli/spore_stims/simple_17_A_b.gif","","","","",""
"","null","html-keyboard-response","11","98266","0.0-9.0-0.1","SS1619739496757","","","null","","","","","","<p><img src= images/blank.png width =""600"" height = ""600"" style=""position:fixed;top:50%; left:50%; transform: translate(-50%, -50%); border:5px solid black"">","","","","","","","",""
"","105","sequential-stimulus-presentation-old","12","98872","0.0-9.0-1.1","SS1619739496757","trial","","40","500","605","images/stimuli/spore_stims/simple_07_A_a.gif","images/stimuli/spore_stims/simple_17_A_b.gif","forced_short","","0","simple_dissimilar","images/stimuli/spore_stims/simple_17_A_b.gif","","","","",""
"","null","html-keyboard-response","13","100035","0.0-9.0-0.2","SS1619739496757","","","null","","","","","","<p><img src= images/blank.png width =""600"" height = ""600"" style=""position:fixed;top:50%; left:50%; transform: translate(-50%, -50%); border:5px solid black"">","","","","","","","",""
"","321","sequential-stimulus-presentation-old","14","100857","0.0-9.0-1.2","SS1619739496757","trial","","40","500","821","images/stimuli/spore_stims/simple_07_A_a.gif","images/stimuli/spore_stims/simple_17_A_b.gif","forced_short","","0","simple_dissimilar","images/stimuli/spore_stims/simple_17_A_b.gif","","","","",""
"","null","html-keyboard-response","15","101722","0.0-9.0-0.3","SS1619739496757","","","null","","","","","","<p><img src= images/blank.png width =""600"" height = ""600"" style=""position:fixed;top:50%; left:50%; transform: translate(-50%, -50%); border:5px solid black"">","","","","","","","",""
"","407","sequential-stimulus-presentation-old","16","102641","0.0-9.0-1.3","SS1619739496757","trial","","40","500","907","images/stimuli/spore_stims/simple_07_A_a.gif","images/stimuli/spore_stims/simple_17_A_b.gif","forced_short","","0","simple_dissimilar","images/stimuli/spore_stims/simple_17_A_b.gif","","","","",""
"","null","html-keyboard-response","17","103845","0.0-9.0-0.4","SS1619739496757","","","null","","","","","","<p><img src= images/blank.png width =""600"" height = ""600"" style=""position:fixed;top:50%; left:50%; transform: translate(-50%, -50%); border:5px solid black"">","","","","","","","",""
"","73","sequential-stimulus-presentation-old","18","104433","0.0-9.0-1.4","SS1619739496757","trial","","40","500","573","images/stimuli/spore_stims/simple_07_A_a.gif","images/stimuli/spore_stims/simple_17_A_b.gif","forced_short","","0","simple_dissimilar","images/stimuli/spore_stims/simple_17_A_b.gif","","","","",""
"","4307","survey-multi-choice","19","108741","0.0-10.0","SS1619739496757","math_question","","","","","","","","","","","","{""Q0"":""15""}","[0]","15","",""
"","null","html-keyboard-response","20","109843","0.0-11.0-0.0","SS1619739496757","","","null","","","","","","<p><img src= images/blank.png width =""600"" height = ""600"" style=""position:fixed;top:50%; left:50%; transform: translate(-50%, -50%); border:5px solid black"">","","","","","","","",""
"","593","sequential-stimulus-presentation-old","21","110953","0.0-11.0-1.0","SS1619739496757","trial","","40","500","1093","images/stimuli/spore_stims/complex_03_A_a.gif","images/stimuli/spore_stims/complex_15_A_b.gif","self_paced","","1","complex_dissimilar","images/stimuli/spore_stims/complex_15_A_b.gif","","","","",""
"","null","html-keyboard-response","22","112029","0.0-11.0-0.1","SS1619739496757","","","null","","","","","","<p><img src= images/blank.png width =""600"" height = ""600"" style=""position:fixed;top:50%; left:50%; transform: translate(-50%, -50%); border:5px solid black"">","","","","","","","",""
"","322","sequential-stimulus-presentation-old","23","112865","0.0-11.0-1.1","SS1619739496757","trial","","40","500","822","images/stimuli/spore_stims/complex_03_A_a.gif","images/stimuli/spore_stims/complex_15_A_b.gif","self_paced","","1","complex_dissimilar","images/stimuli/spore_stims/complex_15_A_b.gif","","","","",""
"","null","html-keyboard-response","24","113965","0.0-11.0-0.2","SS1619739496757","","","null","","","","","","<p><img src= images/blank.png width =""600"" height = ""600"" style=""position:fixed;top:50%; left:50%; transform: translate(-50%, -50%); border:5px solid black"">","","","","","","","",""
"","259","sequential-stimulus-presentation-old","25","114740","0.0-11.0-1.2","SS1619739496757","trial","","40","500","759","images/stimuli/spore_stims/complex_03_A_a.gif","images/stimuli/spore_stims/complex_15_A_b.gif","self_paced","","1","complex_dissimilar","images/stimuli/spore_stims/complex_15_A_b.gif","","","","",""
"","null","html-keyboard-response","26","115762","0.0-11.0-0.3","SS1619739496757","","","null","","","","","","<p><img src= images/blank.png width =""600"" height = ""600"" style=""position:fixed;top:50%; left:50%; transform: translate(-50%, -50%); border:5px solid black"">","","","","","","","",""
"","170","sequential-stimulus-presentation-old","27","116445","0.0-11.0-1.3","SS1619739496757","trial","","40","500","670","images/stimuli/spore_stims/complex_03_A_a.gif","images/stimuli/spore_stims/complex_15_A_b.gif","self_paced","","1","complex_dissimilar","images/stimuli/spore_stims/complex_03_A_a.gif","","","","",""
"","null","html-keyboard-response","28","117603","0.0-11.0-0.4","SS1619739496757","","","null","","","","","","<p><img src= images/blank.png width =""600"" height = ""600"" style=""position:fixed;top:50%; left:50%; transform: translate(-50%, -50%); border:5px solid black"">","","","","","","","",""
"","131","sequential-stimulus-presentation-old","29","118249","0.0-11.0-1.4","SS1619739496757","trial","","40","500","631","images/stimuli/spore_stims/complex_03_A_a.gif","images/stimuli/spore_stims/complex_15_A_b.gif","self_paced","","1","complex_dissimilar","images/stimuli/spore_stims/complex_03_A_a.gif","","","","",""
"","3588","survey-multi-choice","30","121838","0.0-12.0","SS1619739496757","math_question","","","","","","","","","","","","{""Q0"":""7""}","[0]","7","",""
"","null","html-keyboard-response","31","122916","0.0-13.0-0.0","SS1619739496757","","","null","","","","","","<p><img src= images/blank.png width =""600"" height = ""600"" style=""position:fixed;top:50%; left:50%; transform: translate(-50%, -50%); border:5px solid black"">","","","","","","","",""
"","507","sequential-stimulus-presentation-old","32","123933","0.0-13.0-1.0","SS1619739496757","trial","","40","500","1007","images/stimuli/spore_stims/simple_09_A_a.gif","images/stimuli/spore_stims/simple_01_A_b.gif","self_paced","","2","simple_dissimilar","images/stimuli/spore_stims/simple_01_A_b.gif","","","","",""
"","null","html-keyboard-response","33","125159","0.0-13.0-0.1","SS1619739496757","","","null","","","","","","<p><img src= images/blank.png width =""600"" height = ""600"" style=""position:fixed;top:50%; left:50%; transform: translate(-50%, -50%); border:5px solid black"">","","","","","","","",""
"","95","sequential-stimulus-presentation-old","34","125765","0.0-13.0-1.1","SS1619739496757","trial","","40","500","595","images/stimuli/spore_stims/simple_09_A_a.gif","images/stimuli/spore_stims/simple_01_A_b.gif","self_paced","","2","simple_dissimilar","images/stimuli/spore_stims/simple_09_A_a.gif","","","","",""
"","null","html-keyboard-response","35","126873","0.0-13.0-0.2","SS1619739496757","","","null","","","","","","<p><img src= images/blank.png width =""600"" height = ""600"" style=""position:fixed;top:50%; left:50%; transform: translate(-50%, -50%); border:5px solid black"">","","","","","","","",""
"","72","sequential-stimulus-presentation-old","36","127460","0.0-13.0-1.2","SS1619739496757","trial","","40","500","572","images/stimuli/spore_stims/simple_09_A_a.gif","images/stimuli/spore_stims/simple_01_A_b.gif","self_paced","","2","simple_dissimilar","images/stimuli/spore_stims/simple_09_A_a.gif","","","","",""
"","null","html-keyboard-response","37","128562","0.0-13.0-0.3","SS1619739496757","","","null","","","","","","<p><img src= images/blank.png width =""600"" height = ""600"" style=""position:fixed;top:50%; left:50%; transform: translate(-50%, -50%); border:5px solid black"">","","","","","","","",""
"","37","sequential-stimulus-presentation-old","38","129116","0.0-13.0-1.3","SS1619739496757","trial","","40","500","537","images/stimuli/spore_stims/simple_09_A_a.gif","images/stimuli/spore_stims/simple_01_A_b.gif","self_paced","","2","simple_dissimilar","images/stimuli/spore_stims/simple_01_A_b.gif","","","","",""
"","2868","survey-multi-choice","39","131986","0.0-14.0","SS1619739496757","math_question","","","","","","","","","","","","{""Q0"":""18""}","[0]","18","",""
"","null","html-keyboard-response","40","132859","0.0-15.0-0.0","SS1619739496757","","","null","","","","","","<p><img src= images/blank.png width =""600"" height = ""600"" style=""position:fixed;top:50%; left:50%; transform: translate(-50%, -50%); border:5px solid black"">","","","","","","","",""
"","220","sequential-stimulus-presentation-old","41","133594","0.0-15.0-1.0","SS1619739496757","trial","","40","500","720","images/stimuli/spore_stims/simple_08_A_b.gif","images/stimuli/spore_stims/simple_20_A_a.gif","forced_short","","3","simple_dissimilar","images/stimuli/spore_stims/simple_20_A_a.gif","","","","",""
"","null","html-keyboard-response","42","134809","0.0-15.0-0.1","SS1619739496757","","","null","","","","","","<p><img src= images/blank.png width =""600"" height = ""600"" style=""position:fixed;top:50%; left:50%; transform: translate(-50%, -50%); border:5px solid black"">","","","","","","","",""
"","221","sequential-stimulus-presentation-old","43","135548","0.0-15.0-1.1","SS1619739496757","trial","","40","500","721","images/stimuli/spore_stims/simple_08_A_b.gif","images/stimuli/spore_stims/simple_20_A_a.gif","forced_short","","3","simple_dissimilar","images/stimuli/spore_stims/simple_08_A_b.gif","","","","",""
"","null","html-keyboard-response","44","136528","0.0-15.0-0.2","SS1619739496757","","","null","","","","","","<p><img src= images/blank.png width =""600"" height = ""600"" style=""position:fixed;top:50%; left:50%; transform: translate(-50%, -50%); border:5px solid black"">","","","","","","","",""
"","2971","sequential-stimulus-presentation-old","45","140001","0.0-15.0-1.2","SS1619739496757","trial","","40","500","3471","images/stimuli/spore_stims/simple_08_A_b.gif","images/stimuli/spore_stims/simple_20_A_a.gif","forced_short","","3","simple_dissimilar","images/stimuli/spore_stims/simple_20_A_a.gif","","","","",""
"","null","html-keyboard-response","46","141029","0.0-15.0-0.3","SS1619739496757","","","null","","","","","","<p><img src= images/blank.png width =""600"" height = ""600"" style=""position:fixed;top:50%; left:50%; transform: translate(-50%, -50%); border:5px solid black"">","","","","","","","",""
"","2281","sequential-stimulus-presentation-old","47","143824","0.0-15.0-1.3","SS1619739496757","trial","","40","500","2781","images/stimuli/spore_stims/simple_08_A_b.gif","images/stimuli/spore_stims/simple_20_A_a.gif","forced_short","","3","simple_dissimilar","images/stimuli/spore_stims/simple_20_A_a.gif","","","","",""
"","null","html-keyboard-response","48","144758","0.0-15.0-0.4","SS1619739496757","","","null","","","","","","<p><img src= images/blank.png width =""600"" height = ""600"" style=""position:fixed;top:50%; left:50%; transform: translate(-50%, -50%); border:5px solid black"">","","","","","","","",""
"","571","sequential-stimulus-presentation-old","49","145844","0.0-15.0-1.4","SS1619739496757","trial","","40","500","1071","images/stimuli/spore_stims/simple_08_A_b.gif","images/stimuli/spore_stims/simple_20_A_a.gif","forced_short","","3","simple_dissimilar","images/stimuli/spore_stims/simple_20_A_a.gif","","","","",""
"","null","html-keyboard-response","50","146833","0.0-15.0-0.5","SS1619739496757","","","null","","","","","","<p><img src= images/blank.png width =""600"" height = ""600"" style=""position:fixed;top:50%; left:50%; transform: translate(-50%, -50%); border:5px solid black"">","","","","","","","",""
"","967","sequential-stimulus-presentation-old","51","148317","0.0-15.0-1.5","SS1619739496757","trial","","40","500","1467","images/stimuli/spore_stims/simple_08_A_b.gif","images/stimuli/spore_stims/simple_20_A_a.gif","forced_short","","3","simple_dissimilar","images/stimuli/spore_stims/simple_08_A_b.gif","","","","",""
"","2799","survey-multi-choice","52","151118","0.0-16.0","SS1619739496757","math_question","","","","","","","","","","","","{""Q0"":""6""}","[0]","6","",""
"","null","html-keyboard-response","53","152341","0.0-17.0-0.0","SS1619739496757","","","null","","","","","","<p><img src= images/blank.png width =""600"" height = ""600"" style=""position:fixed;top:50%; left:50%; transform: translate(-50%, -50%); border:5px solid black"">","","","","","","","",""
"","656","sequential-stimulus-presentation-old","54","168005","0.0-17.0-1.0","SS1619739496757","trial","","40","500","1156","images/stimuli/spore_stims/complex_14_A_b.gif","images/stimuli/spore_stims/complex_05_A_a.gif","forced_long","","4","complex_dissimilar","images/stimuli/spore_stims/complex_05_A_a.gif","","","","",""
"","null","html-keyboard-response","55","169097","0.0-17.0-0.1","SS1619739496757","","","null","","","","","","<p><img src= images/blank.png width =""600"" height = ""600"" style=""position:fixed;top:50%; left:50%; transform: translate(-50%, -50%); border:5px solid black"">","","","","","","","",""
"","361","sequential-stimulus-presentation-old","56","169973","0.0-17.0-1.1","SS1619739496757","trial","","40","500","861","images/stimuli/spore_stims/complex_14_A_b.gif","images/stimuli/spore_stims/complex_05_A_a.gif","forced_long","","4","complex_dissimilar","images/stimuli/spore_stims/complex_05_A_a.gif","","","","",""
"","null","html-keyboard-response","57","171046","0.0-17.0-0.2","SS1619739496757","","","null","","","","","","<p><img src= images/blank.png width =""600"" height = ""600"" style=""position:fixed;top:50%; left:50%; transform: translate(-50%, -50%); border:5px solid black"">","","","","","","","",""
"","227","sequential-stimulus-presentation-old","58","171789","0.0-17.0-1.2","SS1619739496757","trial","","40","500","727","images/stimuli/spore_stims/complex_14_A_b.gif","images/stimuli/spore_stims/complex_05_A_a.gif","forced_long","","4","complex_dissimilar","images/stimuli/spore_stims/complex_05_A_a.gif","","","","",""
"","null","html-keyboard-response","59","172890","0.0-17.0-0.3","SS1619739496757","","","null","","","","","","<p><img src= images/blank.png width =""600"" height = ""600"" style=""position:fixed;top:50%; left:50%; transform: translate(-50%, -50%); border:5px solid black"">","","","","","","","",""
"","162","sequential-stimulus-presentation-old","60","173566","0.0-17.0-1.3","SS1619739496757","trial","","40","500","662","images/stimuli/spore_stims/complex_14_A_b.gif","images/stimuli/spore_stims/complex_05_A_a.gif","forced_long","","4","complex_dissimilar","images/stimuli/spore_stims/complex_05_A_a.gif","","","","",""
"","null","html-keyboard-response","61","174825","0.0-17.0-0.4","SS1619739496757","","","null","","","","","","<p><img src= images/blank.png width =""600"" height = ""600"" style=""position:fixed;top:50%; left:50%; transform: translate(-50%, -50%); border:5px solid black"">","","","","","","","",""
"","140","sequential-stimulus-presentation-old","62","175480","0.0-17.0-1.4","SS1619739496757","trial","","40","500","640","images/stimuli/spore_stims/complex_14_A_b.gif","images/stimuli/spore_stims/complex_05_A_a.gif","forced_long","","4","complex_dissimilar","images/stimuli/spore_stims/complex_14_A_b.gif","","","","",""
"","null","html-keyboard-response","63","176670","0.0-17.0-0.5","SS1619739496757","","","null","","","","","","<p><img src= images/blank.png width =""600"" height = ""600"" style=""position:fixed;top:50%; left:50%; transform: translate(-50%, -50%); border:5px solid black"">","","","","","","","",""
"","181","sequential-stimulus-presentation-old","64","177365","0.0-17.0-1.5","SS1619739496757","trial","","40","500","681","images/stimuli/spore_stims/complex_14_A_b.gif","images/stimuli/spore_stims/complex_05_A_a.gif","forced_long","","4","complex_dissimilar","images/stimuli/spore_stims/complex_14_A_b.gif","","","","",""
"","4273","survey-multi-choice","65","181640","0.0-18.0","SS1619739496757","math_question","","","","","","","","","","","","{""Q0"":""12""}","[0]","12","",""
"","null","html-keyboard-response","66","182920","0.0-19.0-0.0","SS1619739496757","","","null","","","","","","<p><img src= images/blank.png width =""600"" height = ""600"" style=""position:fixed;top:50%; left:50%; transform: translate(-50%, -50%); border:5px solid black"">","","","","","","","",""
"","651","sequential-stimulus-presentation-old","67","198577","0.0-19.0-1.0","SS1619739496757","trial","","40","500","1151","images/stimuli/spore_stims/simple_16_A_a.gif","images/stimuli/spore_stims/simple_12_A_b.gif","forced_long","","5","simple_dissimilar","images/stimuli/spore_stims/simple_12_A_b.gif","","","","",""
"","null","html-keyboard-response","68","199394","0.0-19.0-0.1","SS1619739496757","","","null","","","","","","<p><img src= images/blank.png width =""600"" height = ""600"" style=""position:fixed;top:50%; left:50%; transform: translate(-50%, -50%); border:5px solid black"">","","","","","","","",""
"","492","sequential-stimulus-presentation-old","69","200401","0.0-19.0-1.1","SS1619739496757","trial","","40","500","992","images/stimuli/spore_stims/simple_16_A_a.gif","images/stimuli/spore_stims/simple_12_A_b.gif","forced_long","","5","simple_dissimilar","images/stimuli/spore_stims/simple_12_A_b.gif","","","","",""
"","null","html-keyboard-response","70","201459","0.0-19.0-0.2","SS1619739496757","","","null","","","","","","<p><img src= images/blank.png width =""600"" height = ""600"" style=""position:fixed;top:50%; left:50%; transform: translate(-50%, -50%); border:5px solid black"">","","","","","","","",""
"","271","sequential-stimulus-presentation-old","71","202245","0.0-19.0-1.2","SS1619739496757","trial","","40","500","771","images/stimuli/spore_stims/simple_16_A_a.gif","images/stimuli/spore_stims/simple_12_A_b.gif","forced_long","","5","simple_dissimilar","images/stimuli/spore_stims/simple_12_A_b.gif","","","","",""
"","null","html-keyboard-response","72","203446","0.0-19.0-0.3","SS1619739496757","","","null","","","","","","<p><img src= images/blank.png width =""600"" height = ""600"" style=""position:fixed;top:50%; left:50%; transform: translate(-50%, -50%); border:5px solid black"">","","","","","","","",""
"","94","sequential-stimulus-presentation-old","73","204053","0.0-19.0-1.3","SS1619739496757","trial","","40","500","594","images/stimuli/spore_stims/simple_16_A_a.gif","images/stimuli/spore_stims/simple_12_A_b.gif","forced_long","","5","simple_dissimilar","images/stimuli/spore_stims/simple_16_A_a.gif","","","","",""
"","4399","survey-multi-choice","74","208453","0.0-20.0","SS1619739496757","math_question","","","","","","","","","","","","{""Q0"":""3""}","[0]","3","",""
"","null","html-keyboard-response","75","209502","0.0-21.0-0.0","SS1619739496757","","","null","","","","","","<p><img src= images/blank.png width =""600"" height = ""600"" style=""position:fixed;top:50%; left:50%; transform: translate(-50%, -50%); border:5px solid black"">","","","","","","","",""
"","602","sequential-stimulus-presentation-old","76","225109","0.0-21.0-1.0","SS1619739496757","trial","","40","500","1102","images/stimuli/spore_stims/simple_08_A_a.gif","images/stimuli/spore_stims/simple_16_A_b.gif","forced_long","","6","simple_dissimilar","images/stimuli/spore_stims/simple_16_A_b.gif","","","","",""
"","null","html-keyboard-response","77","226390","0.0-21.0-0.1","SS1619739496757","","","null","","","","","","<p><img src= images/blank.png width =""600"" height = ""600"" style=""position:fixed;top:50%; left:50%; transform: translate(-50%, -50%); border:5px solid black"">","","","","","","","",""
"","26","sequential-stimulus-presentation-old","78","226933","0.0-21.0-1.1","SS1619739496757","trial","","40","500","526","images/stimuli/spore_stims/simple_08_A_a.gif","images/stimuli/spore_stims/simple_16_A_b.gif","forced_long","","6","simple_dissimilar","images/stimuli/spore_stims/simple_08_A_a.gif","","","","",""
"","null","html-keyboard-response","79","228015","0.0-21.0-0.2","SS1619739496757","","","null","","","","","","<p><img src= images/blank.png width =""600"" height = ""600"" style=""position:fixed;top:50%; left:50%; transform: translate(-50%, -50%); border:5px solid black"">","","","","","","","",""
"","351","sequential-stimulus-presentation-old","80","228881","0.0-21.0-1.2","SS1619739496757","trial","","40","500","851","images/stimuli/spore_stims/simple_08_A_a.gif","images/stimuli/spore_stims/simple_16_A_b.gif","forced_long","","6","simple_dissimilar","images/stimuli/spore_stims/simple_16_A_b.gif","","","","",""
"","null","html-keyboard-response","81","230104","0.0-21.0-0.3","SS1619739496757","","","null","","","","","","<p><img src= images/blank.png width =""600"" height = ""600"" style=""position:fixed;top:50%; left:50%; transform: translate(-50%, -50%); border:5px solid black"">","","","","","","","",""
"","1948","sequential-stimulus-presentation-old","82","232565","0.0-21.0-1.3","SS1619739496757","trial","","40","500","2448","images/stimuli/spore_stims/simple_08_A_a.gif","images/stimuli/spore_stims/simple_16_A_b.gif","forced_long","","6","simple_dissimilar","images/stimuli/spore_stims/simple_16_A_b.gif","","","","",""
"","null","html-keyboard-response","83","233680","0.0-21.0-0.4","SS1619739496757","","","null","","","","","","<p><img src= images/blank.png width =""600"" height = ""600"" style=""position:fixed;top:50%; left:50%; transform: translate(-50%, -50%); border:5px solid black"">","","","","","","","",""
"","290","sequential-stimulus-presentation-old","84","234473","0.0-21.0-1.4","SS1619739496757","trial","","40","500","790","images/stimuli/spore_stims/simple_08_A_a.gif","images/stimuli/spore_stims/simple_16_A_b.gif","forced_long","","6","simple_dissimilar","images/stimuli/spore_stims/simple_16_A_b.gif","","","","",""
"","null","html-keyboard-response","85","235288","0.0-21.0-0.5","SS1619739496757","","","null","","","","","","<p><img src= images/blank.png width =""600"" height = ""600"" style=""position:fixed;top:50%; left:50%; transform: translate(-50%, -50%); border:5px solid black"">","","","","","","","",""
"","153","sequential-stimulus-presentation-old","86","235945","0.0-21.0-1.5","SS1619739496757","trial","","40","500","653","images/stimuli/spore_stims/simple_08_A_a.gif","images/stimuli/spore_stims/simple_16_A_b.gif","forced_long","","6","simple_dissimilar","images/stimuli/spore_stims/simple_16_A_b.gif","","","","",""
"","3653","survey-multi-choice","87","239600","0.0-22.0","SS1619739496757","math_question","","","","","","","","","","","","{""Q0"":""4""}","[0]","4","",""
"","null","html-keyboard-response","88","240750","0.0-23.0-0.0","SS1619739496757","","","null","","","","","","<p><img src= images/blank.png width =""600"" height = ""600"" style=""position:fixed;top:50%; left:50%; transform: translate(-50%, -50%); border:5px solid black"">","","","","","","","",""
"","3143","sequential-stimulus-presentation-old","89","244409","0.0-23.0-1.0","SS1619739496757","trial","","40","500","3643","images/stimuli/spore_stims/complex_06_A_b.gif","images/stimuli/spore_stims/complex_02_A_a.gif","forced_short","","7","complex_dissimilar","images/stimuli/spore_stims/complex_02_A_a.gif","","","","",""
"","null","html-keyboard-response","90","245297","0.0-23.0-0.1","SS1619739496757","","","null","","","","","","<p><img src= images/blank.png width =""600"" height = ""600"" style=""position:fixed;top:50%; left:50%; transform: translate(-50%, -50%); border:5px solid black"">","","","","","","","",""
"","226","sequential-stimulus-presentation-old","91","246037","0.0-23.0-1.1","SS1619739496757","trial","","40","500","726","images/stimuli/spore_stims/complex_06_A_b.gif","images/stimuli/spore_stims/complex_02_A_a.gif","forced_short","","7","complex_dissimilar","images/stimuli/spore_stims/complex_02_A_a.gif","","","","",""
"","null","html-keyboard-response","92","247251","0.0-23.0-0.2","SS1619739496757","","","null","","","","","","<p><img src= images/blank.png width =""600"" height = ""600"" style=""position:fixed;top:50%; left:50%; transform: translate(-50%, -50%); border:5px solid black"">","","","","","","","",""
"","621","sequential-stimulus-presentation-old","93","248385","0.0-23.0-1.2","SS1619739496757","trial","","40","500","1121","images/stimuli/spore_stims/complex_06_A_b.gif","images/stimuli/spore_stims/complex_02_A_a.gif","forced_short","","7","complex_dissimilar","images/stimuli/spore_stims/complex_02_A_a.gif","","","","",""
"","null","html-keyboard-response","94","249340","0.0-23.0-0.3","SS1619739496757","","","null","","","","","","<p><img src= images/blank.png width =""600"" height = ""600"" style=""position:fixed;top:50%; left:50%; transform: translate(-50%, -50%); border:5px solid black"">","","","","","","","",""
"","2255","sequential-stimulus-presentation-old","95","252108","0.0-23.0-1.3","SS1619739496757","trial","","40","500","2755","images/stimuli/spore_stims/complex_06_A_b.gif","images/stimuli/spore_stims/complex_02_A_a.gif","forced_short","","7","complex_dissimilar","images/stimuli/spore_stims/complex_06_A_b.gif","","","","",""
"","null","html-keyboard-response","96","253326","0.0-23.0-0.4","SS1619739496757","","","null","","","","","","<p><img src= images/blank.png width =""600"" height = ""600"" style=""position:fixed;top:50%; left:50%; transform: translate(-50%, -50%); border:5px solid black"">","","","","","","","",""
"","232","sequential-stimulus-presentation-old","97","254073","0.0-23.0-1.4","SS1619739496757","trial","","40","500","732","images/stimuli/spore_stims/complex_06_A_b.gif","images/stimuli/spore_stims/complex_02_A_a.gif","forced_short","","7","complex_dissimilar","images/stimuli/spore_stims/complex_06_A_b.gif","","","","",""
"","null","html-keyboard-response","98","255027","0.0-23.0-0.5","SS1619739496757","","","null","","","","","","<p><img src= images/blank.png width =""600"" height = ""600"" style=""position:fixed;top:50%; left:50%; transform: translate(-50%, -50%); border:5px solid black"">","","","","","","","",""
"","949","sequential-stimulus-presentation-old","99","256493","0.0-23.0-1.5","SS1619739496757","trial","","40","500","1449","images/stimuli/spore_stims/complex_06_A_b.gif","images/stimuli/spore_stims/complex_02_A_a.gif","forced_short","","7","complex_dissimilar","images/stimuli/spore_stims/complex_02_A_a.gif","","","","",""
"","2743","survey-multi-choice","100","259237","0.0-24.0","SS1619739496757","math_question","","","","","","","","","","","","{""Q0"":""12""}","[0]","12","",""
"","null","html-keyboard-response","101","260410","0.0-25.0-0.0","SS1619739496757","","","null","","","","","","<p><img src= images/blank.png width =""600"" height = ""600"" style=""position:fixed;top:50%; left:50%; transform: translate(-50%, -50%); border:5px solid black"">","","","","","","","",""
"","791","sequential-stimulus-presentation-old","102","276217","0.0-25.0-1.0","SS1619739496757","trial","","40","500","1291","images/stimuli/spore_stims/complex_18_A_b.gif","images/stimuli/spore_stims/complex_11_A_a.gif","forced_long","","8","complex_dissimilar","images/stimuli/spore_stims/complex_11_A_a.gif","","","","",""
"","null","html-keyboard-response","103","277488","0.0-25.0-0.1","SS1619739496757","","","null","","","","","","<p><img src= images/blank.png width =""600"" height = ""600"" style=""position:fixed;top:50%; left:50%; transform: translate(-50%, -50%); border:5px solid black"">","","","","","","","",""
"","365","sequential-stimulus-presentation-old","104","278365","0.0-25.0-1.1","SS1619739496757","trial","","40","500","865","images/stimuli/spore_stims/complex_18_A_b.gif","images/stimuli/spore_stims/complex_11_A_a.gif","forced_long","","8","complex_dissimilar","images/stimuli/spore_stims/complex_11_A_a.gif","","","","",""
"","null","html-keyboard-response","105","279391","0.0-25.0-0.2","SS1619739496757","","","null","","","","","","<p><img src= images/blank.png width =""600"" height = ""600"" style=""position:fixed;top:50%; left:50%; transform: translate(-50%, -50%); border:5px solid black"">","","","","","","","",""
"","153","sequential-stimulus-presentation-old","106","280046","0.0-25.0-1.2","SS1619739496757","trial","","40","500","653","images/stimuli/spore_stims/complex_18_A_b.gif","images/stimuli/spore_stims/complex_11_A_a.gif","forced_long","","8","complex_dissimilar","images/stimuli/spore_stims/complex_11_A_a.gif","","","","",""
"","null","html-keyboard-response","107","281349","0.0-25.0-0.3","SS1619739496757","","","null","","","","","","<p><img src= images/blank.png width =""600"" height = ""600"" style=""position:fixed;top:50%; left:50%; transform: translate(-50%, -50%); border:5px solid black"">","","","","","","","",""
"","223","sequential-stimulus-presentation-old","108","282073","0.0-25.0-1.3","SS1619739496757","trial","","40","500","723","images/stimuli/spore_stims/complex_18_A_b.gif","images/stimuli/spore_stims/complex_11_A_a.gif","forced_long","","8","complex_dissimilar","images/stimuli/spore_stims/complex_11_A_a.gif","","","","",""
"","5090","survey-multi-choice","109","287166","0.0-26.0","SS1619739496757","math_question","","","","","","","","","","","","{""Q0"":""6""}","[0]","6","",""
"","null","html-keyboard-response","110","288194","0.0-27.0-0.0","SS1619739496757","","","null","","","","","","<p><img src= images/blank.png width =""600"" height = ""600"" style=""position:fixed;top:50%; left:50%; transform: translate(-50%, -50%); border:5px solid black"">","","","","","","","",""
"","164","sequential-stimulus-presentation-old","111","288874","0.0-27.0-1.0","SS1619739496757","trial","","40","500","664","images/stimuli/spore_stims/simple_03_A_a.gif","images/stimuli/spore_stims/simple_20_A_b.gif","self_paced","","9","simple_dissimilar","images/stimuli/spore_stims/simple_20_A_b.gif","","","","",""
"","null","html-keyboard-response","112","289803","0.0-27.0-0.1","SS1619739496757","","","null","","","","","","<p><img src= images/blank.png width =""600"" height = ""600"" style=""position:fixed;top:50%; left:50%; transform: translate(-50%, -50%); border:5px solid black"">","","","","","","","",""
"","75","sequential-stimulus-presentation-old","113","290393","0.0-27.0-1.1","SS1619739496757","trial","","40","500","575","images/stimuli/spore_stims/simple_03_A_a.gif","images/stimuli/spore_stims/simple_20_A_b.gif","self_paced","","9","simple_dissimilar","images/stimuli/spore_stims/simple_20_A_b.gif","","","","",""
"","null","html-keyboard-response","114","291562","0.0-27.0-0.2","SS1619739496757","","","null","","","","","","<p><img src= images/blank.png width =""600"" height = ""600"" style=""position:fixed;top:50%; left:50%; transform: translate(-50%, -50%); border:5px solid black"">","","","","","","","",""
"","88","sequential-stimulus-presentation-old","115","292154","0.0-27.0-1.2","SS1619739496757","trial","","40","500","588","images/stimuli/spore_stims/simple_03_A_a.gif","images/stimuli/spore_stims/simple_20_A_b.gif","self_paced","","9","simple_dissimilar","images/stimuli/spore_stims/simple_03_A_a.gif","","","","",""
"","null","html-keyboard-response","116","293328","0.0-27.0-0.3","SS1619739496757","","","null","","","","","","<p><img src= images/blank.png width =""600"" height = ""600"" style=""position:fixed;top:50%; left:50%; transform: translate(-50%, -50%); border:5px solid black"">","","","","","","","",""
"","183","sequential-stimulus-presentation-old","117","294029","0.0-27.0-1.3","SS1619739496757","trial","","40","500","683","images/stimuli/spore_stims/simple_03_A_a.gif","images/stimuli/spore_stims/simple_20_A_b.gif","self_paced","","9","simple_dissimilar","images/stimuli/spore_stims/simple_20_A_b.gif","","","","",""
"","null","html-keyboard-response","118","294981","0.0-27.0-0.4","SS1619739496757","","","null","","","","","","<p><img src= images/blank.png width =""600"" height = ""600"" style=""position:fixed;top:50%; left:50%; transform: translate(-50%, -50%); border:5px solid black"">","","","","","","","",""
"","323","sequential-stimulus-presentation-old","119","295821","0.0-27.0-1.4","SS1619739496757","trial","","40","500","823","images/stimuli/spore_stims/simple_03_A_a.gif","images/stimuli/spore_stims/simple_20_A_b.gif","self_paced","","9","simple_dissimilar","images/stimuli/spore_stims/simple_20_A_b.gif","","","","",""
"","null","html-keyboard-response","120","296877","0.0-27.0-0.5","SS1619739496757","","","null","","","","","","<p><img src= images/blank.png width =""600"" height = ""600"" style=""position:fixed;top:50%; left:50%; transform: translate(-50%, -50%); border:5px solid black"">","","","","","","","",""
"","304","sequential-stimulus-presentation-old","121","297697","0.0-27.0-1.5","SS1619739496757","trial","","40","500","804","images/stimuli/spore_stims/simple_03_A_a.gif","images/stimuli/spore_stims/simple_20_A_b.gif","self_paced","","9","simple_dissimilar","images/stimuli/spore_stims/simple_03_A_a.gif","","","","",""
"","3084","survey-multi-choice","122","300783","0.0-28.0","SS1619739496757","math_question","","","","","","","","","","","","{""Q0"":""11""}","[0]","11","",""
"","null","html-keyboard-response","123","302056","0.0-29.0-0.0","SS1619739496757","","","null","","","","","","<p><img src= images/blank.png width =""600"" height = ""600"" style=""position:fixed;top:50%; left:50%; transform: translate(-50%, -50%); border:5px solid black"">","","","","","","","",""
"","79","sequential-stimulus-presentation-old","124","302649","0.0-29.0-1.0","SS1619739496757","trial","","40","500","579","images/stimuli/spore_stims/complex_19_A_b.gif","images/stimuli/spore_stims/complex_01_A_a.gif","self_paced","","10","complex_dissimilar","images/stimuli/spore_stims/complex_01_A_a.gif","","","","",""
"","null","html-keyboard-response","125","303647","0.0-29.0-0.1","SS1619739496757","","","null","","","","","","<p><img src= images/blank.png width =""600"" height = ""600"" style=""position:fixed;top:50%; left:50%; transform: translate(-50%, -50%); border:5px solid black"">","","","","","","","",""
"","306","sequential-stimulus-presentation-old","126","304469","0.0-29.0-1.1","SS1619739496757","trial","","40","500","806","images/stimuli/spore_stims/complex_19_A_b.gif","images/stimuli/spore_stims/complex_01_A_a.gif","self_paced","","10","complex_dissimilar","images/stimuli/spore_stims/complex_01_A_a.gif","","","","",""
"","null","html-keyboard-response","127","305443","0.0-29.0-0.2","SS1619739496757","","","null","","","","","","<p><img src= images/blank.png width =""600"" height = ""600"" style=""position:fixed;top:50%; left:50%; transform: translate(-50%, -50%); border:5px solid black"">","","","","","","","",""
"","351","sequential-stimulus-presentation-old","128","306305","0.0-29.0-1.2","SS1619739496757","trial","","40","500","851","images/stimuli/spore_stims/complex_19_A_b.gif","images/stimuli/spore_stims/complex_01_A_a.gif","self_paced","","10","complex_dissimilar","images/stimuli/spore_stims/complex_01_A_a.gif","","","","",""
"","null","html-keyboard-response","129","307454","0.0-29.0-0.3","SS1619739496757","","","null","","","","","","<p><img src= images/blank.png width =""600"" height = ""600"" style=""position:fixed;top:50%; left:50%; transform: translate(-50%, -50%); border:5px solid black"">","","","","","","","",""
"","869","sequential-stimulus-presentation-old","130","308841","0.0-29.0-1.3","SS1619739496757","trial","","40","500","1369","images/stimuli/spore_stims/complex_19_A_b.gif","images/stimuli/spore_stims/complex_01_A_a.gif","self_paced","","10","complex_dissimilar","images/stimuli/spore_stims/complex_01_A_a.gif","","","","",""
"","null","html-keyboard-response","131","309892","0.0-29.0-0.4","SS1619739496757","","","null","","","","","","<p><img src= images/blank.png width =""600"" height = ""600"" style=""position:fixed;top:50%; left:50%; transform: translate(-50%, -50%); border:5px solid black"">","","","","","","","",""
"","264","sequential-stimulus-presentation-old","132","310673","0.0-29.0-1.4","SS1619739496757","trial","","40","500","764","images/stimuli/spore_stims/complex_19_A_b.gif","images/stimuli/spore_stims/complex_01_A_a.gif","self_paced","","10","complex_dissimilar","images/stimuli/spore_stims/complex_19_A_b.gif","","","","",""
"","null","html-keyboard-response","133","311658","0.0-29.0-0.5","SS1619739496757","","","null","","","","","","<p><img src= images/blank.png width =""600"" height = ""600"" style=""position:fixed;top:50%; left:50%; transform: translate(-50%, -50%); border:5px solid black"">","","","","","","","",""
"","313","sequential-stimulus-presentation-old","134","312485","0.0-29.0-1.5","SS1619739496757","trial","","40","500","813","images/stimuli/spore_stims/complex_19_A_b.gif","images/stimuli/spore_stims/complex_01_A_a.gif","self_paced","","10","complex_dissimilar","images/stimuli/spore_stims/complex_01_A_a.gif","","","","",""
"","3235","survey-multi-choice","135","315722","0.0-30.0","SS1619739496757","math_question","","","","","","","","","","","","{""Q0"":""11""}","[0]","11","",""
"","null","html-keyboard-response","136","317001","0.0-31.0-0.0","SS1619739496757","","","null","","","","","","<p><img src= images/blank.png width =""600"" height = ""600"" style=""position:fixed;top:50%; left:50%; transform: translate(-50%, -50%); border:5px solid black"">","","","","","","","",""
"","423","sequential-stimulus-presentation-old","137","317937","0.0-31.0-1.0","SS1619739496757","trial","","40","500","923","images/stimuli/spore_stims/complex_16_A_b.gif","images/stimuli/spore_stims/complex_17_A_a.gif","forced_short","","11","complex_dissimilar","images/stimuli/spore_stims/complex_17_A_a.gif","","","","",""
"","null","html-keyboard-response","138","319077","0.0-31.0-0.1","SS1619739496757","","","null","","","","","","<p><img src= images/blank.png width =""600"" height = ""600"" style=""position:fixed;top:50%; left:50%; transform: translate(-50%, -50%); border:5px solid black"">","","","","","","","",""
"","1113","sequential-stimulus-presentation-old","139","320705","0.0-31.0-1.1","SS1619739496757","trial","","40","500","1613","images/stimuli/spore_stims/complex_16_A_b.gif","images/stimuli/spore_stims/complex_17_A_a.gif","forced_short","","11","complex_dissimilar","images/stimuli/spore_stims/complex_17_A_a.gif","","","","",""
"","null","html-keyboard-response","140","322001","0.0-31.0-0.2","SS1619739496757","","","null","","","","","","<p><img src= images/blank.png width =""600"" height = ""600"" style=""position:fixed;top:50%; left:50%; transform: translate(-50%, -50%); border:5px solid black"">","","","","","","","",""
"","22","sequential-stimulus-presentation-old","141","322537","0.0-31.0-1.2","SS1619739496757","trial","","40","500","522","images/stimuli/spore_stims/complex_16_A_b.gif","images/stimuli/spore_stims/complex_17_A_a.gif","forced_short","","11","complex_dissimilar","images/stimuli/spore_stims/complex_17_A_a.gif","","","","",""
"","null","html-keyboard-response","142","323484","0.0-31.0-0.3","SS1619739496757","","","null","","","","","","<p><img src= images/blank.png width =""600"" height = ""600"" style=""position:fixed;top:50%; left:50%; transform: translate(-50%, -50%); border:5px solid black"">","","","","","","","",""
"","560","sequential-stimulus-presentation-old","143","324558","0.0-31.0-1.3","SS1619739496757","trial","","40","500","1060","images/stimuli/spore_stims/complex_16_A_b.gif","images/stimuli/spore_stims/complex_17_A_a.gif","forced_short","","11","complex_dissimilar","images/stimuli/spore_stims/complex_17_A_a.gif","","","","",""
"","null","html-keyboard-response","144","325376","0.0-31.0-0.4","SS1619739496757","","","null","","","","","","<p><img src= images/blank.png width =""600"" height = ""600"" style=""position:fixed;top:50%; left:50%; transform: translate(-50%, -50%); border:5px solid black"">","","","","","","","",""
"","70","sequential-stimulus-presentation-old","145","325961","0.0-31.0-1.4","SS1619739496757","trial","","40","500","570","images/stimuli/spore_stims/complex_16_A_b.gif","images/stimuli/spore_stims/complex_17_A_a.gif","forced_short","","11","complex_dissimilar","images/stimuli/spore_stims/complex_17_A_a.gif","","","","",""
"","null","html-keyboard-response","146","326902","0.0-31.0-0.5","SS1619739496757","","","null","","","","","","<p><img src= images/blank.png width =""600"" height = ""600"" style=""position:fixed;top:50%; left:50%; transform: translate(-50%, -50%); border:5px solid black"">","","","","","","","",""
"","1048","sequential-stimulus-presentation-old","147","328465","0.0-31.0-1.5","SS1619739496757","trial","","40","500","1548","images/stimuli/spore_stims/complex_16_A_b.gif","images/stimuli/spore_stims/complex_17_A_a.gif","forced_short","","11","complex_dissimilar","images/stimuli/spore_stims/complex_16_A_b.gif","","","","",""
"[{""page_index"":0,""viewing_time"":5377}]","5377","instructions","148","333844","0.0-32.0","SS1619739496757","instructions","","","","","","","","","","","","","","","",""
"","5464","survey-likert","149","339312","0.0-33.0","SS1619739496757","similarity_question","","","","","","","","","","","","{""Q0"":2}","[0]","","images/stimuli/spore_stims/simple_16_A_a.gif","images/stimuli/spore_stims/simple_12_A_b.gif"
"","11265","survey-likert","150","350580","0.0-34.0","SS1619739496757","similarity_question","","","","","","","","","","","","{""Q0"":0}","[0]","","images/stimuli/spore_stims/complex_02_A_a.gif","images/stimuli/spore_stims/complex_06_A_b.gif"
"","3246","survey-likert","151","353829","0.0-35.0","SS1619739496757","similarity_question","","","","","","","","","","","","{""Q0"":5}","[0]","","images/stimuli/spore_stims/simple_01_A_b.gif","images/stimuli/spore_stims/simple_09_A_a.gif"
"","4450","survey-likert","152","358284","0.0-36.0","SS1619739496757","similarity_question","","","","","","","","","","","","{""Q0"":5}","[0]","","images/stimuli/spore_stims/simple_16_A_b.gif","images/stimuli/spore_stims/simple_08_A_a.gif"
"","3019","survey-likert","153","361308","0.0-37.0","SS1619739496757","similarity_question","","","","","","","","","","","","{""Q0"":4}","[0]","","images/stimuli/spore_stims/complex_19_A_b.gif","images/stimuli/spore_stims/complex_01_A_a.gif"
"","6867","survey-likert","154","368177","0.0-38.0","SS1619739496757","similarity_question","","","","","","","","","","","","{""Q0"":1}","[0]","","images/stimuli/spore_stims/complex_03_A_a.gif","images/stimuli/spore_stims/complex_15_A_b.gif"
"","4794","survey-likert","155","372974","0.0-39.0","SS1619739496757","similarity_question","","","","","","","","","","","","{""Q0"":4}","[0]","","images/stimuli/spore_stims/simple_07_A_a.gif","images/stimuli/spore_stims/simple_17_A_b.gif"
"","3569","survey-likert","156","376546","0.0-40.0","SS1619739496757","similarity_question","","","","","","","","","","","","{""Q0"":2}","[0]","","images/stimuli/spore_stims/complex_11_A_a.gif","images/stimuli/spore_stims/complex_18_A_b.gif"
"","2676","survey-likert","157","379226","0.0-41.0","SS1619739496757","similarity_question","","","","","","","","","","","","{""Q0"":1}","[0]","","images/stimuli/spore_stims/complex_05_A_a.gif","images/stimuli/spore_stims/complex_14_A_b.gif"
"","3281","survey-likert","158","382510","0.0-42.0","SS1619739496757","similarity_question","","","","","","","","","","","","{""Q0"":4}","[0]","","images/stimuli/spore_stims/simple_20_A_b.gif","images/stimuli/spore_stims/simple_03_A_a.gif"
"","4188","survey-likert","159","386700","0.0-43.0","SS1619739496757","similarity_question","","","","","","","","","","","","{""Q0"":4}","[0]","","images/stimuli/spore_stims/complex_17_A_a.gif","images/stimuli/spore_stims/complex_16_A_b.gif"
"","1927","survey-likert","160","388629","0.0-44.0","SS1619739496757","similarity_question","","","","","","","","","","","","{""Q0"":4}","[0]","","images/stimuli/spore_stims/simple_20_A_a.gif","images/stimuli/spore_stims/simple_08_A_b.gif"
"[{""page_index"":0,""viewing_time"":2892}]","2892","instructions","161","391525","0.0-45.0","SS1619739496757","instructions","","","","","","","","","","","","","","","",""
"","6893","survey-likert","162","398421","0.0-46.0","SS1619739496757","","","","","","","","","images/stimuli/spore_stims/simple_07_A_a.gif","","","","{""Q0"":1}","[0]","","",""
"","11392","survey-likert","163","409817","0.0-47.0","SS1619739496757","","","","","","","","","images/stimuli/spore_stims/complex_15_A_b.gif","","","","{""Q0"":5}","[0]","","",""
"","2409","survey-likert","164","412230","0.0-48.0","SS1619739496757","","","","","","","","","images/stimuli/spore_stims/complex_17_A_a.gif","","","","{""Q0"":5}","[0]","","",""
"","2099","survey-likert","165","414333","0.0-49.0","SS1619739496757","","","","","","","","","images/stimuli/spore_stims/complex_11_A_a.gif","","","","{""Q0"":5}","[0]","","",""
"","4842","survey-likert","166","419178","0.0-50.0","SS1619739496757","","","","","","","","","images/stimuli/spore_stims/simple_12_A_b.gif","","","","{""Q0"":1}","[0]","","",""
"","9531","survey-likert","167","428713","0.0-51.0","SS1619739496757","","","","","","","","","images/stimuli/spore_stims/complex_01_A_a.gif","","","","{""Q0"":5}","[0]","","",""
"","2900","survey-likert","168","431617","0.0-52.0","SS1619739496757","","","","","","","","","images/stimuli/spore_stims/simple_08_A_b.gif","","","","{""Q0"":1}","[0]","","",""
"","3449","survey-likert","169","435070","0.0-53.0","SS1619739496757","","","","","","","","","images/stimuli/spore_stims/simple_03_A_a.gif","","","","{""Q0"":1}","[0]","","",""
"","2647","survey-likert","170","437721","0.0-54.0","SS1619739496757","","","","","","","","","images/stimuli/spore_stims/complex_06_A_b.gif","","","","{""Q0"":5}","[0]","","",""
"","3082","survey-likert","171","440805","0.0-55.0","SS1619739496757","","","","","","","","","images/stimuli/spore_stims/simple_16_A_b.gif","","","","{""Q0"":2}","[0]","","",""
"","2746","survey-likert","172","443555","0.0-56.0","SS1619739496757","","","","","","","","","images/stimuli/spore_stims/simple_09_A_a.gif","","","","{""Q0"":1}","[0]","","",""
"","2571","survey-likert","173","446130","0.0-57.0","SS1619739496757","","","","","","","","","images/stimuli/spore_stims/complex_05_A_a.gif","","","","{""Q0"":4}","[0]","","",""
"[{""page_index"":0,""viewing_time"":1954}]","1954","instructions","174","448088","0.0-58.0","SS1619739496757","instructions","","","","","","","","","","","","","","","",""
"","4304","demog-age","175","452396","0.0-59.0","SS1619739496757","","","","","","","","","","","","","{""age"":""26""}","","","",""
"","2679","demog-ethnic-US","176","455080","0.0-60.0","SS1619739496757","","","","","","","","","","","","","{""ethnicity"":[""White""]}","[0]","","",""
"","7615","demog-gender-and-education","177","462698","0.0-61.0","SS1619739496757","","","","","","","","","","","","","{""gender"":""Male"",""education"":""High school diploma""}","[0,1]","","",""
"","8331","survey-text","178","471032","0.0-62.0","SS1619739496757","feedback","","","","","","","","","","","","{""Q0"":""No""}","","","",""
"[{""page_index"":0,""viewing_time"":1441}]","1441","instructions","179","472476","0.0-63.0","SS1619739496757","instructions","","","","","","","","","","","","","","","",""
