"view_history","rt","trial_type","trial_index","time_elapsed","internal_node_id","subject","stimulus_type","trial_stimulus","key_press","minimum_viewing_duration","trial_looking_time","block_deviant","block_background","exposure_type","stimulus","block_number","block_type","stimulus_displayed","responses","question_order","math_correct_answer","stimulus_left","stimulus_right"
"[{""page_index"":0,""viewing_time"":16282.24500012584}]","16283.035000087693","instructions","0","16286","0.0-0.0","SS1619739975890","","","","","","","","","","","","","","","","",""
"[{""page_index"":0,""viewing_time"":20505.849999841303},{""page_index"":1,""viewing_time"":6767.955000046641}]","27274.044999852777","instructions","1","45567","0.0-1.0","SS1619739975890","instructions","","","","","","","","","","","","","","","",""
"","8704.514999873936","sequential-stimulus-presentation-old","2","54788","0.0-2.0","SS1619739975890","","","40","500","9204.514999873936","null","null","self_paced","","","","","","","","",""
"","4529.284999938682","sequential-stimulus-presentation-old","3","59820","0.0-3.0","SS1619739975890","","","40","500","5029.284999938682","null","null","self_paced","","","","","","","","",""
"[{""page_index"":0,""viewing_time"":27557.615000056103}]","27557.879999978468","instructions","4","87381","0.0-4.0","SS1619739975890","instructions","","","","","","","","","","","","","","","",""
"","516.0300000570714","sequential-stimulus-presentation-old","5","102901","0.0-5.0","SS1619739975890","","","40","500","1016.0300000570714","null","null","forced_long","","","","","","","","",""
"","3866.9600000139326","sequential-stimulus-presentation-old","6","107292","0.0-6.0","SS1619739975890","","","40","500","4366.960000013933","null","null","forced_long","","","","","","","","",""
"[{""page_index"":0,""viewing_time"":3685.1150000002235}]","3685.354999965057","instructions","7","110980","0.0-7.0","SS1619739975890","instructions","","","","","","","","","","","","","","","",""
"[{""page_index"":0,""viewing_time"":9917.579999892041},{""page_index"":1,""viewing_time"":11383.820000104606},{""page_index"":2,""viewing_time"":9359.494999982417},{""page_index"":3,""viewing_time"":1432.0199999492615},{""page_index"":4,""viewing_time"":2367.9400000255555}]","34461.1099998001","instructions","8","145443","0.0-8.0","SS1619739975890","instructions","","","","","","","","","","","","","","","",""
"","null","html-keyboard-response","9","146557","0.0-9.0-0.0","SS1619739975890","","","null","","","","","","<p><img src= images/blank.png width =""600"" height = ""600"" style=""position:fixed;top:50%; left:50%; transform: translate(-50%, -50%); border:5px solid black"">","","","","","","","",""
"","2512.4600001145154","sequential-stimulus-presentation-old","10","149587","0.0-9.0-1.0","SS1619739975890","trial","","40","500","3012.4600001145154","images/stimuli/spore_stims/complex_16_A_b.gif","images/stimuli/spore_stims/complex_01_A_a.gif","forced_short","","0","complex_dissimilar","images/stimuli/spore_stims/complex_01_A_a.gif","","","","",""
"","null","html-keyboard-response","11","150485","0.0-9.0-0.1","SS1619739975890","","","null","","","","","","<p><img src= images/blank.png width =""600"" height = ""600"" style=""position:fixed;top:50%; left:50%; transform: translate(-50%, -50%); border:5px solid black"">","","","","","","","",""
"","32623.569999821484","sequential-stimulus-presentation-old","12","183625","0.0-9.0-1.1","SS1619739975890","trial","","40","500","33123.569999821484","images/stimuli/spore_stims/complex_16_A_b.gif","images/stimuli/spore_stims/complex_01_A_a.gif","forced_short","","0","complex_dissimilar","images/stimuli/spore_stims/complex_16_A_b.gif","","","","",""
"","null","html-keyboard-response","13","184929","0.0-9.0-0.2","SS1619739975890","","","null","","","","","","<p><img src= images/blank.png width =""600"" height = ""600"" style=""position:fixed;top:50%; left:50%; transform: translate(-50%, -50%); border:5px solid black"">","","","","","","","",""
"","17541.54000012204","sequential-stimulus-presentation-old","14","202985","0.0-9.0-1.2","SS1619739975890","trial","","40","500","18041.54000012204","images/stimuli/spore_stims/complex_16_A_b.gif","images/stimuli/spore_stims/complex_01_A_a.gif","forced_short","","0","complex_dissimilar","images/stimuli/spore_stims/complex_01_A_a.gif","","","","",""
"","null","html-keyboard-response","15","204190","0.0-9.0-0.3","SS1619739975890","","","null","","","","","","<p><img src= images/blank.png width =""600"" height = ""600"" style=""position:fixed;top:50%; left:50%; transform: translate(-50%, -50%); border:5px solid black"">","","","","","","","",""
"","9880.329999839887","sequential-stimulus-presentation-old","16","214582","0.0-9.0-1.3","SS1619739975890","trial","","40","500","10380.329999839887","images/stimuli/spore_stims/complex_16_A_b.gif","images/stimuli/spore_stims/complex_01_A_a.gif","forced_short","","0","complex_dissimilar","images/stimuli/spore_stims/complex_01_A_a.gif","","","","",""
"","9039.245000109076","survey-multi-choice","17","223626","0.0-10.0","SS1619739975890","math_question","","","","","","","","","","","","{""Q0"":""16""}","[0]","16","",""
"","null","html-keyboard-response","18","224473","0.0-11.0-0.0","SS1619739975890","","","null","","","","","","<p><img src= images/blank.png width =""600"" height = ""600"" style=""position:fixed;top:50%; left:50%; transform: translate(-50%, -50%); border:5px solid black"">","","","","","","","",""
"","19090.060000075027","sequential-stimulus-presentation-old","19","244070","0.0-11.0-1.0","SS1619739975890","trial","","40","500","19590.060000075027","images/stimuli/spore_stims/simple_08_A_a.gif","images/stimuli/spore_stims/simple_04_A_b.gif","self_paced","","1","simple_dissimilar","images/stimuli/spore_stims/simple_04_A_b.gif","","","","",""
"","null","html-keyboard-response","20","245004","0.0-11.0-0.1","SS1619739975890","","","null","","","","","","<p><img src= images/blank.png width =""600"" height = ""600"" style=""position:fixed;top:50%; left:50%; transform: translate(-50%, -50%); border:5px solid black"">","","","","","","","",""
"","14639.695000136271","sequential-stimulus-presentation-old","21","260156","0.0-11.0-1.1","SS1619739975890","trial","","40","500","15139.695000136271","images/stimuli/spore_stims/simple_08_A_a.gif","images/stimuli/spore_stims/simple_04_A_b.gif","self_paced","","1","simple_dissimilar","images/stimuli/spore_stims/simple_04_A_b.gif","","","","",""
"","null","html-keyboard-response","22","261044","0.0-11.0-0.2","SS1619739975890","","","null","","","","","","<p><img src= images/blank.png width =""600"" height = ""600"" style=""position:fixed;top:50%; left:50%; transform: translate(-50%, -50%); border:5px solid black"">","","","","","","","",""
"","7833.570000017062","sequential-stimulus-presentation-old","23","269388","0.0-11.0-1.2","SS1619739975890","trial","","40","500","8333.570000017062","images/stimuli/spore_stims/simple_08_A_a.gif","images/stimuli/spore_stims/simple_04_A_b.gif","self_paced","","1","simple_dissimilar","images/stimuli/spore_stims/simple_04_A_b.gif","","","","",""
"","null","html-keyboard-response","24","270266","0.0-11.0-0.3","SS1619739975890","","","null","","","","","","<p><img src= images/blank.png width =""600"" height = ""600"" style=""position:fixed;top:50%; left:50%; transform: translate(-50%, -50%); border:5px solid black"">","","","","","","","",""
"","32587.364999810234","sequential-stimulus-presentation-old","25","303366","0.0-11.0-1.3","SS1619739975890","trial","","40","500","33087.364999810234","images/stimuli/spore_stims/simple_08_A_a.gif","images/stimuli/spore_stims/simple_04_A_b.gif","self_paced","","1","simple_dissimilar","images/stimuli/spore_stims/simple_04_A_b.gif","","","","",""
"","null","html-keyboard-response","26","304363","0.0-11.0-0.4","SS1619739975890","","","null","","","","","","<p><img src= images/blank.png width =""600"" height = ""600"" style=""position:fixed;top:50%; left:50%; transform: translate(-50%, -50%); border:5px solid black"">","","","","","","","",""
"","9157.505000010133","sequential-stimulus-presentation-old","27","314035","0.0-11.0-1.4","SS1619739975890","trial","","40","500","9657.505000010133","images/stimuli/spore_stims/simple_08_A_a.gif","images/stimuli/spore_stims/simple_04_A_b.gif","self_paced","","1","simple_dissimilar","images/stimuli/spore_stims/simple_08_A_a.gif","","","","",""
"","null","html-keyboard-response","28","314971","0.0-11.0-0.5","SS1619739975890","","","null","","","","","","<p><img src= images/blank.png width =""600"" height = ""600"" style=""position:fixed;top:50%; left:50%; transform: translate(-50%, -50%); border:5px solid black"">","","","","","","","",""
"","742.2499998938292","sequential-stimulus-presentation-old","29","316218","0.0-11.0-1.5","SS1619739975890","trial","","40","500","1242.2499998938292","images/stimuli/spore_stims/simple_08_A_a.gif","images/stimuli/spore_stims/simple_04_A_b.gif","self_paced","","1","simple_dissimilar","images/stimuli/spore_stims/simple_08_A_a.gif","","","","",""
"","7912.225000094622","survey-multi-choice","30","324133","0.0-12.0","SS1619739975890","math_question","","","","","","","","","","","","{""Q0"":""15""}","[0]","15","",""
"","null","html-keyboard-response","31","325047","0.0-13.0-0.0","SS1619739975890","","","null","","","","","","<p><img src= images/blank.png width =""600"" height = ""600"" style=""position:fixed;top:50%; left:50%; transform: translate(-50%, -50%); border:5px solid black"">","","","","","","","",""
"","1166.5000000502914","sequential-stimulus-presentation-old","32","341220","0.0-13.0-1.0","SS1619739975890","trial","","40","500","1666.5000000502914","images/stimuli/spore_stims/complex_13_A_b.gif","images/stimuli/spore_stims/complex_09_A_a.gif","forced_long","","2","complex_dissimilar","images/stimuli/spore_stims/complex_09_A_a.gif","","","","",""
"","null","html-keyboard-response","33","342458","0.0-13.0-0.1","SS1619739975890","","","null","","","","","","<p><img src= images/blank.png width =""600"" height = ""600"" style=""position:fixed;top:50%; left:50%; transform: translate(-50%, -50%); border:5px solid black"">","","","","","","","",""
"","80292.15000011027","sequential-stimulus-presentation-old","34","423262","0.0-13.0-1.1","SS1619739975890","trial","","40","500","80792.15000011027","images/stimuli/spore_stims/complex_13_A_b.gif","images/stimuli/spore_stims/complex_09_A_a.gif","forced_long","","2","complex_dissimilar","images/stimuli/spore_stims/complex_09_A_a.gif","","","","",""
"","null","html-keyboard-response","35","424338","0.0-13.0-0.2","SS1619739975890","","","null","","","","","","<p><img src= images/blank.png width =""600"" height = ""600"" style=""position:fixed;top:50%; left:50%; transform: translate(-50%, -50%); border:5px solid black"">","","","","","","","",""
"","60232.09499986842","sequential-stimulus-presentation-old","36","485085","0.0-13.0-1.2","SS1619739975890","trial","","40","500","60732.09499986842","images/stimuli/spore_stims/complex_13_A_b.gif","images/stimuli/spore_stims/complex_09_A_a.gif","forced_long","","2","complex_dissimilar","images/stimuli/spore_stims/complex_09_A_a.gif","","","","",""
"","null","html-keyboard-response","37","486113","0.0-13.0-0.3","SS1619739975890","","","null","","","","","","<p><img src= images/blank.png width =""600"" height = ""600"" style=""position:fixed;top:50%; left:50%; transform: translate(-50%, -50%); border:5px solid black"">","","","","","","","",""
"","36040.3599999845","sequential-stimulus-presentation-old","38","522667","0.0-13.0-1.3","SS1619739975890","trial","","40","500","36540.3599999845","images/stimuli/spore_stims/complex_13_A_b.gif","images/stimuli/spore_stims/complex_09_A_a.gif","forced_long","","2","complex_dissimilar","images/stimuli/spore_stims/complex_09_A_a.gif","","","","",""
"","null","html-keyboard-response","39","523820","0.0-13.0-0.4","SS1619739975890","","","null","","","","","","<p><img src= images/blank.png width =""600"" height = ""600"" style=""position:fixed;top:50%; left:50%; transform: translate(-50%, -50%); border:5px solid black"">","","","","","","","",""
"","34934.739999938756","sequential-stimulus-presentation-old","40","559271","0.0-13.0-1.4","SS1619739975890","trial","","40","500","35434.739999938756","images/stimuli/spore_stims/complex_13_A_b.gif","images/stimuli/spore_stims/complex_09_A_a.gif","forced_long","","2","complex_dissimilar","images/stimuli/spore_stims/complex_09_A_a.gif","","","","",""
"","null","html-keyboard-response","41","560563","0.0-13.0-0.5","SS1619739975890","","","null","","","","","","<p><img src= images/blank.png width =""600"" height = ""600"" style=""position:fixed;top:50%; left:50%; transform: translate(-50%, -50%); border:5px solid black"">","","","","","","","",""
"","30296.57500004396","sequential-stimulus-presentation-old","42","591372","0.0-13.0-1.5","SS1619739975890","trial","","40","500","30796.57500004396","images/stimuli/spore_stims/complex_13_A_b.gif","images/stimuli/spore_stims/complex_09_A_a.gif","forced_long","","2","complex_dissimilar","images/stimuli/spore_stims/complex_13_A_b.gif","","","","",""
"","3999.680000124499","survey-multi-choice","43","595379","0.0-14.0","SS1619739975890","math_question","","","","","","","","","","","","{""Q0"":""11""}","[0]","11","",""
"","null","html-keyboard-response","44","596412","0.0-15.0-0.0","SS1619739975890","","","null","","","","","","<p><img src= images/blank.png width =""600"" height = ""600"" style=""position:fixed;top:50%; left:50%; transform: translate(-50%, -50%); border:5px solid black"">","","","","","","","",""
"","1233.310000039637","sequential-stimulus-presentation-old","45","612650","0.0-15.0-1.0","SS1619739975890","trial","","40","500","1733.310000039637","images/stimuli/spore_stims/complex_14_A_b.gif","images/stimuli/spore_stims/complex_02_A_a.gif","forced_long","","3","complex_dissimilar","images/stimuli/spore_stims/complex_02_A_a.gif","","","","",""
"","null","html-keyboard-response","46","613885","0.0-15.0-0.1","SS1619739975890","","","null","","","","","","<p><img src= images/blank.png width =""600"" height = ""600"" style=""position:fixed;top:50%; left:50%; transform: translate(-50%, -50%); border:5px solid black"">","","","","","","","",""
"","26735.7900000643","sequential-stimulus-presentation-old","47","641130","0.0-15.0-1.1","SS1619739975890","trial","","40","500","27235.7900000643","images/stimuli/spore_stims/complex_14_A_b.gif","images/stimuli/spore_stims/complex_02_A_a.gif","forced_long","","3","complex_dissimilar","images/stimuli/spore_stims/complex_02_A_a.gif","","","","",""
"","null","html-keyboard-response","48","642402","0.0-15.0-0.2","SS1619739975890","","","null","","","","","","<p><img src= images/blank.png width =""600"" height = ""600"" style=""position:fixed;top:50%; left:50%; transform: translate(-50%, -50%); border:5px solid black"">","","","","","","","",""
"","15137.189999921247","sequential-stimulus-presentation-old","49","658048","0.0-15.0-1.2","SS1619739975890","trial","","40","500","15637.189999921247","images/stimuli/spore_stims/complex_14_A_b.gif","images/stimuli/spore_stims/complex_02_A_a.gif","forced_long","","3","complex_dissimilar","images/stimuli/spore_stims/complex_02_A_a.gif","","","","",""
"","null","html-keyboard-response","50","659098","0.0-15.0-0.3","SS1619739975890","","","null","","","","","","<p><img src= images/blank.png width =""600"" height = ""600"" style=""position:fixed;top:50%; left:50%; transform: translate(-50%, -50%); border:5px solid black"">","","","","","","","",""
"","27851.109999930486","sequential-stimulus-presentation-old","51","687469","0.0-15.0-1.3","SS1619739975890","trial","","40","500","28351.109999930486","images/stimuli/spore_stims/complex_14_A_b.gif","images/stimuli/spore_stims/complex_02_A_a.gif","forced_long","","3","complex_dissimilar","images/stimuli/spore_stims/complex_02_A_a.gif","","","","",""
"","null","html-keyboard-response","52","688400","0.0-15.0-0.4","SS1619739975890","","","null","","","","","","<p><img src= images/blank.png width =""600"" height = ""600"" style=""position:fixed;top:50%; left:50%; transform: translate(-50%, -50%); border:5px solid black"">","","","","","","","",""
"","14121.134999906644","sequential-stimulus-presentation-old","53","703039","0.0-15.0-1.4","SS1619739975890","trial","","40","500","14621.134999906644","images/stimuli/spore_stims/complex_14_A_b.gif","images/stimuli/spore_stims/complex_02_A_a.gif","forced_long","","3","complex_dissimilar","images/stimuli/spore_stims/complex_02_A_a.gif","","","","",""
"","3711.684999987483","survey-multi-choice","54","706759","0.0-16.0","SS1619739975890","math_question","","","","","","","","","","","","{""Q0"":""12""}","[0]","12","",""
"","null","html-keyboard-response","55","707860","0.0-17.0-0.0","SS1619739975890","","","null","","","","","","<p><img src= images/blank.png width =""600"" height = ""600"" style=""position:fixed;top:50%; left:50%; transform: translate(-50%, -50%); border:5px solid black"">","","","","","","","",""
"","62074.29499994032","sequential-stimulus-presentation-old","56","770459","0.0-17.0-1.0","SS1619739975890","trial","","40","500","62574.29499994032","images/stimuli/spore_stims/simple_14_A_a.gif","images/stimuli/spore_stims/simple_15_A_b.gif","self_paced","","4","simple_dissimilar","images/stimuli/spore_stims/simple_15_A_b.gif","","","","",""
"","null","html-keyboard-response","57","771595","0.0-17.0-0.1","SS1619739975890","","","null","","","","","","<p><img src= images/blank.png width =""600"" height = ""600"" style=""position:fixed;top:50%; left:50%; transform: translate(-50%, -50%); border:5px solid black"">","","","","","","","",""
"","32385.874999919906","sequential-stimulus-presentation-old","58","804489","0.0-17.0-1.1","SS1619739975890","trial","","40","500","32885.874999919906","images/stimuli/spore_stims/simple_14_A_a.gif","images/stimuli/spore_stims/simple_15_A_b.gif","self_paced","","4","simple_dissimilar","images/stimuli/spore_stims/simple_15_A_b.gif","","","","",""
"","null","html-keyboard-response","59","805681","0.0-17.0-0.2","SS1619739975890","","","null","","","","","","<p><img src= images/blank.png width =""600"" height = ""600"" style=""position:fixed;top:50%; left:50%; transform: translate(-50%, -50%); border:5px solid black"">","","","","","","","",""
"","8645.724999951199","sequential-stimulus-presentation-old","60","814843","0.0-17.0-1.2","SS1619739975890","trial","","40","500","9145.724999951199","images/stimuli/spore_stims/simple_14_A_a.gif","images/stimuli/spore_stims/simple_15_A_b.gif","self_paced","","4","simple_dissimilar","images/stimuli/spore_stims/simple_15_A_b.gif","","","","",""
"","null","html-keyboard-response","61","816019","0.0-17.0-0.3","SS1619739975890","","","null","","","","","","<p><img src= images/blank.png width =""600"" height = ""600"" style=""position:fixed;top:50%; left:50%; transform: translate(-50%, -50%); border:5px solid black"">","","","","","","","",""
"","25993.64999984391","sequential-stimulus-presentation-old","62","842531","0.0-17.0-1.3","SS1619739975890","trial","","40","500","26493.64999984391","images/stimuli/spore_stims/simple_14_A_a.gif","images/stimuli/spore_stims/simple_15_A_b.gif","self_paced","","4","simple_dissimilar","images/stimuli/spore_stims/simple_15_A_b.gif","","","","",""
"","null","html-keyboard-response","63","843778","0.0-17.0-0.4","SS1619739975890","","","null","","","","","","<p><img src= images/blank.png width =""600"" height = ""600"" style=""position:fixed;top:50%; left:50%; transform: translate(-50%, -50%); border:5px solid black"">","","","","","","","",""
"","17596.284999977797","sequential-stimulus-presentation-old","64","861888","0.0-17.0-1.4","SS1619739975890","trial","","40","500","18096.284999977797","images/stimuli/spore_stims/simple_14_A_a.gif","images/stimuli/spore_stims/simple_15_A_b.gif","self_paced","","4","simple_dissimilar","images/stimuli/spore_stims/simple_15_A_b.gif","","","","",""
"","null","html-keyboard-response","65","863069","0.0-17.0-0.5","SS1619739975890","","","null","","","","","","<p><img src= images/blank.png width =""600"" height = ""600"" style=""position:fixed;top:50%; left:50%; transform: translate(-50%, -50%); border:5px solid black"">","","","","","","","",""
"","3239.924999885261","sequential-stimulus-presentation-old","66","866823","0.0-17.0-1.5","SS1619739975890","trial","","40","500","3739.924999885261","images/stimuli/spore_stims/simple_14_A_a.gif","images/stimuli/spore_stims/simple_15_A_b.gif","self_paced","","4","simple_dissimilar","images/stimuli/spore_stims/simple_15_A_b.gif","","","","",""
"","4262.57500005886","survey-multi-choice","67","871090","0.0-18.0","SS1619739975890","math_question","","","","","","","","","","","","{""Q0"":""11""}","[0]","11","",""
"","null","html-keyboard-response","68","872324","0.0-19.0-0.0","SS1619739975890","","","null","","","","","","<p><img src= images/blank.png width =""600"" height = ""600"" style=""position:fixed;top:50%; left:50%; transform: translate(-50%, -50%); border:5px solid black"">","","","","","","","",""
"","852.079999865964","sequential-stimulus-presentation-old","69","873682","0.0-19.0-1.0","SS1619739975890","trial","","40","500","1352.079999865964","images/stimuli/spore_stims/simple_12_A_a.gif","images/stimuli/spore_stims/simple_01_A_b.gif","forced_short","","5","simple_dissimilar","images/stimuli/spore_stims/simple_01_A_b.gif","","","","",""
"","null","html-keyboard-response","70","874980","0.0-19.0-0.1","SS1619739975890","","","null","","","","","","<p><img src= images/blank.png width =""600"" height = ""600"" style=""position:fixed;top:50%; left:50%; transform: translate(-50%, -50%); border:5px solid black"">","","","","","","","",""
"","5714.500000001863","sequential-stimulus-presentation-old","71","881207","0.0-19.0-1.1","SS1619739975890","trial","","40","500","6214.500000001863","images/stimuli/spore_stims/simple_12_A_a.gif","images/stimuli/spore_stims/simple_01_A_b.gif","forced_short","","5","simple_dissimilar","images/stimuli/spore_stims/simple_12_A_a.gif","","","","",""
"","null","html-keyboard-response","72","882331","0.0-19.0-0.2","SS1619739975890","","","null","","","","","","<p><img src= images/blank.png width =""600"" height = ""600"" style=""position:fixed;top:50%; left:50%; transform: translate(-50%, -50%); border:5px solid black"">","","","","","","","",""
"","19934.954999946058","sequential-stimulus-presentation-old","73","902775","0.0-19.0-1.2","SS1619739975890","trial","","40","500","20434.954999946058","images/stimuli/spore_stims/simple_12_A_a.gif","images/stimuli/spore_stims/simple_01_A_b.gif","forced_short","","5","simple_dissimilar","images/stimuli/spore_stims/simple_01_A_b.gif","","","","",""
"","null","html-keyboard-response","74","903781","0.0-19.0-0.3","SS1619739975890","","","null","","","","","","<p><img src= images/blank.png width =""600"" height = ""600"" style=""position:fixed;top:50%; left:50%; transform: translate(-50%, -50%); border:5px solid black"">","","","","","","","",""
"","10535.690000047907","sequential-stimulus-presentation-old","75","914831","0.0-19.0-1.3","SS1619739975890","trial","","40","500","11035.690000047907","images/stimuli/spore_stims/simple_12_A_a.gif","images/stimuli/spore_stims/simple_01_A_b.gif","forced_short","","5","simple_dissimilar","images/stimuli/spore_stims/simple_12_A_a.gif","","","","",""
"","null","html-keyboard-response","76","916114","0.0-19.0-0.4","SS1619739975890","","","null","","","","","","<p><img src= images/blank.png width =""600"" height = ""600"" style=""position:fixed;top:50%; left:50%; transform: translate(-50%, -50%); border:5px solid black"">","","","","","","","",""
"","9084.145000204444","sequential-stimulus-presentation-old","77","925726","0.0-19.0-1.4","SS1619739975890","trial","","40","500","9584.145000204444","images/stimuli/spore_stims/simple_12_A_a.gif","images/stimuli/spore_stims/simple_01_A_b.gif","forced_short","","5","simple_dissimilar","images/stimuli/spore_stims/simple_01_A_b.gif","","","","",""
"","7261.815000092611","survey-multi-choice","78","932992","0.0-20.0","SS1619739975890","math_question","","","","","","","","","","","","{""Q0"":""15""}","[0]","15","",""
"","null","html-keyboard-response","79","934075","0.0-21.0-0.0","SS1619739975890","","","null","","","","","","<p><img src= images/blank.png width =""600"" height = ""600"" style=""position:fixed;top:50%; left:50%; transform: translate(-50%, -50%); border:5px solid black"">","","","","","","","",""
"","1151.1450000107288","sequential-stimulus-presentation-old","80","950239","0.0-21.0-1.0","SS1619739975890","trial","","40","500","1651.1450000107288","images/stimuli/spore_stims/simple_06_A_a.gif","images/stimuli/spore_stims/simple_08_A_b.gif","forced_long","","6","simple_dissimilar","images/stimuli/spore_stims/simple_08_A_b.gif","","","","",""
"","null","html-keyboard-response","81","951552","0.0-21.0-0.1","SS1619739975890","","","null","","","","","","<p><img src= images/blank.png width =""600"" height = ""600"" style=""position:fixed;top:50%; left:50%; transform: translate(-50%, -50%); border:5px solid black"">","","","","","","","",""
"","27652.475000126287","sequential-stimulus-presentation-old","82","979719","0.0-21.0-1.1","SS1619739975890","trial","","40","500","28152.475000126287","images/stimuli/spore_stims/simple_06_A_a.gif","images/stimuli/spore_stims/simple_08_A_b.gif","forced_long","","6","simple_dissimilar","images/stimuli/spore_stims/simple_08_A_b.gif","","","","",""
"","null","html-keyboard-response","83","980943","0.0-21.0-0.2","SS1619739975890","","","null","","","","","","<p><img src= images/blank.png width =""600"" height = ""600"" style=""position:fixed;top:50%; left:50%; transform: translate(-50%, -50%); border:5px solid black"">","","","","","","","",""
"","17680.455000139773","sequential-stimulus-presentation-old","84","999141","0.0-21.0-1.2","SS1619739975890","trial","","40","500","18180.455000139773","images/stimuli/spore_stims/simple_06_A_a.gif","images/stimuli/spore_stims/simple_08_A_b.gif","forced_long","","6","simple_dissimilar","images/stimuli/spore_stims/simple_08_A_b.gif","","","","",""
"","null","html-keyboard-response","85","1000048","0.0-21.0-0.3","SS1619739975890","","","null","","","","","","<p><img src= images/blank.png width =""600"" height = ""600"" style=""position:fixed;top:50%; left:50%; transform: translate(-50%, -50%); border:5px solid black"">","","","","","","","",""
"","22946.484999964014","sequential-stimulus-presentation-old","86","1023501","0.0-21.0-1.3","SS1619739975890","trial","","40","500","23446.484999964014","images/stimuli/spore_stims/simple_06_A_a.gif","images/stimuli/spore_stims/simple_08_A_b.gif","forced_long","","6","simple_dissimilar","images/stimuli/spore_stims/simple_08_A_b.gif","","","","",""
"","null","html-keyboard-response","87","1024362","0.0-21.0-0.4","SS1619739975890","","","null","","","","","","<p><img src= images/blank.png width =""600"" height = ""600"" style=""position:fixed;top:50%; left:50%; transform: translate(-50%, -50%); border:5px solid black"">","","","","","","","",""
"","25044.435000047088","sequential-stimulus-presentation-old","88","1049915","0.0-21.0-1.4","SS1619739975890","trial","","40","500","25544.435000047088","images/stimuli/spore_stims/simple_06_A_a.gif","images/stimuli/spore_stims/simple_08_A_b.gif","forced_long","","6","simple_dissimilar","images/stimuli/spore_stims/simple_06_A_a.gif","","","","",""
"","null","html-keyboard-response","89","1050781","0.0-21.0-0.5","SS1619739975890","","","null","","","","","","<p><img src= images/blank.png width =""600"" height = ""600"" style=""position:fixed;top:50%; left:50%; transform: translate(-50%, -50%); border:5px solid black"">","","","","","","","",""
"","14231.715000001714","sequential-stimulus-presentation-old","90","1065523","0.0-21.0-1.5","SS1619739975890","trial","","40","500","14731.715000001714","images/stimuli/spore_stims/simple_06_A_a.gif","images/stimuli/spore_stims/simple_08_A_b.gif","forced_long","","6","simple_dissimilar","images/stimuli/spore_stims/simple_08_A_b.gif","","","","",""
"","4720.269999932498","survey-multi-choice","91","1070251","0.0-22.0","SS1619739975890","math_question","","","","","","","","","","","","{""Q0"":""14""}","[0]","14","",""
"","null","html-keyboard-response","92","1071203","0.0-23.0-0.0","SS1619739975890","","","null","","","","","","<p><img src= images/blank.png width =""600"" height = ""600"" style=""position:fixed;top:50%; left:50%; transform: translate(-50%, -50%); border:5px solid black"">","","","","","","","",""
"","1550.0250000040978","sequential-stimulus-presentation-old","93","1087770","0.0-23.0-1.0","SS1619739975890","trial","","40","500","2050.025000004098","images/stimuli/spore_stims/simple_20_A_b.gif","images/stimuli/spore_stims/simple_05_A_a.gif","forced_long","","7","simple_dissimilar","images/stimuli/spore_stims/simple_05_A_a.gif","","","","",""
"","null","html-keyboard-response","94","1088783","0.0-23.0-0.1","SS1619739975890","","","null","","","","","","<p><img src= images/blank.png width =""600"" height = ""600"" style=""position:fixed;top:50%; left:50%; transform: translate(-50%, -50%); border:5px solid black"">","","","","","","","",""
"","30709.904999937862","sequential-stimulus-presentation-old","95","1120008","0.0-23.0-1.1","SS1619739975890","trial","","40","500","31209.904999937862","images/stimuli/spore_stims/simple_20_A_b.gif","images/stimuli/spore_stims/simple_05_A_a.gif","forced_long","","7","simple_dissimilar","images/stimuli/spore_stims/simple_05_A_a.gif","","","","",""
"","null","html-keyboard-response","96","1121305","0.0-23.0-0.2","SS1619739975890","","","null","","","","","","<p><img src= images/blank.png width =""600"" height = ""600"" style=""position:fixed;top:50%; left:50%; transform: translate(-50%, -50%); border:5px solid black"">","","","","","","","",""
"","20369.43500000052","sequential-stimulus-presentation-old","97","1142193","0.0-23.0-1.2","SS1619739975890","trial","","40","500","20869.43500000052","images/stimuli/spore_stims/simple_20_A_b.gif","images/stimuli/spore_stims/simple_05_A_a.gif","forced_long","","7","simple_dissimilar","images/stimuli/spore_stims/simple_05_A_a.gif","","","","",""
"","null","html-keyboard-response","98","1143220","0.0-23.0-0.3","SS1619739975890","","","null","","","","","","<p><img src= images/blank.png width =""600"" height = ""600"" style=""position:fixed;top:50%; left:50%; transform: translate(-50%, -50%); border:5px solid black"">","","","","","","","",""
"","15982.865000143647","sequential-stimulus-presentation-old","99","1159717","0.0-23.0-1.3","SS1619739975890","trial","","40","500","16482.865000143647","images/stimuli/spore_stims/simple_20_A_b.gif","images/stimuli/spore_stims/simple_05_A_a.gif","forced_long","","7","simple_dissimilar","images/stimuli/spore_stims/simple_05_A_a.gif","","","","",""
"","null","html-keyboard-response","100","1160983","0.0-23.0-0.4","SS1619739975890","","","null","","","","","","<p><img src= images/blank.png width =""600"" height = ""600"" style=""position:fixed;top:50%; left:50%; transform: translate(-50%, -50%); border:5px solid black"">","","","","","","","",""
"","25977.019999874756","sequential-stimulus-presentation-old","101","1187478","0.0-23.0-1.4","SS1619739975890","trial","","40","500","26477.019999874756","images/stimuli/spore_stims/simple_20_A_b.gif","images/stimuli/spore_stims/simple_05_A_a.gif","forced_long","","7","simple_dissimilar","images/stimuli/spore_stims/simple_05_A_a.gif","","","","",""
"","null","html-keyboard-response","102","1188570","0.0-23.0-0.5","SS1619739975890","","","null","","","","","","<p><img src= images/blank.png width =""600"" height = ""600"" style=""position:fixed;top:50%; left:50%; transform: translate(-50%, -50%); border:5px solid black"">","","","","","","","",""
"","16496.520000044256","sequential-stimulus-presentation-old","103","1205581","0.0-23.0-1.5","SS1619739975890","trial","","40","500","16996.520000044256","images/stimuli/spore_stims/simple_20_A_b.gif","images/stimuli/spore_stims/simple_05_A_a.gif","forced_long","","7","simple_dissimilar","images/stimuli/spore_stims/simple_05_A_a.gif","","","","",""
"","4792.460000142455","survey-multi-choice","104","1210382","0.0-24.0","SS1619739975890","math_question","","","","","","","","","","","","{""Q0"":""9""}","[0]","9","",""
"","null","html-keyboard-response","105","1211460","0.0-25.0-0.0","SS1619739975890","","","null","","","","","","<p><img src= images/blank.png width =""600"" height = ""600"" style=""position:fixed;top:50%; left:50%; transform: translate(-50%, -50%); border:5px solid black"">","","","","","","","",""
"","25001.56499980949","sequential-stimulus-presentation-old","106","1236987","0.0-25.0-1.0","SS1619739975890","trial","","40","500","25501.56499980949","images/stimuli/spore_stims/complex_05_A_b.gif","images/stimuli/spore_stims/complex_10_A_a.gif","self_paced","","8","complex_dissimilar","images/stimuli/spore_stims/complex_10_A_a.gif","","","","",""
"","null","html-keyboard-response","107","1238012","0.0-25.0-0.1","SS1619739975890","","","null","","","","","","<p><img src= images/blank.png width =""600"" height = ""600"" style=""position:fixed;top:50%; left:50%; transform: translate(-50%, -50%); border:5px solid black"">","","","","","","","",""
"","13906.175000127405","sequential-stimulus-presentation-old","108","1252433","0.0-25.0-1.1","SS1619739975890","trial","","40","500","14406.175000127405","images/stimuli/spore_stims/complex_05_A_b.gif","images/stimuli/spore_stims/complex_10_A_a.gif","self_paced","","8","complex_dissimilar","images/stimuli/spore_stims/complex_10_A_a.gif","","","","",""
"","null","html-keyboard-response","109","1253462","0.0-25.0-0.2","SS1619739975890","","","null","","","","","","<p><img src= images/blank.png width =""600"" height = ""600"" style=""position:fixed;top:50%; left:50%; transform: translate(-50%, -50%); border:5px solid black"">","","","","","","","",""
"","7502.614999888465","sequential-stimulus-presentation-old","110","1261473","0.0-25.0-1.2","SS1619739975890","trial","","40","500","8002.614999888465","images/stimuli/spore_stims/complex_05_A_b.gif","images/stimuli/spore_stims/complex_10_A_a.gif","self_paced","","8","complex_dissimilar","images/stimuli/spore_stims/complex_05_A_b.gif","","","","",""
"","null","html-keyboard-response","111","1262411","0.0-25.0-0.3","SS1619739975890","","","null","","","","","","<p><img src= images/blank.png width =""600"" height = ""600"" style=""position:fixed;top:50%; left:50%; transform: translate(-50%, -50%); border:5px solid black"">","","","","","","","",""
"","900.1800001133233","sequential-stimulus-presentation-old","112","1263841","0.0-25.0-1.3","SS1619739975890","trial","","40","500","1400.1800001133233","images/stimuli/spore_stims/complex_05_A_b.gif","images/stimuli/spore_stims/complex_10_A_a.gif","self_paced","","8","complex_dissimilar","images/stimuli/spore_stims/complex_05_A_b.gif","","","","",""
"","4799.470000201836","survey-multi-choice","113","1268644","0.0-26.0","SS1619739975890","math_question","","","","","","","","","","","","{""Q0"":""13""}","[0]","13","",""
"","null","html-keyboard-response","114","1269611","0.0-27.0-0.0","SS1619739975890","","","null","","","","","","<p><img src= images/blank.png width =""600"" height = ""600"" style=""position:fixed;top:50%; left:50%; transform: translate(-50%, -50%); border:5px solid black"">","","","","","","","",""
"","707.1549999527633","sequential-stimulus-presentation-old","115","1270834","0.0-27.0-1.0","SS1619739975890","trial","","40","500","1207.1549999527633","images/stimuli/spore_stims/complex_04_A_a.gif","images/stimuli/spore_stims/complex_15_A_b.gif","forced_short","","9","complex_dissimilar","images/stimuli/spore_stims/complex_15_A_b.gif","","","","",""
"","null","html-keyboard-response","116","1272101","0.0-27.0-0.1","SS1619739975890","","","null","","","","","","<p><img src= images/blank.png width =""600"" height = ""600"" style=""position:fixed;top:50%; left:50%; transform: translate(-50%, -50%); border:5px solid black"">","","","","","","","",""
"","7548.2099999208","sequential-stimulus-presentation-old","117","1280162","0.0-27.0-1.1","SS1619739975890","trial","","40","500","8048.2099999208","images/stimuli/spore_stims/complex_04_A_a.gif","images/stimuli/spore_stims/complex_15_A_b.gif","forced_short","","9","complex_dissimilar","images/stimuli/spore_stims/complex_15_A_b.gif","","","","",""
"","null","html-keyboard-response","118","1281113","0.0-27.0-0.2","SS1619739975890","","","null","","","","","","<p><img src= images/blank.png width =""600"" height = ""600"" style=""position:fixed;top:50%; left:50%; transform: translate(-50%, -50%); border:5px solid black"">","","","","","","","",""
"","448.9149998407811","sequential-stimulus-presentation-old","119","1282082","0.0-27.0-1.2","SS1619739975890","trial","","40","500","948.9149998407811","images/stimuli/spore_stims/complex_04_A_a.gif","images/stimuli/spore_stims/complex_15_A_b.gif","forced_short","","9","complex_dissimilar","images/stimuli/spore_stims/complex_04_A_a.gif","","","","",""
"","null","html-keyboard-response","120","1283238","0.0-27.0-0.3","SS1619739975890","","","null","","","","","","<p><img src= images/blank.png width =""600"" height = ""600"" style=""position:fixed;top:50%; left:50%; transform: translate(-50%, -50%); border:5px solid black"">","","","","","","","",""
"","7818.800000008196","sequential-stimulus-presentation-old","121","1291570","0.0-27.0-1.3","SS1619739975890","trial","","40","500","8318.800000008196","images/stimuli/spore_stims/complex_04_A_a.gif","images/stimuli/spore_stims/complex_15_A_b.gif","forced_short","","9","complex_dissimilar","images/stimuli/spore_stims/complex_04_A_a.gif","","","","",""
"","null","html-keyboard-response","122","1292815","0.0-27.0-0.4","SS1619739975890","","","null","","","","","","<p><img src= images/blank.png width =""600"" height = ""600"" style=""position:fixed;top:50%; left:50%; transform: translate(-50%, -50%); border:5px solid black"">","","","","","","","",""
"","4624.134999932721","sequential-stimulus-presentation-old","123","1297953","0.0-27.0-1.4","SS1619739975890","trial","","40","500","5124.134999932721","images/stimuli/spore_stims/complex_04_A_a.gif","images/stimuli/spore_stims/complex_15_A_b.gif","forced_short","","9","complex_dissimilar","images/stimuli/spore_stims/complex_15_A_b.gif","","","","",""
"","3649.4149998761714","survey-multi-choice","124","1301610","0.0-28.0","SS1619739975890","math_question","","","","","","","","","","","","{""Q0"":""13""}","[0]","13","",""
"","null","html-keyboard-response","125","1302836","0.0-29.0-0.0","SS1619739975890","","","null","","","","","","<p><img src= images/blank.png width =""600"" height = ""600"" style=""position:fixed;top:50%; left:50%; transform: translate(-50%, -50%); border:5px solid black"">","","","","","","","",""
"","591.3799998816103","sequential-stimulus-presentation-old","126","1303946","0.0-29.0-1.0","SS1619739975890","trial","","40","500","1091.3799998816103","images/stimuli/spore_stims/simple_03_A_a.gif","images/stimuli/spore_stims/simple_16_A_b.gif","forced_short","","10","simple_dissimilar","images/stimuli/spore_stims/simple_16_A_b.gif","","","","",""
"","null","html-keyboard-response","127","1304976","0.0-29.0-0.1","SS1619739975890","","","null","","","","","","<p><img src= images/blank.png width =""600"" height = ""600"" style=""position:fixed;top:50%; left:50%; transform: translate(-50%, -50%); border:5px solid black"">","","","","","","","",""
"","1781.1700000893325","sequential-stimulus-presentation-old","128","1307280","0.0-29.0-1.1","SS1619739975890","trial","","40","500","2281.1700000893325","images/stimuli/spore_stims/simple_03_A_a.gif","images/stimuli/spore_stims/simple_16_A_b.gif","forced_short","","10","simple_dissimilar","images/stimuli/spore_stims/simple_16_A_b.gif","","","","",""
"","null","html-keyboard-response","129","1308564","0.0-29.0-0.2","SS1619739975890","","","null","","","","","","<p><img src= images/blank.png width =""600"" height = ""600"" style=""position:fixed;top:50%; left:50%; transform: translate(-50%, -50%); border:5px solid black"">","","","","","","","",""
"","9895.480000181124","sequential-stimulus-presentation-old","130","1318977","0.0-29.0-1.2","SS1619739975890","trial","","40","500","10395.480000181124","images/stimuli/spore_stims/simple_03_A_a.gif","images/stimuli/spore_stims/simple_16_A_b.gif","forced_short","","10","simple_dissimilar","images/stimuli/spore_stims/simple_03_A_a.gif","","","","",""
"","null","html-keyboard-response","131","1320081","0.0-29.0-0.3","SS1619739975890","","","null","","","","","","<p><img src= images/blank.png width =""600"" height = ""600"" style=""position:fixed;top:50%; left:50%; transform: translate(-50%, -50%); border:5px solid black"">","","","","","","","",""
"","1746.0100001189858","sequential-stimulus-presentation-old","132","1322343","0.0-29.0-1.3","SS1619739975890","trial","","40","500","2246.0100001189858","images/stimuli/spore_stims/simple_03_A_a.gif","images/stimuli/spore_stims/simple_16_A_b.gif","forced_short","","10","simple_dissimilar","images/stimuli/spore_stims/simple_16_A_b.gif","","","","",""
"","null","html-keyboard-response","133","1323642","0.0-29.0-0.4","SS1619739975890","","","null","","","","","","<p><img src= images/blank.png width =""600"" height = ""600"" style=""position:fixed;top:50%; left:50%; transform: translate(-50%, -50%); border:5px solid black"">","","","","","","","",""
"","583.0850000493228","sequential-stimulus-presentation-old","134","1324745","0.0-29.0-1.4","SS1619739975890","trial","","40","500","1083.0850000493228","images/stimuli/spore_stims/simple_03_A_a.gif","images/stimuli/spore_stims/simple_16_A_b.gif","forced_short","","10","simple_dissimilar","images/stimuli/spore_stims/simple_16_A_b.gif","","","","",""
"","null","html-keyboard-response","135","1325660","0.0-29.0-0.5","SS1619739975890","","","null","","","","","","<p><img src= images/blank.png width =""600"" height = ""600"" style=""position:fixed;top:50%; left:50%; transform: translate(-50%, -50%); border:5px solid black"">","","","","","","","",""
"","7320.4600000754","sequential-stimulus-presentation-old","136","1333495","0.0-29.0-1.5","SS1619739975890","trial","","40","500","7820.4600000754","images/stimuli/spore_stims/simple_03_A_a.gif","images/stimuli/spore_stims/simple_16_A_b.gif","forced_short","","10","simple_dissimilar","images/stimuli/spore_stims/simple_16_A_b.gif","","","","",""
"","3782.7649998944253","survey-multi-choice","137","1337282","0.0-30.0","SS1619739975890","math_question","","","","","","","","","","","","{""Q0"":""11""}","[0]","11","",""
"","null","html-keyboard-response","138","1338176","0.0-31.0-0.0","SS1619739975890","","","null","","","","","","<p><img src= images/blank.png width =""600"" height = ""600"" style=""position:fixed;top:50%; left:50%; transform: translate(-50%, -50%); border:5px solid black"">","","","","","","","",""
"","28168.455000035465","sequential-stimulus-presentation-old","139","1366862","0.0-31.0-1.0","SS1619739975890","trial","","40","500","28668.455000035465","images/stimuli/spore_stims/complex_18_A_a.gif","images/stimuli/spore_stims/complex_02_A_b.gif","self_paced","","11","complex_dissimilar","images/stimuli/spore_stims/complex_02_A_b.gif","","","","",""
"","null","html-keyboard-response","140","1367925","0.0-31.0-0.1","SS1619739975890","","","null","","","","","","<p><img src= images/blank.png width =""600"" height = ""600"" style=""position:fixed;top:50%; left:50%; transform: translate(-50%, -50%); border:5px solid black"">","","","","","","","",""
"","1279.1800000704825","sequential-stimulus-presentation-old","141","1369711","0.0-31.0-1.1","SS1619739975890","trial","","40","500","1779.1800000704825","images/stimuli/spore_stims/complex_18_A_a.gif","images/stimuli/spore_stims/complex_02_A_b.gif","self_paced","","11","complex_dissimilar","images/stimuli/spore_stims/complex_02_A_b.gif","","","","",""
"","null","html-keyboard-response","142","1370784","0.0-31.0-0.2","SS1619739975890","","","null","","","","","","<p><img src= images/blank.png width =""600"" height = ""600"" style=""position:fixed;top:50%; left:50%; transform: translate(-50%, -50%); border:5px solid black"">","","","","","","","",""
"","340.64500010572374","sequential-stimulus-presentation-old","143","1371638","0.0-31.0-1.2","SS1619739975890","trial","","40","500","840.6450001057237","images/stimuli/spore_stims/complex_18_A_a.gif","images/stimuli/spore_stims/complex_02_A_b.gif","self_paced","","11","complex_dissimilar","images/stimuli/spore_stims/complex_02_A_b.gif","","","","",""
"","null","html-keyboard-response","144","1372739","0.0-31.0-0.3","SS1619739975890","","","null","","","","","","<p><img src= images/blank.png width =""600"" height = ""600"" style=""position:fixed;top:50%; left:50%; transform: translate(-50%, -50%); border:5px solid black"">","","","","","","","",""
"","3066.069999942556","sequential-stimulus-presentation-old","145","1376319","0.0-31.0-1.3","SS1619739975890","trial","","40","500","3566.069999942556","images/stimuli/spore_stims/complex_18_A_a.gif","images/stimuli/spore_stims/complex_02_A_b.gif","self_paced","","11","complex_dissimilar","images/stimuli/spore_stims/complex_02_A_b.gif","","","","",""
"","null","html-keyboard-response","146","1377443","0.0-31.0-0.4","SS1619739975890","","","null","","","","","","<p><img src= images/blank.png width =""600"" height = ""600"" style=""position:fixed;top:50%; left:50%; transform: translate(-50%, -50%); border:5px solid black"">","","","","","","","",""
"","10018.48499989137","sequential-stimulus-presentation-old","147","1387981","0.0-31.0-1.4","SS1619739975890","trial","","40","500","10518.48499989137","images/stimuli/spore_stims/complex_18_A_a.gif","images/stimuli/spore_stims/complex_02_A_b.gif","self_paced","","11","complex_dissimilar","images/stimuli/spore_stims/complex_18_A_a.gif","","","","",""
"[{""page_index"":0,""viewing_time"":6289.199999999255}]","6289.494999917224","instructions","148","1394279","0.0-32.0","SS1619739975890","instructions","","","","","","","","","","","","","","","",""
"","9027.10000006482","survey-likert","149","1403312","0.0-33.0","SS1619739975890","similarity_question","","","","","","","","","","","","{""Q0"":3}","[0]","","images/stimuli/spore_stims/complex_16_A_b.gif","images/stimuli/spore_stims/complex_01_A_a.gif"
"","8072.745000012219","survey-likert","150","1411391","0.0-34.0","SS1619739975890","similarity_question","","","","","","","","","","","","{""Q0"":4}","[0]","","images/stimuli/spore_stims/complex_04_A_a.gif","images/stimuli/spore_stims/complex_15_A_b.gif"
"","4337.955000111833","survey-likert","151","1415735","0.0-35.0","SS1619739975890","similarity_question","","","","","","","","","","","","{""Q0"":5}","[0]","","images/stimuli/spore_stims/simple_06_A_a.gif","images/stimuli/spore_stims/simple_08_A_b.gif"
"","2841.9149999972433","survey-likert","152","1418582","0.0-36.0","SS1619739975890","similarity_question","","","","","","","","","","","","{""Q0"":5}","[0]","","images/stimuli/spore_stims/simple_16_A_b.gif","images/stimuli/spore_stims/simple_03_A_a.gif"
"","6290.030000032857","survey-likert","153","1424878","0.0-37.0","SS1619739975890","similarity_question","","","","","","","","","","","","{""Q0"":4}","[0]","","images/stimuli/spore_stims/complex_13_A_b.gif","images/stimuli/spore_stims/complex_09_A_a.gif"
"","1977.7800000738353","survey-likert","154","1426862","0.0-38.0","SS1619739975890","similarity_question","","","","","","","","","","","","{""Q0"":5}","[0]","","images/stimuli/spore_stims/simple_14_A_a.gif","images/stimuli/spore_stims/simple_15_A_b.gif"
"","2202.6249999180436","survey-likert","155","1429070","0.0-39.0","SS1619739975890","similarity_question","","","","","","","","","","","","{""Q0"":5}","[0]","","images/stimuli/spore_stims/simple_04_A_b.gif","images/stimuli/spore_stims/simple_08_A_a.gif"
"","2025.8000001776963","survey-likert","156","1431102","0.0-40.0","SS1619739975890","similarity_question","","","","","","","","","","","","{""Q0"":5}","[0]","","images/stimuli/spore_stims/simple_20_A_b.gif","images/stimuli/spore_stims/simple_05_A_a.gif"
"","1897.8399999905378","survey-likert","157","1433006","0.0-41.0","SS1619739975890","similarity_question","","","","","","","","","","","","{""Q0"":5}","[0]","","images/stimuli/spore_stims/simple_01_A_b.gif","images/stimuli/spore_stims/simple_12_A_a.gif"
"","7081.99999993667","survey-likert","158","1440094","0.0-42.0","SS1619739975890","similarity_question","","","","","","","","","","","","{""Q0"":2}","[0]","","images/stimuli/spore_stims/complex_14_A_b.gif","images/stimuli/spore_stims/complex_02_A_a.gif"
"","6681.439999956638","survey-likert","159","1446781","0.0-43.0","SS1619739975890","similarity_question","","","","","","","","","","","","{""Q0"":1}","[0]","","images/stimuli/spore_stims/complex_02_A_b.gif","images/stimuli/spore_stims/complex_18_A_a.gif"
"","4570.930000161752","survey-likert","160","1451359","0.0-44.0","SS1619739975890","similarity_question","","","","","","","","","","","","{""Q0"":1}","[0]","","images/stimuli/spore_stims/complex_05_A_b.gif","images/stimuli/spore_stims/complex_10_A_a.gif"
"[{""page_index"":0,""viewing_time"":4841.5449999738485}]","4841.939999954775","instructions","161","1456205","0.0-45.0","SS1619739975890","instructions","","","","","","","","","","","","","","","",""
"","4395.830000052229","survey-likert","162","1460606","0.0-46.0","SS1619739975890","","","","","","","","","images/stimuli/spore_stims/simple_04_A_b.gif","","","","{""Q0"":0}","[0]","","",""
"","8232.420000014827","survey-likert","163","1468845","0.0-47.0","SS1619739975890","","","","","","","","","images/stimuli/spore_stims/complex_01_A_a.gif","","","","{""Q0"":4}","[0]","","",""
"","2475.099999923259","survey-likert","164","1471325","0.0-48.0","SS1619739975890","","","","","","","","","images/stimuli/spore_stims/simple_05_A_a.gif","","","","{""Q0"":0}","[0]","","",""
"","2385.984999826178","survey-likert","165","1473717","0.0-49.0","SS1619739975890","","","","","","","","","images/stimuli/spore_stims/simple_03_A_a.gif","","","","{""Q0"":0}","[0]","","",""
"","2305.8499998878688","survey-likert","166","1476029","0.0-50.0","SS1619739975890","","","","","","","","","images/stimuli/spore_stims/complex_04_A_a.gif","","","","{""Q0"":5}","[0]","","",""
"","5017.789999954402","survey-likert","167","1481052","0.0-51.0","SS1619739975890","","","","","","","","","images/stimuli/spore_stims/complex_09_A_a.gif","","","","{""Q0"":5}","[0]","","",""
"","1754.590000025928","survey-likert","168","1482812","0.0-52.0","SS1619739975890","","","","","","","","","images/stimuli/spore_stims/complex_05_A_b.gif","","","","{""Q0"":4}","[0]","","",""
"","2274.2449999786913","survey-likert","169","1485092","0.0-53.0","SS1619739975890","","","","","","","","","images/stimuli/spore_stims/complex_02_A_b.gif","","","","{""Q0"":4}","[0]","","",""
"","3321.8449999112636","survey-likert","170","1488421","0.0-54.0","SS1619739975890","","","","","","","","","images/stimuli/spore_stims/simple_14_A_a.gif","","","","{""Q0"":1}","[0]","","",""
"","4529.890000121668","survey-likert","171","1492956","0.0-55.0","SS1619739975890","","","","","","","","","images/stimuli/spore_stims/simple_08_A_b.gif","","","","{""Q0"":0}","[0]","","",""
"","2282.215000130236","survey-likert","172","1495244","0.0-56.0","SS1619739975890","","","","","","","","","images/stimuli/spore_stims/complex_02_A_a.gif","","","","{""Q0"":4}","[0]","","",""
"","1514.9850000161678","survey-likert","173","1496765","0.0-57.0","SS1619739975890","","","","","","","","","images/stimuli/spore_stims/simple_12_A_a.gif","","","","{""Q0"":1}","[0]","","",""
"[{""page_index"":0,""viewing_time"":2383.9000000152737}]","2384.224999928847","instructions","174","1499156","0.0-58.0","SS1619739975890","instructions","","","","","","","","","","","","","","","",""
"","3778.565000044182","demog-age","175","1502943","0.0-59.0","SS1619739975890","","","","","","","","","","","","","{""age"":""18""}","","","",""
"","5290.26999999769","demog-ethnic-US","176","1508244","0.0-60.0","SS1619739975890","","","","","","","","","","","","","{""ethnicity"":[""White""]}","[0]","","",""
"","9472.950000083074","demog-gender-and-education","177","1517724","0.0-61.0","SS1619739975890","","","","","","","","","","","","","{""gender"":""Male"",""education"":""Some high school""}","[0,1]","","",""
"","10438.77000012435","survey-text","178","1528171","0.0-62.0","SS1619739975890","feedback","","","","","","","","","","","","{""Q0"":""all good""}","","","",""
"[{""page_index"":0,""viewing_time"":1680.7800000533462}]","1681.0200000181794","instructions","179","1529858","0.0-63.0","SS1619739975890","instructions","","","","","","","","","","","","","","","",""
