"view_history","rt","trial_type","trial_index","time_elapsed","internal_node_id","subject","stimulus_type","trial_stimulus","key_press","minimum_viewing_duration","trial_looking_time","block_deviant","block_background","exposure_type","stimulus","block_number","block_type","stimulus_displayed","responses","question_order","math_correct_answer","stimulus_left","stimulus_right"
"[{""page_index"":0,""viewing_time"":6187.405000000581}]","6188.514999999825","instructions","0","6192","0.0-0.0","SS1619739670582","","","","","","","","","","","","","","","","",""
"[{""page_index"":0,""viewing_time"":17048.109999999724},{""page_index"":1,""viewing_time"":25477.445000000444}]","42526.02500000103","instructions","1","50730","0.0-1.0","SS1619739670582","instructions","","","","","","","","","","","","","","","",""
"","24817.29500000074","sequential-stimulus-presentation-old","2","76055","0.0-2.0","SS1619739670582","","","40","500","25317.29500000074","null","null","self_paced","","","","","","","","",""
"","8970.584999999119","sequential-stimulus-presentation-old","3","85529","0.0-3.0","SS1619739670582","","","40","500","9470.584999999119","null","null","self_paced","","","","","","","","",""
"[{""page_index"":0,""viewing_time"":44769.07000000027}]","44769.64000000045","instructions","4","130300","0.0-4.0","SS1619739670582","instructions","","","","","","","","","","","","","","","",""
"","1899.465000000433","sequential-stimulus-presentation-old","5","147205","0.0-5.0","SS1619739670582","","","40","500","2399.465000000433","null","null","forced_long","","","","","","","","",""
"","3966.0450000010314","sequential-stimulus-presentation-old","6","151679","0.0-6.0","SS1619739670582","","","40","500","4466.045000001031","null","null","forced_long","","","","","","","","",""
"[{""page_index"":0,""viewing_time"":3573.9250000005995}]","3574.3299999994633","instructions","7","155255","0.0-7.0","SS1619739670582","instructions","","","","","","","","","","","","","","","",""
"[{""page_index"":0,""viewing_time"":10688.320000001113},{""page_index"":1,""viewing_time"":11631.134999999631},{""page_index"":2,""viewing_time"":6960.450000000477},{""page_index"":3,""viewing_time"":2198.759999999311},{""page_index"":4,""viewing_time"":1971.8250000005355}]","33451.04500000161","instructions","8","188710","0.0-8.0","SS1619739670582","instructions","","","","","","","","","","","","","","","",""
"","null","html-keyboard-response","9","189933","0.0-9.0-0.0","SS1619739670582","","","null","","","","","","<p><img src= images/blank.png width =""600"" height = ""600"" style=""position:fixed;top:50%; left:50%; transform: translate(-50%, -50%); border:5px solid black"">","","","","","","","",""
"","56563.439999999886","sequential-stimulus-presentation-old","10","247003","0.0-9.0-1.0","SS1619739670582","trial","","40","500","57063.439999999886","images/stimuli/spore_stims/simple_11_A_a.gif","images/stimuli/spore_stims/simple_09_A_b.gif","self_paced","","0","simple_dissimilar","images/stimuli/spore_stims/simple_09_A_b.gif","","","","",""
"","null","html-keyboard-response","11","248262","0.0-9.0-0.1","SS1619739670582","","","null","","","","","","<p><img src= images/blank.png width =""600"" height = ""600"" style=""position:fixed;top:50%; left:50%; transform: translate(-50%, -50%); border:5px solid black"">","","","","","","","",""
"","11768.400000000838","sequential-stimulus-presentation-old","12","260534","0.0-9.0-1.1","SS1619739670582","trial","","40","500","12268.400000000838","images/stimuli/spore_stims/simple_11_A_a.gif","images/stimuli/spore_stims/simple_09_A_b.gif","self_paced","","0","simple_dissimilar","images/stimuli/spore_stims/simple_09_A_b.gif","","","","",""
"","null","html-keyboard-response","13","261430","0.0-9.0-0.2","SS1619739670582","","","null","","","","","","<p><img src= images/blank.png width =""600"" height = ""600"" style=""position:fixed;top:50%; left:50%; transform: translate(-50%, -50%); border:5px solid black"">","","","","","","","",""
"","12424.109999999928","sequential-stimulus-presentation-old","14","274359","0.0-9.0-1.2","SS1619739670582","trial","","40","500","12924.109999999928","images/stimuli/spore_stims/simple_11_A_a.gif","images/stimuli/spore_stims/simple_09_A_b.gif","self_paced","","0","simple_dissimilar","images/stimuli/spore_stims/simple_09_A_b.gif","","","","",""
"","null","html-keyboard-response","15","275362","0.0-9.0-0.3","SS1619739670582","","","null","","","","","","<p><img src= images/blank.png width =""600"" height = ""600"" style=""position:fixed;top:50%; left:50%; transform: translate(-50%, -50%); border:5px solid black"">","","","","","","","",""
"","56007.52499999909","sequential-stimulus-presentation-old","16","331885","0.0-9.0-1.3","SS1619739670582","trial","","40","500","56507.52499999909","images/stimuli/spore_stims/simple_11_A_a.gif","images/stimuli/spore_stims/simple_09_A_b.gif","self_paced","","0","simple_dissimilar","images/stimuli/spore_stims/simple_09_A_b.gif","","","","",""
"","6065.565000000759","survey-multi-choice","17","337957","0.0-10.0","SS1619739670582","math_question","","","","","","","","","","","","{""Q0"":""10""}","[0]","10","",""
"","null","html-keyboard-response","18","339207","0.0-11.0-0.0","SS1619739670582","","","null","","","","","","<p><img src= images/blank.png width =""600"" height = ""600"" style=""position:fixed;top:50%; left:50%; transform: translate(-50%, -50%); border:5px solid black"">","","","","","","","",""
"","3661.1899999988964","sequential-stimulus-presentation-old","19","343376","0.0-11.0-1.0","SS1619739670582","trial","","40","500","4161.189999998896","images/stimuli/spore_stims/simple_05_A_b.gif","images/stimuli/spore_stims/simple_03_A_a.gif","forced_short","","1","simple_dissimilar","images/stimuli/spore_stims/simple_03_A_a.gif","","","","",""
"","null","html-keyboard-response","20","344303","0.0-11.0-0.1","SS1619739670582","","","null","","","","","","<p><img src= images/blank.png width =""600"" height = ""600"" style=""position:fixed;top:50%; left:50%; transform: translate(-50%, -50%); border:5px solid black"">","","","","","","","",""
"","44232.684999999066","sequential-stimulus-presentation-old","21","389044","0.0-11.0-1.1","SS1619739670582","trial","","40","500","44732.684999999066","images/stimuli/spore_stims/simple_05_A_b.gif","images/stimuli/spore_stims/simple_03_A_a.gif","forced_short","","1","simple_dissimilar","images/stimuli/spore_stims/simple_03_A_a.gif","","","","",""
"","null","html-keyboard-response","22","390246","0.0-11.0-0.2","SS1619739670582","","","null","","","","","","<p><img src= images/blank.png width =""600"" height = ""600"" style=""position:fixed;top:50%; left:50%; transform: translate(-50%, -50%); border:5px solid black"">","","","","","","","",""
"","3306.1799999995856","sequential-stimulus-presentation-old","23","394059","0.0-11.0-1.2","SS1619739670582","trial","","40","500","3806.1799999995856","images/stimuli/spore_stims/simple_05_A_b.gif","images/stimuli/spore_stims/simple_03_A_a.gif","forced_short","","1","simple_dissimilar","images/stimuli/spore_stims/simple_05_A_b.gif","","","","",""
"","null","html-keyboard-response","24","395166","0.0-11.0-0.3","SS1619739670582","","","null","","","","","","<p><img src= images/blank.png width =""600"" height = ""600"" style=""position:fixed;top:50%; left:50%; transform: translate(-50%, -50%); border:5px solid black"">","","","","","","","",""
"","11398.245000000345","sequential-stimulus-presentation-old","25","407068","0.0-11.0-1.3","SS1619739670582","trial","","40","500","11898.245000000345","images/stimuli/spore_stims/simple_05_A_b.gif","images/stimuli/spore_stims/simple_03_A_a.gif","forced_short","","1","simple_dissimilar","images/stimuli/spore_stims/simple_05_A_b.gif","","","","",""
"","3279.990000000922","survey-multi-choice","26","410352","0.0-12.0","SS1619739670582","math_question","","","","","","","","","","","","{""Q0"":""12""}","[0]","12","",""
"","null","html-keyboard-response","27","411445","0.0-13.0-0.0","SS1619739670582","","","null","","","","","","<p><img src= images/blank.png width =""600"" height = ""600"" style=""position:fixed;top:50%; left:50%; transform: translate(-50%, -50%); border:5px solid black"">","","","","","","","",""
"","809.3300000000163","sequential-stimulus-presentation-old","28","427262","0.0-13.0-1.0","SS1619739670582","trial","","40","500","1309.3300000000163","images/stimuli/spore_stims/simple_13_A_b.gif","images/stimuli/spore_stims/simple_05_A_a.gif","forced_long","","2","simple_dissimilar","images/stimuli/spore_stims/simple_05_A_a.gif","","","","",""
"","null","html-keyboard-response","29","428340","0.0-13.0-0.1","SS1619739670582","","","null","","","","","","<p><img src= images/blank.png width =""600"" height = ""600"" style=""position:fixed;top:50%; left:50%; transform: translate(-50%, -50%); border:5px solid black"">","","","","","","","",""
"","31183.515000000596","sequential-stimulus-presentation-old","30","460030","0.0-13.0-1.1","SS1619739670582","trial","","40","500","31683.515000000596","images/stimuli/spore_stims/simple_13_A_b.gif","images/stimuli/spore_stims/simple_05_A_a.gif","forced_long","","2","simple_dissimilar","images/stimuli/spore_stims/simple_05_A_a.gif","","","","",""
"","null","html-keyboard-response","31","461058","0.0-13.0-0.2","SS1619739670582","","","null","","","","","","<p><img src= images/blank.png width =""600"" height = ""600"" style=""position:fixed;top:50%; left:50%; transform: translate(-50%, -50%); border:5px solid black"">","","","","","","","",""
"","6005.015000000654","sequential-stimulus-presentation-old","32","467569","0.0-13.0-1.2","SS1619739670582","trial","","40","500","6505.015000000654","images/stimuli/spore_stims/simple_13_A_b.gif","images/stimuli/spore_stims/simple_05_A_a.gif","forced_long","","2","simple_dissimilar","images/stimuli/spore_stims/simple_05_A_a.gif","","","","",""
"","null","html-keyboard-response","33","468676","0.0-13.0-0.3","SS1619739670582","","","null","","","","","","<p><img src= images/blank.png width =""600"" height = ""600"" style=""position:fixed;top:50%; left:50%; transform: translate(-50%, -50%); border:5px solid black"">","","","","","","","",""
"","3791.0899999988033","sequential-stimulus-presentation-old","34","472974","0.0-13.0-1.3","SS1619739670582","trial","","40","500","4291.089999998803","images/stimuli/spore_stims/simple_13_A_b.gif","images/stimuli/spore_stims/simple_05_A_a.gif","forced_long","","2","simple_dissimilar","images/stimuli/spore_stims/simple_05_A_a.gif","","","","",""
"","null","html-keyboard-response","35","474186","0.0-13.0-0.4","SS1619739670582","","","null","","","","","","<p><img src= images/blank.png width =""600"" height = ""600"" style=""position:fixed;top:50%; left:50%; transform: translate(-50%, -50%); border:5px solid black"">","","","","","","","",""
"","4354.914999999921","sequential-stimulus-presentation-old","36","479046","0.0-13.0-1.4","SS1619739670582","trial","","40","500","4854.914999999921","images/stimuli/spore_stims/simple_13_A_b.gif","images/stimuli/spore_stims/simple_05_A_a.gif","forced_long","","2","simple_dissimilar","images/stimuli/spore_stims/simple_13_A_b.gif","","","","",""
"","null","html-keyboard-response","37","479983","0.0-13.0-0.5","SS1619739670582","","","null","","","","","","<p><img src= images/blank.png width =""600"" height = ""600"" style=""position:fixed;top:50%; left:50%; transform: translate(-50%, -50%); border:5px solid black"">","","","","","","","",""
"","920.7700000006007","sequential-stimulus-presentation-old","38","481409","0.0-13.0-1.5","SS1619739670582","trial","","40","500","1420.7700000006007","images/stimuli/spore_stims/simple_13_A_b.gif","images/stimuli/spore_stims/simple_05_A_a.gif","forced_long","","2","simple_dissimilar","images/stimuli/spore_stims/simple_13_A_b.gif","","","","",""
"","4432.629999999364","survey-multi-choice","39","485844","0.0-14.0","SS1619739670582","math_question","","","","","","","","","","","","{""Q0"":""3""}","[0]","3","",""
"","null","html-keyboard-response","40","486733","0.0-15.0-0.0","SS1619739670582","","","null","","","","","","<p><img src= images/blank.png width =""600"" height = ""600"" style=""position:fixed;top:50%; left:50%; transform: translate(-50%, -50%); border:5px solid black"">","","","","","","","",""
"","3238.375000000815","sequential-stimulus-presentation-old","41","490478","0.0-15.0-1.0","SS1619739670582","trial","","40","500","3738.375000000815","images/stimuli/spore_stims/simple_20_A_b.gif","images/stimuli/spore_stims/simple_19_A_a.gif","self_paced","","3","simple_dissimilar","images/stimuli/spore_stims/simple_19_A_a.gif","","","","",""
"","null","html-keyboard-response","42","491660","0.0-15.0-0.1","SS1619739670582","","","null","","","","","","<p><img src= images/blank.png width =""600"" height = ""600"" style=""position:fixed;top:50%; left:50%; transform: translate(-50%, -50%); border:5px solid black"">","","","","","","","",""
"","1853.9549999986775","sequential-stimulus-presentation-old","43","494019","0.0-15.0-1.1","SS1619739670582","trial","","40","500","2353.9549999986775","images/stimuli/spore_stims/simple_20_A_b.gif","images/stimuli/spore_stims/simple_19_A_a.gif","self_paced","","3","simple_dissimilar","images/stimuli/spore_stims/simple_19_A_a.gif","","","","",""
"","null","html-keyboard-response","44","494888","0.0-15.0-0.2","SS1619739670582","","","null","","","","","","<p><img src= images/blank.png width =""600"" height = ""600"" style=""position:fixed;top:50%; left:50%; transform: translate(-50%, -50%); border:5px solid black"">","","","","","","","",""
"","2665.3599999990547","sequential-stimulus-presentation-old","45","498059","0.0-15.0-1.2","SS1619739670582","trial","","40","500","3165.3599999990547","images/stimuli/spore_stims/simple_20_A_b.gif","images/stimuli/spore_stims/simple_19_A_a.gif","self_paced","","3","simple_dissimilar","images/stimuli/spore_stims/simple_19_A_a.gif","","","","",""
"","null","html-keyboard-response","46","499336","0.0-15.0-0.3","SS1619739670582","","","null","","","","","","<p><img src= images/blank.png width =""600"" height = ""600"" style=""position:fixed;top:50%; left:50%; transform: translate(-50%, -50%); border:5px solid black"">","","","","","","","",""
"","751.3149999995367","sequential-stimulus-presentation-old","47","500592","0.0-15.0-1.3","SS1619739670582","trial","","40","500","1251.3149999995367","images/stimuli/spore_stims/simple_20_A_b.gif","images/stimuli/spore_stims/simple_19_A_a.gif","self_paced","","3","simple_dissimilar","images/stimuli/spore_stims/simple_19_A_a.gif","","","","",""
"","8614.05999999994","survey-multi-choice","48","509210","0.0-16.0","SS1619739670582","math_question","","","","","","","","","","","","{""Q0"":""4""}","[0]","4","",""
"","null","html-keyboard-response","49","510070","0.0-17.0-0.0","SS1619739670582","","","null","","","","","","<p><img src= images/blank.png width =""600"" height = ""600"" style=""position:fixed;top:50%; left:50%; transform: translate(-50%, -50%); border:5px solid black"">","","","","","","","",""
"","2577.3549999995157","sequential-stimulus-presentation-old","50","513153","0.0-17.0-1.0","SS1619739670582","trial","","40","500","3077.3549999995157","images/stimuli/spore_stims/complex_08_A_a.gif","images/stimuli/spore_stims/complex_03_A_b.gif","forced_short","","4","complex_dissimilar","images/stimuli/spore_stims/complex_03_A_b.gif","","","","",""
"","null","html-keyboard-response","51","513984","0.0-17.0-0.1","SS1619739670582","","","null","","","","","","<p><img src= images/blank.png width =""600"" height = ""600"" style=""position:fixed;top:50%; left:50%; transform: translate(-50%, -50%); border:5px solid black"">","","","","","","","",""
"","6175.934999999241","sequential-stimulus-presentation-old","52","520667","0.0-17.0-1.1","SS1619739670582","trial","","40","500","6675.934999999241","images/stimuli/spore_stims/complex_08_A_a.gif","images/stimuli/spore_stims/complex_03_A_b.gif","forced_short","","4","complex_dissimilar","images/stimuli/spore_stims/complex_03_A_b.gif","","","","",""
"","null","html-keyboard-response","53","521814","0.0-17.0-0.2","SS1619739670582","","","null","","","","","","<p><img src= images/blank.png width =""600"" height = ""600"" style=""position:fixed;top:50%; left:50%; transform: translate(-50%, -50%); border:5px solid black"">","","","","","","","",""
"","5889.929999999353","sequential-stimulus-presentation-old","54","528210","0.0-17.0-1.2","SS1619739670582","trial","","40","500","6389.929999999353","images/stimuli/spore_stims/complex_08_A_a.gif","images/stimuli/spore_stims/complex_03_A_b.gif","forced_short","","4","complex_dissimilar","images/stimuli/spore_stims/complex_08_A_a.gif","","","","",""
"","null","html-keyboard-response","55","529062","0.0-17.0-0.3","SS1619739670582","","","null","","","","","","<p><img src= images/blank.png width =""600"" height = ""600"" style=""position:fixed;top:50%; left:50%; transform: translate(-50%, -50%); border:5px solid black"">","","","","","","","",""
"","7684.339999999735","sequential-stimulus-presentation-old","56","537253","0.0-17.0-1.3","SS1619739670582","trial","","40","500","8184.339999999735","images/stimuli/spore_stims/complex_08_A_a.gif","images/stimuli/spore_stims/complex_03_A_b.gif","forced_short","","4","complex_dissimilar","images/stimuli/spore_stims/complex_03_A_b.gif","","","","",""
"","3221.6999999999534","survey-multi-choice","57","540478","0.0-18.0","SS1619739670582","math_question","","","","","","","","","","","","{""Q0"":""8""}","[0]","8","",""
"","null","html-keyboard-response","58","541549","0.0-19.0-0.0","SS1619739670582","","","null","","","","","","<p><img src= images/blank.png width =""600"" height = ""600"" style=""position:fixed;top:50%; left:50%; transform: translate(-50%, -50%); border:5px solid black"">","","","","","","","",""
"","705.2199999997392","sequential-stimulus-presentation-old","59","557262","0.0-19.0-1.0","SS1619739670582","trial","","40","500","1205.2199999997392","images/stimuli/spore_stims/complex_04_A_a.gif","images/stimuli/spore_stims/complex_15_A_b.gif","forced_long","","5","complex_dissimilar","images/stimuli/spore_stims/complex_15_A_b.gif","","","","",""
"","null","html-keyboard-response","60","558271","0.0-19.0-0.1","SS1619739670582","","","null","","","","","","<p><img src= images/blank.png width =""600"" height = ""600"" style=""position:fixed;top:50%; left:50%; transform: translate(-50%, -50%); border:5px solid black"">","","","","","","","",""
"","1632.1100000004517","sequential-stimulus-presentation-old","61","560413","0.0-19.0-1.1","SS1619739670582","trial","","40","500","2132.1100000004517","images/stimuli/spore_stims/complex_04_A_a.gif","images/stimuli/spore_stims/complex_15_A_b.gif","forced_long","","5","complex_dissimilar","images/stimuli/spore_stims/complex_15_A_b.gif","","","","",""
"","null","html-keyboard-response","62","561261","0.0-19.0-0.2","SS1619739670582","","","null","","","","","","<p><img src= images/blank.png width =""600"" height = ""600"" style=""position:fixed;top:50%; left:50%; transform: translate(-50%, -50%); border:5px solid black"">","","","","","","","",""
"","8068.704999999725","sequential-stimulus-presentation-old","63","569836","0.0-19.0-1.2","SS1619739670582","trial","","40","500","8568.704999999725","images/stimuli/spore_stims/complex_04_A_a.gif","images/stimuli/spore_stims/complex_15_A_b.gif","forced_long","","5","complex_dissimilar","images/stimuli/spore_stims/complex_04_A_a.gif","","","","",""
"","null","html-keyboard-response","64","570752","0.0-19.0-0.3","SS1619739670582","","","null","","","","","","<p><img src= images/blank.png width =""600"" height = ""600"" style=""position:fixed;top:50%; left:50%; transform: translate(-50%, -50%); border:5px solid black"">","","","","","","","",""
"","3066.6099999998696","sequential-stimulus-presentation-old","65","574324","0.0-19.0-1.3","SS1619739670582","trial","","40","500","3566.6099999998696","images/stimuli/spore_stims/complex_04_A_a.gif","images/stimuli/spore_stims/complex_15_A_b.gif","forced_long","","5","complex_dissimilar","images/stimuli/spore_stims/complex_15_A_b.gif","","","","",""
"","null","html-keyboard-response","66","575294","0.0-19.0-0.4","SS1619739670582","","","null","","","","","","<p><img src= images/blank.png width =""600"" height = ""600"" style=""position:fixed;top:50%; left:50%; transform: translate(-50%, -50%); border:5px solid black"">","","","","","","","",""
"","2040.6349999994272","sequential-stimulus-presentation-old","67","577840","0.0-19.0-1.4","SS1619739670582","trial","","40","500","2540.6349999994272","images/stimuli/spore_stims/complex_04_A_a.gif","images/stimuli/spore_stims/complex_15_A_b.gif","forced_long","","5","complex_dissimilar","images/stimuli/spore_stims/complex_15_A_b.gif","","","","",""
"","2897.6199999997625","survey-multi-choice","68","580741","0.0-20.0","SS1619739670582","math_question","","","","","","","","","","","","{""Q0"":""8""}","[0]","8","",""
"","null","html-keyboard-response","69","581620","0.0-21.0-0.0","SS1619739670582","","","null","","","","","","<p><img src= images/blank.png width =""600"" height = ""600"" style=""position:fixed;top:50%; left:50%; transform: translate(-50%, -50%); border:5px solid black"">","","","","","","","",""
"","4175.110000000219","sequential-stimulus-presentation-old","70","586306","0.0-21.0-1.0","SS1619739670582","trial","","40","500","4675.110000000219","images/stimuli/spore_stims/complex_17_A_a.gif","images/stimuli/spore_stims/complex_01_A_b.gif","forced_short","","6","complex_dissimilar","images/stimuli/spore_stims/complex_01_A_b.gif","","","","",""
"","null","html-keyboard-response","71","587178","0.0-21.0-0.1","SS1619739670582","","","null","","","","","","<p><img src= images/blank.png width =""600"" height = ""600"" style=""position:fixed;top:50%; left:50%; transform: translate(-50%, -50%); border:5px solid black"">","","","","","","","",""
"","3177.384999999078","sequential-stimulus-presentation-old","72","590861","0.0-21.0-1.1","SS1619739670582","trial","","40","500","3677.384999999078","images/stimuli/spore_stims/complex_17_A_a.gif","images/stimuli/spore_stims/complex_01_A_b.gif","forced_short","","6","complex_dissimilar","images/stimuli/spore_stims/complex_01_A_b.gif","","","","",""
"","null","html-keyboard-response","73","591941","0.0-21.0-0.2","SS1619739670582","","","null","","","","","","<p><img src= images/blank.png width =""600"" height = ""600"" style=""position:fixed;top:50%; left:50%; transform: translate(-50%, -50%); border:5px solid black"">","","","","","","","",""
"","6793.604999998934","sequential-stimulus-presentation-old","74","599241","0.0-21.0-1.2","SS1619739670582","trial","","40","500","7293.604999998934","images/stimuli/spore_stims/complex_17_A_a.gif","images/stimuli/spore_stims/complex_01_A_b.gif","forced_short","","6","complex_dissimilar","images/stimuli/spore_stims/complex_01_A_b.gif","","","","",""
"","null","html-keyboard-response","75","600253","0.0-21.0-0.3","SS1619739670582","","","null","","","","","","<p><img src= images/blank.png width =""600"" height = ""600"" style=""position:fixed;top:50%; left:50%; transform: translate(-50%, -50%); border:5px solid black"">","","","","","","","",""
"","2934.255000000121","sequential-stimulus-presentation-old","76","603693","0.0-21.0-1.3","SS1619739670582","trial","","40","500","3434.255000000121","images/stimuli/spore_stims/complex_17_A_a.gif","images/stimuli/spore_stims/complex_01_A_b.gif","forced_short","","6","complex_dissimilar","images/stimuli/spore_stims/complex_17_A_a.gif","","","","",""
"","null","html-keyboard-response","77","604830","0.0-21.0-0.4","SS1619739670582","","","null","","","","","","<p><img src= images/blank.png width =""600"" height = ""600"" style=""position:fixed;top:50%; left:50%; transform: translate(-50%, -50%); border:5px solid black"">","","","","","","","",""
"","328.0049999994226","sequential-stimulus-presentation-old","78","605664","0.0-21.0-1.4","SS1619739670582","trial","","40","500","828.0049999994226","images/stimuli/spore_stims/complex_17_A_a.gif","images/stimuli/spore_stims/complex_01_A_b.gif","forced_short","","6","complex_dissimilar","images/stimuli/spore_stims/complex_01_A_b.gif","","","","",""
"","null","html-keyboard-response","79","606483","0.0-21.0-0.5","SS1619739670582","","","null","","","","","","<p><img src= images/blank.png width =""600"" height = ""600"" style=""position:fixed;top:50%; left:50%; transform: translate(-50%, -50%); border:5px solid black"">","","","","","","","",""
"","2310.4299999995856","sequential-stimulus-presentation-old","80","609301","0.0-21.0-1.5","SS1619739670582","trial","","40","500","2810.4299999995856","images/stimuli/spore_stims/complex_17_A_a.gif","images/stimuli/spore_stims/complex_01_A_b.gif","forced_short","","6","complex_dissimilar","images/stimuli/spore_stims/complex_17_A_a.gif","","","","",""
"","2882.3549999997485","survey-multi-choice","81","612188","0.0-22.0","SS1619739670582","math_question","","","","","","","","","","","","{""Q0"":""10""}","[0]","10","",""
"","null","html-keyboard-response","82","613073","0.0-23.0-0.0","SS1619739670582","","","null","","","","","","<p><img src= images/blank.png width =""600"" height = ""600"" style=""position:fixed;top:50%; left:50%; transform: translate(-50%, -50%); border:5px solid black"">","","","","","","","",""
"","1750.535000000964","sequential-stimulus-presentation-old","83","615331","0.0-23.0-1.0","SS1619739670582","trial","","40","500","2250.535000000964","images/stimuli/spore_stims/complex_13_A_a.gif","images/stimuli/spore_stims/complex_08_A_b.gif","self_paced","","7","complex_dissimilar","images/stimuli/spore_stims/complex_08_A_b.gif","","","","",""
"","null","html-keyboard-response","84","616487","0.0-23.0-0.1","SS1619739670582","","","null","","","","","","<p><img src= images/blank.png width =""600"" height = ""600"" style=""position:fixed;top:50%; left:50%; transform: translate(-50%, -50%); border:5px solid black"">","","","","","","","",""
"","1624.8300000006566","sequential-stimulus-presentation-old","85","618617","0.0-23.0-1.1","SS1619739670582","trial","","40","500","2124.8300000006566","images/stimuli/spore_stims/complex_13_A_a.gif","images/stimuli/spore_stims/complex_08_A_b.gif","self_paced","","7","complex_dissimilar","images/stimuli/spore_stims/complex_08_A_b.gif","","","","",""
"","null","html-keyboard-response","86","619819","0.0-23.0-0.2","SS1619739670582","","","null","","","","","","<p><img src= images/blank.png width =""600"" height = ""600"" style=""position:fixed;top:50%; left:50%; transform: translate(-50%, -50%); border:5px solid black"">","","","","","","","",""
"","6577.699999999721","sequential-stimulus-presentation-old","87","626903","0.0-23.0-1.2","SS1619739670582","trial","","40","500","7077.699999999721","images/stimuli/spore_stims/complex_13_A_a.gif","images/stimuli/spore_stims/complex_08_A_b.gif","self_paced","","7","complex_dissimilar","images/stimuli/spore_stims/complex_08_A_b.gif","","","","",""
"","null","html-keyboard-response","88","628142","0.0-23.0-0.3","SS1619739670582","","","null","","","","","","<p><img src= images/blank.png width =""600"" height = ""600"" style=""position:fixed;top:50%; left:50%; transform: translate(-50%, -50%); border:5px solid black"">","","","","","","","",""
"","727.7100000011269","sequential-stimulus-presentation-old","89","629376","0.0-23.0-1.3","SS1619739670582","trial","","40","500","1227.710000001127","images/stimuli/spore_stims/complex_13_A_a.gif","images/stimuli/spore_stims/complex_08_A_b.gif","self_paced","","7","complex_dissimilar","images/stimuli/spore_stims/complex_08_A_b.gif","","","","",""
"","null","html-keyboard-response","90","630472","0.0-23.0-0.4","SS1619739670582","","","null","","","","","","<p><img src= images/blank.png width =""600"" height = ""600"" style=""position:fixed;top:50%; left:50%; transform: translate(-50%, -50%); border:5px solid black"">","","","","","","","",""
"","1785.4449999994831","sequential-stimulus-presentation-old","91","632763","0.0-23.0-1.4","SS1619739670582","trial","","40","500","2285.444999999483","images/stimuli/spore_stims/complex_13_A_a.gif","images/stimuli/spore_stims/complex_08_A_b.gif","self_paced","","7","complex_dissimilar","images/stimuli/spore_stims/complex_08_A_b.gif","","","","",""
"","3141.4350000013364","survey-multi-choice","92","635908","0.0-24.0","SS1619739670582","math_question","","","","","","","","","","","","{""Q0"":""10""}","[0]","10","",""
"","null","html-keyboard-response","93","636867","0.0-25.0-0.0","SS1619739670582","","","null","","","","","","<p><img src= images/blank.png width =""600"" height = ""600"" style=""position:fixed;top:50%; left:50%; transform: translate(-50%, -50%); border:5px solid black"">","","","","","","","",""
"","5352.194999999483","sequential-stimulus-presentation-old","94","642727","0.0-25.0-1.0","SS1619739670582","trial","","40","500","5852.194999999483","images/stimuli/spore_stims/simple_13_A_a.gif","images/stimuli/spore_stims/simple_03_A_b.gif","forced_short","","8","simple_dissimilar","images/stimuli/spore_stims/simple_03_A_b.gif","","","","",""
"","null","html-keyboard-response","95","643627","0.0-25.0-0.1","SS1619739670582","","","null","","","","","","<p><img src= images/blank.png width =""600"" height = ""600"" style=""position:fixed;top:50%; left:50%; transform: translate(-50%, -50%); border:5px solid black"">","","","","","","","",""
"","4217.1200000011595","sequential-stimulus-presentation-old","96","648350","0.0-25.0-1.1","SS1619739670582","trial","","40","500","4717.1200000011595","images/stimuli/spore_stims/simple_13_A_a.gif","images/stimuli/spore_stims/simple_03_A_b.gif","forced_short","","8","simple_dissimilar","images/stimuli/spore_stims/simple_13_A_a.gif","","","","",""
"","null","html-keyboard-response","97","649568","0.0-25.0-0.2","SS1619739670582","","","null","","","","","","<p><img src= images/blank.png width =""600"" height = ""600"" style=""position:fixed;top:50%; left:50%; transform: translate(-50%, -50%); border:5px solid black"">","","","","","","","",""
"","1406.759999999893","sequential-stimulus-presentation-old","98","651482","0.0-25.0-1.2","SS1619739670582","trial","","40","500","1906.759999999893","images/stimuli/spore_stims/simple_13_A_a.gif","images/stimuli/spore_stims/simple_03_A_b.gif","forced_short","","8","simple_dissimilar","images/stimuli/spore_stims/simple_03_A_b.gif","","","","",""
"","null","html-keyboard-response","99","652292","0.0-25.0-0.3","SS1619739670582","","","null","","","","","","<p><img src= images/blank.png width =""600"" height = ""600"" style=""position:fixed;top:50%; left:50%; transform: translate(-50%, -50%); border:5px solid black"">","","","","","","","",""
"","1004.84499999939","sequential-stimulus-presentation-old","100","653803","0.0-25.0-1.3","SS1619739670582","trial","","40","500","1504.84499999939","images/stimuli/spore_stims/simple_13_A_a.gif","images/stimuli/spore_stims/simple_03_A_b.gif","forced_short","","8","simple_dissimilar","images/stimuli/spore_stims/simple_03_A_b.gif","","","","",""
"","null","html-keyboard-response","101","654864","0.0-25.0-0.4","SS1619739670582","","","null","","","","","","<p><img src= images/blank.png width =""600"" height = ""600"" style=""position:fixed;top:50%; left:50%; transform: translate(-50%, -50%); border:5px solid black"">","","","","","","","",""
"","797.4749999993946","sequential-stimulus-presentation-old","102","656169","0.0-25.0-1.4","SS1619739670582","trial","","40","500","1297.4749999993946","images/stimuli/spore_stims/simple_13_A_a.gif","images/stimuli/spore_stims/simple_03_A_b.gif","forced_short","","8","simple_dissimilar","images/stimuli/spore_stims/simple_13_A_a.gif","","","","",""
"","11132.424999999814","survey-multi-choice","103","667305","0.0-26.0","SS1619739670582","math_question","","","","","","","","","","","","{""Q0"":""14""}","[0]","14","",""
"","null","html-keyboard-response","104","668224","0.0-27.0-0.0","SS1619739670582","","","null","","","","","","<p><img src= images/blank.png width =""600"" height = ""600"" style=""position:fixed;top:50%; left:50%; transform: translate(-50%, -50%); border:5px solid black"">","","","","","","","",""
"","600.5299999996787","sequential-stimulus-presentation-old","105","683832","0.0-27.0-1.0","SS1619739670582","trial","","40","500","1100.5299999996787","images/stimuli/spore_stims/complex_18_A_b.gif","images/stimuli/spore_stims/complex_20_A_a.gif","forced_long","","9","complex_dissimilar","images/stimuli/spore_stims/complex_20_A_a.gif","","","","",""
"","null","html-keyboard-response","106","684906","0.0-27.0-0.1","SS1619739670582","","","null","","","","","","<p><img src= images/blank.png width =""600"" height = ""600"" style=""position:fixed;top:50%; left:50%; transform: translate(-50%, -50%); border:5px solid black"">","","","","","","","",""
"","1712.0900000010151","sequential-stimulus-presentation-old","107","687125","0.0-27.0-1.1","SS1619739670582","trial","","40","500","2212.090000001015","images/stimuli/spore_stims/complex_18_A_b.gif","images/stimuli/spore_stims/complex_20_A_a.gif","forced_long","","9","complex_dissimilar","images/stimuli/spore_stims/complex_20_A_a.gif","","","","",""
"","null","html-keyboard-response","108","688065","0.0-27.0-0.2","SS1619739670582","","","null","","","","","","<p><img src= images/blank.png width =""600"" height = ""600"" style=""position:fixed;top:50%; left:50%; transform: translate(-50%, -50%); border:5px solid black"">","","","","","","","",""
"","7861.365000000689","sequential-stimulus-presentation-old","109","696435","0.0-27.0-1.2","SS1619739670582","trial","","40","500","8361.36500000069","images/stimuli/spore_stims/complex_18_A_b.gif","images/stimuli/spore_stims/complex_20_A_a.gif","forced_long","","9","complex_dissimilar","images/stimuli/spore_stims/complex_20_A_a.gif","","","","",""
"","null","html-keyboard-response","110","697525","0.0-27.0-0.3","SS1619739670582","","","null","","","","","","<p><img src= images/blank.png width =""600"" height = ""600"" style=""position:fixed;top:50%; left:50%; transform: translate(-50%, -50%); border:5px solid black"">","","","","","","","",""
"","59.77500000153668","sequential-stimulus-presentation-old","111","698093","0.0-27.0-1.3","SS1619739670582","trial","","40","500","559.7750000015367","images/stimuli/spore_stims/complex_18_A_b.gif","images/stimuli/spore_stims/complex_20_A_a.gif","forced_long","","9","complex_dissimilar","images/stimuli/spore_stims/complex_20_A_a.gif","","","","",""
"","null","html-keyboard-response","112","699008","0.0-27.0-0.4","SS1619739670582","","","null","","","","","","<p><img src= images/blank.png width =""600"" height = ""600"" style=""position:fixed;top:50%; left:50%; transform: translate(-50%, -50%); border:5px solid black"">","","","","","","","",""
"","605.5849999993807","sequential-stimulus-presentation-old","113","700120","0.0-27.0-1.4","SS1619739670582","trial","","40","500","1105.5849999993807","images/stimuli/spore_stims/complex_18_A_b.gif","images/stimuli/spore_stims/complex_20_A_a.gif","forced_long","","9","complex_dissimilar","images/stimuli/spore_stims/complex_20_A_a.gif","","","","",""
"","null","html-keyboard-response","114","700951","0.0-27.0-0.5","SS1619739670582","","","null","","","","","","<p><img src= images/blank.png width =""600"" height = ""600"" style=""position:fixed;top:50%; left:50%; transform: translate(-50%, -50%); border:5px solid black"">","","","","","","","",""
"","763.1799999999348","sequential-stimulus-presentation-old","115","702221","0.0-27.0-1.5","SS1619739670582","trial","","40","500","1263.1799999999348","images/stimuli/spore_stims/complex_18_A_b.gif","images/stimuli/spore_stims/complex_20_A_a.gif","forced_long","","9","complex_dissimilar","images/stimuli/spore_stims/complex_20_A_a.gif","","","","",""
"","3035.9349999999395","survey-multi-choice","116","705263","0.0-28.0","SS1619739670582","math_question","","","","","","","","","","","","{""Q0"":""6""}","[0]","6","",""
"","null","html-keyboard-response","117","706108","0.0-29.0-0.0","SS1619739670582","","","null","","","","","","<p><img src= images/blank.png width =""600"" height = ""600"" style=""position:fixed;top:50%; left:50%; transform: translate(-50%, -50%); border:5px solid black"">","","","","","","","",""
"","24335.40000000177","sequential-stimulus-presentation-old","118","730950","0.0-29.0-1.0","SS1619739670582","trial","","40","500","24835.40000000177","images/stimuli/spore_stims/complex_06_A_a.gif","images/stimuli/spore_stims/complex_13_A_b.gif","self_paced","","10","complex_dissimilar","images/stimuli/spore_stims/complex_13_A_b.gif","","","","",""
"","null","html-keyboard-response","119","732155","0.0-29.0-0.1","SS1619739670582","","","null","","","","","","<p><img src= images/blank.png width =""600"" height = ""600"" style=""position:fixed;top:50%; left:50%; transform: translate(-50%, -50%); border:5px solid black"">","","","","","","","",""
"","429.9350000000559","sequential-stimulus-presentation-old","120","733093","0.0-29.0-1.1","SS1619739670582","trial","","40","500","929.9350000000559","images/stimuli/spore_stims/complex_06_A_a.gif","images/stimuli/spore_stims/complex_13_A_b.gif","self_paced","","10","complex_dissimilar","images/stimuli/spore_stims/complex_06_A_a.gif","","","","",""
"","null","html-keyboard-response","121","734240","0.0-29.0-0.2","SS1619739670582","","","null","","","","","","<p><img src= images/blank.png width =""600"" height = ""600"" style=""position:fixed;top:50%; left:50%; transform: translate(-50%, -50%); border:5px solid black"">","","","","","","","",""
"","1551.9350000013364","sequential-stimulus-presentation-old","122","736298","0.0-29.0-1.2","SS1619739670582","trial","","40","500","2051.9350000013364","images/stimuli/spore_stims/complex_06_A_a.gif","images/stimuli/spore_stims/complex_13_A_b.gif","self_paced","","10","complex_dissimilar","images/stimuli/spore_stims/complex_13_A_b.gif","","","","",""
"","null","html-keyboard-response","123","737288","0.0-29.0-0.3","SS1619739670582","","","null","","","","","","<p><img src= images/blank.png width =""600"" height = ""600"" style=""position:fixed;top:50%; left:50%; transform: translate(-50%, -50%); border:5px solid black"">","","","","","","","",""
"","1656.6550000007264","sequential-stimulus-presentation-old","124","739452","0.0-29.0-1.3","SS1619739670582","trial","","40","500","2156.6550000007264","images/stimuli/spore_stims/complex_06_A_a.gif","images/stimuli/spore_stims/complex_13_A_b.gif","self_paced","","10","complex_dissimilar","images/stimuli/spore_stims/complex_13_A_b.gif","","","","",""
"","3636.6799999995856","survey-multi-choice","125","743094","0.0-30.0","SS1619739670582","math_question","","","","","","","","","","","","{""Q0"":""10""}","[0]","10","",""
"","null","html-keyboard-response","126","744079","0.0-31.0-0.0","SS1619739670582","","","null","","","","","","<p><img src= images/blank.png width =""600"" height = ""600"" style=""position:fixed;top:50%; left:50%; transform: translate(-50%, -50%); border:5px solid black"">","","","","","","","",""
"","5688.559999998775","sequential-stimulus-presentation-old","127","764777","0.0-31.0-1.0","SS1619739670582","trial","","40","500","6188.559999998775","images/stimuli/spore_stims/simple_18_A_b.gif","images/stimuli/spore_stims/simple_01_A_a.gif","forced_long","","11","simple_dissimilar","images/stimuli/spore_stims/simple_01_A_a.gif","","","","",""
"","null","html-keyboard-response","128","766066","0.0-31.0-0.1","SS1619739670582","","","null","","","","","","<p><img src= images/blank.png width =""600"" height = ""600"" style=""position:fixed;top:50%; left:50%; transform: translate(-50%, -50%); border:5px solid black"">","","","","","","","",""
"","1027.6349999986123","sequential-stimulus-presentation-old","129","767601","0.0-31.0-1.1","SS1619739670582","trial","","40","500","1527.6349999986123","images/stimuli/spore_stims/simple_18_A_b.gif","images/stimuli/spore_stims/simple_01_A_a.gif","forced_long","","11","simple_dissimilar","images/stimuli/spore_stims/simple_01_A_a.gif","","","","",""
"","null","html-keyboard-response","130","768553","0.0-31.0-0.2","SS1619739670582","","","null","","","","","","<p><img src= images/blank.png width =""600"" height = ""600"" style=""position:fixed;top:50%; left:50%; transform: translate(-50%, -50%); border:5px solid black"">","","","","","","","",""
"","298.05500000109896","sequential-stimulus-presentation-old","131","769357","0.0-31.0-1.2","SS1619739670582","trial","","40","500","798.055000001099","images/stimuli/spore_stims/simple_18_A_b.gif","images/stimuli/spore_stims/simple_01_A_a.gif","forced_long","","11","simple_dissimilar","images/stimuli/spore_stims/simple_01_A_a.gif","","","","",""
"","null","html-keyboard-response","132","770394","0.0-31.0-0.3","SS1619739670582","","","null","","","","","","<p><img src= images/blank.png width =""600"" height = ""600"" style=""position:fixed;top:50%; left:50%; transform: translate(-50%, -50%); border:5px solid black"">","","","","","","","",""
"","62.79999999969732","sequential-stimulus-presentation-old","133","770965","0.0-31.0-1.3","SS1619739670582","trial","","40","500","562.7999999996973","images/stimuli/spore_stims/simple_18_A_b.gif","images/stimuli/spore_stims/simple_01_A_a.gif","forced_long","","11","simple_dissimilar","images/stimuli/spore_stims/simple_01_A_a.gif","","","","",""
"[{""page_index"":0,""viewing_time"":6011.230000000098}]","6011.6200000011595","instructions","134","776981","0.0-32.0","SS1619739670582","instructions","","","","","","","","","","","","","","","",""
"","10350.12999999884","survey-likert","135","787340","0.0-33.0","SS1619739670582","similarity_question","","","","","","","","","","","","{""Q0"":1}","[0]","","images/stimuli/spore_stims/complex_15_A_b.gif","images/stimuli/spore_stims/complex_04_A_a.gif"
"","4919.380000001169","survey-likert","136","792266","0.0-34.0","SS1619739670582","similarity_question","","","","","","","","","","","","{""Q0"":5}","[0]","","images/stimuli/spore_stims/simple_19_A_a.gif","images/stimuli/spore_stims/simple_20_A_b.gif"
"","5088.2200000014855","survey-likert","137","797362","0.0-35.0","SS1619739670582","similarity_question","","","","","","","","","","","","{""Q0"":3}","[0]","","images/stimuli/spore_stims/complex_03_A_b.gif","images/stimuli/spore_stims/complex_08_A_a.gif"
"","10272.45000000042","survey-likert","138","807643","0.0-36.0","SS1619739670582","similarity_question","","","","","","","","","","","","{""Q0"":3}","[0]","","images/stimuli/spore_stims/simple_11_A_a.gif","images/stimuli/spore_stims/simple_09_A_b.gif"
"","5525.524999999092","survey-likert","139","813175","0.0-37.0","SS1619739670582","similarity_question","","","","","","","","","","","","{""Q0"":4}","[0]","","images/stimuli/spore_stims/complex_18_A_b.gif","images/stimuli/spore_stims/complex_20_A_a.gif"
"","4553.025000001071","survey-likert","140","817735","0.0-38.0","SS1619739670582","similarity_question","","","","","","","","","","","","{""Q0"":5}","[0]","","images/stimuli/spore_stims/complex_06_A_a.gif","images/stimuli/spore_stims/complex_13_A_b.gif"
"","5078.864999999525","survey-likert","141","822822","0.0-39.0","SS1619739670582","similarity_question","","","","","","","","","","","","{""Q0"":6}","[0]","","images/stimuli/spore_stims/simple_03_A_b.gif","images/stimuli/spore_stims/simple_13_A_a.gif"
"","6420.604999999399","survey-likert","142","829250","0.0-40.0","SS1619739670582","similarity_question","","","","","","","","","","","","{""Q0"":4}","[0]","","images/stimuli/spore_stims/simple_18_A_b.gif","images/stimuli/spore_stims/simple_01_A_a.gif"
"","7046.774999998859","survey-likert","143","836304","0.0-41.0","SS1619739670582","similarity_question","","","","","","","","","","","","{""Q0"":2}","[0]","","images/stimuli/spore_stims/complex_01_A_b.gif","images/stimuli/spore_stims/complex_17_A_a.gif"
"","6001.2200000000885","survey-likert","144","842314","0.0-42.0","SS1619739670582","similarity_question","","","","","","","","","","","","{""Q0"":4}","[0]","","images/stimuli/spore_stims/simple_03_A_a.gif","images/stimuli/spore_stims/simple_05_A_b.gif"
"","8939.875","survey-likert","145","851260","0.0-43.0","SS1619739670582","similarity_question","","","","","","","","","","","","{""Q0"":3}","[0]","","images/stimuli/spore_stims/complex_13_A_a.gif","images/stimuli/spore_stims/complex_08_A_b.gif"
"","6683.665000000503","survey-likert","146","857953","0.0-44.0","SS1619739670582","similarity_question","","","","","","","","","","","","{""Q0"":4}","[0]","","images/stimuli/spore_stims/simple_13_A_b.gif","images/stimuli/spore_stims/simple_05_A_a.gif"
"[{""page_index"":0,""viewing_time"":6081.79999999993}]","6082.655000000144","instructions","147","864042","0.0-45.0","SS1619739670582","instructions","","","","","","","","","","","","","","","",""
"","7109.580000000307","survey-likert","148","871157","0.0-46.0","SS1619739670582","","","","","","","","","images/stimuli/spore_stims/complex_13_A_b.gif","","","","{""Q0"":4}","[0]","","",""
"","5324.599999999977","survey-likert","149","876491","0.0-47.0","SS1619739670582","","","","","","","","","images/stimuli/spore_stims/simple_18_A_b.gif","","","","{""Q0"":1}","[0]","","",""
"","3756.4700000003213","survey-likert","150","880256","0.0-48.0","SS1619739670582","","","","","","","","","images/stimuli/spore_stims/complex_01_A_b.gif","","","","{""Q0"":4}","[0]","","",""
"","4072.5550000006333","survey-likert","151","884336","0.0-49.0","SS1619739670582","","","","","","","","","images/stimuli/spore_stims/simple_03_A_b.gif","","","","{""Q0"":1}","[0]","","",""
"","5760.630000000703","survey-likert","152","890107","0.0-50.0","SS1619739670582","","","","","","","","","images/stimuli/spore_stims/complex_18_A_b.gif","","","","{""Q0"":4}","[0]","","",""
"","3342.875000000233","survey-likert","153","893458","0.0-51.0","SS1619739670582","","","","","","","","","images/stimuli/spore_stims/simple_05_A_a.gif","","","","{""Q0"":0}","[0]","","",""
"","2782.975000000093","survey-likert","154","896248","0.0-52.0","SS1619739670582","","","","","","","","","images/stimuli/spore_stims/simple_05_A_b.gif","","","","{""Q0"":0}","[0]","","",""
"","6300.4999999993015","survey-likert","155","902557","0.0-53.0","SS1619739670582","","","","","","","","","images/stimuli/spore_stims/complex_08_A_a.gif","","","","{""Q0"":5}","[0]","","",""
"","3097.1399999998976","survey-likert","156","905663","0.0-54.0","SS1619739670582","","","","","","","","","images/stimuli/spore_stims/complex_13_A_a.gif","","","","{""Q0"":5}","[0]","","",""
"","3807.140000000829","survey-likert","157","909478","0.0-55.0","SS1619739670582","","","","","","","","","images/stimuli/spore_stims/complex_04_A_a.gif","","","","{""Q0"":5}","[0]","","",""
"","3621.0449999999255","survey-likert","158","913107","0.0-56.0","SS1619739670582","","","","","","","","","images/stimuli/spore_stims/simple_20_A_b.gif","","","","{""Q0"":2}","[0]","","",""
"","4519.630000000703","survey-likert","159","917634","0.0-57.0","SS1619739670582","","","","","","","","","images/stimuli/spore_stims/simple_09_A_b.gif","","","","{""Q0"":1}","[0]","","",""
"[{""page_index"":0,""viewing_time"":3205.89500000095}]","3206.3649999999907","instructions","160","920846","0.0-58.0","SS1619739670582","instructions","","","","","","","","","","","","","","","",""
"","3372.385000000475","demog-age","161","924230","0.0-59.0","SS1619739670582","","","","","","","","","","","","","{""age"":""27""}","","","",""
"","4060.5200000008335","demog-ethnic-US","162","928303","0.0-60.0","SS1619739670582","","","","","","","","","","","","","{""ethnicity"":[""White""]}","[0]","","",""
"","15689.014999999898","demog-gender-and-education","163","944000","0.0-61.0","SS1619739670582","","","","","","","","","","","","","{""gender"":""Male"",""education"":""Bachelor's Degree""}","[0,1]","","",""
"","12891.374999999302","survey-text","164","956906","0.0-62.0","SS1619739670582","feedback","","","","","","","","","","","","{""Q0"":""no issue""}","","","",""
"[{""page_index"":0,""viewing_time"":3036.3199999992503}]","3036.710000000312","instructions","165","959951","0.0-63.0","SS1619739670582","instructions","","","","","","","","","","","","","","","",""
