"view_history","rt","trial_type","trial_index","time_elapsed","internal_node_id","subject","stimulus_type","trial_stimulus","key_press","minimum_viewing_duration","trial_looking_time","block_deviant","block_background","exposure_type","stimulus","block_number","block_type","stimulus_displayed","responses","question_order","math_correct_answer","stimulus_left","stimulus_right"
"[{""page_index"":0,""viewing_time"":6298.8100000002305}]","6299.590000002354","instructions","0","6301","0.0-0.0","SS1619739763096","","","","","","","","","","","","","","","","",""
"[{""page_index"":0,""viewing_time"":12980.35499999969},{""page_index"":1,""viewing_time"":7727.745000000141}]","20708.474999999453","instructions","1","29012","0.0-1.0","SS1619739763096","instructions","","","","","","","","","","","","","","","",""
"","6824.580000000424","sequential-stimulus-presentation-old","2","36340","0.0-2.0","SS1619739763096","","","40","500","7324.580000000424","null","null","self_paced","","","","","","","","",""
"","5594.209999999293","sequential-stimulus-presentation-old","3","42438","0.0-3.0","SS1619739763096","","","40","500","6094.209999999293","null","null","self_paced","","","","","","","","",""
"[{""page_index"":0,""viewing_time"":34028.30999999787}]","34028.51500000179","instructions","4","76468","0.0-4.0","SS1619739763096","instructions","","","","","","","","","","","","","","","",""
"","1238.4949999977835","sequential-stimulus-presentation-old","5","92708","0.0-5.0","SS1619739763096","","","40","500","1738.4949999977835","null","null","forced_long","","","","","","","","",""
"","2397.789999995439","sequential-stimulus-presentation-old","6","95608","0.0-6.0","SS1619739763096","","","40","500","2897.789999995439","null","null","forced_long","","","","","","","","",""
"[{""page_index"":0,""viewing_time"":4417.27499999979}]","4417.464999998629","instructions","7","100027","0.0-7.0","SS1619739763096","instructions","","","","","","","","","","","","","","","",""
"[{""page_index"":0,""viewing_time"":13414.774999997462},{""page_index"":1,""viewing_time"":40751.985000002605},{""page_index"":2,""viewing_time"":6695.905000000494},{""page_index"":3,""viewing_time"":1312.2299999959068},{""page_index"":4,""viewing_time"":887.7300000021933}]","63062.92499999836","instructions","8","163091","0.0-8.0","SS1619739763096","instructions","","","","","","","","","","","","","","","",""
"","null","html-keyboard-response","9","164251","0.0-9.0-0.0","SS1619739763096","","","null","","","","","","<p><img src= images/blank.png width =""600"" height = ""600"" style=""position:fixed;top:50%; left:50%; transform: translate(-50%, -50%); border:5px solid black"">","","","","","","","",""
"","3865.319999997155","sequential-stimulus-presentation-old","10","168620","0.0-9.0-1.0","SS1619739763096","trial","","40","500","4365.319999997155","images/stimuli/spore_stims/simple_02_A_b.gif","images/stimuli/spore_stims/simple_04_A_a.gif","self_paced","","0","simple_dissimilar","images/stimuli/spore_stims/simple_04_A_a.gif","","","","",""
"","null","html-keyboard-response","11","169673","0.0-9.0-0.1","SS1619739763096","","","null","","","","","","<p><img src= images/blank.png width =""600"" height = ""600"" style=""position:fixed;top:50%; left:50%; transform: translate(-50%, -50%); border:5px solid black"">","","","","","","","",""
"","4328.76500000566","sequential-stimulus-presentation-old","12","174511","0.0-9.0-1.1","SS1619739763096","trial","","40","500","4828.76500000566","images/stimuli/spore_stims/simple_02_A_b.gif","images/stimuli/spore_stims/simple_04_A_a.gif","self_paced","","0","simple_dissimilar","images/stimuli/spore_stims/simple_04_A_a.gif","","","","",""
"","null","html-keyboard-response","13","175682","0.0-9.0-0.2","SS1619739763096","","","null","","","","","","<p><img src= images/blank.png width =""600"" height = ""600"" style=""position:fixed;top:50%; left:50%; transform: translate(-50%, -50%); border:5px solid black"">","","","","","","","",""
"","4689.204999995127","sequential-stimulus-presentation-old","14","180876","0.0-9.0-1.2","SS1619739763096","trial","","40","500","5189.204999995127","images/stimuli/spore_stims/simple_02_A_b.gif","images/stimuli/spore_stims/simple_04_A_a.gif","self_paced","","0","simple_dissimilar","images/stimuli/spore_stims/simple_02_A_b.gif","","","","",""
"","null","html-keyboard-response","15","181924","0.0-9.0-0.3","SS1619739763096","","","null","","","","","","<p><img src= images/blank.png width =""600"" height = ""600"" style=""position:fixed;top:50%; left:50%; transform: translate(-50%, -50%); border:5px solid black"">","","","","","","","",""
"","4382.660000002943","sequential-stimulus-presentation-old","16","186812","0.0-9.0-1.3","SS1619739763096","trial","","40","500","4882.660000002943","images/stimuli/spore_stims/simple_02_A_b.gif","images/stimuli/spore_stims/simple_04_A_a.gif","self_paced","","0","simple_dissimilar","images/stimuli/spore_stims/simple_02_A_b.gif","","","","",""
"","null","html-keyboard-response","17","188033","0.0-9.0-0.4","SS1619739763096","","","null","","","","","","<p><img src= images/blank.png width =""600"" height = ""600"" style=""position:fixed;top:50%; left:50%; transform: translate(-50%, -50%); border:5px solid black"">","","","","","","","",""
"","2363.5399999984656","sequential-stimulus-presentation-old","18","190904","0.0-9.0-1.4","SS1619739763096","trial","","40","500","2863.5399999984656","images/stimuli/spore_stims/simple_02_A_b.gif","images/stimuli/spore_stims/simple_04_A_a.gif","self_paced","","0","simple_dissimilar","images/stimuli/spore_stims/simple_04_A_a.gif","","","","",""
"","null","html-keyboard-response","19","192195","0.0-9.0-0.5","SS1619739763096","","","null","","","","","","<p><img src= images/blank.png width =""600"" height = ""600"" style=""position:fixed;top:50%; left:50%; transform: translate(-50%, -50%); border:5px solid black"">","","","","","","","",""
"","2961.860000003071","sequential-stimulus-presentation-old","20","195668","0.0-9.0-1.5","SS1619739763096","trial","","40","500","3461.860000003071","images/stimuli/spore_stims/simple_02_A_b.gif","images/stimuli/spore_stims/simple_04_A_a.gif","self_paced","","0","simple_dissimilar","images/stimuli/spore_stims/simple_04_A_a.gif","","","","",""
"","8780.12000000308","survey-multi-choice","21","204451","0.0-10.0","SS1619739763096","math_question","","","","","","","","","","","","{""Q0"":""9""}","[0]","9","",""
"","null","html-keyboard-response","22","205736","0.0-11.0-0.0","SS1619739763096","","","null","","","","","","<p><img src= images/blank.png width =""600"" height = ""600"" style=""position:fixed;top:50%; left:50%; transform: translate(-50%, -50%); border:5px solid black"">","","","","","","","",""
"","1206.0350000028848","sequential-stimulus-presentation-old","23","221948","0.0-11.0-1.0","SS1619739763096","trial","","40","500","1706.0350000028848","images/stimuli/spore_stims/simple_08_A_a.gif","images/stimuli/spore_stims/simple_06_A_b.gif","forced_long","","1","simple_dissimilar","images/stimuli/spore_stims/simple_06_A_b.gif","","","","",""
"","null","html-keyboard-response","24","222865","0.0-11.0-0.1","SS1619739763096","","","null","","","","","","<p><img src= images/blank.png width =""600"" height = ""600"" style=""position:fixed;top:50%; left:50%; transform: translate(-50%, -50%); border:5px solid black"">","","","","","","","",""
"","1749.8899999991409","sequential-stimulus-presentation-old","25","225126","0.0-11.0-1.1","SS1619739763096","trial","","40","500","2249.889999999141","images/stimuli/spore_stims/simple_08_A_a.gif","images/stimuli/spore_stims/simple_06_A_b.gif","forced_long","","1","simple_dissimilar","images/stimuli/spore_stims/simple_06_A_b.gif","","","","",""
"","null","html-keyboard-response","26","226077","0.0-11.0-0.2","SS1619739763096","","","null","","","","","","<p><img src= images/blank.png width =""600"" height = ""600"" style=""position:fixed;top:50%; left:50%; transform: translate(-50%, -50%); border:5px solid black"">","","","","","","","",""
"","1246.4900000049965","sequential-stimulus-presentation-old","27","227829","0.0-11.0-1.2","SS1619739763096","trial","","40","500","1746.4900000049965","images/stimuli/spore_stims/simple_08_A_a.gif","images/stimuli/spore_stims/simple_06_A_b.gif","forced_long","","1","simple_dissimilar","images/stimuli/spore_stims/simple_06_A_b.gif","","","","",""
"","null","html-keyboard-response","28","228715","0.0-11.0-0.3","SS1619739763096","","","null","","","","","","<p><img src= images/blank.png width =""600"" height = ""600"" style=""position:fixed;top:50%; left:50%; transform: translate(-50%, -50%); border:5px solid black"">","","","","","","","",""
"","1192.2000000049593","sequential-stimulus-presentation-old","29","230428","0.0-11.0-1.3","SS1619739763096","trial","","40","500","1692.2000000049593","images/stimuli/spore_stims/simple_08_A_a.gif","images/stimuli/spore_stims/simple_06_A_b.gif","forced_long","","1","simple_dissimilar","images/stimuli/spore_stims/simple_06_A_b.gif","","","","",""
"","3573.7349999981234","survey-multi-choice","30","234003","0.0-12.0","SS1619739763096","math_question","","","","","","","","","","","","{""Q0"":""16""}","[0]","16","",""
"","null","html-keyboard-response","31","234810","0.0-13.0-0.0","SS1619739763096","","","null","","","","","","<p><img src= images/blank.png width =""600"" height = ""600"" style=""position:fixed;top:50%; left:50%; transform: translate(-50%, -50%); border:5px solid black"">","","","","","","","",""
"","4261.6349999952945","sequential-stimulus-presentation-old","32","254075","0.0-13.0-1.0","SS1619739763096","trial","","40","500","4761.6349999952945","images/stimuli/spore_stims/complex_03_A_a.gif","images/stimuli/spore_stims/complex_05_A_b.gif","forced_long","","2","complex_dissimilar","images/stimuli/spore_stims/complex_05_A_b.gif","","","","",""
"","null","html-keyboard-response","33","255355","0.0-13.0-0.1","SS1619739763096","","","null","","","","","","<p><img src= images/blank.png width =""600"" height = ""600"" style=""position:fixed;top:50%; left:50%; transform: translate(-50%, -50%); border:5px solid black"">","","","","","","","",""
"","1535.3899999972782","sequential-stimulus-presentation-old","34","257396","0.0-13.0-1.1","SS1619739763096","trial","","40","500","2035.3899999972782","images/stimuli/spore_stims/complex_03_A_a.gif","images/stimuli/spore_stims/complex_05_A_b.gif","forced_long","","2","complex_dissimilar","images/stimuli/spore_stims/complex_05_A_b.gif","","","","",""
"","null","html-keyboard-response","35","258291","0.0-13.0-0.2","SS1619739763096","","","null","","","","","","<p><img src= images/blank.png width =""600"" height = ""600"" style=""position:fixed;top:50%; left:50%; transform: translate(-50%, -50%); border:5px solid black"">","","","","","","","",""
"","2289.7200000006706","sequential-stimulus-presentation-old","36","261084","0.0-13.0-1.2","SS1619739763096","trial","","40","500","2789.7200000006706","images/stimuli/spore_stims/complex_03_A_a.gif","images/stimuli/spore_stims/complex_05_A_b.gif","forced_long","","2","complex_dissimilar","images/stimuli/spore_stims/complex_05_A_b.gif","","","","",""
"","null","html-keyboard-response","37","262207","0.0-13.0-0.3","SS1619739763096","","","null","","","","","","<p><img src= images/blank.png width =""600"" height = ""600"" style=""position:fixed;top:50%; left:50%; transform: translate(-50%, -50%); border:5px solid black"">","","","","","","","",""
"","895.8550000024843","sequential-stimulus-presentation-old","38","263608","0.0-13.0-1.3","SS1619739763096","trial","","40","500","1395.8550000024843","images/stimuli/spore_stims/complex_03_A_a.gif","images/stimuli/spore_stims/complex_05_A_b.gif","forced_long","","2","complex_dissimilar","images/stimuli/spore_stims/complex_05_A_b.gif","","","","",""
"","null","html-keyboard-response","39","264769","0.0-13.0-0.4","SS1619739763096","","","null","","","","","","<p><img src= images/blank.png width =""600"" height = ""600"" style=""position:fixed;top:50%; left:50%; transform: translate(-50%, -50%); border:5px solid black"">","","","","","","","",""
"","706.5799999982119","sequential-stimulus-presentation-old","40","265979","0.0-13.0-1.4","SS1619739763096","trial","","40","500","1206.5799999982119","images/stimuli/spore_stims/complex_03_A_a.gif","images/stimuli/spore_stims/complex_05_A_b.gif","forced_long","","2","complex_dissimilar","images/stimuli/spore_stims/complex_03_A_a.gif","","","","",""
"","3958.485000002838","survey-multi-choice","41","269939","0.0-14.0","SS1619739763096","math_question","","","","","","","","","","","","{""Q0"":""10""}","[0]","10","",""
"","null","html-keyboard-response","42","270946","0.0-15.0-0.0","SS1619739763096","","","null","","","","","","<p><img src= images/blank.png width =""600"" height = ""600"" style=""position:fixed;top:50%; left:50%; transform: translate(-50%, -50%); border:5px solid black"">","","","","","","","",""
"","1385.3149999995367","sequential-stimulus-presentation-old","43","272837","0.0-15.0-1.0","SS1619739763096","trial","","40","500","1885.3149999995367","images/stimuli/spore_stims/simple_20_A_b.gif","images/stimuli/spore_stims/simple_07_A_a.gif","forced_short","","3","simple_dissimilar","images/stimuli/spore_stims/simple_07_A_a.gif","","","","",""
"","null","html-keyboard-response","44","273956","0.0-15.0-0.1","SS1619739763096","","","null","","","","","","<p><img src= images/blank.png width =""600"" height = ""600"" style=""position:fixed;top:50%; left:50%; transform: translate(-50%, -50%); border:5px solid black"">","","","","","","","",""
"","2897.7799999993294","sequential-stimulus-presentation-old","45","277359","0.0-15.0-1.1","SS1619739763096","trial","","40","500","3397.7799999993294","images/stimuli/spore_stims/simple_20_A_b.gif","images/stimuli/spore_stims/simple_07_A_a.gif","forced_short","","3","simple_dissimilar","images/stimuli/spore_stims/simple_07_A_a.gif","","","","",""
"","null","html-keyboard-response","46","278554","0.0-15.0-0.2","SS1619739763096","","","null","","","","","","<p><img src= images/blank.png width =""600"" height = ""600"" style=""position:fixed;top:50%; left:50%; transform: translate(-50%, -50%); border:5px solid black"">","","","","","","","",""
"","3167.8699999974924","sequential-stimulus-presentation-old","47","282228","0.0-15.0-1.2","SS1619739763096","trial","","40","500","3667.8699999974924","images/stimuli/spore_stims/simple_20_A_b.gif","images/stimuli/spore_stims/simple_07_A_a.gif","forced_short","","3","simple_dissimilar","images/stimuli/spore_stims/simple_07_A_a.gif","","","","",""
"","null","html-keyboard-response","48","283376","0.0-15.0-0.3","SS1619739763096","","","null","","","","","","<p><img src= images/blank.png width =""600"" height = ""600"" style=""position:fixed;top:50%; left:50%; transform: translate(-50%, -50%); border:5px solid black"">","","","","","","","",""
"","3308.2200000062585","sequential-stimulus-presentation-old","49","287188","0.0-15.0-1.3","SS1619739763096","trial","","40","500","3808.2200000062585","images/stimuli/spore_stims/simple_20_A_b.gif","images/stimuli/spore_stims/simple_07_A_a.gif","forced_short","","3","simple_dissimilar","images/stimuli/spore_stims/simple_07_A_a.gif","","","","",""
"","3915.545000003476","survey-multi-choice","50","291107","0.0-16.0","SS1619739763096","math_question","","","","","","","","","","","","{""Q0"":""8""}","[0]","8","",""
"","null","html-keyboard-response","51","292143","0.0-17.0-0.0","SS1619739763096","","","null","","","","","","<p><img src= images/blank.png width =""600"" height = ""600"" style=""position:fixed;top:50%; left:50%; transform: translate(-50%, -50%); border:5px solid black"">","","","","","","","",""
"","1532.8799999988405","sequential-stimulus-presentation-old","52","294180","0.0-17.0-1.0","SS1619739763096","trial","","40","500","2032.8799999988405","images/stimuli/spore_stims/complex_02_A_b.gif","images/stimuli/spore_stims/complex_15_A_a.gif","forced_short","","4","complex_dissimilar","images/stimuli/spore_stims/complex_15_A_a.gif","","","","",""
"","null","html-keyboard-response","53","294996","0.0-17.0-0.1","SS1619739763096","","","null","","","","","","<p><img src= images/blank.png width =""600"" height = ""600"" style=""position:fixed;top:50%; left:50%; transform: translate(-50%, -50%); border:5px solid black"">","","","","","","","",""
"","6382.11500000034","sequential-stimulus-presentation-old","54","301894","0.0-17.0-1.1","SS1619739763096","trial","","40","500","6882.11500000034","images/stimuli/spore_stims/complex_02_A_b.gif","images/stimuli/spore_stims/complex_15_A_a.gif","forced_short","","4","complex_dissimilar","images/stimuli/spore_stims/complex_15_A_a.gif","","","","",""
"","null","html-keyboard-response","55","302793","0.0-17.0-0.2","SS1619739763096","","","null","","","","","","<p><img src= images/blank.png width =""600"" height = ""600"" style=""position:fixed;top:50%; left:50%; transform: translate(-50%, -50%); border:5px solid black"">","","","","","","","",""
"","9034.175000000687","sequential-stimulus-presentation-old","56","312335","0.0-17.0-1.2","SS1619739763096","trial","","40","500","9534.175000000687","images/stimuli/spore_stims/complex_02_A_b.gif","images/stimuli/spore_stims/complex_15_A_a.gif","forced_short","","4","complex_dissimilar","images/stimuli/spore_stims/complex_15_A_a.gif","","","","",""
"","null","html-keyboard-response","57","313434","0.0-17.0-0.3","SS1619739763096","","","null","","","","","","<p><img src= images/blank.png width =""600"" height = ""600"" style=""position:fixed;top:50%; left:50%; transform: translate(-50%, -50%); border:5px solid black"">","","","","","","","",""
"","9795.695000000705","sequential-stimulus-presentation-old","58","323736","0.0-17.0-1.3","SS1619739763096","trial","","40","500","10295.695000000705","images/stimuli/spore_stims/complex_02_A_b.gif","images/stimuli/spore_stims/complex_15_A_a.gif","forced_short","","4","complex_dissimilar","images/stimuli/spore_stims/complex_02_A_b.gif","","","","",""
"","null","html-keyboard-response","59","324660","0.0-17.0-0.4","SS1619739763096","","","null","","","","","","<p><img src= images/blank.png width =""600"" height = ""600"" style=""position:fixed;top:50%; left:50%; transform: translate(-50%, -50%); border:5px solid black"">","","","","","","","",""
"","7745.019999994838","sequential-stimulus-presentation-old","60","332909","0.0-17.0-1.4","SS1619739763096","trial","","40","500","8245.019999994838","images/stimuli/spore_stims/complex_02_A_b.gif","images/stimuli/spore_stims/complex_15_A_a.gif","forced_short","","4","complex_dissimilar","images/stimuli/spore_stims/complex_02_A_b.gif","","","","",""
"","null","html-keyboard-response","61","333878","0.0-17.0-0.5","SS1619739763096","","","null","","","","","","<p><img src= images/blank.png width =""600"" height = ""600"" style=""position:fixed;top:50%; left:50%; transform: translate(-50%, -50%); border:5px solid black"">","","","","","","","",""
"","7984.20000000624","sequential-stimulus-presentation-old","62","342367","0.0-17.0-1.5","SS1619739763096","trial","","40","500","8484.20000000624","images/stimuli/spore_stims/complex_02_A_b.gif","images/stimuli/spore_stims/complex_15_A_a.gif","forced_short","","4","complex_dissimilar","images/stimuli/spore_stims/complex_15_A_a.gif","","","","",""
"","4001.349999998638","survey-multi-choice","63","346371","0.0-18.0","SS1619739763096","math_question","","","","","","","","","","","","{""Q0"":""12""}","[0]","12","",""
"","null","html-keyboard-response","64","347436","0.0-19.0-0.0","SS1619739763096","","","null","","","","","","<p><img src= images/blank.png width =""600"" height = ""600"" style=""position:fixed;top:50%; left:50%; transform: translate(-50%, -50%); border:5px solid black"">","","","","","","","",""
"","1436.8299999987357","sequential-stimulus-presentation-old","65","349379","0.0-19.0-1.0","SS1619739763096","trial","","40","500","1936.8299999987357","images/stimuli/spore_stims/simple_17_A_a.gif","images/stimuli/spore_stims/simple_01_A_b.gif","forced_short","","5","simple_dissimilar","images/stimuli/spore_stims/simple_01_A_b.gif","","","","",""
"","null","html-keyboard-response","66","350276","0.0-19.0-0.1","SS1619739763096","","","null","","","","","","<p><img src= images/blank.png width =""600"" height = ""600"" style=""position:fixed;top:50%; left:50%; transform: translate(-50%, -50%); border:5px solid black"">","","","","","","","",""
"","6236.605000005511","sequential-stimulus-presentation-old","67","357018","0.0-19.0-1.1","SS1619739763096","trial","","40","500","6736.605000005511","images/stimuli/spore_stims/simple_17_A_a.gif","images/stimuli/spore_stims/simple_01_A_b.gif","forced_short","","5","simple_dissimilar","images/stimuli/spore_stims/simple_01_A_b.gif","","","","",""
"","null","html-keyboard-response","68","358216","0.0-19.0-0.2","SS1619739763096","","","null","","","","","","<p><img src= images/blank.png width =""600"" height = ""600"" style=""position:fixed;top:50%; left:50%; transform: translate(-50%, -50%); border:5px solid black"">","","","","","","","",""
"","3849.9899999951595","sequential-stimulus-presentation-old","69","362571","0.0-19.0-1.2","SS1619739763096","trial","","40","500","4349.989999995159","images/stimuli/spore_stims/simple_17_A_a.gif","images/stimuli/spore_stims/simple_01_A_b.gif","forced_short","","5","simple_dissimilar","images/stimuli/spore_stims/simple_01_A_b.gif","","","","",""
"","null","html-keyboard-response","70","363513","0.0-19.0-0.3","SS1619739763096","","","null","","","","","","<p><img src= images/blank.png width =""600"" height = ""600"" style=""position:fixed;top:50%; left:50%; transform: translate(-50%, -50%); border:5px solid black"">","","","","","","","",""
"","4547.539999999572","sequential-stimulus-presentation-old","71","368565","0.0-19.0-1.3","SS1619739763096","trial","","40","500","5047.539999999572","images/stimuli/spore_stims/simple_17_A_a.gif","images/stimuli/spore_stims/simple_01_A_b.gif","forced_short","","5","simple_dissimilar","images/stimuli/spore_stims/simple_01_A_b.gif","","","","",""
"","5067.60000000213","survey-multi-choice","72","373636","0.0-20.0","SS1619739763096","math_question","","","","","","","","","","","","{""Q0"":""14""}","[0]","14","",""
"","null","html-keyboard-response","73","374816","0.0-21.0-0.0","SS1619739763096","","","null","","","","","","<p><img src= images/blank.png width =""600"" height = ""600"" style=""position:fixed;top:50%; left:50%; transform: translate(-50%, -50%); border:5px solid black"">","","","","","","","",""
"","3228.1349999975646","sequential-stimulus-presentation-old","74","393060","0.0-21.0-1.0","SS1619739763096","trial","","40","500","3728.1349999975646","images/stimuli/spore_stims/simple_11_A_b.gif","images/stimuli/spore_stims/simple_14_A_a.gif","forced_long","","6","simple_dissimilar","images/stimuli/spore_stims/simple_14_A_a.gif","","","","",""
"","null","html-keyboard-response","75","394250","0.0-21.0-0.1","SS1619739763096","","","null","","","","","","<p><img src= images/blank.png width =""600"" height = ""600"" style=""position:fixed;top:50%; left:50%; transform: translate(-50%, -50%); border:5px solid black"">","","","","","","","",""
"","3971.8900000007125","sequential-stimulus-presentation-old","76","398731","0.0-21.0-1.1","SS1619739763096","trial","","40","500","4471.8900000007125","images/stimuli/spore_stims/simple_11_A_b.gif","images/stimuli/spore_stims/simple_14_A_a.gif","forced_long","","6","simple_dissimilar","images/stimuli/spore_stims/simple_14_A_a.gif","","","","",""
"","null","html-keyboard-response","77","399967","0.0-21.0-0.2","SS1619739763096","","","null","","","","","","<p><img src= images/blank.png width =""600"" height = ""600"" style=""position:fixed;top:50%; left:50%; transform: translate(-50%, -50%); border:5px solid black"">","","","","","","","",""
"","3633.979999998701","sequential-stimulus-presentation-old","78","404111","0.0-21.0-1.2","SS1619739763096","trial","","40","500","4133.979999998701","images/stimuli/spore_stims/simple_11_A_b.gif","images/stimuli/spore_stims/simple_14_A_a.gif","forced_long","","6","simple_dissimilar","images/stimuli/spore_stims/simple_14_A_a.gif","","","","",""
"","null","html-keyboard-response","79","404916","0.0-21.0-0.3","SS1619739763096","","","null","","","","","","<p><img src= images/blank.png width =""600"" height = ""600"" style=""position:fixed;top:50%; left:50%; transform: translate(-50%, -50%); border:5px solid black"">","","","","","","","",""
"","3388.7899999972433","sequential-stimulus-presentation-old","80","408811","0.0-21.0-1.3","SS1619739763096","trial","","40","500","3888.7899999972433","images/stimuli/spore_stims/simple_11_A_b.gif","images/stimuli/spore_stims/simple_14_A_a.gif","forced_long","","6","simple_dissimilar","images/stimuli/spore_stims/simple_14_A_a.gif","","","","",""
"","2509.6950000006473","survey-multi-choice","81","411323","0.0-22.0","SS1619739763096","math_question","","","","","","","","","","","","{""Q0"":""11""}","[0]","11","",""
"","null","html-keyboard-response","82","412626","0.0-23.0-0.0","SS1619739763096","","","null","","","","","","<p><img src= images/blank.png width =""600"" height = ""600"" style=""position:fixed;top:50%; left:50%; transform: translate(-50%, -50%); border:5px solid black"">","","","","","","","",""
"","28704.01000000129","sequential-stimulus-presentation-old","83","441836","0.0-23.0-1.0","SS1619739763096","trial","","40","500","29204.01000000129","images/stimuli/spore_stims/complex_10_A_b.gif","images/stimuli/spore_stims/complex_14_A_a.gif","self_paced","","7","complex_dissimilar","images/stimuli/spore_stims/complex_14_A_a.gif","","","","",""
"","null","html-keyboard-response","84","442882","0.0-23.0-0.1","SS1619739763096","","","null","","","","","","<p><img src= images/blank.png width =""600"" height = ""600"" style=""position:fixed;top:50%; left:50%; transform: translate(-50%, -50%); border:5px solid black"">","","","","","","","",""
"","3863.3950000003097","sequential-stimulus-presentation-old","85","447253","0.0-23.0-1.1","SS1619739763096","trial","","40","500","4363.39500000031","images/stimuli/spore_stims/complex_10_A_b.gif","images/stimuli/spore_stims/complex_14_A_a.gif","self_paced","","7","complex_dissimilar","images/stimuli/spore_stims/complex_14_A_a.gif","","","","",""
"","null","html-keyboard-response","86","448501","0.0-23.0-0.2","SS1619739763096","","","null","","","","","","<p><img src= images/blank.png width =""600"" height = ""600"" style=""position:fixed;top:50%; left:50%; transform: translate(-50%, -50%); border:5px solid black"">","","","","","","","",""
"","1182.394999996177","sequential-stimulus-presentation-old","87","450187","0.0-23.0-1.2","SS1619739763096","trial","","40","500","1682.394999996177","images/stimuli/spore_stims/complex_10_A_b.gif","images/stimuli/spore_stims/complex_14_A_a.gif","self_paced","","7","complex_dissimilar","images/stimuli/spore_stims/complex_14_A_a.gif","","","","",""
"","null","html-keyboard-response","88","451012","0.0-23.0-0.3","SS1619739763096","","","null","","","","","","<p><img src= images/blank.png width =""600"" height = ""600"" style=""position:fixed;top:50%; left:50%; transform: translate(-50%, -50%); border:5px solid black"">","","","","","","","",""
"","3552.3249999969266","sequential-stimulus-presentation-old","89","455069","0.0-23.0-1.3","SS1619739763096","trial","","40","500","4052.3249999969266","images/stimuli/spore_stims/complex_10_A_b.gif","images/stimuli/spore_stims/complex_14_A_a.gif","self_paced","","7","complex_dissimilar","images/stimuli/spore_stims/complex_14_A_a.gif","","","","",""
"","null","html-keyboard-response","90","456360","0.0-23.0-0.4","SS1619739763096","","","null","","","","","","<p><img src= images/blank.png width =""600"" height = ""600"" style=""position:fixed;top:50%; left:50%; transform: translate(-50%, -50%); border:5px solid black"">","","","","","","","",""
"","2962.425000005169","sequential-stimulus-presentation-old","91","459827","0.0-23.0-1.4","SS1619739763096","trial","","40","500","3462.425000005169","images/stimuli/spore_stims/complex_10_A_b.gif","images/stimuli/spore_stims/complex_14_A_a.gif","self_paced","","7","complex_dissimilar","images/stimuli/spore_stims/complex_14_A_a.gif","","","","",""
"","null","html-keyboard-response","92","460871","0.0-23.0-0.5","SS1619739763096","","","null","","","","","","<p><img src= images/blank.png width =""600"" height = ""600"" style=""position:fixed;top:50%; left:50%; transform: translate(-50%, -50%); border:5px solid black"">","","","","","","","",""
"","6672.295000003942","sequential-stimulus-presentation-old","93","468053","0.0-23.0-1.5","SS1619739763096","trial","","40","500","7172.295000003942","images/stimuli/spore_stims/complex_10_A_b.gif","images/stimuli/spore_stims/complex_14_A_a.gif","self_paced","","7","complex_dissimilar","images/stimuli/spore_stims/complex_10_A_b.gif","","","","",""
"","2458.954999994603","survey-multi-choice","94","470514","0.0-24.0","SS1619739763096","math_question","","","","","","","","","","","","{""Q0"":""6""}","[0]","6","",""
"","null","html-keyboard-response","95","471786","0.0-25.0-0.0","SS1619739763096","","","null","","","","","","<p><img src= images/blank.png width =""600"" height = ""600"" style=""position:fixed;top:50%; left:50%; transform: translate(-50%, -50%); border:5px solid black"">","","","","","","","",""
"","3215.474999997241","sequential-stimulus-presentation-old","96","475506","0.0-25.0-1.0","SS1619739763096","trial","","40","500","3715.474999997241","images/stimuli/spore_stims/simple_12_A_b.gif","images/stimuli/spore_stims/simple_15_A_a.gif","self_paced","","8","simple_dissimilar","images/stimuli/spore_stims/simple_15_A_a.gif","","","","",""
"","null","html-keyboard-response","97","476519","0.0-25.0-0.1","SS1619739763096","","","null","","","","","","<p><img src= images/blank.png width =""600"" height = ""600"" style=""position:fixed;top:50%; left:50%; transform: translate(-50%, -50%); border:5px solid black"">","","","","","","","",""
"","4165.495000001101","sequential-stimulus-presentation-old","98","481188","0.0-25.0-1.1","SS1619739763096","trial","","40","500","4665.495000001101","images/stimuli/spore_stims/simple_12_A_b.gif","images/stimuli/spore_stims/simple_15_A_a.gif","self_paced","","8","simple_dissimilar","images/stimuli/spore_stims/simple_15_A_a.gif","","","","",""
"","null","html-keyboard-response","99","482484","0.0-25.0-0.2","SS1619739763096","","","null","","","","","","<p><img src= images/blank.png width =""600"" height = ""600"" style=""position:fixed;top:50%; left:50%; transform: translate(-50%, -50%); border:5px solid black"">","","","","","","","",""
"","2868.19000000105","sequential-stimulus-presentation-old","100","485858","0.0-25.0-1.2","SS1619739763096","trial","","40","500","3368.19000000105","images/stimuli/spore_stims/simple_12_A_b.gif","images/stimuli/spore_stims/simple_15_A_a.gif","self_paced","","8","simple_dissimilar","images/stimuli/spore_stims/simple_15_A_a.gif","","","","",""
"","null","html-keyboard-response","101","486917","0.0-25.0-0.3","SS1619739763096","","","null","","","","","","<p><img src= images/blank.png width =""600"" height = ""600"" style=""position:fixed;top:50%; left:50%; transform: translate(-50%, -50%); border:5px solid black"">","","","","","","","",""
"","26997.125000001688","sequential-stimulus-presentation-old","102","514418","0.0-25.0-1.3","SS1619739763096","trial","","40","500","27497.125000001688","images/stimuli/spore_stims/simple_12_A_b.gif","images/stimuli/spore_stims/simple_15_A_a.gif","self_paced","","8","simple_dissimilar","images/stimuli/spore_stims/simple_12_A_b.gif","","","","",""
"","null","html-keyboard-response","103","515399","0.0-25.0-0.4","SS1619739763096","","","null","","","","","","<p><img src= images/blank.png width =""600"" height = ""600"" style=""position:fixed;top:50%; left:50%; transform: translate(-50%, -50%); border:5px solid black"">","","","","","","","",""
"","3350.9400000039022","sequential-stimulus-presentation-old","104","519255","0.0-25.0-1.4","SS1619739763096","trial","","40","500","3850.9400000039022","images/stimuli/spore_stims/simple_12_A_b.gif","images/stimuli/spore_stims/simple_15_A_a.gif","self_paced","","8","simple_dissimilar","images/stimuli/spore_stims/simple_15_A_a.gif","","","","",""
"","null","html-keyboard-response","105","520188","0.0-25.0-0.5","SS1619739763096","","","null","","","","","","<p><img src= images/blank.png width =""600"" height = ""600"" style=""position:fixed;top:50%; left:50%; transform: translate(-50%, -50%); border:5px solid black"">","","","","","","","",""
"","6014.924999995914","sequential-stimulus-presentation-old","106","526708","0.0-25.0-1.5","SS1619739763096","trial","","40","500","6514.924999995914","images/stimuli/spore_stims/simple_12_A_b.gif","images/stimuli/spore_stims/simple_15_A_a.gif","self_paced","","8","simple_dissimilar","images/stimuli/spore_stims/simple_15_A_a.gif","","","","",""
"","3585.415000001318","survey-multi-choice","107","530298","0.0-26.0","SS1619739763096","math_question","","","","","","","","","","","","{""Q0"":""8""}","[0]","8","",""
"","null","html-keyboard-response","108","531115","0.0-27.0-0.0","SS1619739763096","","","null","","","","","","<p><img src= images/blank.png width =""600"" height = ""600"" style=""position:fixed;top:50%; left:50%; transform: translate(-50%, -50%); border:5px solid black"">","","","","","","","",""
"","604.5750000048429","sequential-stimulus-presentation-old","109","546730","0.0-27.0-1.0","SS1619739763096","trial","","40","500","1104.5750000048429","images/stimuli/spore_stims/complex_07_A_a.gif","images/stimuli/spore_stims/complex_15_A_b.gif","forced_long","","9","complex_dissimilar","images/stimuli/spore_stims/complex_15_A_b.gif","","","","",""
"","null","html-keyboard-response","110","547867","0.0-27.0-0.1","SS1619739763096","","","null","","","","","","<p><img src= images/blank.png width =""600"" height = ""600"" style=""position:fixed;top:50%; left:50%; transform: translate(-50%, -50%); border:5px solid black"">","","","","","","","",""
"","3973.5399999989895","sequential-stimulus-presentation-old","111","552346","0.0-27.0-1.1","SS1619739763096","trial","","40","500","4473.5399999989895","images/stimuli/spore_stims/complex_07_A_a.gif","images/stimuli/spore_stims/complex_15_A_b.gif","forced_long","","9","complex_dissimilar","images/stimuli/spore_stims/complex_15_A_b.gif","","","","",""
"","null","html-keyboard-response","112","553580","0.0-27.0-0.2","SS1619739763096","","","null","","","","","","<p><img src= images/blank.png width =""600"" height = ""600"" style=""position:fixed;top:50%; left:50%; transform: translate(-50%, -50%); border:5px solid black"">","","","","","","","",""
"","8869.515000005718","sequential-stimulus-presentation-old","113","562958","0.0-27.0-1.2","SS1619739763096","trial","","40","500","9369.515000005718","images/stimuli/spore_stims/complex_07_A_a.gif","images/stimuli/spore_stims/complex_15_A_b.gif","forced_long","","9","complex_dissimilar","images/stimuli/spore_stims/complex_07_A_a.gif","","","","",""
"","null","html-keyboard-response","114","564131","0.0-27.0-0.3","SS1619739763096","","","null","","","","","","<p><img src= images/blank.png width =""600"" height = ""600"" style=""position:fixed;top:50%; left:50%; transform: translate(-50%, -50%); border:5px solid black"">","","","","","","","",""
"","3987.0500000034226","sequential-stimulus-presentation-old","115","568626","0.0-27.0-1.3","SS1619739763096","trial","","40","500","4487.050000003423","images/stimuli/spore_stims/complex_07_A_a.gif","images/stimuli/spore_stims/complex_15_A_b.gif","forced_long","","9","complex_dissimilar","images/stimuli/spore_stims/complex_15_A_b.gif","","","","",""
"","null","html-keyboard-response","116","569718","0.0-27.0-0.4","SS1619739763096","","","null","","","","","","<p><img src= images/blank.png width =""600"" height = ""600"" style=""position:fixed;top:50%; left:50%; transform: translate(-50%, -50%); border:5px solid black"">","","","","","","","",""
"","5660.179999998887","sequential-stimulus-presentation-old","117","575886","0.0-27.0-1.4","SS1619739763096","trial","","40","500","6160.179999998887","images/stimuli/spore_stims/complex_07_A_a.gif","images/stimuli/spore_stims/complex_15_A_b.gif","forced_long","","9","complex_dissimilar","images/stimuli/spore_stims/complex_15_A_b.gif","","","","",""
"","2865.785000001779","survey-multi-choice","118","578754","0.0-28.0","SS1619739763096","math_question","","","","","","","","","","","","{""Q0"":""4""}","[0]","4","",""
"","null","html-keyboard-response","119","579709","0.0-29.0-0.0","SS1619739763096","","","null","","","","","","<p><img src= images/blank.png width =""600"" height = ""600"" style=""position:fixed;top:50%; left:50%; transform: translate(-50%, -50%); border:5px solid black"">","","","","","","","",""
"","1439.9350000021514","sequential-stimulus-presentation-old","120","581653","0.0-29.0-1.0","SS1619739763096","trial","","40","500","1939.9350000021514","images/stimuli/spore_stims/complex_16_A_b.gif","images/stimuli/spore_stims/complex_05_A_a.gif","forced_short","","10","complex_dissimilar","images/stimuli/spore_stims/complex_05_A_a.gif","","","","",""
"","null","html-keyboard-response","121","582907","0.0-29.0-0.1","SS1619739763096","","","null","","","","","","<p><img src= images/blank.png width =""600"" height = ""600"" style=""position:fixed;top:50%; left:50%; transform: translate(-50%, -50%); border:5px solid black"">","","","","","","","",""
"","3809.7349999953294","sequential-stimulus-presentation-old","122","587220","0.0-29.0-1.1","SS1619739763096","trial","","40","500","4309.734999995329","images/stimuli/spore_stims/complex_16_A_b.gif","images/stimuli/spore_stims/complex_05_A_a.gif","forced_short","","10","complex_dissimilar","images/stimuli/spore_stims/complex_05_A_a.gif","","","","",""
"","null","html-keyboard-response","123","588348","0.0-29.0-0.2","SS1619739763096","","","null","","","","","","<p><img src= images/blank.png width =""600"" height = ""600"" style=""position:fixed;top:50%; left:50%; transform: translate(-50%, -50%); border:5px solid black"">","","","","","","","",""
"","3604.8950000039767","sequential-stimulus-presentation-old","124","592459","0.0-29.0-1.2","SS1619739763096","trial","","40","500","4104.895000003977","images/stimuli/spore_stims/complex_16_A_b.gif","images/stimuli/spore_stims/complex_05_A_a.gif","forced_short","","10","complex_dissimilar","images/stimuli/spore_stims/complex_05_A_a.gif","","","","",""
"","null","html-keyboard-response","125","593331","0.0-29.0-0.3","SS1619739763096","","","null","","","","","","<p><img src= images/blank.png width =""600"" height = ""600"" style=""position:fixed;top:50%; left:50%; transform: translate(-50%, -50%); border:5px solid black"">","","","","","","","",""
"","3946.304999997723","sequential-stimulus-presentation-old","126","597782","0.0-29.0-1.3","SS1619739763096","trial","","40","500","4446.304999997723","images/stimuli/spore_stims/complex_16_A_b.gif","images/stimuli/spore_stims/complex_05_A_a.gif","forced_short","","10","complex_dissimilar","images/stimuli/spore_stims/complex_05_A_a.gif","","","","",""
"","null","html-keyboard-response","127","598908","0.0-29.0-0.4","SS1619739763096","","","null","","","","","","<p><img src= images/blank.png width =""600"" height = ""600"" style=""position:fixed;top:50%; left:50%; transform: translate(-50%, -50%); border:5px solid black"">","","","","","","","",""
"","3366.30000000156","sequential-stimulus-presentation-old","128","602779","0.0-29.0-1.4","SS1619739763096","trial","","40","500","3866.30000000156","images/stimuli/spore_stims/complex_16_A_b.gif","images/stimuli/spore_stims/complex_05_A_a.gif","forced_short","","10","complex_dissimilar","images/stimuli/spore_stims/complex_05_A_a.gif","","","","",""
"","null","html-keyboard-response","129","603649","0.0-29.0-0.5","SS1619739763096","","","null","","","","","","<p><img src= images/blank.png width =""600"" height = ""600"" style=""position:fixed;top:50%; left:50%; transform: translate(-50%, -50%); border:5px solid black"">","","","","","","","",""
"","2464.714999994496","sequential-stimulus-presentation-old","130","606628","0.0-29.0-1.5","SS1619739763096","trial","","40","500","2964.714999994496","images/stimuli/spore_stims/complex_16_A_b.gif","images/stimuli/spore_stims/complex_05_A_a.gif","forced_short","","10","complex_dissimilar","images/stimuli/spore_stims/complex_05_A_a.gif","","","","",""
"","3442.895000000135","survey-multi-choice","131","610075","0.0-30.0","SS1619739763096","math_question","","","","","","","","","","","","{""Q0"":""9""}","[0]","9","",""
"","null","html-keyboard-response","132","611228","0.0-31.0-0.0","SS1619739763096","","","null","","","","","","<p><img src= images/blank.png width =""600"" height = ""600"" style=""position:fixed;top:50%; left:50%; transform: translate(-50%, -50%); border:5px solid black"">","","","","","","","",""
"","13214.780000002123","sequential-stimulus-presentation-old","133","624948","0.0-31.0-1.0","SS1619739763096","trial","","40","500","13714.780000002123","images/stimuli/spore_stims/complex_08_A_a.gif","images/stimuli/spore_stims/complex_07_A_b.gif","self_paced","","11","complex_dissimilar","images/stimuli/spore_stims/complex_07_A_b.gif","","","","",""
"","null","html-keyboard-response","134","626150","0.0-31.0-0.1","SS1619739763096","","","null","","","","","","<p><img src= images/blank.png width =""600"" height = ""600"" style=""position:fixed;top:50%; left:50%; transform: translate(-50%, -50%); border:5px solid black"">","","","","","","","",""
"","3208.9600000035716","sequential-stimulus-presentation-old","135","629870","0.0-31.0-1.1","SS1619739763096","trial","","40","500","3708.9600000035716","images/stimuli/spore_stims/complex_08_A_a.gif","images/stimuli/spore_stims/complex_07_A_b.gif","self_paced","","11","complex_dissimilar","images/stimuli/spore_stims/complex_07_A_b.gif","","","","",""
"","null","html-keyboard-response","136","630794","0.0-31.0-0.2","SS1619739763096","","","null","","","","","","<p><img src= images/blank.png width =""600"" height = ""600"" style=""position:fixed;top:50%; left:50%; transform: translate(-50%, -50%); border:5px solid black"">","","","","","","","",""
"","13468.085000000428","sequential-stimulus-presentation-old","137","644775","0.0-31.0-1.2","SS1619739763096","trial","","40","500","13968.085000000428","images/stimuli/spore_stims/complex_08_A_a.gif","images/stimuli/spore_stims/complex_07_A_b.gif","self_paced","","11","complex_dissimilar","images/stimuli/spore_stims/complex_08_A_a.gif","","","","",""
"","null","html-keyboard-response","138","646063","0.0-31.0-0.3","SS1619739763096","","","null","","","","","","<p><img src= images/blank.png width =""600"" height = ""600"" style=""position:fixed;top:50%; left:50%; transform: translate(-50%, -50%); border:5px solid black"">","","","","","","","",""
"","3539.709999997169","sequential-stimulus-presentation-old","139","650113","0.0-31.0-1.3","SS1619739763096","trial","","40","500","4039.709999997169","images/stimuli/spore_stims/complex_08_A_a.gif","images/stimuli/spore_stims/complex_07_A_b.gif","self_paced","","11","complex_dissimilar","images/stimuli/spore_stims/complex_07_A_b.gif","","","","",""
"","null","html-keyboard-response","140","651140","0.0-31.0-0.4","SS1619739763096","","","null","","","","","","<p><img src= images/blank.png width =""600"" height = ""600"" style=""position:fixed;top:50%; left:50%; transform: translate(-50%, -50%); border:5px solid black"">","","","","","","","",""
"","5281.364999995334","sequential-stimulus-presentation-old","141","656928","0.0-31.0-1.4","SS1619739763096","trial","","40","500","5781.364999995334","images/stimuli/spore_stims/complex_08_A_a.gif","images/stimuli/spore_stims/complex_07_A_b.gif","self_paced","","11","complex_dissimilar","images/stimuli/spore_stims/complex_08_A_a.gif","","","","",""
"","null","html-keyboard-response","142","657836","0.0-31.0-0.5","SS1619739763096","","","null","","","","","","<p><img src= images/blank.png width =""600"" height = ""600"" style=""position:fixed;top:50%; left:50%; transform: translate(-50%, -50%); border:5px solid black"">","","","","","","","",""
"","579.79499999783","sequential-stimulus-presentation-old","143","658924","0.0-31.0-1.5","SS1619739763096","trial","","40","500","1079.79499999783","images/stimuli/spore_stims/complex_08_A_a.gif","images/stimuli/spore_stims/complex_07_A_b.gif","self_paced","","11","complex_dissimilar","images/stimuli/spore_stims/complex_07_A_b.gif","","","","",""
"[{""page_index"":0,""viewing_time"":5497.495000003139}]","5497.7399999988265","instructions","144","664426","0.0-32.0","SS1619739763096","instructions","","","","","","","","","","","","","","","",""
"","18011.86500000034","survey-likert","145","682442","0.0-33.0","SS1619739763096","similarity_question","","","","","","","","","","","","{""Q0"":2}","[0]","","images/stimuli/spore_stims/simple_20_A_b.gif","images/stimuli/spore_stims/simple_07_A_a.gif"
"","10183.68499999633","survey-likert","146","692634","0.0-34.0","SS1619739763096","similarity_question","","","","","","","","","","","","{""Q0"":0}","[0]","","images/stimuli/spore_stims/complex_14_A_a.gif","images/stimuli/spore_stims/complex_10_A_b.gif"
"","8198.954999999842","survey-likert","147","700841","0.0-35.0","SS1619739763096","similarity_question","","","","","","","","","","","","{""Q0"":4}","[0]","","images/stimuli/spore_stims/complex_16_A_b.gif","images/stimuli/spore_stims/complex_05_A_a.gif"
"","7465.6549999999115","survey-likert","148","708315","0.0-36.0","SS1619739763096","similarity_question","","","","","","","","","","","","{""Q0"":1}","[0]","","images/stimuli/spore_stims/complex_15_A_a.gif","images/stimuli/spore_stims/complex_02_A_b.gif"
"","6547.520000000135","survey-likert","149","714874","0.0-37.0","SS1619739763096","similarity_question","","","","","","","","","","","","{""Q0"":2}","[0]","","images/stimuli/spore_stims/complex_05_A_b.gif","images/stimuli/spore_stims/complex_03_A_a.gif"
"","6304.085000003455","survey-likert","150","721186","0.0-38.0","SS1619739763096","similarity_question","","","","","","","","","","","","{""Q0"":4}","[0]","","images/stimuli/spore_stims/complex_07_A_a.gif","images/stimuli/spore_stims/complex_15_A_b.gif"
"","4552.459999999031","survey-likert","151","725746","0.0-39.0","SS1619739763096","similarity_question","","","","","","","","","","","","{""Q0"":5}","[0]","","images/stimuli/spore_stims/complex_07_A_b.gif","images/stimuli/spore_stims/complex_08_A_a.gif"
"","3952.9049999982817","survey-likert","152","729706","0.0-40.0","SS1619739763096","similarity_question","","","","","","","","","","","","{""Q0"":6}","[0]","","images/stimuli/spore_stims/simple_11_A_b.gif","images/stimuli/spore_stims/simple_14_A_a.gif"
"","3167.2650000037393","survey-likert","153","732882","0.0-41.0","SS1619739763096","similarity_question","","","","","","","","","","","","{""Q0"":5}","[0]","","images/stimuli/spore_stims/simple_04_A_a.gif","images/stimuli/spore_stims/simple_02_A_b.gif"
"","2670.969999999157","survey-likert","154","735562","0.0-42.0","SS1619739763096","similarity_question","","","","","","","","","","","","{""Q0"":6}","[0]","","images/stimuli/spore_stims/simple_08_A_a.gif","images/stimuli/spore_stims/simple_06_A_b.gif"
"","2847.650000003283","survey-likert","155","738418","0.0-43.0","SS1619739763096","similarity_question","","","","","","","","","","","","{""Q0"":6}","[0]","","images/stimuli/spore_stims/simple_15_A_a.gif","images/stimuli/spore_stims/simple_12_A_b.gif"
"","4264.410000003409","survey-likert","156","742690","0.0-44.0","SS1619739763096","similarity_question","","","","","","","","","","","","{""Q0"":4}","[0]","","images/stimuli/spore_stims/simple_01_A_b.gif","images/stimuli/spore_stims/simple_17_A_a.gif"
"[{""page_index"":0,""viewing_time"":4719.5950000023}]","4719.815000004135","instructions","157","747417","0.0-45.0","SS1619739763096","instructions","","","","","","","","","","","","","","","",""
"","7972.56999999797","survey-likert","158","755394","0.0-46.0","SS1619739763096","","","","","","","","","images/stimuli/spore_stims/complex_07_A_b.gif","","","","{""Q0"":4}","[0]","","",""
"","3374.6749999991152","survey-likert","159","758778","0.0-47.0","SS1619739763096","","","","","","","","","images/stimuli/spore_stims/simple_08_A_a.gif","","","","{""Q0"":1}","[0]","","",""
"","3696.649999998044","survey-likert","160","762482","0.0-48.0","SS1619739763096","","","","","","","","","images/stimuli/spore_stims/simple_17_A_a.gif","","","","{""Q0"":1}","[0]","","",""
"","8646.329999996","survey-likert","161","771138","0.0-49.0","SS1619739763096","","","","","","","","","images/stimuli/spore_stims/complex_07_A_a.gif","","","","{""Q0"":4}","[0]","","",""
"","4168.095000000903","survey-likert","162","775314","0.0-50.0","SS1619739763096","","","","","","","","","images/stimuli/spore_stims/complex_02_A_b.gif","","","","{""Q0"":6}","[0]","","",""
"","2824.1300000008196","survey-likert","163","778146","0.0-51.0","SS1619739763096","","","","","","","","","images/stimuli/spore_stims/simple_11_A_b.gif","","","","{""Q0"":1}","[0]","","",""
"","4032.624999999767","survey-likert","164","782186","0.0-52.0","SS1619739763096","","","","","","","","","images/stimuli/spore_stims/simple_15_A_a.gif","","","","{""Q0"":2}","[0]","","",""
"","4824.4149999956135","survey-likert","165","787018","0.0-53.0","SS1619739763096","","","","","","","","","images/stimuli/spore_stims/complex_05_A_b.gif","","","","{""Q0"":4}","[0]","","",""
"","1784.7450000044191","survey-likert","166","788810","0.0-54.0","SS1619739763096","","","","","","","","","images/stimuli/spore_stims/simple_20_A_b.gif","","","","{""Q0"":1}","[0]","","",""
"","2384.0649999984307","survey-likert","167","791202","0.0-55.0","SS1619739763096","","","","","","","","","images/stimuli/spore_stims/simple_04_A_a.gif","","","","{""Q0"":2}","[0]","","",""
"","3192.7749999959487","survey-likert","168","794402","0.0-56.0","SS1619739763096","","","","","","","","","images/stimuli/spore_stims/complex_05_A_a.gif","","","","{""Q0"":4}","[0]","","",""
"","5383.529999999213","survey-likert","169","799794","0.0-57.0","SS1619739763096","","","","","","","","","images/stimuli/spore_stims/complex_14_A_a.gif","","","","{""Q0"":5}","[0]","","",""
"[{""page_index"":0,""viewing_time"":1207.0349999994505}]","1207.2899999984074","instructions","170","801010","0.0-58.0","SS1619739763096","instructions","","","","","","","","","","","","","","","",""
"","3153.4299999984214","demog-age","171","804170","0.0-59.0","SS1619739763096","","","","","","","","","","","","","{""age"":""24""}","","","",""
"","5978.264999997802","demog-ethnic-US","172","810155","0.0-60.0","SS1619739763096","","","","","","","","","","","","","{""ethnicity"":[""Hispanic or Latino""]}","[0]","","",""
"","22126.90499999735","demog-gender-and-education","173","832290","0.0-61.0","SS1619739763096","","","","","","","","","","","","","{""gender"":""Male"",""education"":""High school diploma""}","[0,1]","","",""
"","17429.754999997444","survey-text","174","849730","0.0-62.0","SS1619739763096","feedback","","","","","","","","","","","","{""Q0"":""I like the pink one""}","","","",""
"[{""page_index"":0,""viewing_time"":939.9999999949941}]","940.1649999999208","instructions","175","850674","0.0-63.0","SS1619739763096","instructions","","","","","","","","","","","","","","","",""
