"view_history","rt","trial_type","trial_index","time_elapsed","internal_node_id","subject","stimulus_type","trial_stimulus","key_press","minimum_viewing_duration","trial_looking_time","block_deviant","block_background","exposure_type","stimulus","block_number","block_type","stimulus_displayed","responses","question_order","math_correct_answer","stimulus_left","stimulus_right"
"[{""page_index"":0,""viewing_time"":10818.135000066832}]","10818.770000012591","instructions","0","10822","0.0-0.0","SS1619739188870","","","","","","","","","","","","","","","","",""
"[{""page_index"":0,""viewing_time"":19101.405000081286},{""page_index"":1,""viewing_time"":4703.904999885708}]","23805.51500013098","instructions","1","36629","0.0-1.0","SS1619739188870","instructions","","","","","","","","","","","","","","","",""
"","4143.814999843016","sequential-stimulus-presentation-old","2","41275","0.0-2.0","SS1619739188870","","","40","500","4643.814999843016","null","null","self_paced","","","","","","","","",""
"","3536.725000012666","sequential-stimulus-presentation-old","3","45314","0.0-3.0","SS1619739188870","","","40","500","4036.725000012666","null","null","self_paced","","","","","","","","",""
"[{""page_index"":0,""viewing_time"":20370.76500011608}]","20370.905000017956","instructions","4","65685","0.0-4.0","SS1619739188870","instructions","","","","","","","","","","","","","","","",""
"","1201.900000218302","sequential-stimulus-presentation-old","5","81889","0.0-5.0","SS1619739188870","","","40","500","1701.900000218302","null","null","forced_long","","","","","","","","",""
"","3194.4099999964237","sequential-stimulus-presentation-old","6","85585","0.0-6.0","SS1619739188870","","","40","500","3694.4099999964237","null","null","forced_long","","","","","","","","",""
"[{""page_index"":0,""viewing_time"":3853.080000029877}]","3853.23500004597","instructions","7","89439","0.0-7.0","SS1619739188870","instructions","","","","","","","","","","","","","","","",""
"[{""page_index"":0,""viewing_time"":9204.050000058487},{""page_index"":1,""viewing_time"":13698.864999925718},{""page_index"":2,""viewing_time"":6937.16000020504},{""page_index"":3,""viewing_time"":1023.64999987185},{""page_index"":4,""viewing_time"":1415.3750000987202}]","32279.285000171512","instructions","8","121720","0.0-8.0","SS1619739188870","instructions","","","","","","","","","","","","","","","",""
"","null","html-keyboard-response","9","122918","0.0-9.0-0.0","SS1619739188870","","","null","","","","","","<p><img src= images/blank.png width =""600"" height = ""600"" style=""position:fixed;top:50%; left:50%; transform: translate(-50%, -50%); border:5px solid black"">","","","","","","","",""
"","2333.000000100583","sequential-stimulus-presentation-old","10","125754","0.0-9.0-1.0","SS1619739188870","trial","","40","500","2833.000000100583","images/stimuli/spore_stims/complex_09_A_a.gif","images/stimuli/spore_stims/complex_15_A_b.gif","forced_short","","0","complex_dissimilar","images/stimuli/spore_stims/complex_15_A_b.gif","","","","",""
"","null","html-keyboard-response","11","126900","0.0-9.0-0.1","SS1619739188870","","","null","","","","","","<p><img src= images/blank.png width =""600"" height = ""600"" style=""position:fixed;top:50%; left:50%; transform: translate(-50%, -50%); border:5px solid black"">","","","","","","","",""
"","21952.42500002496","sequential-stimulus-presentation-old","12","149354","0.0-9.0-1.1","SS1619739188870","trial","","40","500","22452.42500002496","images/stimuli/spore_stims/complex_09_A_a.gif","images/stimuli/spore_stims/complex_15_A_b.gif","forced_short","","0","complex_dissimilar","images/stimuli/spore_stims/complex_09_A_a.gif","","","","",""
"","null","html-keyboard-response","13","150329","0.0-9.0-0.2","SS1619739188870","","","null","","","","","","<p><img src= images/blank.png width =""600"" height = ""600"" style=""position:fixed;top:50%; left:50%; transform: translate(-50%, -50%); border:5px solid black"">","","","","","","","",""
"","8473.014999879524","sequential-stimulus-presentation-old","14","159305","0.0-9.0-1.2","SS1619739188870","trial","","40","500","8973.014999879524","images/stimuli/spore_stims/complex_09_A_a.gif","images/stimuli/spore_stims/complex_15_A_b.gif","forced_short","","0","complex_dissimilar","images/stimuli/spore_stims/complex_09_A_a.gif","","","","",""
"","null","html-keyboard-response","15","160502","0.0-9.0-0.3","SS1619739188870","","","null","","","","","","<p><img src= images/blank.png width =""600"" height = ""600"" style=""position:fixed;top:50%; left:50%; transform: translate(-50%, -50%); border:5px solid black"">","","","","","","","",""
"","10445.52500010468","sequential-stimulus-presentation-old","16","171449","0.0-9.0-1.3","SS1619739188870","trial","","40","500","10945.52500010468","images/stimuli/spore_stims/complex_09_A_a.gif","images/stimuli/spore_stims/complex_15_A_b.gif","forced_short","","0","complex_dissimilar","images/stimuli/spore_stims/complex_15_A_b.gif","","","","",""
"","null","html-keyboard-response","17","172704","0.0-9.0-0.4","SS1619739188870","","","null","","","","","","<p><img src= images/blank.png width =""600"" height = ""600"" style=""position:fixed;top:50%; left:50%; transform: translate(-50%, -50%); border:5px solid black"">","","","","","","","",""
"","9938.76999989152","sequential-stimulus-presentation-old","18","183147","0.0-9.0-1.4","SS1619739188870","trial","","40","500","10438.76999989152","images/stimuli/spore_stims/complex_09_A_a.gif","images/stimuli/spore_stims/complex_15_A_b.gif","forced_short","","0","complex_dissimilar","images/stimuli/spore_stims/complex_15_A_b.gif","","","","",""
"","6759.684999939054","survey-multi-choice","19","189909","0.0-10.0","SS1619739188870","math_question","","","","","","","","","","","","{""Q0"":""12""}","[0]","12","",""
"","null","html-keyboard-response","20","191157","0.0-11.0-0.0","SS1619739188870","","","null","","","","","","<p><img src= images/blank.png width =""600"" height = ""600"" style=""position:fixed;top:50%; left:50%; transform: translate(-50%, -50%); border:5px solid black"">","","","","","","","",""
"","9201.529999962077","sequential-stimulus-presentation-old","21","215362","0.0-11.0-1.0","SS1619739188870","trial","","40","500","9701.529999962077","images/stimuli/spore_stims/complex_19_A_a.gif","images/stimuli/spore_stims/complex_07_A_b.gif","forced_long","","1","complex_dissimilar","images/stimuli/spore_stims/complex_07_A_b.gif","","","","",""
"","null","html-keyboard-response","22","216559","0.0-11.0-0.1","SS1619739188870","","","null","","","","","","<p><img src= images/blank.png width =""600"" height = ""600"" style=""position:fixed;top:50%; left:50%; transform: translate(-50%, -50%); border:5px solid black"">","","","","","","","",""
"","10303.534999955446","sequential-stimulus-presentation-old","23","227369","0.0-11.0-1.1","SS1619739188870","trial","","40","500","10803.534999955446","images/stimuli/spore_stims/complex_19_A_a.gif","images/stimuli/spore_stims/complex_07_A_b.gif","forced_long","","1","complex_dissimilar","images/stimuli/spore_stims/complex_07_A_b.gif","","","","",""
"","null","html-keyboard-response","24","228655","0.0-11.0-0.2","SS1619739188870","","","null","","","","","","<p><img src= images/blank.png width =""600"" height = ""600"" style=""position:fixed;top:50%; left:50%; transform: translate(-50%, -50%); border:5px solid black"">","","","","","","","",""
"","9802.714999997988","sequential-stimulus-presentation-old","25","238962","0.0-11.0-1.2","SS1619739188870","trial","","40","500","10302.714999997988","images/stimuli/spore_stims/complex_19_A_a.gif","images/stimuli/spore_stims/complex_07_A_b.gif","forced_long","","1","complex_dissimilar","images/stimuli/spore_stims/complex_07_A_b.gif","","","","",""
"","null","html-keyboard-response","26","240201","0.0-11.0-0.3","SS1619739188870","","","null","","","","","","<p><img src= images/blank.png width =""600"" height = ""600"" style=""position:fixed;top:50%; left:50%; transform: translate(-50%, -50%); border:5px solid black"">","","","","","","","",""
"","5201.284999959171","sequential-stimulus-presentation-old","27","245906","0.0-11.0-1.3","SS1619739188870","trial","","40","500","5701.284999959171","images/stimuli/spore_stims/complex_19_A_a.gif","images/stimuli/spore_stims/complex_07_A_b.gif","forced_long","","1","complex_dissimilar","images/stimuli/spore_stims/complex_07_A_b.gif","","","","",""
"","7060.455000028014","survey-multi-choice","28","252968","0.0-12.0","SS1619739188870","math_question","","","","","","","","","","","","{""Q0"":""14""}","[0]","14","",""
"","null","html-keyboard-response","29","254140","0.0-13.0-0.0","SS1619739188870","","","null","","","","","","<p><img src= images/blank.png width =""600"" height = ""600"" style=""position:fixed;top:50%; left:50%; transform: translate(-50%, -50%); border:5px solid black"">","","","","","","","",""
"","1322.6049998775125","sequential-stimulus-presentation-old","30","270466","0.0-13.0-1.0","SS1619739188870","trial","","40","500","1822.6049998775125","images/stimuli/spore_stims/simple_05_A_b.gif","images/stimuli/spore_stims/simple_17_A_a.gif","forced_long","","2","simple_dissimilar","images/stimuli/spore_stims/simple_17_A_a.gif","","","","",""
"","null","html-keyboard-response","31","271409","0.0-13.0-0.1","SS1619739188870","","","null","","","","","","<p><img src= images/blank.png width =""600"" height = ""600"" style=""position:fixed;top:50%; left:50%; transform: translate(-50%, -50%); border:5px solid black"">","","","","","","","",""
"","14825.745000038296","sequential-stimulus-presentation-old","32","286738","0.0-13.0-1.1","SS1619739188870","trial","","40","500","15325.745000038296","images/stimuli/spore_stims/simple_05_A_b.gif","images/stimuli/spore_stims/simple_17_A_a.gif","forced_long","","2","simple_dissimilar","images/stimuli/spore_stims/simple_17_A_a.gif","","","","",""
"","null","html-keyboard-response","33","287728","0.0-13.0-0.2","SS1619739188870","","","null","","","","","","<p><img src= images/blank.png width =""600"" height = ""600"" style=""position:fixed;top:50%; left:50%; transform: translate(-50%, -50%); border:5px solid black"">","","","","","","","",""
"","11043.370000086725","sequential-stimulus-presentation-old","34","299274","0.0-13.0-1.2","SS1619739188870","trial","","40","500","11543.370000086725","images/stimuli/spore_stims/simple_05_A_b.gif","images/stimuli/spore_stims/simple_17_A_a.gif","forced_long","","2","simple_dissimilar","images/stimuli/spore_stims/simple_17_A_a.gif","","","","",""
"","null","html-keyboard-response","35","300504","0.0-13.0-0.3","SS1619739188870","","","null","","","","","","<p><img src= images/blank.png width =""600"" height = ""600"" style=""position:fixed;top:50%; left:50%; transform: translate(-50%, -50%); border:5px solid black"">","","","","","","","",""
"","9234.995000064373","sequential-stimulus-presentation-old","36","310242","0.0-13.0-1.3","SS1619739188870","trial","","40","500","9734.995000064373","images/stimuli/spore_stims/simple_05_A_b.gif","images/stimuli/spore_stims/simple_17_A_a.gif","forced_long","","2","simple_dissimilar","images/stimuli/spore_stims/simple_17_A_a.gif","","","","",""
"","null","html-keyboard-response","37","311541","0.0-13.0-0.4","SS1619739188870","","","null","","","","","","<p><img src= images/blank.png width =""600"" height = ""600"" style=""position:fixed;top:50%; left:50%; transform: translate(-50%, -50%); border:5px solid black"">","","","","","","","",""
"","14102.940000128001","sequential-stimulus-presentation-old","38","326146","0.0-13.0-1.4","SS1619739188870","trial","","40","500","14602.940000128001","images/stimuli/spore_stims/simple_05_A_b.gif","images/stimuli/spore_stims/simple_17_A_a.gif","forced_long","","2","simple_dissimilar","images/stimuli/spore_stims/simple_05_A_b.gif","","","","",""
"","3872.7800000924617","survey-multi-choice","39","330020","0.0-14.0","SS1619739188870","math_question","","","","","","","","","","","","{""Q0"":""8""}","[0]","8","",""
"","null","html-keyboard-response","40","331234","0.0-15.0-0.0","SS1619739188870","","","null","","","","","","<p><img src= images/blank.png width =""600"" height = ""600"" style=""position:fixed;top:50%; left:50%; transform: translate(-50%, -50%); border:5px solid black"">","","","","","","","",""
"","3544.579999987036","sequential-stimulus-presentation-old","41","335282","0.0-15.0-1.0","SS1619739188870","trial","","40","500","4044.579999987036","images/stimuli/spore_stims/simple_17_A_b.gif","images/stimuli/spore_stims/simple_11_A_a.gif","forced_short","","3","simple_dissimilar","images/stimuli/spore_stims/simple_11_A_a.gif","","","","",""
"","null","html-keyboard-response","42","336197","0.0-15.0-0.1","SS1619739188870","","","null","","","","","","<p><img src= images/blank.png width =""600"" height = ""600"" style=""position:fixed;top:50%; left:50%; transform: translate(-50%, -50%); border:5px solid black"">","","","","","","","",""
"","16751.149999909103","sequential-stimulus-presentation-old","43","353449","0.0-15.0-1.1","SS1619739188870","trial","","40","500","17251.149999909103","images/stimuli/spore_stims/simple_17_A_b.gif","images/stimuli/spore_stims/simple_11_A_a.gif","forced_short","","3","simple_dissimilar","images/stimuli/spore_stims/simple_17_A_b.gif","","","","",""
"","null","html-keyboard-response","44","354607","0.0-15.0-0.2","SS1619739188870","","","null","","","","","","<p><img src= images/blank.png width =""600"" height = ""600"" style=""position:fixed;top:50%; left:50%; transform: translate(-50%, -50%); border:5px solid black"">","","","","","","","",""
"","4612.6100001856685","sequential-stimulus-presentation-old","45","359722","0.0-15.0-1.2","SS1619739188870","trial","","40","500","5112.6100001856685","images/stimuli/spore_stims/simple_17_A_b.gif","images/stimuli/spore_stims/simple_11_A_a.gif","forced_short","","3","simple_dissimilar","images/stimuli/spore_stims/simple_17_A_b.gif","","","","",""
"","null","html-keyboard-response","46","360798","0.0-15.0-0.3","SS1619739188870","","","null","","","","","","<p><img src= images/blank.png width =""600"" height = ""600"" style=""position:fixed;top:50%; left:50%; transform: translate(-50%, -50%); border:5px solid black"">","","","","","","","",""
"","11772.080000024289","sequential-stimulus-presentation-old","47","373074","0.0-15.0-1.3","SS1619739188870","trial","","40","500","12272.080000024289","images/stimuli/spore_stims/simple_17_A_b.gif","images/stimuli/spore_stims/simple_11_A_a.gif","forced_short","","3","simple_dissimilar","images/stimuli/spore_stims/simple_11_A_a.gif","","","","",""
"","null","html-keyboard-response","48","373969","0.0-15.0-0.4","SS1619739188870","","","null","","","","","","<p><img src= images/blank.png width =""600"" height = ""600"" style=""position:fixed;top:50%; left:50%; transform: translate(-50%, -50%); border:5px solid black"">","","","","","","","",""
"","11129.190000006929","sequential-stimulus-presentation-old","49","385601","0.0-15.0-1.4","SS1619739188870","trial","","40","500","11629.190000006929","images/stimuli/spore_stims/simple_17_A_b.gif","images/stimuli/spore_stims/simple_11_A_a.gif","forced_short","","3","simple_dissimilar","images/stimuli/spore_stims/simple_11_A_a.gif","","","","",""
"","3103.154999902472","survey-multi-choice","50","388705","0.0-16.0","SS1619739188870","math_question","","","","","","","","","","","","{""Q0"":""9""}","[0]","9","",""
"","null","html-keyboard-response","51","389924","0.0-17.0-0.0","SS1619739188870","","","null","","","","","","<p><img src= images/blank.png width =""600"" height = ""600"" style=""position:fixed;top:50%; left:50%; transform: translate(-50%, -50%); border:5px solid black"">","","","","","","","",""
"","1698.6650000326335","sequential-stimulus-presentation-old","52","406625","0.0-17.0-1.0","SS1619739188870","trial","","40","500","2198.6650000326335","images/stimuli/spore_stims/simple_18_A_b.gif","images/stimuli/spore_stims/simple_14_A_a.gif","forced_long","","4","simple_dissimilar","images/stimuli/spore_stims/simple_14_A_a.gif","","","","",""
"","null","html-keyboard-response","53","407674","0.0-17.0-0.1","SS1619739188870","","","null","","","","","","<p><img src= images/blank.png width =""600"" height = ""600"" style=""position:fixed;top:50%; left:50%; transform: translate(-50%, -50%); border:5px solid black"">","","","","","","","",""
"","14815.535000059754","sequential-stimulus-presentation-old","54","422993","0.0-17.0-1.1","SS1619739188870","trial","","40","500","15315.535000059754","images/stimuli/spore_stims/simple_18_A_b.gif","images/stimuli/spore_stims/simple_14_A_a.gif","forced_long","","4","simple_dissimilar","images/stimuli/spore_stims/simple_14_A_a.gif","","","","",""
"","null","html-keyboard-response","55","424281","0.0-17.0-0.2","SS1619739188870","","","null","","","","","","<p><img src= images/blank.png width =""600"" height = ""600"" style=""position:fixed;top:50%; left:50%; transform: translate(-50%, -50%); border:5px solid black"">","","","","","","","",""
"","6194.150000112131","sequential-stimulus-presentation-old","56","430977","0.0-17.0-1.2","SS1619739188870","trial","","40","500","6694.150000112131","images/stimuli/spore_stims/simple_18_A_b.gif","images/stimuli/spore_stims/simple_14_A_a.gif","forced_long","","4","simple_dissimilar","images/stimuli/spore_stims/simple_14_A_a.gif","","","","",""
"","null","html-keyboard-response","57","432144","0.0-17.0-0.3","SS1619739188870","","","null","","","","","","<p><img src= images/blank.png width =""600"" height = ""600"" style=""position:fixed;top:50%; left:50%; transform: translate(-50%, -50%); border:5px solid black"">","","","","","","","",""
"","8290.604999987409","sequential-stimulus-presentation-old","58","440937","0.0-17.0-1.3","SS1619739188870","trial","","40","500","8790.604999987409","images/stimuli/spore_stims/simple_18_A_b.gif","images/stimuli/spore_stims/simple_14_A_a.gif","forced_long","","4","simple_dissimilar","images/stimuli/spore_stims/simple_14_A_a.gif","","","","",""
"","null","html-keyboard-response","59","442027","0.0-17.0-0.4","SS1619739188870","","","null","","","","","","<p><img src= images/blank.png width =""600"" height = ""600"" style=""position:fixed;top:50%; left:50%; transform: translate(-50%, -50%); border:5px solid black"">","","","","","","","",""
"","11165.39500001818","sequential-stimulus-presentation-old","60","453697","0.0-17.0-1.4","SS1619739188870","trial","","40","500","11665.39500001818","images/stimuli/spore_stims/simple_18_A_b.gif","images/stimuli/spore_stims/simple_14_A_a.gif","forced_long","","4","simple_dissimilar","images/stimuli/spore_stims/simple_14_A_a.gif","","","","",""
"","null","html-keyboard-response","61","454956","0.0-17.0-0.5","SS1619739188870","","","null","","","","","","<p><img src= images/blank.png width =""600"" height = ""600"" style=""position:fixed;top:50%; left:50%; transform: translate(-50%, -50%); border:5px solid black"">","","","","","","","",""
"","11839.055000105873","sequential-stimulus-presentation-old","62","467297","0.0-17.0-1.5","SS1619739188870","trial","","40","500","12339.055000105873","images/stimuli/spore_stims/simple_18_A_b.gif","images/stimuli/spore_stims/simple_14_A_a.gif","forced_long","","4","simple_dissimilar","images/stimuli/spore_stims/simple_14_A_a.gif","","","","",""
"","3600.530000170693","survey-multi-choice","63","470899","0.0-18.0","SS1619739188870","math_question","","","","","","","","","","","","{""Q0"":""8""}","[0]","8","",""
"","null","html-keyboard-response","64","471732","0.0-19.0-0.0","SS1619739188870","","","null","","","","","","<p><img src= images/blank.png width =""600"" height = ""600"" style=""position:fixed;top:50%; left:50%; transform: translate(-50%, -50%); border:5px solid black"">","","","","","","","",""
"","2350.9349999949336","sequential-stimulus-presentation-old","65","474585","0.0-19.0-1.0","SS1619739188870","trial","","40","500","2850.9349999949336","images/stimuli/spore_stims/complex_12_A_a.gif","images/stimuli/spore_stims/complex_18_A_b.gif","forced_short","","5","complex_dissimilar","images/stimuli/spore_stims/complex_18_A_b.gif","","","","",""
"","null","html-keyboard-response","66","475638","0.0-19.0-0.1","SS1619739188870","","","null","","","","","","<p><img src= images/blank.png width =""600"" height = ""600"" style=""position:fixed;top:50%; left:50%; transform: translate(-50%, -50%); border:5px solid black"">","","","","","","","",""
"","13004.285000031814","sequential-stimulus-presentation-old","67","489145","0.0-19.0-1.1","SS1619739188870","trial","","40","500","13504.285000031814","images/stimuli/spore_stims/complex_12_A_a.gif","images/stimuli/spore_stims/complex_18_A_b.gif","forced_short","","5","complex_dissimilar","images/stimuli/spore_stims/complex_12_A_a.gif","","","","",""
"","null","html-keyboard-response","68","490266","0.0-19.0-0.2","SS1619739188870","","","null","","","","","","<p><img src= images/blank.png width =""600"" height = ""600"" style=""position:fixed;top:50%; left:50%; transform: translate(-50%, -50%); border:5px solid black"">","","","","","","","",""
"","10353.409999981523","sequential-stimulus-presentation-old","69","501122","0.0-19.0-1.2","SS1619739188870","trial","","40","500","10853.409999981523","images/stimuli/spore_stims/complex_12_A_a.gif","images/stimuli/spore_stims/complex_18_A_b.gif","forced_short","","5","complex_dissimilar","images/stimuli/spore_stims/complex_18_A_b.gif","","","","",""
"","null","html-keyboard-response","70","502389","0.0-19.0-0.3","SS1619739188870","","","null","","","","","","<p><img src= images/blank.png width =""600"" height = ""600"" style=""position:fixed;top:50%; left:50%; transform: translate(-50%, -50%); border:5px solid black"">","","","","","","","",""
"","9732.775000156835","sequential-stimulus-presentation-old","71","512626","0.0-19.0-1.3","SS1619739188870","trial","","40","500","10232.775000156835","images/stimuli/spore_stims/complex_12_A_a.gif","images/stimuli/spore_stims/complex_18_A_b.gif","forced_short","","5","complex_dissimilar","images/stimuli/spore_stims/complex_18_A_b.gif","","","","",""
"","3356.330000096932","survey-multi-choice","72","515984","0.0-20.0","SS1619739188870","math_question","","","","","","","","","","","","{""Q0"":""6""}","[0]","6","",""
"","null","html-keyboard-response","73","517165","0.0-21.0-0.0","SS1619739188870","","","null","","","","","","<p><img src= images/blank.png width =""600"" height = ""600"" style=""position:fixed;top:50%; left:50%; transform: translate(-50%, -50%); border:5px solid black"">","","","","","","","",""
"","10580.210000043735","sequential-stimulus-presentation-old","74","528250","0.0-21.0-1.0","SS1619739188870","trial","","40","500","11080.210000043735","images/stimuli/spore_stims/complex_01_A_a.gif","images/stimuli/spore_stims/complex_17_A_b.gif","self_paced","","6","complex_dissimilar","images/stimuli/spore_stims/complex_17_A_b.gif","","","","",""
"","null","html-keyboard-response","75","529139","0.0-21.0-0.1","SS1619739188870","","","null","","","","","","<p><img src= images/blank.png width =""600"" height = ""600"" style=""position:fixed;top:50%; left:50%; transform: translate(-50%, -50%); border:5px solid black"">","","","","","","","",""
"","5912.075000116602","sequential-stimulus-presentation-old","76","535554","0.0-21.0-1.1","SS1619739188870","trial","","40","500","6412.075000116602","images/stimuli/spore_stims/complex_01_A_a.gif","images/stimuli/spore_stims/complex_17_A_b.gif","self_paced","","6","complex_dissimilar","images/stimuli/spore_stims/complex_17_A_b.gif","","","","",""
"","null","html-keyboard-response","77","536727","0.0-21.0-0.2","SS1619739188870","","","null","","","","","","<p><img src= images/blank.png width =""600"" height = ""600"" style=""position:fixed;top:50%; left:50%; transform: translate(-50%, -50%); border:5px solid black"">","","","","","","","",""
"","7099.264999851584","sequential-stimulus-presentation-old","78","544330","0.0-21.0-1.2","SS1619739188870","trial","","40","500","7599.264999851584","images/stimuli/spore_stims/complex_01_A_a.gif","images/stimuli/spore_stims/complex_17_A_b.gif","self_paced","","6","complex_dissimilar","images/stimuli/spore_stims/complex_17_A_b.gif","","","","",""
"","null","html-keyboard-response","79","545195","0.0-21.0-0.3","SS1619739188870","","","null","","","","","","<p><img src= images/blank.png width =""600"" height = ""600"" style=""position:fixed;top:50%; left:50%; transform: translate(-50%, -50%); border:5px solid black"">","","","","","","","",""
"","12438.994999974966","sequential-stimulus-presentation-old","80","558138","0.0-21.0-1.3","SS1619739188870","trial","","40","500","12938.994999974966","images/stimuli/spore_stims/complex_01_A_a.gif","images/stimuli/spore_stims/complex_17_A_b.gif","self_paced","","6","complex_dissimilar","images/stimuli/spore_stims/complex_01_A_a.gif","","","","",""
"","null","html-keyboard-response","81","559316","0.0-21.0-0.4","SS1619739188870","","","null","","","","","","<p><img src= images/blank.png width =""600"" height = ""600"" style=""position:fixed;top:50%; left:50%; transform: translate(-50%, -50%); border:5px solid black"">","","","","","","","",""
"","11526.46499988623","sequential-stimulus-presentation-old","82","571345","0.0-21.0-1.4","SS1619739188870","trial","","40","500","12026.46499988623","images/stimuli/spore_stims/complex_01_A_a.gif","images/stimuli/spore_stims/complex_17_A_b.gif","self_paced","","6","complex_dissimilar","images/stimuli/spore_stims/complex_01_A_a.gif","","","","",""
"","null","html-keyboard-response","83","572615","0.0-21.0-0.5","SS1619739188870","","","null","","","","","","<p><img src= images/blank.png width =""600"" height = ""600"" style=""position:fixed;top:50%; left:50%; transform: translate(-50%, -50%); border:5px solid black"">","","","","","","","",""
"","14627.740000141785","sequential-stimulus-presentation-old","84","587746","0.0-21.0-1.5","SS1619739188870","trial","","40","500","15127.740000141785","images/stimuli/spore_stims/complex_01_A_a.gif","images/stimuli/spore_stims/complex_17_A_b.gif","self_paced","","6","complex_dissimilar","images/stimuli/spore_stims/complex_17_A_b.gif","","","","",""
"","3212.1949999127537","survey-multi-choice","85","590960","0.0-22.0","SS1619739188870","math_question","","","","","","","","","","","","{""Q0"":""9""}","[0]","9","",""
"","null","html-keyboard-response","86","591998","0.0-23.0-0.0","SS1619739188870","","","null","","","","","","<p><img src= images/blank.png width =""600"" height = ""600"" style=""position:fixed;top:50%; left:50%; transform: translate(-50%, -50%); border:5px solid black"">","","","","","","","",""
"","10516.370000084862","sequential-stimulus-presentation-old","87","603017","0.0-23.0-1.0","SS1619739188870","trial","","40","500","11016.370000084862","images/stimuli/spore_stims/simple_16_A_a.gif","images/stimuli/spore_stims/simple_06_A_b.gif","self_paced","","7","simple_dissimilar","images/stimuli/spore_stims/simple_06_A_b.gif","","","","",""
"","null","html-keyboard-response","88","604314","0.0-23.0-0.1","SS1619739188870","","","null","","","","","","<p><img src= images/blank.png width =""600"" height = ""600"" style=""position:fixed;top:50%; left:50%; transform: translate(-50%, -50%); border:5px solid black"">","","","","","","","",""
"","8399.28500005044","sequential-stimulus-presentation-old","89","613217","0.0-23.0-1.1","SS1619739188870","trial","","40","500","8899.28500005044","images/stimuli/spore_stims/simple_16_A_a.gif","images/stimuli/spore_stims/simple_06_A_b.gif","self_paced","","7","simple_dissimilar","images/stimuli/spore_stims/simple_06_A_b.gif","","","","",""
"","null","html-keyboard-response","90","614049","0.0-23.0-0.2","SS1619739188870","","","null","","","","","","<p><img src= images/blank.png width =""600"" height = ""600"" style=""position:fixed;top:50%; left:50%; transform: translate(-50%, -50%); border:5px solid black"">","","","","","","","",""
"","5665.584999835119","sequential-stimulus-presentation-old","91","620217","0.0-23.0-1.2","SS1619739188870","trial","","40","500","6165.584999835119","images/stimuli/spore_stims/simple_16_A_a.gif","images/stimuli/spore_stims/simple_06_A_b.gif","self_paced","","7","simple_dissimilar","images/stimuli/spore_stims/simple_06_A_b.gif","","","","",""
"","null","html-keyboard-response","92","621445","0.0-23.0-0.3","SS1619739188870","","","null","","","","","","<p><img src= images/blank.png width =""600"" height = ""600"" style=""position:fixed;top:50%; left:50%; transform: translate(-50%, -50%); border:5px solid black"">","","","","","","","",""
"","13548.510000109673","sequential-stimulus-presentation-old","93","635497","0.0-23.0-1.3","SS1619739188870","trial","","40","500","14048.510000109673","images/stimuli/spore_stims/simple_16_A_a.gif","images/stimuli/spore_stims/simple_06_A_b.gif","self_paced","","7","simple_dissimilar","images/stimuli/spore_stims/simple_16_A_a.gif","","","","",""
"","null","html-keyboard-response","94","636762","0.0-23.0-0.4","SS1619739188870","","","null","","","","","","<p><img src= images/blank.png width =""600"" height = ""600"" style=""position:fixed;top:50%; left:50%; transform: translate(-50%, -50%); border:5px solid black"">","","","","","","","",""
"","13848.879999946803","sequential-stimulus-presentation-old","95","651114","0.0-23.0-1.4","SS1619739188870","trial","","40","500","14348.879999946803","images/stimuli/spore_stims/simple_16_A_a.gif","images/stimuli/spore_stims/simple_06_A_b.gif","self_paced","","7","simple_dissimilar","images/stimuli/spore_stims/simple_06_A_b.gif","","","","",""
"","null","html-keyboard-response","96","652125","0.0-23.0-0.5","SS1619739188870","","","null","","","","","","<p><img src= images/blank.png width =""600"" height = ""600"" style=""position:fixed;top:50%; left:50%; transform: translate(-50%, -50%); border:5px solid black"">","","","","","","","",""
"","9227.375000016764","sequential-stimulus-presentation-old","97","661857","0.0-23.0-1.5","SS1619739188870","trial","","40","500","9727.375000016764","images/stimuli/spore_stims/simple_16_A_a.gif","images/stimuli/spore_stims/simple_06_A_b.gif","self_paced","","7","simple_dissimilar","images/stimuli/spore_stims/simple_16_A_a.gif","","","","",""
"","3007.4499999172986","survey-multi-choice","98","664866","0.0-24.0","SS1619739188870","math_question","","","","","","","","","","","","{""Q0"":""5""}","[0]","5","",""
"","null","html-keyboard-response","99","665908","0.0-25.0-0.0","SS1619739188870","","","null","","","","","","<p><img src= images/blank.png width =""600"" height = ""600"" style=""position:fixed;top:50%; left:50%; transform: translate(-50%, -50%); border:5px solid black"">","","","","","","","",""
"","1144.099999917671","sequential-stimulus-presentation-old","100","682058","0.0-25.0-1.0","SS1619739188870","trial","","40","500","1644.099999917671","images/stimuli/spore_stims/complex_10_A_b.gif","images/stimuli/spore_stims/complex_06_A_a.gif","forced_long","","8","complex_dissimilar","images/stimuli/spore_stims/complex_06_A_a.gif","","","","",""
"","null","html-keyboard-response","101","683333","0.0-25.0-0.1","SS1619739188870","","","null","","","","","","<p><img src= images/blank.png width =""600"" height = ""600"" style=""position:fixed;top:50%; left:50%; transform: translate(-50%, -50%); border:5px solid black"">","","","","","","","",""
"","11148.01500015892","sequential-stimulus-presentation-old","102","695002","0.0-25.0-1.1","SS1619739188870","trial","","40","500","11648.01500015892","images/stimuli/spore_stims/complex_10_A_b.gif","images/stimuli/spore_stims/complex_06_A_a.gif","forced_long","","8","complex_dissimilar","images/stimuli/spore_stims/complex_06_A_a.gif","","","","",""
"","null","html-keyboard-response","103","695806","0.0-25.0-0.2","SS1619739188870","","","null","","","","","","<p><img src= images/blank.png width =""600"" height = ""600"" style=""position:fixed;top:50%; left:50%; transform: translate(-50%, -50%); border:5px solid black"">","","","","","","","",""
"","11482.379999943078","sequential-stimulus-presentation-old","104","707794","0.0-25.0-1.2","SS1619739188870","trial","","40","500","11982.379999943078","images/stimuli/spore_stims/complex_10_A_b.gif","images/stimuli/spore_stims/complex_06_A_a.gif","forced_long","","8","complex_dissimilar","images/stimuli/spore_stims/complex_06_A_a.gif","","","","",""
"","null","html-keyboard-response","105","708791","0.0-25.0-0.3","SS1619739188870","","","null","","","","","","<p><img src= images/blank.png width =""600"" height = ""600"" style=""position:fixed;top:50%; left:50%; transform: translate(-50%, -50%); border:5px solid black"">","","","","","","","",""
"","8059.899999992922","sequential-stimulus-presentation-old","106","717353","0.0-25.0-1.3","SS1619739188870","trial","","40","500","8559.899999992922","images/stimuli/spore_stims/complex_10_A_b.gif","images/stimuli/spore_stims/complex_06_A_a.gif","forced_long","","8","complex_dissimilar","images/stimuli/spore_stims/complex_06_A_a.gif","","","","",""
"","5040.615000063553","survey-multi-choice","107","722396","0.0-26.0","SS1619739188870","math_question","","","","","","","","","","","","{""Q0"":""10""}","[0]","10","",""
"","null","html-keyboard-response","108","723576","0.0-27.0-0.0","SS1619739188870","","","null","","","","","","<p><img src= images/blank.png width =""600"" height = ""600"" style=""position:fixed;top:50%; left:50%; transform: translate(-50%, -50%); border:5px solid black"">","","","","","","","",""
"","11890.489999903366","sequential-stimulus-presentation-old","109","735970","0.0-27.0-1.0","SS1619739188870","trial","","40","500","12390.489999903366","images/stimuli/spore_stims/complex_08_A_b.gif","images/stimuli/spore_stims/complex_13_A_a.gif","self_paced","","9","complex_dissimilar","images/stimuli/spore_stims/complex_13_A_a.gif","","","","",""
"","null","html-keyboard-response","110","736893","0.0-27.0-0.1","SS1619739188870","","","null","","","","","","<p><img src= images/blank.png width =""600"" height = ""600"" style=""position:fixed;top:50%; left:50%; transform: translate(-50%, -50%); border:5px solid black"">","","","","","","","",""
"","12733.795000007376","sequential-stimulus-presentation-old","111","750130","0.0-27.0-1.1","SS1619739188870","trial","","40","500","13233.795000007376","images/stimuli/spore_stims/complex_08_A_b.gif","images/stimuli/spore_stims/complex_13_A_a.gif","self_paced","","9","complex_dissimilar","images/stimuli/spore_stims/complex_13_A_a.gif","","","","",""
"","null","html-keyboard-response","112","751063","0.0-27.0-0.2","SS1619739188870","","","null","","","","","","<p><img src= images/blank.png width =""600"" height = ""600"" style=""position:fixed;top:50%; left:50%; transform: translate(-50%, -50%); border:5px solid black"">","","","","","","","",""
"","6976.789999986067","sequential-stimulus-presentation-old","113","758545","0.0-27.0-1.2","SS1619739188870","trial","","40","500","7476.789999986067","images/stimuli/spore_stims/complex_08_A_b.gif","images/stimuli/spore_stims/complex_13_A_a.gif","self_paced","","9","complex_dissimilar","images/stimuli/spore_stims/complex_13_A_a.gif","","","","",""
"","null","html-keyboard-response","114","759616","0.0-27.0-0.3","SS1619739188870","","","null","","","","","","<p><img src= images/blank.png width =""600"" height = ""600"" style=""position:fixed;top:50%; left:50%; transform: translate(-50%, -50%); border:5px solid black"">","","","","","","","",""
"","10641.360000008717","sequential-stimulus-presentation-old","115","770761","0.0-27.0-1.3","SS1619739188870","trial","","40","500","11141.360000008717","images/stimuli/spore_stims/complex_08_A_b.gif","images/stimuli/spore_stims/complex_13_A_a.gif","self_paced","","9","complex_dissimilar","images/stimuli/spore_stims/complex_13_A_a.gif","","","","",""
"","null","html-keyboard-response","116","771992","0.0-27.0-0.4","SS1619739188870","","","null","","","","","","<p><img src= images/blank.png width =""600"" height = ""600"" style=""position:fixed;top:50%; left:50%; transform: translate(-50%, -50%); border:5px solid black"">","","","","","","","",""
"","10747.345000039786","sequential-stimulus-presentation-old","117","783241","0.0-27.0-1.4","SS1619739188870","trial","","40","500","11247.345000039786","images/stimuli/spore_stims/complex_08_A_b.gif","images/stimuli/spore_stims/complex_13_A_a.gif","self_paced","","9","complex_dissimilar","images/stimuli/spore_stims/complex_13_A_a.gif","","","","",""
"","null","html-keyboard-response","118","784344","0.0-27.0-0.5","SS1619739188870","","","null","","","","","","<p><img src= images/blank.png width =""600"" height = ""600"" style=""position:fixed;top:50%; left:50%; transform: translate(-50%, -50%); border:5px solid black"">","","","","","","","",""
"","9362.759999930859","sequential-stimulus-presentation-old","119","794209","0.0-27.0-1.5","SS1619739188870","trial","","40","500","9862.759999930859","images/stimuli/spore_stims/complex_08_A_b.gif","images/stimuli/spore_stims/complex_13_A_a.gif","self_paced","","9","complex_dissimilar","images/stimuli/spore_stims/complex_13_A_a.gif","","","","",""
"","2936.5499999839813","survey-multi-choice","120","797147","0.0-28.0","SS1619739188870","math_question","","","","","","","","","","","","{""Q0"":""9""}","[0]","9","",""
"","null","html-keyboard-response","121","798176","0.0-29.0-0.0","SS1619739188870","","","null","","","","","","<p><img src= images/blank.png width =""600"" height = ""600"" style=""position:fixed;top:50%; left:50%; transform: translate(-50%, -50%); border:5px solid black"">","","","","","","","",""
"","2321.040000068024","sequential-stimulus-presentation-old","122","801001","0.0-29.0-1.0","SS1619739188870","trial","","40","500","2821.040000068024","images/stimuli/spore_stims/simple_07_A_b.gif","images/stimuli/spore_stims/simple_04_A_a.gif","forced_short","","10","simple_dissimilar","images/stimuli/spore_stims/simple_04_A_a.gif","","","","",""
"","null","html-keyboard-response","123","802027","0.0-29.0-0.1","SS1619739188870","","","null","","","","","","<p><img src= images/blank.png width =""600"" height = ""600"" style=""position:fixed;top:50%; left:50%; transform: translate(-50%, -50%); border:5px solid black"">","","","","","","","",""
"","15759.305000072345","sequential-stimulus-presentation-old","124","818289","0.0-29.0-1.1","SS1619739188870","trial","","40","500","16259.305000072345","images/stimuli/spore_stims/simple_07_A_b.gif","images/stimuli/spore_stims/simple_04_A_a.gif","forced_short","","10","simple_dissimilar","images/stimuli/spore_stims/simple_04_A_a.gif","","","","",""
"","null","html-keyboard-response","125","819326","0.0-29.0-0.2","SS1619739188870","","","null","","","","","","<p><img src= images/blank.png width =""600"" height = ""600"" style=""position:fixed;top:50%; left:50%; transform: translate(-50%, -50%); border:5px solid black"">","","","","","","","",""
"","16748.524999944493","sequential-stimulus-presentation-old","126","836577","0.0-29.0-1.2","SS1619739188870","trial","","40","500","17248.524999944493","images/stimuli/spore_stims/simple_07_A_b.gif","images/stimuli/spore_stims/simple_04_A_a.gif","forced_short","","10","simple_dissimilar","images/stimuli/spore_stims/simple_04_A_a.gif","","","","",""
"","null","html-keyboard-response","127","837780","0.0-29.0-0.3","SS1619739188870","","","null","","","","","","<p><img src= images/blank.png width =""600"" height = ""600"" style=""position:fixed;top:50%; left:50%; transform: translate(-50%, -50%); border:5px solid black"">","","","","","","","",""
"","9098.345000064","sequential-stimulus-presentation-old","128","847385","0.0-29.0-1.3","SS1619739188870","trial","","40","500","9598.345000064","images/stimuli/spore_stims/simple_07_A_b.gif","images/stimuli/spore_stims/simple_04_A_a.gif","forced_short","","10","simple_dissimilar","images/stimuli/spore_stims/simple_04_A_a.gif","","","","",""
"","null","html-keyboard-response","129","848517","0.0-29.0-0.4","SS1619739188870","","","null","","","","","","<p><img src= images/blank.png width =""600"" height = ""600"" style=""position:fixed;top:50%; left:50%; transform: translate(-50%, -50%); border:5px solid black"">","","","","","","","",""
"","9484.064999967813","sequential-stimulus-presentation-old","130","858505","0.0-29.0-1.4","SS1619739188870","trial","","40","500","9984.064999967813","images/stimuli/spore_stims/simple_07_A_b.gif","images/stimuli/spore_stims/simple_04_A_a.gif","forced_short","","10","simple_dissimilar","images/stimuli/spore_stims/simple_04_A_a.gif","","","","",""
"","null","html-keyboard-response","131","859805","0.0-29.0-0.5","SS1619739188870","","","null","","","","","","<p><img src= images/blank.png width =""600"" height = ""600"" style=""position:fixed;top:50%; left:50%; transform: translate(-50%, -50%); border:5px solid black"">","","","","","","","",""
"","20826.26000000164","sequential-stimulus-presentation-old","132","881137","0.0-29.0-1.5","SS1619739188870","trial","","40","500","21326.26000000164","images/stimuli/spore_stims/simple_07_A_b.gif","images/stimuli/spore_stims/simple_04_A_a.gif","forced_short","","10","simple_dissimilar","images/stimuli/spore_stims/simple_07_A_b.gif","","","","",""
"","2830.240000039339","survey-multi-choice","133","883969","0.0-30.0","SS1619739188870","math_question","","","","","","","","","","","","{""Q0"":""6""}","[0]","6","",""
"","null","html-keyboard-response","134","885260","0.0-31.0-0.0","SS1619739188870","","","null","","","","","","<p><img src= images/blank.png width =""600"" height = ""600"" style=""position:fixed;top:50%; left:50%; transform: translate(-50%, -50%); border:5px solid black"">","","","","","","","",""
"","4510.379999876022","sequential-stimulus-presentation-old","135","890273","0.0-31.0-1.0","SS1619739188870","trial","","40","500","5010.379999876022","images/stimuli/spore_stims/simple_02_A_b.gif","images/stimuli/spore_stims/simple_09_A_a.gif","self_paced","","11","simple_dissimilar","images/stimuli/spore_stims/simple_09_A_a.gif","","","","",""
"","null","html-keyboard-response","136","891124","0.0-31.0-0.1","SS1619739188870","","","null","","","","","","<p><img src= images/blank.png width =""600"" height = ""600"" style=""position:fixed;top:50%; left:50%; transform: translate(-50%, -50%); border:5px solid black"">","","","","","","","",""
"","10252.594999969006","sequential-stimulus-presentation-old","137","901881","0.0-31.0-1.1","SS1619739188870","trial","","40","500","10752.594999969006","images/stimuli/spore_stims/simple_02_A_b.gif","images/stimuli/spore_stims/simple_09_A_a.gif","self_paced","","11","simple_dissimilar","images/stimuli/spore_stims/simple_09_A_a.gif","","","","",""
"","null","html-keyboard-response","138","903106","0.0-31.0-0.2","SS1619739188870","","","null","","","","","","<p><img src= images/blank.png width =""600"" height = ""600"" style=""position:fixed;top:50%; left:50%; transform: translate(-50%, -50%); border:5px solid black"">","","","","","","","",""
"","7847.700000042096","sequential-stimulus-presentation-old","139","911458","0.0-31.0-1.2","SS1619739188870","trial","","40","500","8347.700000042096","images/stimuli/spore_stims/simple_02_A_b.gif","images/stimuli/spore_stims/simple_09_A_a.gif","self_paced","","11","simple_dissimilar","images/stimuli/spore_stims/simple_09_A_a.gif","","","","",""
"","null","html-keyboard-response","140","912417","0.0-31.0-0.3","SS1619739188870","","","null","","","","","","<p><img src= images/blank.png width =""600"" height = ""600"" style=""position:fixed;top:50%; left:50%; transform: translate(-50%, -50%); border:5px solid black"">","","","","","","","",""
"","11455.590000143275","sequential-stimulus-presentation-old","141","924378","0.0-31.0-1.3","SS1619739188870","trial","","40","500","11955.590000143275","images/stimuli/spore_stims/simple_02_A_b.gif","images/stimuli/spore_stims/simple_09_A_a.gif","self_paced","","11","simple_dissimilar","images/stimuli/spore_stims/simple_02_A_b.gif","","","","",""
"","null","html-keyboard-response","142","925331","0.0-31.0-0.4","SS1619739188870","","","null","","","","","","<p><img src= images/blank.png width =""600"" height = ""600"" style=""position:fixed;top:50%; left:50%; transform: translate(-50%, -50%); border:5px solid black"">","","","","","","","",""
"","7063.370000105351","sequential-stimulus-presentation-old","143","932897","0.0-31.0-1.4","SS1619739188870","trial","","40","500","7563.370000105351","images/stimuli/spore_stims/simple_02_A_b.gif","images/stimuli/spore_stims/simple_09_A_a.gif","self_paced","","11","simple_dissimilar","images/stimuli/spore_stims/simple_09_A_a.gif","","","","",""
"[{""page_index"":0,""viewing_time"":5305.580000160262}]","5305.705000180751","instructions","144","938204","0.0-32.0","SS1619739188870","instructions","","","","","","","","","","","","","","","",""
"","9069.774999981746","survey-likert","145","947277","0.0-33.0","SS1619739188870","similarity_question","","","","","","","","","","","","{""Q0"":1}","[0]","","images/stimuli/spore_stims/complex_17_A_b.gif","images/stimuli/spore_stims/complex_01_A_a.gif"
"","6750.149999978021","survey-likert","146","954029","0.0-34.0","SS1619739188870","similarity_question","","","","","","","","","","","","{""Q0"":4}","[0]","","images/stimuli/spore_stims/simple_07_A_b.gif","images/stimuli/spore_stims/simple_04_A_a.gif"
"","7737.850000150502","survey-likert","147","961770","0.0-35.0","SS1619739188870","similarity_question","","","","","","","","","","","","{""Q0"":4}","[0]","","images/stimuli/spore_stims/complex_08_A_b.gif","images/stimuli/spore_stims/complex_13_A_a.gif"
"","3915.8499999903142","survey-likert","148","965688","0.0-36.0","SS1619739188870","similarity_question","","","","","","","","","","","","{""Q0"":6}","[0]","","images/stimuli/spore_stims/simple_17_A_a.gif","images/stimuli/spore_stims/simple_05_A_b.gif"
"","6551.544999936596","survey-likert","149","972243","0.0-37.0","SS1619739188870","similarity_question","","","","","","","","","","","","{""Q0"":5}","[0]","","images/stimuli/spore_stims/complex_10_A_b.gif","images/stimuli/spore_stims/complex_06_A_a.gif"
"","7950.445000082254","survey-likert","150","980196","0.0-38.0","SS1619739188870","similarity_question","","","","","","","","","","","","{""Q0"":3}","[0]","","images/stimuli/spore_stims/complex_07_A_b.gif","images/stimuli/spore_stims/complex_19_A_a.gif"
"","6330.909999785945","survey-likert","151","986530","0.0-39.0","SS1619739188870","similarity_question","","","","","","","","","","","","{""Q0"":3}","[0]","","images/stimuli/spore_stims/complex_18_A_b.gif","images/stimuli/spore_stims/complex_12_A_a.gif"
"","11509.515000041574","survey-likert","152","998041","0.0-40.0","SS1619739188870","similarity_question","","","","","","","","","","","","{""Q0"":3}","[0]","","images/stimuli/spore_stims/complex_15_A_b.gif","images/stimuli/spore_stims/complex_09_A_a.gif"
"","3783.04999996908","survey-likert","153","1001828","0.0-41.0","SS1619739188870","similarity_question","","","","","","","","","","","","{""Q0"":5}","[0]","","images/stimuli/spore_stims/simple_16_A_a.gif","images/stimuli/spore_stims/simple_06_A_b.gif"
"","4069.0950001589954","survey-likert","154","1005900","0.0-42.0","SS1619739188870","similarity_question","","","","","","","","","","","","{""Q0"":4}","[0]","","images/stimuli/spore_stims/simple_17_A_b.gif","images/stimuli/spore_stims/simple_11_A_a.gif"
"","3038.0599999334663","survey-likert","155","1008941","0.0-43.0","SS1619739188870","similarity_question","","","","","","","","","","","","{""Q0"":3}","[0]","","images/stimuli/spore_stims/simple_14_A_a.gif","images/stimuli/spore_stims/simple_18_A_b.gif"
"","4257.100000046194","survey-likert","156","1013202","0.0-44.0","SS1619739188870","similarity_question","","","","","","","","","","","","{""Q0"":5}","[0]","","images/stimuli/spore_stims/simple_09_A_a.gif","images/stimuli/spore_stims/simple_02_A_b.gif"
"[{""page_index"":0,""viewing_time"":4362.469999818131}]","4362.59499983862","instructions","157","1017568","0.0-45.0","SS1619739188870","instructions","","","","","","","","","","","","","","","",""
"","6152.29000011459","survey-likert","158","1023722","0.0-46.0","SS1619739188870","","","","","","","","","images/stimuli/spore_stims/simple_17_A_a.gif","","","","{""Q0"":1}","[0]","","",""
"","5157.41500002332","survey-likert","159","1028882","0.0-47.0","SS1619739188870","","","","","","","","","images/stimuli/spore_stims/complex_08_A_b.gif","","","","{""Q0"":4}","[0]","","",""
"","3965.8299998845905","survey-likert","160","1032851","0.0-48.0","SS1619739188870","","","","","","","","","images/stimuli/spore_stims/complex_01_A_a.gif","","","","{""Q0"":4}","[0]","","",""
"","3553.2700000330806","survey-likert","161","1036407","0.0-49.0","SS1619739188870","","","","","","","","","images/stimuli/spore_stims/complex_06_A_a.gif","","","","{""Q0"":5}","[0]","","",""
"","4255.5549999233335","survey-likert","162","1040665","0.0-50.0","SS1619739188870","","","","","","","","","images/stimuli/spore_stims/complex_09_A_a.gif","","","","{""Q0"":5}","[0]","","",""
"","6640.979999909177","survey-likert","163","1047309","0.0-51.0","SS1619739188870","","","","","","","","","images/stimuli/spore_stims/complex_19_A_a.gif","","","","{""Q0"":6}","[0]","","",""
"","7941.439999965951","survey-likert","164","1055253","0.0-52.0","SS1619739188870","","","","","","","","","images/stimuli/spore_stims/simple_04_A_a.gif","","","","{""Q0"":0}","[0]","","",""
"","4150.820000097156","survey-likert","165","1059408","0.0-53.0","SS1619739188870","","","","","","","","","images/stimuli/spore_stims/complex_12_A_a.gif","","","","{""Q0"":6}","[0]","","",""
"","2407.60500007309","survey-likert","166","1061818","0.0-54.0","SS1619739188870","","","","","","","","","images/stimuli/spore_stims/simple_17_A_b.gif","","","","{""Q0"":1}","[0]","","",""
"","3526.0199999902397","survey-likert","167","1065348","0.0-55.0","SS1619739188870","","","","","","","","","images/stimuli/spore_stims/simple_06_A_b.gif","","","","{""Q0"":0}","[0]","","",""
"","3881.810000166297","survey-likert","168","1069233","0.0-56.0","SS1619739188870","","","","","","","","","images/stimuli/spore_stims/simple_18_A_b.gif","","","","{""Q0"":1}","[0]","","",""
"","2687.6550000160933","survey-likert","169","1071923","0.0-57.0","SS1619739188870","","","","","","","","","images/stimuli/spore_stims/simple_09_A_a.gif","","","","{""Q0"":0}","[0]","","",""
"[{""page_index"":0,""viewing_time"":3180.515000130981}]","3180.6399999186397","instructions","170","1075106","0.0-58.0","SS1619739188870","instructions","","","","","","","","","","","","","","","",""
"","3096.6600000392646","demog-age","171","1078206","0.0-59.0","SS1619739188870","","","","","","","","","","","","","{""age"":""36""}","","","",""
"","4821.720000123605","demog-ethnic-US","172","1083031","0.0-60.0","SS1619739188870","","","","","","","","","","","","","{""ethnicity"":[""Hispanic or Latino""]}","[0]","","",""
"","17572.210000129417","demog-gender-and-education","173","1100606","0.0-61.0","SS1619739188870","","","","","","","","","","","","","{""gender"":""Male"",""education"":""Bachelor's Degree""}","[0,1]","","",""
"","11306.430000113323","survey-text","174","1111915","0.0-62.0","SS1619739188870","feedback","","","","","","","","","","","","{""Q0"":""No, all good ! ""}","","","",""
"[{""page_index"":0,""viewing_time"":2867.4149999860674}]","2867.5200000870973","instructions","175","1114785","0.0-63.0","SS1619739188870","instructions","","","","","","","","","","","","","","","",""
