"view_history","rt","trial_type","trial_index","time_elapsed","internal_node_id","subject","stimulus_type","trial_stimulus","key_press","minimum_viewing_duration","trial_looking_time","block_deviant","block_background","exposure_type","stimulus","block_number","block_type","stimulus_displayed","responses","question_order","math_correct_answer","stimulus_left","stimulus_right"
"[{""page_index"":0,""viewing_time"":33772.06499991007}]","33772.52999995835","instructions","0","33773","0.0-0.0","SS1619740017232","","","","","","","","","","","","","","","","",""
"[{""page_index"":0,""viewing_time"":47032.79500012286},{""page_index"":1,""viewing_time"":6829.849999863654}]","53862.880000146106","instructions","1","89641","0.0-1.0","SS1619740017232","instructions","","","","","","","","","","","","","","","",""
"","11420.360000105575","sequential-stimulus-presentation-old","2","101564","0.0-2.0","SS1619740017232","","","40","500","11920.360000105575","null","null","self_paced","","","","","","","","",""
"","11507.525000022724","sequential-stimulus-presentation-old","3","113584","0.0-3.0","SS1619740017232","","","40","500","12007.525000022724","null","null","self_paced","","","","","","","","",""
"[{""page_index"":0,""viewing_time"":17050.929999910295}]","17051.19500006549","instructions","4","130636","0.0-4.0","SS1619740017232","instructions","","","","","","","","","","","","","","","",""
"","4001.79999996908","sequential-stimulus-presentation-old","5","149639","0.0-5.0","SS1619740017232","","","40","500","4501.79999996908","null","null","forced_long","","","","","","","","",""
"","7660.14500008896","sequential-stimulus-presentation-old","6","157801","0.0-6.0","SS1619740017232","","","40","500","8160.14500008896","null","null","forced_long","","","","","","","","",""
"[{""page_index"":0,""viewing_time"":5927.385000046343}]","5927.6099998969585","instructions","7","163730","0.0-7.0","SS1619740017232","instructions","","","","","","","","","","","","","","","",""
"[{""page_index"":0,""viewing_time"":10162.569999927655},{""page_index"":1,""viewing_time"":53659.04000005685},{""page_index"":2,""viewing_time"":11247.054999927059},{""page_index"":3,""viewing_time"":6359.6700001508},{""page_index"":4,""viewing_time"":4479.349999921396}]","85907.8800000716","instructions","8","249638","0.0-8.0","SS1619740017232","instructions","","","","","","","","","","","","","","","",""
"","null","html-keyboard-response","9","250456","0.0-9.0-0.0","SS1619740017232","","","null","","","","","","<p><img src= images/blank.png width =""600"" height = ""600"" style=""position:fixed;top:50%; left:50%; transform: translate(-50%, -50%); border:5px solid black"">","","","","","","","",""
"","27667.184999911115","sequential-stimulus-presentation-old","10","278625","0.0-9.0-1.0","SS1619740017232","trial","","40","500","28167.184999911115","images/stimuli/spore_stims/complex_14_A_b.gif","images/stimuli/spore_stims/complex_07_A_a.gif","self_paced","","0","complex_dissimilar","images/stimuli/spore_stims/complex_07_A_a.gif","","","","",""
"","null","html-keyboard-response","11","279608","0.0-9.0-0.1","SS1619740017232","","","null","","","","","","<p><img src= images/blank.png width =""600"" height = ""600"" style=""position:fixed;top:50%; left:50%; transform: translate(-50%, -50%); border:5px solid black"">","","","","","","","",""
"","10859.420000109822","sequential-stimulus-presentation-old","12","290979","0.0-9.0-1.1","SS1619740017232","trial","","40","500","11359.420000109822","images/stimuli/spore_stims/complex_14_A_b.gif","images/stimuli/spore_stims/complex_07_A_a.gif","self_paced","","0","complex_dissimilar","images/stimuli/spore_stims/complex_07_A_a.gif","","","","",""
"","null","html-keyboard-response","13","292054","0.0-9.0-0.2","SS1619740017232","","","null","","","","","","<p><img src= images/blank.png width =""600"" height = ""600"" style=""position:fixed;top:50%; left:50%; transform: translate(-50%, -50%); border:5px solid black"">","","","","","","","",""
"","16829.084999859333","sequential-stimulus-presentation-old","14","309386","0.0-9.0-1.2","SS1619740017232","trial","","40","500","17329.084999859333","images/stimuli/spore_stims/complex_14_A_b.gif","images/stimuli/spore_stims/complex_07_A_a.gif","self_paced","","0","complex_dissimilar","images/stimuli/spore_stims/complex_07_A_a.gif","","","","",""
"","null","html-keyboard-response","15","310211","0.0-9.0-0.3","SS1619740017232","","","null","","","","","","<p><img src= images/blank.png width =""600"" height = ""600"" style=""position:fixed;top:50%; left:50%; transform: translate(-50%, -50%); border:5px solid black"">","","","","","","","",""
"","8808.674999978393","sequential-stimulus-presentation-old","16","319529","0.0-9.0-1.3","SS1619740017232","trial","","40","500","9308.674999978393","images/stimuli/spore_stims/complex_14_A_b.gif","images/stimuli/spore_stims/complex_07_A_a.gif","self_paced","","0","complex_dissimilar","images/stimuli/spore_stims/complex_07_A_a.gif","","","","",""
"","null","html-keyboard-response","17","320454","0.0-9.0-0.4","SS1619740017232","","","null","","","","","","<p><img src= images/blank.png width =""600"" height = ""600"" style=""position:fixed;top:50%; left:50%; transform: translate(-50%, -50%); border:5px solid black"">","","","","","","","",""
"","8010.955000063404","sequential-stimulus-presentation-old","18","328971","0.0-9.0-1.4","SS1619740017232","trial","","40","500","8510.955000063404","images/stimuli/spore_stims/complex_14_A_b.gif","images/stimuli/spore_stims/complex_07_A_a.gif","self_paced","","0","complex_dissimilar","images/stimuli/spore_stims/complex_14_A_b.gif","","","","",""
"","3544.685000088066","survey-multi-choice","19","332528","0.0-10.0","SS1619740017232","math_question","","","","","","","","","","","","{""Q0"":""9""}","[0]","9","",""
"","null","html-keyboard-response","20","333666","0.0-11.0-0.0","SS1619740017232","","","null","","","","","","<p><img src= images/blank.png width =""600"" height = ""600"" style=""position:fixed;top:50%; left:50%; transform: translate(-50%, -50%); border:5px solid black"">","","","","","","","",""
"","18643.12499994412","sequential-stimulus-presentation-old","21","352829","0.0-11.0-1.0","SS1619740017232","trial","","40","500","19143.12499994412","images/stimuli/spore_stims/simple_15_A_b.gif","images/stimuli/spore_stims/simple_18_A_a.gif","forced_short","","1","simple_dissimilar","images/stimuli/spore_stims/simple_18_A_a.gif","","","","",""
"","null","html-keyboard-response","22","353798","0.0-11.0-0.1","SS1619740017232","","","null","","","","","","<p><img src= images/blank.png width =""600"" height = ""600"" style=""position:fixed;top:50%; left:50%; transform: translate(-50%, -50%); border:5px solid black"">","","","","","","","",""
"","2602.6000001002103","sequential-stimulus-presentation-old","23","356906","0.0-11.0-1.1","SS1619740017232","trial","","40","500","3102.6000001002103","images/stimuli/spore_stims/simple_15_A_b.gif","images/stimuli/spore_stims/simple_18_A_a.gif","forced_short","","1","simple_dissimilar","images/stimuli/spore_stims/simple_18_A_a.gif","","","","",""
"","null","html-keyboard-response","24","358106","0.0-11.0-0.2","SS1619740017232","","","null","","","","","","<p><img src= images/blank.png width =""600"" height = ""600"" style=""position:fixed;top:50%; left:50%; transform: translate(-50%, -50%); border:5px solid black"">","","","","","","","",""
"","2406.16500005126","sequential-stimulus-presentation-old","25","361018","0.0-11.0-1.2","SS1619740017232","trial","","40","500","2906.16500005126","images/stimuli/spore_stims/simple_15_A_b.gif","images/stimuli/spore_stims/simple_18_A_a.gif","forced_short","","1","simple_dissimilar","images/stimuli/spore_stims/simple_18_A_a.gif","","","","",""
"","null","html-keyboard-response","26","361911","0.0-11.0-0.3","SS1619740017232","","","null","","","","","","<p><img src= images/blank.png width =""600"" height = ""600"" style=""position:fixed;top:50%; left:50%; transform: translate(-50%, -50%); border:5px solid black"">","","","","","","","",""
"","4509.874999988824","sequential-stimulus-presentation-old","27","366936","0.0-11.0-1.3","SS1619740017232","trial","","40","500","5009.874999988824","images/stimuli/spore_stims/simple_15_A_b.gif","images/stimuli/spore_stims/simple_18_A_a.gif","forced_short","","1","simple_dissimilar","images/stimuli/spore_stims/simple_18_A_a.gif","","","","",""
"","null","html-keyboard-response","28","367970","0.0-11.0-0.4","SS1619740017232","","","null","","","","","","<p><img src= images/blank.png width =""600"" height = ""600"" style=""position:fixed;top:50%; left:50%; transform: translate(-50%, -50%); border:5px solid black"">","","","","","","","",""
"","6109.019999857992","sequential-stimulus-presentation-old","29","374584","0.0-11.0-1.4","SS1619740017232","trial","","40","500","6609.019999857992","images/stimuli/spore_stims/simple_15_A_b.gif","images/stimuli/spore_stims/simple_18_A_a.gif","forced_short","","1","simple_dissimilar","images/stimuli/spore_stims/simple_18_A_a.gif","","","","",""
"","null","html-keyboard-response","30","375855","0.0-11.0-0.5","SS1619740017232","","","null","","","","","","<p><img src= images/blank.png width =""600"" height = ""600"" style=""position:fixed;top:50%; left:50%; transform: translate(-50%, -50%); border:5px solid black"">","","","","","","","",""
"","3111.4650000818074","sequential-stimulus-presentation-old","31","379470","0.0-11.0-1.5","SS1619740017232","trial","","40","500","3611.4650000818074","images/stimuli/spore_stims/simple_15_A_b.gif","images/stimuli/spore_stims/simple_18_A_a.gif","forced_short","","1","simple_dissimilar","images/stimuli/spore_stims/simple_18_A_a.gif","","","","",""
"","3823.314999928698","survey-multi-choice","32","383296","0.0-12.0","SS1619740017232","math_question","","","","","","","","","","","","{""Q0"":""15""}","[0]","15","",""
"","null","html-keyboard-response","33","384529","0.0-13.0-0.0","SS1619740017232","","","null","","","","","","<p><img src= images/blank.png width =""600"" height = ""600"" style=""position:fixed;top:50%; left:50%; transform: translate(-50%, -50%); border:5px solid black"">","","","","","","","",""
"","1274.3999999947846","sequential-stimulus-presentation-old","34","400809","0.0-13.0-1.0","SS1619740017232","trial","","40","500","1774.3999999947846","images/stimuli/spore_stims/simple_11_A_b.gif","images/stimuli/spore_stims/simple_20_A_a.gif","forced_long","","2","simple_dissimilar","images/stimuli/spore_stims/simple_20_A_a.gif","","","","",""
"","null","html-keyboard-response","35","401868","0.0-13.0-0.1","SS1619740017232","","","null","","","","","","<p><img src= images/blank.png width =""600"" height = ""600"" style=""position:fixed;top:50%; left:50%; transform: translate(-50%, -50%); border:5px solid black"">","","","","","","","",""
"","1176.570000126958","sequential-stimulus-presentation-old","36","403548","0.0-13.0-1.1","SS1619740017232","trial","","40","500","1676.570000126958","images/stimuli/spore_stims/simple_11_A_b.gif","images/stimuli/spore_stims/simple_20_A_a.gif","forced_long","","2","simple_dissimilar","images/stimuli/spore_stims/simple_20_A_a.gif","","","","",""
"","null","html-keyboard-response","37","404634","0.0-13.0-0.2","SS1619740017232","","","null","","","","","","<p><img src= images/blank.png width =""600"" height = ""600"" style=""position:fixed;top:50%; left:50%; transform: translate(-50%, -50%); border:5px solid black"">","","","","","","","",""
"","9791.020000120625","sequential-stimulus-presentation-old","38","414936","0.0-13.0-1.2","SS1619740017232","trial","","40","500","10291.020000120625","images/stimuli/spore_stims/simple_11_A_b.gif","images/stimuli/spore_stims/simple_20_A_a.gif","forced_long","","2","simple_dissimilar","images/stimuli/spore_stims/simple_11_A_b.gif","","","","",""
"","null","html-keyboard-response","39","415798","0.0-13.0-0.3","SS1619740017232","","","null","","","","","","<p><img src= images/blank.png width =""600"" height = ""600"" style=""position:fixed;top:50%; left:50%; transform: translate(-50%, -50%); border:5px solid black"">","","","","","","","",""
"","9392.139999894425","sequential-stimulus-presentation-old","40","425704","0.0-13.0-1.3","SS1619740017232","trial","","40","500","9892.139999894425","images/stimuli/spore_stims/simple_11_A_b.gif","images/stimuli/spore_stims/simple_20_A_a.gif","forced_long","","2","simple_dissimilar","images/stimuli/spore_stims/simple_11_A_b.gif","","","","",""
"","3090.559999924153","survey-multi-choice","41","428796","0.0-14.0","SS1619740017232","math_question","","","","","","","","","","","","{""Q0"":""10""}","[0]","10","",""
"","null","html-keyboard-response","42","429625","0.0-15.0-0.0","SS1619740017232","","","null","","","","","","<p><img src= images/blank.png width =""600"" height = ""600"" style=""position:fixed;top:50%; left:50%; transform: translate(-50%, -50%); border:5px solid black"">","","","","","","","",""
"","3235.1599999237806","sequential-stimulus-presentation-old","43","433362","0.0-15.0-1.0","SS1619740017232","trial","","40","500","3735.1599999237806","images/stimuli/spore_stims/complex_08_A_b.gif","images/stimuli/spore_stims/complex_16_A_a.gif","forced_short","","3","complex_dissimilar","images/stimuli/spore_stims/complex_16_A_a.gif","","","","",""
"","null","html-keyboard-response","44","434456","0.0-15.0-0.1","SS1619740017232","","","null","","","","","","<p><img src= images/blank.png width =""600"" height = ""600"" style=""position:fixed;top:50%; left:50%; transform: translate(-50%, -50%); border:5px solid black"">","","","","","","","",""
"","6301.585000008345","sequential-stimulus-presentation-old","45","441260","0.0-15.0-1.1","SS1619740017232","trial","","40","500","6801.585000008345","images/stimuli/spore_stims/complex_08_A_b.gif","images/stimuli/spore_stims/complex_16_A_a.gif","forced_short","","3","complex_dissimilar","images/stimuli/spore_stims/complex_16_A_a.gif","","","","",""
"","null","html-keyboard-response","46","442241","0.0-15.0-0.2","SS1619740017232","","","null","","","","","","<p><img src= images/blank.png width =""600"" height = ""600"" style=""position:fixed;top:50%; left:50%; transform: translate(-50%, -50%); border:5px solid black"">","","","","","","","",""
"","1331.5500000026077","sequential-stimulus-presentation-old","47","444084","0.0-15.0-1.2","SS1619740017232","trial","","40","500","1831.5500000026077","images/stimuli/spore_stims/complex_08_A_b.gif","images/stimuli/spore_stims/complex_16_A_a.gif","forced_short","","3","complex_dissimilar","images/stimuli/spore_stims/complex_16_A_a.gif","","","","",""
"","null","html-keyboard-response","48","445344","0.0-15.0-0.3","SS1619740017232","","","null","","","","","","<p><img src= images/blank.png width =""600"" height = ""600"" style=""position:fixed;top:50%; left:50%; transform: translate(-50%, -50%); border:5px solid black"">","","","","","","","",""
"","6983.490000013262","sequential-stimulus-presentation-old","49","452837","0.0-15.0-1.3","SS1619740017232","trial","","40","500","7483.490000013262","images/stimuli/spore_stims/complex_08_A_b.gif","images/stimuli/spore_stims/complex_16_A_a.gif","forced_short","","3","complex_dissimilar","images/stimuli/spore_stims/complex_08_A_b.gif","","","","",""
"","null","html-keyboard-response","50","454136","0.0-15.0-0.4","SS1619740017232","","","null","","","","","","<p><img src= images/blank.png width =""600"" height = ""600"" style=""position:fixed;top:50%; left:50%; transform: translate(-50%, -50%); border:5px solid black"">","","","","","","","",""
"","1224.0350001957268","sequential-stimulus-presentation-old","51","455863","0.0-15.0-1.4","SS1619740017232","trial","","40","500","1724.0350001957268","images/stimuli/spore_stims/complex_08_A_b.gif","images/stimuli/spore_stims/complex_16_A_a.gif","forced_short","","3","complex_dissimilar","images/stimuli/spore_stims/complex_16_A_a.gif","","","","",""
"","null","html-keyboard-response","52","456903","0.0-15.0-0.5","SS1619740017232","","","null","","","","","","<p><img src= images/blank.png width =""600"" height = ""600"" style=""position:fixed;top:50%; left:50%; transform: translate(-50%, -50%); border:5px solid black"">","","","","","","","",""
"","89.90500005893409","sequential-stimulus-presentation-old","53","457507","0.0-15.0-1.5","SS1619740017232","trial","","40","500","589.9050000589341","images/stimuli/spore_stims/complex_08_A_b.gif","images/stimuli/spore_stims/complex_16_A_a.gif","forced_short","","3","complex_dissimilar","images/stimuli/spore_stims/complex_16_A_a.gif","","","","",""
"","3925.279999850318","survey-multi-choice","54","461433","0.0-16.0","SS1619740017232","math_question","","","","","","","","","","","","{""Q0"":""13""}","[0]","13","",""
"","null","html-keyboard-response","55","462328","0.0-17.0-0.0","SS1619740017232","","","null","","","","","","<p><img src= images/blank.png width =""600"" height = ""600"" style=""position:fixed;top:50%; left:50%; transform: translate(-50%, -50%); border:5px solid black"">","","","","","","","",""
"","7309.785000048578","sequential-stimulus-presentation-old","56","470141","0.0-17.0-1.0","SS1619740017232","trial","","40","500","7809.785000048578","images/stimuli/spore_stims/simple_01_A_a.gif","images/stimuli/spore_stims/simple_20_A_b.gif","self_paced","","4","simple_dissimilar","images/stimuli/spore_stims/simple_20_A_b.gif","","","","",""
"","null","html-keyboard-response","57","471167","0.0-17.0-0.1","SS1619740017232","","","null","","","","","","<p><img src= images/blank.png width =""600"" height = ""600"" style=""position:fixed;top:50%; left:50%; transform: translate(-50%, -50%); border:5px solid black"">","","","","","","","",""
"","4212.480000220239","sequential-stimulus-presentation-old","58","475884","0.0-17.0-1.1","SS1619740017232","trial","","40","500","4712.480000220239","images/stimuli/spore_stims/simple_01_A_a.gif","images/stimuli/spore_stims/simple_20_A_b.gif","self_paced","","4","simple_dissimilar","images/stimuli/spore_stims/simple_20_A_b.gif","","","","",""
"","null","html-keyboard-response","59","476915","0.0-17.0-0.2","SS1619740017232","","","null","","","","","","<p><img src= images/blank.png width =""600"" height = ""600"" style=""position:fixed;top:50%; left:50%; transform: translate(-50%, -50%); border:5px solid black"">","","","","","","","",""
"","4600.97000002861","sequential-stimulus-presentation-old","60","482018","0.0-17.0-1.2","SS1619740017232","trial","","40","500","5100.97000002861","images/stimuli/spore_stims/simple_01_A_a.gif","images/stimuli/spore_stims/simple_20_A_b.gif","self_paced","","4","simple_dissimilar","images/stimuli/spore_stims/simple_20_A_b.gif","","","","",""
"","null","html-keyboard-response","61","483284","0.0-17.0-0.3","SS1619740017232","","","null","","","","","","<p><img src= images/blank.png width =""600"" height = ""600"" style=""position:fixed;top:50%; left:50%; transform: translate(-50%, -50%); border:5px solid black"">","","","","","","","",""
"","8784.169999882579","sequential-stimulus-presentation-old","62","492582","0.0-17.0-1.3","SS1619740017232","trial","","40","500","9284.169999882579","images/stimuli/spore_stims/simple_01_A_a.gif","images/stimuli/spore_stims/simple_20_A_b.gif","self_paced","","4","simple_dissimilar","images/stimuli/spore_stims/simple_01_A_a.gif","","","","",""
"","null","html-keyboard-response","63","493398","0.0-17.0-0.4","SS1619740017232","","","null","","","","","","<p><img src= images/blank.png width =""600"" height = ""600"" style=""position:fixed;top:50%; left:50%; transform: translate(-50%, -50%); border:5px solid black"">","","","","","","","",""
"","5005.010000197217","sequential-stimulus-presentation-old","64","498916","0.0-17.0-1.4","SS1619740017232","trial","","40","500","5505.010000197217","images/stimuli/spore_stims/simple_01_A_a.gif","images/stimuli/spore_stims/simple_20_A_b.gif","self_paced","","4","simple_dissimilar","images/stimuli/spore_stims/simple_20_A_b.gif","","","","",""
"","null","html-keyboard-response","65","500034","0.0-17.0-0.5","SS1619740017232","","","null","","","","","","<p><img src= images/blank.png width =""600"" height = ""600"" style=""position:fixed;top:50%; left:50%; transform: translate(-50%, -50%); border:5px solid black"">","","","","","","","",""
"","6234.420000109822","sequential-stimulus-presentation-old","66","506772","0.0-17.0-1.5","SS1619740017232","trial","","40","500","6734.420000109822","images/stimuli/spore_stims/simple_01_A_a.gif","images/stimuli/spore_stims/simple_20_A_b.gif","self_paced","","4","simple_dissimilar","images/stimuli/spore_stims/simple_01_A_a.gif","","","","",""
"","3475.3799999598414","survey-multi-choice","67","510248","0.0-18.0","SS1619740017232","math_question","","","","","","","","","","","","{""Q0"":""17""}","[0]","17","",""
"","null","html-keyboard-response","68","511478","0.0-19.0-0.0","SS1619740017232","","","null","","","","","","<p><img src= images/blank.png width =""600"" height = ""600"" style=""position:fixed;top:50%; left:50%; transform: translate(-50%, -50%); border:5px solid black"">","","","","","","","",""
"","1363.7200000230223","sequential-stimulus-presentation-old","69","527855","0.0-19.0-1.0","SS1619740017232","trial","","40","500","1863.7200000230223","images/stimuli/spore_stims/complex_01_A_a.gif","images/stimuli/spore_stims/complex_15_A_b.gif","forced_long","","5","complex_dissimilar","images/stimuli/spore_stims/complex_15_A_b.gif","","","","",""
"","null","html-keyboard-response","70","529136","0.0-19.0-0.1","SS1619740017232","","","null","","","","","","<p><img src= images/blank.png width =""600"" height = ""600"" style=""position:fixed;top:50%; left:50%; transform: translate(-50%, -50%); border:5px solid black"">","","","","","","","",""
"","1372.3800000734627","sequential-stimulus-presentation-old","71","531019","0.0-19.0-1.1","SS1619740017232","trial","","40","500","1872.3800000734627","images/stimuli/spore_stims/complex_01_A_a.gif","images/stimuli/spore_stims/complex_15_A_b.gif","forced_long","","5","complex_dissimilar","images/stimuli/spore_stims/complex_15_A_b.gif","","","","",""
"","null","html-keyboard-response","72","532162","0.0-19.0-0.2","SS1619740017232","","","null","","","","","","<p><img src= images/blank.png width =""600"" height = ""600"" style=""position:fixed;top:50%; left:50%; transform: translate(-50%, -50%); border:5px solid black"">","","","","","","","",""
"","7.140000117942691","sequential-stimulus-presentation-old","73","532682","0.0-19.0-1.2","SS1619740017232","trial","","40","500","507.1400001179427","images/stimuli/spore_stims/complex_01_A_a.gif","images/stimuli/spore_stims/complex_15_A_b.gif","forced_long","","5","complex_dissimilar","images/stimuli/spore_stims/complex_15_A_b.gif","","","","",""
"","null","html-keyboard-response","74","533703","0.0-19.0-0.3","SS1619740017232","","","null","","","","","","<p><img src= images/blank.png width =""600"" height = ""600"" style=""position:fixed;top:50%; left:50%; transform: translate(-50%, -50%); border:5px solid black"">","","","","","","","",""
"","1157.3349998798221","sequential-stimulus-presentation-old","75","535363","0.0-19.0-1.3","SS1619740017232","trial","","40","500","1657.3349998798221","images/stimuli/spore_stims/complex_01_A_a.gif","images/stimuli/spore_stims/complex_15_A_b.gif","forced_long","","5","complex_dissimilar","images/stimuli/spore_stims/complex_15_A_b.gif","","","","",""
"","2921.420000027865","survey-multi-choice","76","538285","0.0-20.0","SS1619740017232","math_question","","","","","","","","","","","","{""Q0"":""10""}","[0]","10","",""
"","null","html-keyboard-response","77","539359","0.0-21.0-0.0","SS1619740017232","","","null","","","","","","<p><img src= images/blank.png width =""600"" height = ""600"" style=""position:fixed;top:50%; left:50%; transform: translate(-50%, -50%); border:5px solid black"">","","","","","","","",""
"","5770.139999920502","sequential-stimulus-presentation-old","78","545632","0.0-21.0-1.0","SS1619740017232","trial","","40","500","6270.139999920502","images/stimuli/spore_stims/simple_19_A_b.gif","images/stimuli/spore_stims/simple_10_A_a.gif","self_paced","","6","simple_dissimilar","images/stimuli/spore_stims/simple_10_A_a.gif","","","","",""
"","null","html-keyboard-response","79","546460","0.0-21.0-0.1","SS1619740017232","","","null","","","","","","<p><img src= images/blank.png width =""600"" height = ""600"" style=""position:fixed;top:50%; left:50%; transform: translate(-50%, -50%); border:5px solid black"">","","","","","","","",""
"","4983.510000165552","sequential-stimulus-presentation-old","80","551948","0.0-21.0-1.1","SS1619740017232","trial","","40","500","5483.510000165552","images/stimuli/spore_stims/simple_19_A_b.gif","images/stimuli/spore_stims/simple_10_A_a.gif","self_paced","","6","simple_dissimilar","images/stimuli/spore_stims/simple_10_A_a.gif","","","","",""
"","null","html-keyboard-response","81","552829","0.0-21.0-0.2","SS1619740017232","","","null","","","","","","<p><img src= images/blank.png width =""600"" height = ""600"" style=""position:fixed;top:50%; left:50%; transform: translate(-50%, -50%); border:5px solid black"">","","","","","","","",""
"","6121.550000039861","sequential-stimulus-presentation-old","82","559454","0.0-21.0-1.2","SS1619740017232","trial","","40","500","6621.550000039861","images/stimuli/spore_stims/simple_19_A_b.gif","images/stimuli/spore_stims/simple_10_A_a.gif","self_paced","","6","simple_dissimilar","images/stimuli/spore_stims/simple_19_A_b.gif","","","","",""
"","null","html-keyboard-response","83","560335","0.0-21.0-0.3","SS1619740017232","","","null","","","","","","<p><img src= images/blank.png width =""600"" height = ""600"" style=""position:fixed;top:50%; left:50%; transform: translate(-50%, -50%); border:5px solid black"">","","","","","","","",""
"","4560.455000028014","sequential-stimulus-presentation-old","84","565411","0.0-21.0-1.3","SS1619740017232","trial","","40","500","5060.455000028014","images/stimuli/spore_stims/simple_19_A_b.gif","images/stimuli/spore_stims/simple_10_A_a.gif","self_paced","","6","simple_dissimilar","images/stimuli/spore_stims/simple_10_A_a.gif","","","","",""
"","null","html-keyboard-response","85","566657","0.0-21.0-0.4","SS1619740017232","","","null","","","","","","<p><img src= images/blank.png width =""600"" height = ""600"" style=""position:fixed;top:50%; left:50%; transform: translate(-50%, -50%); border:5px solid black"">","","","","","","","",""
"","345.6699999514967","sequential-stimulus-presentation-old","86","567513","0.0-21.0-1.4","SS1619740017232","trial","","40","500","845.6699999514967","images/stimuli/spore_stims/simple_19_A_b.gif","images/stimuli/spore_stims/simple_10_A_a.gif","self_paced","","6","simple_dissimilar","images/stimuli/spore_stims/simple_19_A_b.gif","","","","",""
"","4457.170000066981","survey-multi-choice","87","571972","0.0-22.0","SS1619740017232","math_question","","","","","","","","","","","","{""Q0"":""11""}","[0]","11","",""
"","null","html-keyboard-response","88","572925","0.0-23.0-0.0","SS1619740017232","","","null","","","","","","<p><img src= images/blank.png width =""600"" height = ""600"" style=""position:fixed;top:50%; left:50%; transform: translate(-50%, -50%); border:5px solid black"">","","","","","","","",""
"","1564.5900000818074","sequential-stimulus-presentation-old","89","575001","0.0-23.0-1.0","SS1619740017232","trial","","40","500","2064.5900000818074","images/stimuli/spore_stims/complex_06_A_a.gif","images/stimuli/spore_stims/complex_17_A_b.gif","forced_short","","7","complex_dissimilar","images/stimuli/spore_stims/complex_17_A_b.gif","","","","",""
"","null","html-keyboard-response","90","575998","0.0-23.0-0.1","SS1619740017232","","","null","","","","","","<p><img src= images/blank.png width =""600"" height = ""600"" style=""position:fixed;top:50%; left:50%; transform: translate(-50%, -50%); border:5px solid black"">","","","","","","","",""
"","3219.084999989718","sequential-stimulus-presentation-old","91","579734","0.0-23.0-1.1","SS1619740017232","trial","","40","500","3719.084999989718","images/stimuli/spore_stims/complex_06_A_a.gif","images/stimuli/spore_stims/complex_17_A_b.gif","forced_short","","7","complex_dissimilar","images/stimuli/spore_stims/complex_17_A_b.gif","","","","",""
"","null","html-keyboard-response","92","580791","0.0-23.0-0.2","SS1619740017232","","","null","","","","","","<p><img src= images/blank.png width =""600"" height = ""600"" style=""position:fixed;top:50%; left:50%; transform: translate(-50%, -50%); border:5px solid black"">","","","","","","","",""
"","3271.0850001312792","sequential-stimulus-presentation-old","93","584574","0.0-23.0-1.2","SS1619740017232","trial","","40","500","3771.0850001312792","images/stimuli/spore_stims/complex_06_A_a.gif","images/stimuli/spore_stims/complex_17_A_b.gif","forced_short","","7","complex_dissimilar","images/stimuli/spore_stims/complex_17_A_b.gif","","","","",""
"","null","html-keyboard-response","94","585870","0.0-23.0-0.3","SS1619740017232","","","null","","","","","","<p><img src= images/blank.png width =""600"" height = ""600"" style=""position:fixed;top:50%; left:50%; transform: translate(-50%, -50%); border:5px solid black"">","","","","","","","",""
"","3143.3449999894947","sequential-stimulus-presentation-old","95","589522","0.0-23.0-1.3","SS1619740017232","trial","","40","500","3643.3449999894947","images/stimuli/spore_stims/complex_06_A_a.gif","images/stimuli/spore_stims/complex_17_A_b.gif","forced_short","","7","complex_dissimilar","images/stimuli/spore_stims/complex_17_A_b.gif","","","","",""
"","2731.140000047162","survey-multi-choice","96","592255","0.0-24.0","SS1619740017232","math_question","","","","","","","","","","","","{""Q0"":""8""}","[0]","8","",""
"","null","html-keyboard-response","97","593267","0.0-25.0-0.0","SS1619740017232","","","null","","","","","","<p><img src= images/blank.png width =""600"" height = ""600"" style=""position:fixed;top:50%; left:50%; transform: translate(-50%, -50%); border:5px solid black"">","","","","","","","",""
"","2241.9199999421835","sequential-stimulus-presentation-old","98","596012","0.0-25.0-1.0","SS1619740017232","trial","","40","500","2741.9199999421835","images/stimuli/spore_stims/simple_15_A_a.gif","images/stimuli/spore_stims/simple_16_A_b.gif","forced_short","","8","simple_dissimilar","images/stimuli/spore_stims/simple_16_A_b.gif","","","","",""
"","null","html-keyboard-response","99","597039","0.0-25.0-0.1","SS1619740017232","","","null","","","","","","<p><img src= images/blank.png width =""600"" height = ""600"" style=""position:fixed;top:50%; left:50%; transform: translate(-50%, -50%); border:5px solid black"">","","","","","","","",""
"","5497.7100000251085","sequential-stimulus-presentation-old","100","603043","0.0-25.0-1.1","SS1619740017232","trial","","40","500","5997.7100000251085","images/stimuli/spore_stims/simple_15_A_a.gif","images/stimuli/spore_stims/simple_16_A_b.gif","forced_short","","8","simple_dissimilar","images/stimuli/spore_stims/simple_16_A_b.gif","","","","",""
"","null","html-keyboard-response","101","604026","0.0-25.0-0.2","SS1619740017232","","","null","","","","","","<p><img src= images/blank.png width =""600"" height = ""600"" style=""position:fixed;top:50%; left:50%; transform: translate(-50%, -50%); border:5px solid black"">","","","","","","","",""
"","3937.4750000424683","sequential-stimulus-presentation-old","102","608468","0.0-25.0-1.2","SS1619740017232","trial","","40","500","4437.475000042468","images/stimuli/spore_stims/simple_15_A_a.gif","images/stimuli/spore_stims/simple_16_A_b.gif","forced_short","","8","simple_dissimilar","images/stimuli/spore_stims/simple_16_A_b.gif","","","","",""
"","null","html-keyboard-response","103","609603","0.0-25.0-0.3","SS1619740017232","","","null","","","","","","<p><img src= images/blank.png width =""600"" height = ""600"" style=""position:fixed;top:50%; left:50%; transform: translate(-50%, -50%); border:5px solid black"">","","","","","","","",""
"","6676.144999917597","sequential-stimulus-presentation-old","104","616790","0.0-25.0-1.3","SS1619740017232","trial","","40","500","7176.144999917597","images/stimuli/spore_stims/simple_15_A_a.gif","images/stimuli/spore_stims/simple_16_A_b.gif","forced_short","","8","simple_dissimilar","images/stimuli/spore_stims/simple_15_A_a.gif","","","","",""
"","null","html-keyboard-response","105","617885","0.0-25.0-0.4","SS1619740017232","","","null","","","","","","<p><img src= images/blank.png width =""600"" height = ""600"" style=""position:fixed;top:50%; left:50%; transform: translate(-50%, -50%); border:5px solid black"">","","","","","","","",""
"","712.9649999551475","sequential-stimulus-presentation-old","106","619100","0.0-25.0-1.4","SS1619740017232","trial","","40","500","1212.9649999551475","images/stimuli/spore_stims/simple_15_A_a.gif","images/stimuli/spore_stims/simple_16_A_b.gif","forced_short","","8","simple_dissimilar","images/stimuli/spore_stims/simple_16_A_b.gif","","","","",""
"","null","html-keyboard-response","107","620216","0.0-25.0-0.5","SS1619740017232","","","null","","","","","","<p><img src= images/blank.png width =""600"" height = ""600"" style=""position:fixed;top:50%; left:50%; transform: translate(-50%, -50%); border:5px solid black"">","","","","","","","",""
"","4065.235000103712","sequential-stimulus-presentation-old","108","624784","0.0-25.0-1.5","SS1619740017232","trial","","40","500","4565.235000103712","images/stimuli/spore_stims/simple_15_A_a.gif","images/stimuli/spore_stims/simple_16_A_b.gif","forced_short","","8","simple_dissimilar","images/stimuli/spore_stims/simple_15_A_a.gif","","","","",""
"","5284.345000050962","survey-multi-choice","109","630070","0.0-26.0","SS1619740017232","math_question","","","","","","","","","","","","{""Q0"":""11""}","[0]","11","",""
"","null","html-keyboard-response","110","630995","0.0-27.0-0.0","SS1619740017232","","","null","","","","","","<p><img src= images/blank.png width =""600"" height = ""600"" style=""position:fixed;top:50%; left:50%; transform: translate(-50%, -50%); border:5px solid black"">","","","","","","","",""
"","3761.235000099987","sequential-stimulus-presentation-old","111","649769","0.0-27.0-1.0","SS1619740017232","trial","","40","500","4261.235000099987","images/stimuli/spore_stims/complex_04_A_b.gif","images/stimuli/spore_stims/complex_15_A_a.gif","forced_long","","9","complex_dissimilar","images/stimuli/spore_stims/complex_15_A_a.gif","","","","",""
"","null","html-keyboard-response","112","650931","0.0-27.0-0.1","SS1619740017232","","","null","","","","","","<p><img src= images/blank.png width =""600"" height = ""600"" style=""position:fixed;top:50%; left:50%; transform: translate(-50%, -50%); border:5px solid black"">","","","","","","","",""
"","7566.919999895617","sequential-stimulus-presentation-old","113","659013","0.0-27.0-1.1","SS1619740017232","trial","","40","500","8066.919999895617","images/stimuli/spore_stims/complex_04_A_b.gif","images/stimuli/spore_stims/complex_15_A_a.gif","forced_long","","9","complex_dissimilar","images/stimuli/spore_stims/complex_15_A_a.gif","","","","",""
"","null","html-keyboard-response","114","660289","0.0-27.0-0.2","SS1619740017232","","","null","","","","","","<p><img src= images/blank.png width =""600"" height = ""600"" style=""position:fixed;top:50%; left:50%; transform: translate(-50%, -50%); border:5px solid black"">","","","","","","","",""
"","2205.599999986589","sequential-stimulus-presentation-old","115","663001","0.0-27.0-1.2","SS1619740017232","trial","","40","500","2705.599999986589","images/stimuli/spore_stims/complex_04_A_b.gif","images/stimuli/spore_stims/complex_15_A_a.gif","forced_long","","9","complex_dissimilar","images/stimuli/spore_stims/complex_04_A_b.gif","","","","",""
"","null","html-keyboard-response","116","664106","0.0-27.0-0.3","SS1619740017232","","","null","","","","","","<p><img src= images/blank.png width =""600"" height = ""600"" style=""position:fixed;top:50%; left:50%; transform: translate(-50%, -50%); border:5px solid black"">","","","","","","","",""
"","2746.1900000926107","sequential-stimulus-presentation-old","117","667364","0.0-27.0-1.3","SS1619740017232","trial","","40","500","3246.1900000926107","images/stimuli/spore_stims/complex_04_A_b.gif","images/stimuli/spore_stims/complex_15_A_a.gif","forced_long","","9","complex_dissimilar","images/stimuli/spore_stims/complex_15_A_a.gif","","","","",""
"","2943.4699998237193","survey-multi-choice","118","670310","0.0-28.0","SS1619740017232","math_question","","","","","","","","","","","","{""Q0"":""9""}","[0]","9","",""
"","null","html-keyboard-response","119","671266","0.0-29.0-0.0","SS1619740017232","","","null","","","","","","<p><img src= images/blank.png width =""600"" height = ""600"" style=""position:fixed;top:50%; left:50%; transform: translate(-50%, -50%); border:5px solid black"">","","","","","","","",""
"","2706.944999983534","sequential-stimulus-presentation-old","120","688978","0.0-29.0-1.0","SS1619740017232","trial","","40","500","3206.944999983534","images/stimuli/spore_stims/simple_08_A_b.gif","images/stimuli/spore_stims/simple_11_A_a.gif","forced_long","","10","simple_dissimilar","images/stimuli/spore_stims/simple_11_A_a.gif","","","","",""
"","null","html-keyboard-response","121","690146","0.0-29.0-0.1","SS1619740017232","","","null","","","","","","<p><img src= images/blank.png width =""600"" height = ""600"" style=""position:fixed;top:50%; left:50%; transform: translate(-50%, -50%); border:5px solid black"">","","","","","","","",""
"","1492.775000166148","sequential-stimulus-presentation-old","122","692142","0.0-29.0-1.1","SS1619740017232","trial","","40","500","1992.775000166148","images/stimuli/spore_stims/simple_08_A_b.gif","images/stimuli/spore_stims/simple_11_A_a.gif","forced_long","","10","simple_dissimilar","images/stimuli/spore_stims/simple_11_A_a.gif","","","","",""
"","null","html-keyboard-response","123","693015","0.0-29.0-0.2","SS1619740017232","","","null","","","","","","<p><img src= images/blank.png width =""600"" height = ""600"" style=""position:fixed;top:50%; left:50%; transform: translate(-50%, -50%); border:5px solid black"">","","","","","","","",""
"","7696.98500004597","sequential-stimulus-presentation-old","124","701222","0.0-29.0-1.2","SS1619740017232","trial","","40","500","8196.98500004597","images/stimuli/spore_stims/simple_08_A_b.gif","images/stimuli/spore_stims/simple_11_A_a.gif","forced_long","","10","simple_dissimilar","images/stimuli/spore_stims/simple_11_A_a.gif","","","","",""
"","null","html-keyboard-response","125","702178","0.0-29.0-0.3","SS1619740017232","","","null","","","","","","<p><img src= images/blank.png width =""600"" height = ""600"" style=""position:fixed;top:50%; left:50%; transform: translate(-50%, -50%); border:5px solid black"">","","","","","","","",""
"","3336.0150000080466","sequential-stimulus-presentation-old","126","706016","0.0-29.0-1.3","SS1619740017232","trial","","40","500","3836.0150000080466","images/stimuli/spore_stims/simple_08_A_b.gif","images/stimuli/spore_stims/simple_11_A_a.gif","forced_long","","10","simple_dissimilar","images/stimuli/spore_stims/simple_08_A_b.gif","","","","",""
"","null","html-keyboard-response","127","706889","0.0-29.0-0.4","SS1619740017232","","","null","","","","","","<p><img src= images/blank.png width =""600"" height = ""600"" style=""position:fixed;top:50%; left:50%; transform: translate(-50%, -50%); border:5px solid black"">","","","","","","","",""
"","714.8899999447167","sequential-stimulus-presentation-old","128","708107","0.0-29.0-1.4","SS1619740017232","trial","","40","500","1214.8899999447167","images/stimuli/spore_stims/simple_08_A_b.gif","images/stimuli/spore_stims/simple_11_A_a.gif","forced_long","","10","simple_dissimilar","images/stimuli/spore_stims/simple_11_A_a.gif","","","","",""
"","null","html-keyboard-response","129","708925","0.0-29.0-0.5","SS1619740017232","","","null","","","","","","<p><img src= images/blank.png width =""600"" height = ""600"" style=""position:fixed;top:50%; left:50%; transform: translate(-50%, -50%); border:5px solid black"">","","","","","","","",""
"","266.92999992519617","sequential-stimulus-presentation-old","130","709695","0.0-29.0-1.5","SS1619740017232","trial","","40","500","766.9299999251962","images/stimuli/spore_stims/simple_08_A_b.gif","images/stimuli/spore_stims/simple_11_A_a.gif","forced_long","","10","simple_dissimilar","images/stimuli/spore_stims/simple_11_A_a.gif","","","","",""
"","3325.7849998772144","survey-multi-choice","131","713022","0.0-30.0","SS1619740017232","math_question","","","","","","","","","","","","{""Q0"":""10""}","[0]","10","",""
"","null","html-keyboard-response","132","714308","0.0-31.0-0.0","SS1619740017232","","","null","","","","","","<p><img src= images/blank.png width =""600"" height = ""600"" style=""position:fixed;top:50%; left:50%; transform: translate(-50%, -50%); border:5px solid black"">","","","","","","","",""
"","2893.784999847412","sequential-stimulus-presentation-old","133","717712","0.0-31.0-1.0","SS1619740017232","trial","","40","500","3393.784999847412","images/stimuli/spore_stims/complex_19_A_b.gif","images/stimuli/spore_stims/complex_04_A_a.gif","self_paced","","11","complex_dissimilar","images/stimuli/spore_stims/complex_04_A_a.gif","","","","",""
"","null","html-keyboard-response","134","718662","0.0-31.0-0.1","SS1619740017232","","","null","","","","","","<p><img src= images/blank.png width =""600"" height = ""600"" style=""position:fixed;top:50%; left:50%; transform: translate(-50%, -50%); border:5px solid black"">","","","","","","","",""
"","4296.250000130385","sequential-stimulus-presentation-old","135","723461","0.0-31.0-1.1","SS1619740017232","trial","","40","500","4796.250000130385","images/stimuli/spore_stims/complex_19_A_b.gif","images/stimuli/spore_stims/complex_04_A_a.gif","self_paced","","11","complex_dissimilar","images/stimuli/spore_stims/complex_04_A_a.gif","","","","",""
"","null","html-keyboard-response","136","724771","0.0-31.0-0.2","SS1619740017232","","","null","","","","","","<p><img src= images/blank.png width =""600"" height = ""600"" style=""position:fixed;top:50%; left:50%; transform: translate(-50%, -50%); border:5px solid black"">","","","","","","","",""
"","170.3349999152124","sequential-stimulus-presentation-old","137","725446","0.0-31.0-1.2","SS1619740017232","trial","","40","500","670.3349999152124","images/stimuli/spore_stims/complex_19_A_b.gif","images/stimuli/spore_stims/complex_04_A_a.gif","self_paced","","11","complex_dissimilar","images/stimuli/spore_stims/complex_04_A_a.gif","","","","",""
"","null","html-keyboard-response","138","726459","0.0-31.0-0.3","SS1619740017232","","","null","","","","","","<p><img src= images/blank.png width =""600"" height = ""600"" style=""position:fixed;top:50%; left:50%; transform: translate(-50%, -50%); border:5px solid black"">","","","","","","","",""
"","329.5050000306219","sequential-stimulus-presentation-old","139","727292","0.0-31.0-1.3","SS1619740017232","trial","","40","500","829.5050000306219","images/stimuli/spore_stims/complex_19_A_b.gif","images/stimuli/spore_stims/complex_04_A_a.gif","self_paced","","11","complex_dissimilar","images/stimuli/spore_stims/complex_04_A_a.gif","","","","",""
"","null","html-keyboard-response","140","728569","0.0-31.0-0.4","SS1619740017232","","","null","","","","","","<p><img src= images/blank.png width =""600"" height = ""600"" style=""position:fixed;top:50%; left:50%; transform: translate(-50%, -50%); border:5px solid black"">","","","","","","","",""
"","1440.3599998913705","sequential-stimulus-presentation-old","141","730512","0.0-31.0-1.4","SS1619740017232","trial","","40","500","1940.3599998913705","images/stimuli/spore_stims/complex_19_A_b.gif","images/stimuli/spore_stims/complex_04_A_a.gif","self_paced","","11","complex_dissimilar","images/stimuli/spore_stims/complex_04_A_a.gif","","","","",""
"[{""page_index"":0,""viewing_time"":9048.669999931008}]","9048.925000010058","instructions","142","739563","0.0-32.0","SS1619740017232","instructions","","","","","","","","","","","","","","","",""
"","3954.4699999969453","survey-likert","143","743520","0.0-33.0","SS1619740017232","similarity_question","","","","","","","","","","","","{""Q0"":4}","[0]","","images/stimuli/spore_stims/simple_20_A_b.gif","images/stimuli/spore_stims/simple_01_A_a.gif"
"","2543.5949999373406","survey-likert","144","746068","0.0-34.0","SS1619740017232","similarity_question","","","","","","","","","","","","{""Q0"":5}","[0]","","images/stimuli/spore_stims/simple_16_A_b.gif","images/stimuli/spore_stims/simple_15_A_a.gif"
"","4056.8699999712408","survey-likert","145","750129","0.0-35.0","SS1619740017232","similarity_question","","","","","","","","","","","","{""Q0"":3}","[0]","","images/stimuli/spore_stims/simple_11_A_b.gif","images/stimuli/spore_stims/simple_20_A_a.gif"
"","6154.004999902099","survey-likert","146","756287","0.0-36.0","SS1619740017232","similarity_question","","","","","","","","","","","","{""Q0"":1}","[0]","","images/stimuli/spore_stims/complex_06_A_a.gif","images/stimuli/spore_stims/complex_17_A_b.gif"
"","5806.425000075251","survey-likert","147","762098","0.0-37.0","SS1619740017232","similarity_question","","","","","","","","","","","","{""Q0"":4}","[0]","","images/stimuli/spore_stims/simple_11_A_a.gif","images/stimuli/spore_stims/simple_08_A_b.gif"
"","5795.9349998272955","survey-likert","148","767899","0.0-38.0","SS1619740017232","similarity_question","","","","","","","","","","","","{""Q0"":0}","[0]","","images/stimuli/spore_stims/complex_07_A_a.gif","images/stimuli/spore_stims/complex_14_A_b.gif"
"","6398.05500023067","survey-likert","149","774302","0.0-39.0","SS1619740017232","similarity_question","","","","","","","","","","","","{""Q0"":4}","[0]","","images/stimuli/spore_stims/complex_15_A_a.gif","images/stimuli/spore_stims/complex_04_A_b.gif"
"","6725.895000156015","survey-likert","150","781032","0.0-40.0","SS1619740017232","similarity_question","","","","","","","","","","","","{""Q0"":1}","[0]","","images/stimuli/spore_stims/simple_18_A_a.gif","images/stimuli/spore_stims/simple_15_A_b.gif"
"","3575.399999972433","survey-likert","151","784611","0.0-41.0","SS1619740017232","similarity_question","","","","","","","","","","","","{""Q0"":2}","[0]","","images/stimuli/spore_stims/simple_10_A_a.gif","images/stimuli/spore_stims/simple_19_A_b.gif"
"","10983.574999962002","survey-likert","152","795599","0.0-42.0","SS1619740017232","similarity_question","","","","","","","","","","","","{""Q0"":2}","[0]","","images/stimuli/spore_stims/complex_01_A_a.gif","images/stimuli/spore_stims/complex_15_A_b.gif"
"","3047.475000144914","survey-likert","153","798651","0.0-43.0","SS1619740017232","similarity_question","","","","","","","","","","","","{""Q0"":1}","[0]","","images/stimuli/spore_stims/complex_16_A_a.gif","images/stimuli/spore_stims/complex_08_A_b.gif"
"","7603.654999984428","survey-likert","154","806259","0.0-44.0","SS1619740017232","similarity_question","","","","","","","","","","","","{""Q0"":0}","[0]","","images/stimuli/spore_stims/complex_19_A_b.gif","images/stimuli/spore_stims/complex_04_A_a.gif"
"[{""page_index"":0,""viewing_time"":4495.880000060424}]","4496.140000177547","instructions","155","810759","0.0-45.0","SS1619740017232","instructions","","","","","","","","","","","","","","","",""
"","3734.0849998872727","survey-likert","156","814496","0.0-46.0","SS1619740017232","","","","","","","","","images/stimuli/spore_stims/simple_19_A_b.gif","","","","{""Q0"":2}","[0]","","",""
"","4031.269999919459","survey-likert","157","818531","0.0-47.0","SS1619740017232","","","","","","","","","images/stimuli/spore_stims/simple_18_A_a.gif","","","","{""Q0"":2}","[0]","","",""
"","2072.5800001528114","survey-likert","158","820609","0.0-48.0","SS1619740017232","","","","","","","","","images/stimuli/spore_stims/simple_08_A_b.gif","","","","{""Q0"":1}","[0]","","",""
"","2389.875000109896","survey-likert","159","823003","0.0-49.0","SS1619740017232","","","","","","","","","images/stimuli/spore_stims/simple_15_A_a.gif","","","","{""Q0"":0}","[0]","","",""
"","2958.875000011176","survey-likert","160","825966","0.0-50.0","SS1619740017232","","","","","","","","","images/stimuli/spore_stims/complex_19_A_b.gif","","","","{""Q0"":6}","[0]","","",""
"","2483.3599999547005","survey-likert","161","828454","0.0-51.0","SS1619740017232","","","","","","","","","images/stimuli/spore_stims/complex_14_A_b.gif","","","","{""Q0"":6}","[0]","","",""
"","6445.645000087097","survey-likert","162","834904","0.0-52.0","SS1619740017232","","","","","","","","","images/stimuli/spore_stims/simple_20_A_a.gif","","","","{""Q0"":3}","[0]","","",""
"","3659.84999993816","survey-likert","163","838568","0.0-53.0","SS1619740017232","","","","","","","","","images/stimuli/spore_stims/complex_01_A_a.gif","","","","{""Q0"":5}","[0]","","",""
"","3945.8649998996407","survey-likert","164","842518","0.0-54.0","SS1619740017232","","","","","","","","","images/stimuli/spore_stims/simple_01_A_a.gif","","","","{""Q0"":1}","[0]","","",""
"","2540.074999909848","survey-likert","165","845064","0.0-55.0","SS1619740017232","","","","","","","","","images/stimuli/spore_stims/complex_08_A_b.gif","","","","{""Q0"":6}","[0]","","",""
"","2212.9500000737607","survey-likert","166","847281","0.0-56.0","SS1619740017232","","","","","","","","","images/stimuli/spore_stims/complex_17_A_b.gif","","","","{""Q0"":6}","[0]","","",""
"","2118.4900000225753","survey-likert","167","849404","0.0-57.0","SS1619740017232","","","","","","","","","images/stimuli/spore_stims/complex_15_A_a.gif","","","","{""Q0"":6}","[0]","","",""
"[{""page_index"":0,""viewing_time"":1247.4399998318404}]","1247.5949998479337","instructions","168","850655","0.0-58.0","SS1619740017232","instructions","","","","","","","","","","","","","","","",""
"","2321.5700001455843","demog-age","169","852980","0.0-59.0","SS1619740017232","","","","","","","","","","","","","{""age"":""26""}","","","",""
"","1893.3850000612438","demog-ethnic-US","170","854877","0.0-60.0","SS1619740017232","","","","","","","","","","","","","{""ethnicity"":[""Hispanic or Latino""]}","[0]","","",""
"","5482.039999915287","demog-gender-and-education","171","860364","0.0-61.0","SS1619740017232","","","","","","","","","","","","","{""gender"":""Male"",""education"":""Bachelor's Degree""}","[0,1]","","",""
"","10397.959999972954","survey-text","172","870767","0.0-62.0","SS1619740017232","feedback","","","","","","","","","","","","{""Q0"":""Not laggy at all""}","","","",""
"[{""page_index"":0,""viewing_time"":1428.325000219047}]","1428.5000001545995","instructions","173","872198","0.0-63.0","SS1619740017232","instructions","","","","","","","","","","","","","","","",""
