"view_history","rt","trial_type","trial_index","time_elapsed","internal_node_id","subject","stimulus_type","trial_stimulus","key_press","minimum_viewing_duration","trial_looking_time","block_deviant","block_background","exposure_type","stimulus","block_number","block_type","stimulus_displayed","responses","question_order","math_correct_answer","stimulus_left","stimulus_right"
"[{""page_index"":0,""viewing_time"":3317}]","3318","instructions","0","3321","0.0-0.0","SS1619739833035","","","","","","","","","","","","","","","","",""
"[{""page_index"":0,""viewing_time"":15063},{""page_index"":1,""viewing_time"":9099}]","24162","instructions","1","29492","0.0-1.0","SS1619739833035","instructions","","","","","","","","","","","","","","","",""
"","10154","sequential-stimulus-presentation-old","2","40159","0.0-2.0","SS1619739833035","","","40","500","10654","null","null","self_paced","","","","","","","","",""
"","6621","sequential-stimulus-presentation-old","3","47285","0.0-3.0","SS1619739833035","","","40","500","7121","null","null","self_paced","","","","","","","","",""
"[{""page_index"":0,""viewing_time"":18629}]","18630","instructions","4","65918","0.0-4.0","SS1619739833035","instructions","","","","","","","","","","","","","","","",""
"","3152","sequential-stimulus-presentation-old","5","84086","0.0-5.0","SS1619739833035","","","40","500","3652","null","null","forced_long","","","","","","","","",""
"","4852","sequential-stimulus-presentation-old","6","89444","0.0-6.0","SS1619739833035","","","40","500","5352","null","null","forced_long","","","","","","","","",""
"[{""page_index"":0,""viewing_time"":6606}]","6606","instructions","7","96053","0.0-7.0","SS1619739833035","instructions","","","","","","","","","","","","","","","",""
"[{""page_index"":0,""viewing_time"":1737},{""page_index"":1,""viewing_time"":5187},{""page_index"":2,""viewing_time"":8886},{""page_index"":3,""viewing_time"":2362},{""page_index"":4,""viewing_time"":1582}]","19755","instructions","8","115812","0.0-8.0","SS1619739833035","instructions","","","","","","","","","","","","","","","",""
"","null","html-keyboard-response","9","116760","0.0-9.0-0.0","SS1619739833035","","","null","","","","","","<p><img src= images/blank.png width =""600"" height = ""600"" style=""position:fixed;top:50%; left:50%; transform: translate(-50%, -50%); border:5px solid black"">","","","","","","","",""
"","1970","sequential-stimulus-presentation-old","10","133736","0.0-9.0-1.0","SS1619739833035","trial","","40","500","2470","images/stimuli/spore_stims/simple_02_A_a.gif","images/stimuli/spore_stims/simple_10_A_b.gif","forced_long","","0","simple_dissimilar","images/stimuli/spore_stims/simple_10_A_b.gif","","","","",""
"","null","html-keyboard-response","11","134602","0.0-9.0-0.1","SS1619739833035","","","null","","","","","","<p><img src= images/blank.png width =""600"" height = ""600"" style=""position:fixed;top:50%; left:50%; transform: translate(-50%, -50%); border:5px solid black"">","","","","","","","",""
"","1473","sequential-stimulus-presentation-old","12","136581","0.0-9.0-1.1","SS1619739833035","trial","","40","500","1973","images/stimuli/spore_stims/simple_02_A_a.gif","images/stimuli/spore_stims/simple_10_A_b.gif","forced_long","","0","simple_dissimilar","images/stimuli/spore_stims/simple_10_A_b.gif","","","","",""
"","null","html-keyboard-response","13","137626","0.0-9.0-0.2","SS1619739833035","","","null","","","","","","<p><img src= images/blank.png width =""600"" height = ""600"" style=""position:fixed;top:50%; left:50%; transform: translate(-50%, -50%); border:5px solid black"">","","","","","","","",""
"","179","sequential-stimulus-presentation-old","14","138308","0.0-9.0-1.2","SS1619739833035","trial","","40","500","679","images/stimuli/spore_stims/simple_02_A_a.gif","images/stimuli/spore_stims/simple_10_A_b.gif","forced_long","","0","simple_dissimilar","images/stimuli/spore_stims/simple_10_A_b.gif","","","","",""
"","null","html-keyboard-response","15","139138","0.0-9.0-0.3","SS1619739833035","","","null","","","","","","<p><img src= images/blank.png width =""600"" height = ""600"" style=""position:fixed;top:50%; left:50%; transform: translate(-50%, -50%); border:5px solid black"">","","","","","","","",""
"","554","sequential-stimulus-presentation-old","16","140195","0.0-9.0-1.3","SS1619739833035","trial","","40","500","1054","images/stimuli/spore_stims/simple_02_A_a.gif","images/stimuli/spore_stims/simple_10_A_b.gif","forced_long","","0","simple_dissimilar","images/stimuli/spore_stims/simple_10_A_b.gif","","","","",""
"","null","html-keyboard-response","17","141416","0.0-9.0-0.4","SS1619739833035","","","null","","","","","","<p><img src= images/blank.png width =""600"" height = ""600"" style=""position:fixed;top:50%; left:50%; transform: translate(-50%, -50%); border:5px solid black"">","","","","","","","",""
"","812","sequential-stimulus-presentation-old","18","142730","0.0-9.0-1.4","SS1619739833035","trial","","40","500","1312","images/stimuli/spore_stims/simple_02_A_a.gif","images/stimuli/spore_stims/simple_10_A_b.gif","forced_long","","0","simple_dissimilar","images/stimuli/spore_stims/simple_10_A_b.gif","","","","",""
"","null","html-keyboard-response","19","144012","0.0-9.0-0.5","SS1619739833035","","","null","","","","","","<p><img src= images/blank.png width =""600"" height = ""600"" style=""position:fixed;top:50%; left:50%; transform: translate(-50%, -50%); border:5px solid black"">","","","","","","","",""
"","4786","sequential-stimulus-presentation-old","20","149301","0.0-9.0-1.5","SS1619739833035","trial","","40","500","5286","images/stimuli/spore_stims/simple_02_A_a.gif","images/stimuli/spore_stims/simple_10_A_b.gif","forced_long","","0","simple_dissimilar","images/stimuli/spore_stims/simple_02_A_a.gif","","","","",""
"","4519","survey-multi-choice","21","153825","0.0-10.0","SS1619739833035","math_question","","","","","","","","","","","","{""Q0"":""5""}","[0]","5","",""
"","null","html-keyboard-response","22","155115","0.0-11.0-0.0","SS1619739833035","","","null","","","","","","<p><img src= images/blank.png width =""600"" height = ""600"" style=""position:fixed;top:50%; left:50%; transform: translate(-50%, -50%); border:5px solid black"">","","","","","","","",""
"","1066","sequential-stimulus-presentation-old","23","156689","0.0-11.0-1.0","SS1619739833035","trial","","40","500","1566","images/stimuli/spore_stims/complex_02_A_a.gif","images/stimuli/spore_stims/complex_14_A_b.gif","self_paced","","1","complex_dissimilar","images/stimuli/spore_stims/complex_14_A_b.gif","","","","",""
"","null","html-keyboard-response","24","157725","0.0-11.0-0.1","SS1619739833035","","","null","","","","","","<p><img src= images/blank.png width =""600"" height = ""600"" style=""position:fixed;top:50%; left:50%; transform: translate(-50%, -50%); border:5px solid black"">","","","","","","","",""
"","153","sequential-stimulus-presentation-old","25","158383","0.0-11.0-1.1","SS1619739833035","trial","","40","500","653","images/stimuli/spore_stims/complex_02_A_a.gif","images/stimuli/spore_stims/complex_14_A_b.gif","self_paced","","1","complex_dissimilar","images/stimuli/spore_stims/complex_14_A_b.gif","","","","",""
"","null","html-keyboard-response","26","159420","0.0-11.0-0.2","SS1619739833035","","","null","","","","","","<p><img src= images/blank.png width =""600"" height = ""600"" style=""position:fixed;top:50%; left:50%; transform: translate(-50%, -50%); border:5px solid black"">","","","","","","","",""
"","1986","sequential-stimulus-presentation-old","27","161911","0.0-11.0-1.2","SS1619739833035","trial","","40","500","2486","images/stimuli/spore_stims/complex_02_A_a.gif","images/stimuli/spore_stims/complex_14_A_b.gif","self_paced","","1","complex_dissimilar","images/stimuli/spore_stims/complex_02_A_a.gif","","","","",""
"","null","html-keyboard-response","28","162869","0.0-11.0-0.3","SS1619739833035","","","null","","","","","","<p><img src= images/blank.png width =""600"" height = ""600"" style=""position:fixed;top:50%; left:50%; transform: translate(-50%, -50%); border:5px solid black"">","","","","","","","",""
"","379","sequential-stimulus-presentation-old","29","163751","0.0-11.0-1.3","SS1619739833035","trial","","40","500","879","images/stimuli/spore_stims/complex_02_A_a.gif","images/stimuli/spore_stims/complex_14_A_b.gif","self_paced","","1","complex_dissimilar","images/stimuli/spore_stims/complex_02_A_a.gif","","","","",""
"","3955","survey-multi-choice","30","167710","0.0-12.0","SS1619739833035","math_question","","","","","","","","","","","","{""Q0"":""14""}","[0]","14","",""
"","null","html-keyboard-response","31","168967","0.0-13.0-0.0","SS1619739833035","","","null","","","","","","<p><img src= images/blank.png width =""600"" height = ""600"" style=""position:fixed;top:50%; left:50%; transform: translate(-50%, -50%); border:5px solid black"">","","","","","","","",""
"","3017","sequential-stimulus-presentation-old","32","172489","0.0-13.0-1.0","SS1619739833035","trial","","40","500","3517","images/stimuli/spore_stims/simple_05_A_b.gif","images/stimuli/spore_stims/simple_01_A_a.gif","self_paced","","2","simple_dissimilar","images/stimuli/spore_stims/simple_01_A_a.gif","","","","",""
"","null","html-keyboard-response","33","173414","0.0-13.0-0.1","SS1619739833035","","","null","","","","","","<p><img src= images/blank.png width =""600"" height = ""600"" style=""position:fixed;top:50%; left:50%; transform: translate(-50%, -50%); border:5px solid black"">","","","","","","","",""
"","971","sequential-stimulus-presentation-old","34","174889","0.0-13.0-1.1","SS1619739833035","trial","","40","500","1471","images/stimuli/spore_stims/simple_05_A_b.gif","images/stimuli/spore_stims/simple_01_A_a.gif","self_paced","","2","simple_dissimilar","images/stimuli/spore_stims/simple_01_A_a.gif","","","","",""
"","null","html-keyboard-response","35","175950","0.0-13.0-0.2","SS1619739833035","","","null","","","","","","<p><img src= images/blank.png width =""600"" height = ""600"" style=""position:fixed;top:50%; left:50%; transform: translate(-50%, -50%); border:5px solid black"">","","","","","","","",""
"","29","sequential-stimulus-presentation-old","36","176484","0.0-13.0-1.2","SS1619739833035","trial","","40","500","529","images/stimuli/spore_stims/simple_05_A_b.gif","images/stimuli/spore_stims/simple_01_A_a.gif","self_paced","","2","simple_dissimilar","images/stimuli/spore_stims/simple_01_A_a.gif","","","","",""
"","null","html-keyboard-response","37","177746","0.0-13.0-0.3","SS1619739833035","","","null","","","","","","<p><img src= images/blank.png width =""600"" height = ""600"" style=""position:fixed;top:50%; left:50%; transform: translate(-50%, -50%); border:5px solid black"">","","","","","","","",""
"","2191","sequential-stimulus-presentation-old","38","180442","0.0-13.0-1.3","SS1619739833035","trial","","40","500","2691","images/stimuli/spore_stims/simple_05_A_b.gif","images/stimuli/spore_stims/simple_01_A_a.gif","self_paced","","2","simple_dissimilar","images/stimuli/spore_stims/simple_05_A_b.gif","","","","",""
"","5156","survey-multi-choice","39","185602","0.0-14.0","SS1619739833035","math_question","","","","","","","","","","","","{""Q0"":""13""}","[0]","13","",""
"","null","html-keyboard-response","40","186903","0.0-15.0-0.0","SS1619739833035","","","null","","","","","","<p><img src= images/blank.png width =""600"" height = ""600"" style=""position:fixed;top:50%; left:50%; transform: translate(-50%, -50%); border:5px solid black"">","","","","","","","",""
"","2686","sequential-stimulus-presentation-old","41","204593","0.0-15.0-1.0","SS1619739833035","trial","","40","500","3186","images/stimuli/spore_stims/simple_12_A_b.gif","images/stimuli/spore_stims/simple_20_A_a.gif","forced_long","","3","simple_dissimilar","images/stimuli/spore_stims/simple_20_A_a.gif","","","","",""
"","null","html-keyboard-response","42","205828","0.0-15.0-0.1","SS1619739833035","","","null","","","","","","<p><img src= images/blank.png width =""600"" height = ""600"" style=""position:fixed;top:50%; left:50%; transform: translate(-50%, -50%); border:5px solid black"">","","","","","","","",""
"","430","sequential-stimulus-presentation-old","43","206762","0.0-15.0-1.1","SS1619739833035","trial","","40","500","930","images/stimuli/spore_stims/simple_12_A_b.gif","images/stimuli/spore_stims/simple_20_A_a.gif","forced_long","","3","simple_dissimilar","images/stimuli/spore_stims/simple_12_A_b.gif","","","","",""
"","null","html-keyboard-response","44","207817","0.0-15.0-0.2","SS1619739833035","","","null","","","","","","<p><img src= images/blank.png width =""600"" height = ""600"" style=""position:fixed;top:50%; left:50%; transform: translate(-50%, -50%); border:5px solid black"">","","","","","","","",""
"","112","sequential-stimulus-presentation-old","45","208432","0.0-15.0-1.2","SS1619739833035","trial","","40","500","612","images/stimuli/spore_stims/simple_12_A_b.gif","images/stimuli/spore_stims/simple_20_A_a.gif","forced_long","","3","simple_dissimilar","images/stimuli/spore_stims/simple_20_A_a.gif","","","","",""
"","null","html-keyboard-response","46","209521","0.0-15.0-0.3","SS1619739833035","","","null","","","","","","<p><img src= images/blank.png width =""600"" height = ""600"" style=""position:fixed;top:50%; left:50%; transform: translate(-50%, -50%); border:5px solid black"">","","","","","","","",""
"","142","sequential-stimulus-presentation-old","47","210167","0.0-15.0-1.3","SS1619739833035","trial","","40","500","642","images/stimuli/spore_stims/simple_12_A_b.gif","images/stimuli/spore_stims/simple_20_A_a.gif","forced_long","","3","simple_dissimilar","images/stimuli/spore_stims/simple_20_A_a.gif","","","","",""
"","null","html-keyboard-response","48","211101","0.0-15.0-0.4","SS1619739833035","","","null","","","","","","<p><img src= images/blank.png width =""600"" height = ""600"" style=""position:fixed;top:50%; left:50%; transform: translate(-50%, -50%); border:5px solid black"">","","","","","","","",""
"","9","sequential-stimulus-presentation-old","49","211615","0.0-15.0-1.4","SS1619739833035","trial","","40","500","509","images/stimuli/spore_stims/simple_12_A_b.gif","images/stimuli/spore_stims/simple_20_A_a.gif","forced_long","","3","simple_dissimilar","images/stimuli/spore_stims/simple_20_A_a.gif","","","","",""
"","5299","survey-multi-choice","50","216918","0.0-16.0","SS1619739833035","math_question","","","","","","","","","","","","{""Q0"":""16""}","[0]","16","",""
"","null","html-keyboard-response","51","218204","0.0-17.0-0.0","SS1619739833035","","","null","","","","","","<p><img src= images/blank.png width =""600"" height = ""600"" style=""position:fixed;top:50%; left:50%; transform: translate(-50%, -50%); border:5px solid black"">","","","","","","","",""
"","1689","sequential-stimulus-presentation-old","52","234898","0.0-17.0-1.0","SS1619739833035","trial","","40","500","2189","images/stimuli/spore_stims/complex_18_A_b.gif","images/stimuli/spore_stims/complex_08_A_a.gif","forced_long","","4","complex_dissimilar","images/stimuli/spore_stims/complex_08_A_a.gif","","","","",""
"","null","html-keyboard-response","53","235939","0.0-17.0-0.1","SS1619739833035","","","null","","","","","","<p><img src= images/blank.png width =""600"" height = ""600"" style=""position:fixed;top:50%; left:50%; transform: translate(-50%, -50%); border:5px solid black"">","","","","","","","",""
"","73","sequential-stimulus-presentation-old","54","236517","0.0-17.0-1.1","SS1619739833035","trial","","40","500","573","images/stimuli/spore_stims/complex_18_A_b.gif","images/stimuli/spore_stims/complex_08_A_a.gif","forced_long","","4","complex_dissimilar","images/stimuli/spore_stims/complex_08_A_a.gif","","","","",""
"","null","html-keyboard-response","55","237524","0.0-17.0-0.2","SS1619739833035","","","null","","","","","","<p><img src= images/blank.png width =""600"" height = ""600"" style=""position:fixed;top:50%; left:50%; transform: translate(-50%, -50%); border:5px solid black"">","","","","","","","",""
"","847","sequential-stimulus-presentation-old","56","238875","0.0-17.0-1.2","SS1619739833035","trial","","40","500","1347","images/stimuli/spore_stims/complex_18_A_b.gif","images/stimuli/spore_stims/complex_08_A_a.gif","forced_long","","4","complex_dissimilar","images/stimuli/spore_stims/complex_08_A_a.gif","","","","",""
"","null","html-keyboard-response","57","239765","0.0-17.0-0.3","SS1619739833035","","","null","","","","","","<p><img src= images/blank.png width =""600"" height = ""600"" style=""position:fixed;top:50%; left:50%; transform: translate(-50%, -50%); border:5px solid black"">","","","","","","","",""
"","498","sequential-stimulus-presentation-old","58","240769","0.0-17.0-1.3","SS1619739833035","trial","","40","500","998","images/stimuli/spore_stims/complex_18_A_b.gif","images/stimuli/spore_stims/complex_08_A_a.gif","forced_long","","4","complex_dissimilar","images/stimuli/spore_stims/complex_08_A_a.gif","","","","",""
"","null","html-keyboard-response","59","241868","0.0-17.0-0.4","SS1619739833035","","","null","","","","","","<p><img src= images/blank.png width =""600"" height = ""600"" style=""position:fixed;top:50%; left:50%; transform: translate(-50%, -50%); border:5px solid black"">","","","","","","","",""
"","472","sequential-stimulus-presentation-old","60","242845","0.0-17.0-1.4","SS1619739833035","trial","","40","500","972","images/stimuli/spore_stims/complex_18_A_b.gif","images/stimuli/spore_stims/complex_08_A_a.gif","forced_long","","4","complex_dissimilar","images/stimuli/spore_stims/complex_18_A_b.gif","","","","",""
"","3090","survey-multi-choice","61","245940","0.0-18.0","SS1619739833035","math_question","","","","","","","","","","","","{""Q0"":""10""}","[0]","10","",""
"","null","html-keyboard-response","62","246774","0.0-19.0-0.0","SS1619739833035","","","null","","","","","","<p><img src= images/blank.png width =""600"" height = ""600"" style=""position:fixed;top:50%; left:50%; transform: translate(-50%, -50%); border:5px solid black"">","","","","","","","",""
"","29","sequential-stimulus-presentation-old","63","247309","0.0-19.0-1.0","SS1619739833035","trial","","40","500","529","images/stimuli/spore_stims/simple_17_A_a.gif","images/stimuli/spore_stims/simple_14_A_b.gif","forced_short","","5","simple_dissimilar","images/stimuli/spore_stims/simple_14_A_b.gif","","","","",""
"","null","html-keyboard-response","64","248449","0.0-19.0-0.1","SS1619739833035","","","null","","","","","","<p><img src= images/blank.png width =""600"" height = ""600"" style=""position:fixed;top:50%; left:50%; transform: translate(-50%, -50%); border:5px solid black"">","","","","","","","",""
"","624","sequential-stimulus-presentation-old","65","249579","0.0-19.0-1.1","SS1619739833035","trial","","40","500","1124","images/stimuli/spore_stims/simple_17_A_a.gif","images/stimuli/spore_stims/simple_14_A_b.gif","forced_short","","5","simple_dissimilar","images/stimuli/spore_stims/simple_17_A_a.gif","","","","",""
"","null","html-keyboard-response","66","250604","0.0-19.0-0.2","SS1619739833035","","","null","","","","","","<p><img src= images/blank.png width =""600"" height = ""600"" style=""position:fixed;top:50%; left:50%; transform: translate(-50%, -50%); border:5px solid black"">","","","","","","","",""
"","440","sequential-stimulus-presentation-old","67","251550","0.0-19.0-1.2","SS1619739833035","trial","","40","500","940","images/stimuli/spore_stims/simple_17_A_a.gif","images/stimuli/spore_stims/simple_14_A_b.gif","forced_short","","5","simple_dissimilar","images/stimuli/spore_stims/simple_14_A_b.gif","","","","",""
"","null","html-keyboard-response","68","252824","0.0-19.0-0.3","SS1619739833035","","","null","","","","","","<p><img src= images/blank.png width =""600"" height = ""600"" style=""position:fixed;top:50%; left:50%; transform: translate(-50%, -50%); border:5px solid black"">","","","","","","","",""
"","404","sequential-stimulus-presentation-old","69","253734","0.0-19.0-1.3","SS1619739833035","trial","","40","500","904","images/stimuli/spore_stims/simple_17_A_a.gif","images/stimuli/spore_stims/simple_14_A_b.gif","forced_short","","5","simple_dissimilar","images/stimuli/spore_stims/simple_14_A_b.gif","","","","",""
"","null","html-keyboard-response","70","254979","0.0-19.0-0.4","SS1619739833035","","","null","","","","","","<p><img src= images/blank.png width =""600"" height = ""600"" style=""position:fixed;top:50%; left:50%; transform: translate(-50%, -50%); border:5px solid black"">","","","","","","","",""
"","211","sequential-stimulus-presentation-old","71","255696","0.0-19.0-1.4","SS1619739833035","trial","","40","500","711","images/stimuli/spore_stims/simple_17_A_a.gif","images/stimuli/spore_stims/simple_14_A_b.gif","forced_short","","5","simple_dissimilar","images/stimuli/spore_stims/simple_14_A_b.gif","","","","",""
"","null","html-keyboard-response","72","256622","0.0-19.0-0.5","SS1619739833035","","","null","","","","","","<p><img src= images/blank.png width =""600"" height = ""600"" style=""position:fixed;top:50%; left:50%; transform: translate(-50%, -50%); border:5px solid black"">","","","","","","","",""
"","95","sequential-stimulus-presentation-old","73","257222","0.0-19.0-1.5","SS1619739833035","trial","","40","500","595","images/stimuli/spore_stims/simple_17_A_a.gif","images/stimuli/spore_stims/simple_14_A_b.gif","forced_short","","5","simple_dissimilar","images/stimuli/spore_stims/simple_14_A_b.gif","","","","",""
"","3629","survey-multi-choice","74","260855","0.0-20.0","SS1619739833035","math_question","","","","","","","","","","","","{""Q0"":""14""}","[0]","14","",""
"","null","html-keyboard-response","75","261921","0.0-21.0-0.0","SS1619739833035","","","null","","","","","","<p><img src= images/blank.png width =""600"" height = ""600"" style=""position:fixed;top:50%; left:50%; transform: translate(-50%, -50%); border:5px solid black"">","","","","","","","",""
"","2085","sequential-stimulus-presentation-old","76","264511","0.0-21.0-1.0","SS1619739833035","trial","","40","500","2585","images/stimuli/spore_stims/complex_15_A_a.gif","images/stimuli/spore_stims/complex_10_A_b.gif","forced_short","","6","complex_dissimilar","images/stimuli/spore_stims/complex_10_A_b.gif","","","","",""
"","null","html-keyboard-response","77","265728","0.0-21.0-0.1","SS1619739833035","","","null","","","","","","<p><img src= images/blank.png width =""600"" height = ""600"" style=""position:fixed;top:50%; left:50%; transform: translate(-50%, -50%); border:5px solid black"">","","","","","","","",""
"","413","sequential-stimulus-presentation-old","78","266647","0.0-21.0-1.1","SS1619739833035","trial","","40","500","913","images/stimuli/spore_stims/complex_15_A_a.gif","images/stimuli/spore_stims/complex_10_A_b.gif","forced_short","","6","complex_dissimilar","images/stimuli/spore_stims/complex_10_A_b.gif","","","","",""
"","null","html-keyboard-response","79","267576","0.0-21.0-0.2","SS1619739833035","","","null","","","","","","<p><img src= images/blank.png width =""600"" height = ""600"" style=""position:fixed;top:50%; left:50%; transform: translate(-50%, -50%); border:5px solid black"">","","","","","","","",""
"","375","sequential-stimulus-presentation-old","80","268457","0.0-21.0-1.2","SS1619739833035","trial","","40","500","875","images/stimuli/spore_stims/complex_15_A_a.gif","images/stimuli/spore_stims/complex_10_A_b.gif","forced_short","","6","complex_dissimilar","images/stimuli/spore_stims/complex_10_A_b.gif","","","","",""
"","null","html-keyboard-response","81","269268","0.0-21.0-0.3","SS1619739833035","","","null","","","","","","<p><img src= images/blank.png width =""600"" height = ""600"" style=""position:fixed;top:50%; left:50%; transform: translate(-50%, -50%); border:5px solid black"">","","","","","","","",""
"","255","sequential-stimulus-presentation-old","82","270029","0.0-21.0-1.3","SS1619739833035","trial","","40","500","755","images/stimuli/spore_stims/complex_15_A_a.gif","images/stimuli/spore_stims/complex_10_A_b.gif","forced_short","","6","complex_dissimilar","images/stimuli/spore_stims/complex_15_A_a.gif","","","","",""
"","null","html-keyboard-response","83","271301","0.0-21.0-0.4","SS1619739833035","","","null","","","","","","<p><img src= images/blank.png width =""600"" height = ""600"" style=""position:fixed;top:50%; left:50%; transform: translate(-50%, -50%); border:5px solid black"">","","","","","","","",""
"","521","sequential-stimulus-presentation-old","84","272327","0.0-21.0-1.4","SS1619739833035","trial","","40","500","1021","images/stimuli/spore_stims/complex_15_A_a.gif","images/stimuli/spore_stims/complex_10_A_b.gif","forced_short","","6","complex_dissimilar","images/stimuli/spore_stims/complex_10_A_b.gif","","","","",""
"","null","html-keyboard-response","85","273429","0.0-21.0-0.5","SS1619739833035","","","null","","","","","","<p><img src= images/blank.png width =""600"" height = ""600"" style=""position:fixed;top:50%; left:50%; transform: translate(-50%, -50%); border:5px solid black"">","","","","","","","",""
"","454","sequential-stimulus-presentation-old","86","274390","0.0-21.0-1.5","SS1619739833035","trial","","40","500","954","images/stimuli/spore_stims/complex_15_A_a.gif","images/stimuli/spore_stims/complex_10_A_b.gif","forced_short","","6","complex_dissimilar","images/stimuli/spore_stims/complex_10_A_b.gif","","","","",""
"","5221","survey-multi-choice","87","279620","0.0-22.0","SS1619739833035","math_question","","","","","","","","","","","","{""Q0"":""11""}","[0]","11","",""
"","null","html-keyboard-response","88","280823","0.0-23.0-0.0","SS1619739833035","","","null","","","","","","<p><img src= images/blank.png width =""600"" height = ""600"" style=""position:fixed;top:50%; left:50%; transform: translate(-50%, -50%); border:5px solid black"">","","","","","","","",""
"","130","sequential-stimulus-presentation-old","89","281460","0.0-23.0-1.0","SS1619739833035","trial","","40","500","630","images/stimuli/spore_stims/simple_12_A_a.gif","images/stimuli/spore_stims/simple_01_A_b.gif","forced_short","","7","simple_dissimilar","images/stimuli/spore_stims/simple_01_A_b.gif","","","","",""
"","null","html-keyboard-response","90","282350","0.0-23.0-0.1","SS1619739833035","","","null","","","","","","<p><img src= images/blank.png width =""600"" height = ""600"" style=""position:fixed;top:50%; left:50%; transform: translate(-50%, -50%); border:5px solid black"">","","","","","","","",""
"","371","sequential-stimulus-presentation-old","91","283228","0.0-23.0-1.1","SS1619739833035","trial","","40","500","871","images/stimuli/spore_stims/simple_12_A_a.gif","images/stimuli/spore_stims/simple_01_A_b.gif","forced_short","","7","simple_dissimilar","images/stimuli/spore_stims/simple_01_A_b.gif","","","","",""
"","null","html-keyboard-response","92","284057","0.0-23.0-0.2","SS1619739833035","","","null","","","","","","<p><img src= images/blank.png width =""600"" height = ""600"" style=""position:fixed;top:50%; left:50%; transform: translate(-50%, -50%); border:5px solid black"">","","","","","","","",""
"","412","sequential-stimulus-presentation-old","93","284975","0.0-23.0-1.2","SS1619739833035","trial","","40","500","912","images/stimuli/spore_stims/simple_12_A_a.gif","images/stimuli/spore_stims/simple_01_A_b.gif","forced_short","","7","simple_dissimilar","images/stimuli/spore_stims/simple_01_A_b.gif","","","","",""
"","null","html-keyboard-response","94","285861","0.0-23.0-0.3","SS1619739833035","","","null","","","","","","<p><img src= images/blank.png width =""600"" height = ""600"" style=""position:fixed;top:50%; left:50%; transform: translate(-50%, -50%); border:5px solid black"">","","","","","","","",""
"","182","sequential-stimulus-presentation-old","95","286549","0.0-23.0-1.3","SS1619739833035","trial","","40","500","682","images/stimuli/spore_stims/simple_12_A_a.gif","images/stimuli/spore_stims/simple_01_A_b.gif","forced_short","","7","simple_dissimilar","images/stimuli/spore_stims/simple_12_A_a.gif","","","","",""
"","null","html-keyboard-response","96","287755","0.0-23.0-0.4","SS1619739833035","","","null","","","","","","<p><img src= images/blank.png width =""600"" height = ""600"" style=""position:fixed;top:50%; left:50%; transform: translate(-50%, -50%); border:5px solid black"">","","","","","","","",""
"","247","sequential-stimulus-presentation-old","97","288510","0.0-23.0-1.4","SS1619739833035","trial","","40","500","747","images/stimuli/spore_stims/simple_12_A_a.gif","images/stimuli/spore_stims/simple_01_A_b.gif","forced_short","","7","simple_dissimilar","images/stimuli/spore_stims/simple_01_A_b.gif","","","","",""
"","null","html-keyboard-response","98","289328","0.0-23.0-0.5","SS1619739833035","","","null","","","","","","<p><img src= images/blank.png width =""600"" height = ""600"" style=""position:fixed;top:50%; left:50%; transform: translate(-50%, -50%); border:5px solid black"">","","","","","","","",""
"","299","sequential-stimulus-presentation-old","99","290134","0.0-23.0-1.5","SS1619739833035","trial","","40","500","799","images/stimuli/spore_stims/simple_12_A_a.gif","images/stimuli/spore_stims/simple_01_A_b.gif","forced_short","","7","simple_dissimilar","images/stimuli/spore_stims/simple_01_A_b.gif","","","","",""
"","5749","survey-multi-choice","100","295891","0.0-24.0","SS1619739833035","math_question","","","","","","","","","","","","{""Q0"":""18""}","[0]","18","",""
"","null","html-keyboard-response","101","296831","0.0-25.0-0.0","SS1619739833035","","","null","","","","","","<p><img src= images/blank.png width =""600"" height = ""600"" style=""position:fixed;top:50%; left:50%; transform: translate(-50%, -50%); border:5px solid black"">","","","","","","","",""
"","1125","sequential-stimulus-presentation-old","102","298462","0.0-25.0-1.0","SS1619739833035","trial","","40","500","1625","images/stimuli/spore_stims/complex_16_A_b.gif","images/stimuli/spore_stims/complex_01_A_a.gif","self_paced","","8","complex_dissimilar","images/stimuli/spore_stims/complex_01_A_a.gif","","","","",""
"","null","html-keyboard-response","103","299662","0.0-25.0-0.1","SS1619739833035","","","null","","","","","","<p><img src= images/blank.png width =""600"" height = ""600"" style=""position:fixed;top:50%; left:50%; transform: translate(-50%, -50%); border:5px solid black"">","","","","","","","",""
"","477","sequential-stimulus-presentation-old","104","300647","0.0-25.0-1.1","SS1619739833035","trial","","40","500","977","images/stimuli/spore_stims/complex_16_A_b.gif","images/stimuli/spore_stims/complex_01_A_a.gif","self_paced","","8","complex_dissimilar","images/stimuli/spore_stims/complex_01_A_a.gif","","","","",""
"","null","html-keyboard-response","105","301808","0.0-25.0-0.2","SS1619739833035","","","null","","","","","","<p><img src= images/blank.png width =""600"" height = ""600"" style=""position:fixed;top:50%; left:50%; transform: translate(-50%, -50%); border:5px solid black"">","","","","","","","",""
"","268","sequential-stimulus-presentation-old","106","302581","0.0-25.0-1.2","SS1619739833035","trial","","40","500","768","images/stimuli/spore_stims/complex_16_A_b.gif","images/stimuli/spore_stims/complex_01_A_a.gif","self_paced","","8","complex_dissimilar","images/stimuli/spore_stims/complex_01_A_a.gif","","","","",""
"","null","html-keyboard-response","107","303470","0.0-25.0-0.3","SS1619739833035","","","null","","","","","","<p><img src= images/blank.png width =""600"" height = ""600"" style=""position:fixed;top:50%; left:50%; transform: translate(-50%, -50%); border:5px solid black"">","","","","","","","",""
"","224","sequential-stimulus-presentation-old","108","304202","0.0-25.0-1.3","SS1619739833035","trial","","40","500","724","images/stimuli/spore_stims/complex_16_A_b.gif","images/stimuli/spore_stims/complex_01_A_a.gif","self_paced","","8","complex_dissimilar","images/stimuli/spore_stims/complex_01_A_a.gif","","","","",""
"","null","html-keyboard-response","109","305019","0.0-25.0-0.4","SS1619739833035","","","null","","","","","","<p><img src= images/blank.png width =""600"" height = ""600"" style=""position:fixed;top:50%; left:50%; transform: translate(-50%, -50%); border:5px solid black"">","","","","","","","",""
"","541","sequential-stimulus-presentation-old","110","306067","0.0-25.0-1.4","SS1619739833035","trial","","40","500","1041","images/stimuli/spore_stims/complex_16_A_b.gif","images/stimuli/spore_stims/complex_01_A_a.gif","self_paced","","8","complex_dissimilar","images/stimuli/spore_stims/complex_01_A_a.gif","","","","",""
"","null","html-keyboard-response","111","306962","0.0-25.0-0.5","SS1619739833035","","","null","","","","","","<p><img src= images/blank.png width =""600"" height = ""600"" style=""position:fixed;top:50%; left:50%; transform: translate(-50%, -50%); border:5px solid black"">","","","","","","","",""
"","1517","sequential-stimulus-presentation-old","112","308984","0.0-25.0-1.5","SS1619739833035","trial","","40","500","2017","images/stimuli/spore_stims/complex_16_A_b.gif","images/stimuli/spore_stims/complex_01_A_a.gif","self_paced","","8","complex_dissimilar","images/stimuli/spore_stims/complex_01_A_a.gif","","","","",""
"","3894","survey-multi-choice","113","312886","0.0-26.0","SS1619739833035","math_question","","","","","","","","","","","","{""Q0"":""18""}","[0]","18","",""
"","null","html-keyboard-response","114","313810","0.0-27.0-0.0","SS1619739833035","","","null","","","","","","<p><img src= images/blank.png width =""600"" height = ""600"" style=""position:fixed;top:50%; left:50%; transform: translate(-50%, -50%); border:5px solid black"">","","","","","","","",""
"","8989","sequential-stimulus-presentation-old","115","337806","0.0-27.0-1.0","SS1619739833035","trial","","40","500","9489","images/stimuli/spore_stims/complex_14_A_a.gif","images/stimuli/spore_stims/complex_20_A_b.gif","forced_long","","9","complex_dissimilar","images/stimuli/spore_stims/complex_20_A_b.gif","","","","",""
"","null","html-keyboard-response","116","339001","0.0-27.0-0.1","SS1619739833035","","","null","","","","","","<p><img src= images/blank.png width =""600"" height = ""600"" style=""position:fixed;top:50%; left:50%; transform: translate(-50%, -50%); border:5px solid black"">","","","","","","","",""
"","396","sequential-stimulus-presentation-old","117","339904","0.0-27.0-1.1","SS1619739833035","trial","","40","500","896","images/stimuli/spore_stims/complex_14_A_a.gif","images/stimuli/spore_stims/complex_20_A_b.gif","forced_long","","9","complex_dissimilar","images/stimuli/spore_stims/complex_20_A_b.gif","","","","",""
"","null","html-keyboard-response","118","340953","0.0-27.0-0.2","SS1619739833035","","","null","","","","","","<p><img src= images/blank.png width =""600"" height = ""600"" style=""position:fixed;top:50%; left:50%; transform: translate(-50%, -50%); border:5px solid black"">","","","","","","","",""
"","488","sequential-stimulus-presentation-old","119","341950","0.0-27.0-1.2","SS1619739833035","trial","","40","500","988","images/stimuli/spore_stims/complex_14_A_a.gif","images/stimuli/spore_stims/complex_20_A_b.gif","forced_long","","9","complex_dissimilar","images/stimuli/spore_stims/complex_20_A_b.gif","","","","",""
"","null","html-keyboard-response","120","342926","0.0-27.0-0.3","SS1619739833035","","","null","","","","","","<p><img src= images/blank.png width =""600"" height = ""600"" style=""position:fixed;top:50%; left:50%; transform: translate(-50%, -50%); border:5px solid black"">","","","","","","","",""
"","438","sequential-stimulus-presentation-old","121","343870","0.0-27.0-1.3","SS1619739833035","trial","","40","500","938","images/stimuli/spore_stims/complex_14_A_a.gif","images/stimuli/spore_stims/complex_20_A_b.gif","forced_long","","9","complex_dissimilar","images/stimuli/spore_stims/complex_20_A_b.gif","","","","",""
"","null","html-keyboard-response","122","345173","0.0-27.0-0.4","SS1619739833035","","","null","","","","","","<p><img src= images/blank.png width =""600"" height = ""600"" style=""position:fixed;top:50%; left:50%; transform: translate(-50%, -50%); border:5px solid black"">","","","","","","","",""
"","362","sequential-stimulus-presentation-old","123","346043","0.0-27.0-1.4","SS1619739833035","trial","","40","500","862","images/stimuli/spore_stims/complex_14_A_a.gif","images/stimuli/spore_stims/complex_20_A_b.gif","forced_long","","9","complex_dissimilar","images/stimuli/spore_stims/complex_14_A_a.gif","","","","",""
"","null","html-keyboard-response","124","347189","0.0-27.0-0.5","SS1619739833035","","","null","","","","","","<p><img src= images/blank.png width =""600"" height = ""600"" style=""position:fixed;top:50%; left:50%; transform: translate(-50%, -50%); border:5px solid black"">","","","","","","","",""
"","113","sequential-stimulus-presentation-old","125","347810","0.0-27.0-1.5","SS1619739833035","trial","","40","500","613","images/stimuli/spore_stims/complex_14_A_a.gif","images/stimuli/spore_stims/complex_20_A_b.gif","forced_long","","9","complex_dissimilar","images/stimuli/spore_stims/complex_14_A_a.gif","","","","",""
"","4050","survey-multi-choice","126","351870","0.0-28.0","SS1619739833035","math_question","","","","","","","","","","","","{""Q0"":""11""}","[0]","11","",""
"","null","html-keyboard-response","127","352773","0.0-29.0-0.0","SS1619739833035","","","null","","","","","","<p><img src= images/blank.png width =""600"" height = ""600"" style=""position:fixed;top:50%; left:50%; transform: translate(-50%, -50%); border:5px solid black"">","","","","","","","",""
"","45","sequential-stimulus-presentation-old","128","353325","0.0-29.0-1.0","SS1619739833035","trial","","40","500","545","images/stimuli/spore_stims/complex_17_A_b.gif","images/stimuli/spore_stims/complex_20_A_a.gif","forced_short","","10","complex_dissimilar","images/stimuli/spore_stims/complex_20_A_a.gif","","","","",""
"","null","html-keyboard-response","129","354502","0.0-29.0-0.1","SS1619739833035","","","null","","","","","","<p><img src= images/blank.png width =""600"" height = ""600"" style=""position:fixed;top:50%; left:50%; transform: translate(-50%, -50%); border:5px solid black"">","","","","","","","",""
"","238","sequential-stimulus-presentation-old","130","355248","0.0-29.0-1.1","SS1619739833035","trial","","40","500","738","images/stimuli/spore_stims/complex_17_A_b.gif","images/stimuli/spore_stims/complex_20_A_a.gif","forced_short","","10","complex_dissimilar","images/stimuli/spore_stims/complex_20_A_a.gif","","","","",""
"","null","html-keyboard-response","131","356298","0.0-29.0-0.2","SS1619739833035","","","null","","","","","","<p><img src= images/blank.png width =""600"" height = ""600"" style=""position:fixed;top:50%; left:50%; transform: translate(-50%, -50%); border:5px solid black"">","","","","","","","",""
"","235","sequential-stimulus-presentation-old","132","357038","0.0-29.0-1.2","SS1619739833035","trial","","40","500","735","images/stimuli/spore_stims/complex_17_A_b.gif","images/stimuli/spore_stims/complex_20_A_a.gif","forced_short","","10","complex_dissimilar","images/stimuli/spore_stims/complex_17_A_b.gif","","","","",""
"","null","html-keyboard-response","133","357942","0.0-29.0-0.3","SS1619739833035","","","null","","","","","","<p><img src= images/blank.png width =""600"" height = ""600"" style=""position:fixed;top:50%; left:50%; transform: translate(-50%, -50%); border:5px solid black"">","","","","","","","",""
"","235","sequential-stimulus-presentation-old","134","358684","0.0-29.0-1.3","SS1619739833035","trial","","40","500","735","images/stimuli/spore_stims/complex_17_A_b.gif","images/stimuli/spore_stims/complex_20_A_a.gif","forced_short","","10","complex_dissimilar","images/stimuli/spore_stims/complex_20_A_a.gif","","","","",""
"","null","html-keyboard-response","135","359671","0.0-29.0-0.4","SS1619739833035","","","null","","","","","","<p><img src= images/blank.png width =""600"" height = ""600"" style=""position:fixed;top:50%; left:50%; transform: translate(-50%, -50%); border:5px solid black"">","","","","","","","",""
"","1080","sequential-stimulus-presentation-old","136","361259","0.0-29.0-1.4","SS1619739833035","trial","","40","500","1580","images/stimuli/spore_stims/complex_17_A_b.gif","images/stimuli/spore_stims/complex_20_A_a.gif","forced_short","","10","complex_dissimilar","images/stimuli/spore_stims/complex_20_A_a.gif","","","","",""
"","null","html-keyboard-response","137","362491","0.0-29.0-0.5","SS1619739833035","","","null","","","","","","<p><img src= images/blank.png width =""600"" height = ""600"" style=""position:fixed;top:50%; left:50%; transform: translate(-50%, -50%); border:5px solid black"">","","","","","","","",""
"","578","sequential-stimulus-presentation-old","138","363576","0.0-29.0-1.5","SS1619739833035","trial","","40","500","1078","images/stimuli/spore_stims/complex_17_A_b.gif","images/stimuli/spore_stims/complex_20_A_a.gif","forced_short","","10","complex_dissimilar","images/stimuli/spore_stims/complex_17_A_b.gif","","","","",""
"","4192","survey-multi-choice","139","367776","0.0-30.0","SS1619739833035","math_question","","","","","","","","","","","","{""Q0"":""9""}","[0]","9","",""
"","null","html-keyboard-response","140","368678","0.0-31.0-0.0","SS1619739833035","","","null","","","","","","<p><img src= images/blank.png width =""600"" height = ""600"" style=""position:fixed;top:50%; left:50%; transform: translate(-50%, -50%); border:5px solid black"">","","","","","","","",""
"","563","sequential-stimulus-presentation-old","141","369748","0.0-31.0-1.0","SS1619739833035","trial","","40","500","1063","images/stimuli/spore_stims/simple_06_A_a.gif","images/stimuli/spore_stims/simple_02_A_b.gif","self_paced","","11","simple_dissimilar","images/stimuli/spore_stims/simple_02_A_b.gif","","","","",""
"","null","html-keyboard-response","142","370827","0.0-31.0-0.1","SS1619739833035","","","null","","","","","","<p><img src= images/blank.png width =""600"" height = ""600"" style=""position:fixed;top:50%; left:50%; transform: translate(-50%, -50%); border:5px solid black"">","","","","","","","",""
"","668","sequential-stimulus-presentation-old","143","372003","0.0-31.0-1.1","SS1619739833035","trial","","40","500","1168","images/stimuli/spore_stims/simple_06_A_a.gif","images/stimuli/spore_stims/simple_02_A_b.gif","self_paced","","11","simple_dissimilar","images/stimuli/spore_stims/simple_02_A_b.gif","","","","",""
"","null","html-keyboard-response","144","372923","0.0-31.0-0.2","SS1619739833035","","","null","","","","","","<p><img src= images/blank.png width =""600"" height = ""600"" style=""position:fixed;top:50%; left:50%; transform: translate(-50%, -50%); border:5px solid black"">","","","","","","","",""
"","1302","sequential-stimulus-presentation-old","145","374732","0.0-31.0-1.2","SS1619739833035","trial","","40","500","1802","images/stimuli/spore_stims/simple_06_A_a.gif","images/stimuli/spore_stims/simple_02_A_b.gif","self_paced","","11","simple_dissimilar","images/stimuli/spore_stims/simple_02_A_b.gif","","","","",""
"","null","html-keyboard-response","146","375938","0.0-31.0-0.3","SS1619739833035","","","null","","","","","","<p><img src= images/blank.png width =""600"" height = ""600"" style=""position:fixed;top:50%; left:50%; transform: translate(-50%, -50%); border:5px solid black"">","","","","","","","",""
"","271","sequential-stimulus-presentation-old","147","376717","0.0-31.0-1.3","SS1619739833035","trial","","40","500","771","images/stimuli/spore_stims/simple_06_A_a.gif","images/stimuli/spore_stims/simple_02_A_b.gif","self_paced","","11","simple_dissimilar","images/stimuli/spore_stims/simple_06_A_a.gif","","","","",""
"[{""page_index"":0,""viewing_time"":8660}]","8661","instructions","148","385384","0.0-32.0","SS1619739833035","instructions","","","","","","","","","","","","","","","",""
"","14284","survey-likert","149","399680","0.0-33.0","SS1619739833035","similarity_question","","","","","","","","","","","","{""Q0"":2}","[0]","","images/stimuli/spore_stims/complex_20_A_a.gif","images/stimuli/spore_stims/complex_17_A_b.gif"
"","8591","survey-likert","150","408285","0.0-34.0","SS1619739833035","similarity_question","","","","","","","","","","","","{""Q0"":4}","[0]","","images/stimuli/spore_stims/complex_01_A_a.gif","images/stimuli/spore_stims/complex_16_A_b.gif"
"","5795","survey-likert","151","414091","0.0-35.0","SS1619739833035","similarity_question","","","","","","","","","","","","{""Q0"":4}","[0]","","images/stimuli/spore_stims/complex_15_A_a.gif","images/stimuli/spore_stims/complex_10_A_b.gif"
"","4462","survey-likert","152","418560","0.0-36.0","SS1619739833035","similarity_question","","","","","","","","","","","","{""Q0"":5}","[0]","","images/stimuli/spore_stims/simple_12_A_b.gif","images/stimuli/spore_stims/simple_20_A_a.gif"
"","4125","survey-likert","153","422697","0.0-37.0","SS1619739833035","similarity_question","","","","","","","","","","","","{""Q0"":3}","[0]","","images/stimuli/spore_stims/complex_14_A_a.gif","images/stimuli/spore_stims/complex_20_A_b.gif"
"","2807","survey-likert","154","425512","0.0-38.0","SS1619739833035","similarity_question","","","","","","","","","","","","{""Q0"":5}","[0]","","images/stimuli/spore_stims/simple_01_A_a.gif","images/stimuli/spore_stims/simple_05_A_b.gif"
"","2857","survey-likert","155","428379","0.0-39.0","SS1619739833035","similarity_question","","","","","","","","","","","","{""Q0"":5}","[0]","","images/stimuli/spore_stims/simple_10_A_b.gif","images/stimuli/spore_stims/simple_02_A_a.gif"
"","4919","survey-likert","156","433310","0.0-40.0","SS1619739833035","similarity_question","","","","","","","","","","","","{""Q0"":4}","[0]","","images/stimuli/spore_stims/complex_02_A_a.gif","images/stimuli/spore_stims/complex_14_A_b.gif"
"","3125","survey-likert","157","436445","0.0-41.0","SS1619739833035","similarity_question","","","","","","","","","","","","{""Q0"":4}","[0]","","images/stimuli/spore_stims/complex_18_A_b.gif","images/stimuli/spore_stims/complex_08_A_a.gif"
"","3717","survey-likert","158","440178","0.0-42.0","SS1619739833035","similarity_question","","","","","","","","","","","","{""Q0"":5}","[0]","","images/stimuli/spore_stims/simple_17_A_a.gif","images/stimuli/spore_stims/simple_14_A_b.gif"
"","4852","survey-likert","159","445041","0.0-43.0","SS1619739833035","similarity_question","","","","","","","","","","","","{""Q0"":5}","[0]","","images/stimuli/spore_stims/simple_01_A_b.gif","images/stimuli/spore_stims/simple_12_A_a.gif"
"","4054","survey-likert","160","449108","0.0-44.0","SS1619739833035","similarity_question","","","","","","","","","","","","{""Q0"":6}","[0]","","images/stimuli/spore_stims/simple_06_A_a.gif","images/stimuli/spore_stims/simple_02_A_b.gif"
"[{""page_index"":0,""viewing_time"":1808}]","1808","instructions","161","450924","0.0-45.0","SS1619739833035","instructions","","","","","","","","","","","","","","","",""
"","4258","survey-likert","162","455192","0.0-46.0","SS1619739833035","","","","","","","","","images/stimuli/spore_stims/simple_05_A_b.gif","","","","{""Q0"":1}","[0]","","",""
"","4950","survey-likert","163","460151","0.0-47.0","SS1619739833035","","","","","","","","","images/stimuli/spore_stims/simple_12_A_a.gif","","","","{""Q0"":1}","[0]","","",""
"","4336","survey-likert","164","464499","0.0-48.0","SS1619739833035","","","","","","","","","images/stimuli/spore_stims/simple_17_A_a.gif","","","","{""Q0"":1}","[0]","","",""
"","7258","survey-likert","165","471768","0.0-49.0","SS1619739833035","","","","","","","","","images/stimuli/spore_stims/complex_20_A_b.gif","","","","{""Q0"":2}","[0]","","",""
"","3908","survey-likert","166","475688","0.0-50.0","SS1619739833035","","","","","","","","","images/stimuli/spore_stims/simple_06_A_a.gif","","","","{""Q0"":1}","[0]","","",""
"","3908","survey-likert","167","479608","0.0-51.0","SS1619739833035","","","","","","","","","images/stimuli/spore_stims/complex_14_A_b.gif","","","","{""Q0"":4}","[0]","","",""
"","3802","survey-likert","168","483419","0.0-52.0","SS1619739833035","","","","","","","","","images/stimuli/spore_stims/complex_08_A_a.gif","","","","{""Q0"":2}","[0]","","",""
"","4004","survey-likert","169","487432","0.0-53.0","SS1619739833035","","","","","","","","","images/stimuli/spore_stims/complex_15_A_a.gif","","","","{""Q0"":4}","[0]","","",""
"","3411","survey-likert","170","490856","0.0-54.0","SS1619739833035","","","","","","","","","images/stimuli/spore_stims/complex_20_A_a.gif","","","","{""Q0"":4}","[0]","","",""
"","3347","survey-likert","171","494211","0.0-55.0","SS1619739833035","","","","","","","","","images/stimuli/spore_stims/simple_20_A_a.gif","","","","{""Q0"":1}","[0]","","",""
"","4444","survey-likert","172","498667","0.0-56.0","SS1619739833035","","","","","","","","","images/stimuli/spore_stims/simple_10_A_b.gif","","","","{""Q0"":1}","[0]","","",""
"","3282","survey-likert","173","501959","0.0-57.0","SS1619739833035","","","","","","","","","images/stimuli/spore_stims/complex_16_A_b.gif","","","","{""Q0"":4}","[0]","","",""
"[{""page_index"":0,""viewing_time"":3248}]","3248","instructions","174","505213","0.0-58.0","SS1619739833035","instructions","","","","","","","","","","","","","","","",""
"","8319","demog-age","175","513547","0.0-59.0","SS1619739833035","","","","","","","","","","","","","{""age"":""26""}","","","",""
"","7257","demog-ethnic-US","176","520820","0.0-60.0","SS1619739833035","","","","","","","","","","","","","{""ethnicity"":[""White""]}","[0]","","",""
"","10924","demog-gender-and-education","177","531755","0.0-61.0","SS1619739833035","","","","","","","","","","","","","{""gender"":""Male"",""education"":""Bachelor's Degree""}","[0,1]","","",""
"","7758","survey-text","178","539531","0.0-62.0","SS1619739833035","feedback","","","","","","","","","","","","{""Q0"":""no""}","","","",""
"[{""page_index"":0,""viewing_time"":3311}]","3311","instructions","179","542852","0.0-63.0","SS1619739833035","instructions","","","","","","","","","","","","","","","",""
