"view_history","rt","trial_type","trial_index","time_elapsed","internal_node_id","subject","stimulus_type","trial_stimulus","key_press","minimum_viewing_duration","trial_looking_time","block_deviant","block_background","exposure_type","stimulus","block_number","block_type","stimulus_displayed","responses","question_order","math_correct_answer","stimulus_left","stimulus_right"
"[{""page_index"":0,""viewing_time"":4711.964999999992}]","4713.149999999984","instructions","0","4716","0.0-0.0","SS1619740338605","","","","","","","","","","","","","","","","",""
"[{""page_index"":0,""viewing_time"":1659.6350000000075},{""page_index"":1,""viewing_time"":2270.1399999999976}]","3930.104999999996","instructions","1","10648","0.0-1.0","SS1619740338605","instructions","","","","","","","","","","","","","","","",""
"","1859.9049999999988","sequential-stimulus-presentation-old","2","13016","0.0-2.0","SS1619740338605","","","40","500","2359.904999999999","null","null","self_paced","","","","","","","","",""
"","6449.944999999985","sequential-stimulus-presentation-old","3","19982","0.0-3.0","SS1619740338605","","","40","500","6949.944999999985","null","null","self_paced","","","","","","","","",""
"[{""page_index"":0,""viewing_time"":23489.815000000024}]","23490.09000000001","instructions","4","43473","0.0-4.0","SS1619740338605","instructions","","","","","","","","","","","","","","","",""
"","488.0600000000195","sequential-stimulus-presentation-old","5","58963","0.0-5.0","SS1619740338605","","","40","500","988.0600000000195","null","null","forced_long","","","","","","","","",""
"","12562.625","sequential-stimulus-presentation-old","6","72031","0.0-6.0","SS1619740338605","","","40","500","13062.625","null","null","forced_long","","","","","","","","",""
"[{""page_index"":0,""viewing_time"":7141.420000000013}]","7141.674999999988","instructions","7","79174","0.0-7.0","SS1619740338605","instructions","","","","","","","","","","","","","","","",""
"[{""page_index"":0,""viewing_time"":22281.154999999984},{""page_index"":1,""viewing_time"":22028.64},{""page_index"":2,""viewing_time"":11053.435000000041},{""page_index"":3,""viewing_time"":1733.1449999999604},{""page_index"":4,""viewing_time"":1524.7200000000012}]","58621.520000000004","instructions","8","137797","0.0-8.0","SS1619740338605","instructions","","","","","","","","","","","","","","","",""
"","null","html-keyboard-response","9","139027","0.0-9.0-0.0","SS1619740338605","","","null","","","","","","<p><img src= images/blank.png width =""600"" height = ""600"" style=""position:fixed;top:50%; left:50%; transform: translate(-50%, -50%); border:5px solid black"">","","","","","","","",""
"","488.57500000001164","sequential-stimulus-presentation-old","10","154521","0.0-9.0-1.0","SS1619740338605","trial","","40","500","988.5750000000116","images/stimuli/spore_stims/complex_06_A_a.gif","images/stimuli/spore_stims/complex_20_A_b.gif","forced_long","","0","complex_dissimilar","images/stimuli/spore_stims/complex_20_A_b.gif","","","","",""
"","null","html-keyboard-response","11","155514","0.0-9.0-0.1","SS1619740338605","","","null","","","","","","<p><img src= images/blank.png width =""600"" height = ""600"" style=""position:fixed;top:50%; left:50%; transform: translate(-50%, -50%); border:5px solid black"">","","","","","","","",""
"","741.5449999999837","sequential-stimulus-presentation-old","12","156759","0.0-9.0-1.1","SS1619740338605","trial","","40","500","1241.5449999999837","images/stimuli/spore_stims/complex_06_A_a.gif","images/stimuli/spore_stims/complex_20_A_b.gif","forced_long","","0","complex_dissimilar","images/stimuli/spore_stims/complex_20_A_b.gif","","","","",""
"","null","html-keyboard-response","13","157765","0.0-9.0-0.2","SS1619740338605","","","null","","","","","","<p><img src= images/blank.png width =""600"" height = ""600"" style=""position:fixed;top:50%; left:50%; transform: translate(-50%, -50%); border:5px solid black"">","","","","","","","",""
"","605.1049999999814","sequential-stimulus-presentation-old","14","158874","0.0-9.0-1.2","SS1619740338605","trial","","40","500","1105.1049999999814","images/stimuli/spore_stims/complex_06_A_a.gif","images/stimuli/spore_stims/complex_20_A_b.gif","forced_long","","0","complex_dissimilar","images/stimuli/spore_stims/complex_20_A_b.gif","","","","",""
"","null","html-keyboard-response","15","159834","0.0-9.0-0.3","SS1619740338605","","","null","","","","","","<p><img src= images/blank.png width =""600"" height = ""600"" style=""position:fixed;top:50%; left:50%; transform: translate(-50%, -50%); border:5px solid black"">","","","","","","","",""
"","4505.005000000034","sequential-stimulus-presentation-old","16","164845","0.0-9.0-1.3","SS1619740338605","trial","","40","500","5005.005000000034","images/stimuli/spore_stims/complex_06_A_a.gif","images/stimuli/spore_stims/complex_20_A_b.gif","forced_long","","0","complex_dissimilar","images/stimuli/spore_stims/complex_20_A_b.gif","","","","",""
"","null","html-keyboard-response","17","166006","0.0-9.0-0.4","SS1619740338605","","","null","","","","","","<p><img src= images/blank.png width =""600"" height = ""600"" style=""position:fixed;top:50%; left:50%; transform: translate(-50%, -50%); border:5px solid black"">","","","","","","","",""
"","1336.2950000000128","sequential-stimulus-presentation-old","18","167846","0.0-9.0-1.4","SS1619740338605","trial","","40","500","1836.2950000000128","images/stimuli/spore_stims/complex_06_A_a.gif","images/stimuli/spore_stims/complex_20_A_b.gif","forced_long","","0","complex_dissimilar","images/stimuli/spore_stims/complex_20_A_b.gif","","","","",""
"","4245.229999999981","survey-multi-choice","19","172097","0.0-10.0","SS1619740338605","math_question","","","","","","","","","","","","{""Q0"":""6""}","[0]","6","",""
"","null","html-keyboard-response","20","173081","0.0-11.0-0.0","SS1619740338605","","","null","","","","","","<p><img src= images/blank.png width =""600"" height = ""600"" style=""position:fixed;top:50%; left:50%; transform: translate(-50%, -50%); border:5px solid black"">","","","","","","","",""
"","2736.0599999999977","sequential-stimulus-presentation-old","21","176323","0.0-11.0-1.0","SS1619740338605","trial","","40","500","3236.0599999999977","images/stimuli/spore_stims/complex_05_A_a.gif","images/stimuli/spore_stims/complex_03_A_b.gif","forced_short","","1","complex_dissimilar","images/stimuli/spore_stims/complex_03_A_b.gif","","","","",""
"","null","html-keyboard-response","22","177156","0.0-11.0-0.1","SS1619740338605","","","null","","","","","","<p><img src= images/blank.png width =""600"" height = ""600"" style=""position:fixed;top:50%; left:50%; transform: translate(-50%, -50%); border:5px solid black"">","","","","","","","",""
"","229.7050000000163","sequential-stimulus-presentation-old","23","177891","0.0-11.0-1.1","SS1619740338605","trial","","40","500","729.7050000000163","images/stimuli/spore_stims/complex_05_A_a.gif","images/stimuli/spore_stims/complex_03_A_b.gif","forced_short","","1","complex_dissimilar","images/stimuli/spore_stims/complex_03_A_b.gif","","","","",""
"","null","html-keyboard-response","24","178985","0.0-11.0-0.2","SS1619740338605","","","null","","","","","","<p><img src= images/blank.png width =""600"" height = ""600"" style=""position:fixed;top:50%; left:50%; transform: translate(-50%, -50%); border:5px solid black"">","","","","","","","",""
"","3371.829999999987","sequential-stimulus-presentation-old","25","182869","0.0-11.0-1.2","SS1619740338605","trial","","40","500","3871.829999999987","images/stimuli/spore_stims/complex_05_A_a.gif","images/stimuli/spore_stims/complex_03_A_b.gif","forced_short","","1","complex_dissimilar","images/stimuli/spore_stims/complex_05_A_a.gif","","","","",""
"","null","html-keyboard-response","26","183688","0.0-11.0-0.3","SS1619740338605","","","null","","","","","","<p><img src= images/blank.png width =""600"" height = ""600"" style=""position:fixed;top:50%; left:50%; transform: translate(-50%, -50%); border:5px solid black"">","","","","","","","",""
"","766.0800000000163","sequential-stimulus-presentation-old","27","184960","0.0-11.0-1.3","SS1619740338605","trial","","40","500","1266.0800000000163","images/stimuli/spore_stims/complex_05_A_a.gif","images/stimuli/spore_stims/complex_03_A_b.gif","forced_short","","1","complex_dissimilar","images/stimuli/spore_stims/complex_05_A_a.gif","","","","",""
"","null","html-keyboard-response","28","185796","0.0-11.0-0.4","SS1619740338605","","","null","","","","","","<p><img src= images/blank.png width =""600"" height = ""600"" style=""position:fixed;top:50%; left:50%; transform: translate(-50%, -50%); border:5px solid black"">","","","","","","","",""
"","581.0350000000326","sequential-stimulus-presentation-old","29","186891","0.0-11.0-1.4","SS1619740338605","trial","","40","500","1081.0350000000326","images/stimuli/spore_stims/complex_05_A_a.gif","images/stimuli/spore_stims/complex_03_A_b.gif","forced_short","","1","complex_dissimilar","images/stimuli/spore_stims/complex_03_A_b.gif","","","","",""
"","null","html-keyboard-response","30","187915","0.0-11.0-0.5","SS1619740338605","","","null","","","","","","<p><img src= images/blank.png width =""600"" height = ""600"" style=""position:fixed;top:50%; left:50%; transform: translate(-50%, -50%); border:5px solid black"">","","","","","","","",""
"","613.070000000007","sequential-stimulus-presentation-old","31","189032","0.0-11.0-1.5","SS1619740338605","trial","","40","500","1113.070000000007","images/stimuli/spore_stims/complex_05_A_a.gif","images/stimuli/spore_stims/complex_03_A_b.gif","forced_short","","1","complex_dissimilar","images/stimuli/spore_stims/complex_03_A_b.gif","","","","",""
"","4861.139999999985","survey-multi-choice","32","193896","0.0-12.0","SS1619740338605","math_question","","","","","","","","","","","","{""Q0"":""10""}","[0]","10","",""
"","null","html-keyboard-response","33","194875","0.0-13.0-0.0","SS1619740338605","","","null","","","","","","<p><img src= images/blank.png width =""600"" height = ""600"" style=""position:fixed;top:50%; left:50%; transform: translate(-50%, -50%); border:5px solid black"">","","","","","","","",""
"","1294.9850000000151","sequential-stimulus-presentation-old","34","196674","0.0-13.0-1.0","SS1619740338605","trial","","40","500","1794.9850000000151","images/stimuli/spore_stims/simple_08_A_a.gif","images/stimuli/spore_stims/simple_06_A_b.gif","self_paced","","2","simple_dissimilar","images/stimuli/spore_stims/simple_06_A_b.gif","","","","",""
"","null","html-keyboard-response","35","197682","0.0-13.0-0.1","SS1619740338605","","","null","","","","","","<p><img src= images/blank.png width =""600"" height = ""600"" style=""position:fixed;top:50%; left:50%; transform: translate(-50%, -50%); border:5px solid black"">","","","","","","","",""
"","3105.1450000000186","sequential-stimulus-presentation-old","36","201292","0.0-13.0-1.1","SS1619740338605","trial","","40","500","3605.1450000000186","images/stimuli/spore_stims/simple_08_A_a.gif","images/stimuli/spore_stims/simple_06_A_b.gif","self_paced","","2","simple_dissimilar","images/stimuli/spore_stims/simple_06_A_b.gif","","","","",""
"","null","html-keyboard-response","37","202333","0.0-13.0-0.2","SS1619740338605","","","null","","","","","","<p><img src= images/blank.png width =""600"" height = ""600"" style=""position:fixed;top:50%; left:50%; transform: translate(-50%, -50%); border:5px solid black"">","","","","","","","",""
"","2291.6350000000384","sequential-stimulus-presentation-old","38","205128","0.0-13.0-1.2","SS1619740338605","trial","","40","500","2791.6350000000384","images/stimuli/spore_stims/simple_08_A_a.gif","images/stimuli/spore_stims/simple_06_A_b.gif","self_paced","","2","simple_dissimilar","images/stimuli/spore_stims/simple_06_A_b.gif","","","","",""
"","null","html-keyboard-response","39","205947","0.0-13.0-0.3","SS1619740338605","","","null","","","","","","<p><img src= images/blank.png width =""600"" height = ""600"" style=""position:fixed;top:50%; left:50%; transform: translate(-50%, -50%); border:5px solid black"">","","","","","","","",""
"","1698.725000000035","sequential-stimulus-presentation-old","40","208150","0.0-13.0-1.3","SS1619740338605","trial","","40","500","2198.725000000035","images/stimuli/spore_stims/simple_08_A_a.gif","images/stimuli/spore_stims/simple_06_A_b.gif","self_paced","","2","simple_dissimilar","images/stimuli/spore_stims/simple_08_A_a.gif","","","","",""
"","null","html-keyboard-response","41","209090","0.0-13.0-0.4","SS1619740338605","","","null","","","","","","<p><img src= images/blank.png width =""600"" height = ""600"" style=""position:fixed;top:50%; left:50%; transform: translate(-50%, -50%); border:5px solid black"">","","","","","","","",""
"","1082.4199999999546","sequential-stimulus-presentation-old","42","210684","0.0-13.0-1.4","SS1619740338605","trial","","40","500","1582.4199999999546","images/stimuli/spore_stims/simple_08_A_a.gif","images/stimuli/spore_stims/simple_06_A_b.gif","self_paced","","2","simple_dissimilar","images/stimuli/spore_stims/simple_08_A_a.gif","","","","",""
"","4610.424999999959","survey-multi-choice","43","215297","0.0-14.0","SS1619740338605","math_question","","","","","","","","","","","","{""Q0"":""16""}","[0]","16","",""
"","null","html-keyboard-response","44","216449","0.0-15.0-0.0","SS1619740338605","","","null","","","","","","<p><img src= images/blank.png width =""600"" height = ""600"" style=""position:fixed;top:50%; left:50%; transform: translate(-50%, -50%); border:5px solid black"">","","","","","","","",""
"","2464.5","sequential-stimulus-presentation-old","45","219418","0.0-15.0-1.0","SS1619740338605","trial","","40","500","2964.5","images/stimuli/spore_stims/complex_16_A_b.gif","images/stimuli/spore_stims/complex_14_A_a.gif","self_paced","","3","complex_dissimilar","images/stimuli/spore_stims/complex_14_A_a.gif","","","","",""
"","null","html-keyboard-response","46","220479","0.0-15.0-0.1","SS1619740338605","","","null","","","","","","<p><img src= images/blank.png width =""600"" height = ""600"" style=""position:fixed;top:50%; left:50%; transform: translate(-50%, -50%); border:5px solid black"">","","","","","","","",""
"","1874.0950000000012","sequential-stimulus-presentation-old","47","222858","0.0-15.0-1.1","SS1619740338605","trial","","40","500","2374.095000000001","images/stimuli/spore_stims/complex_16_A_b.gif","images/stimuli/spore_stims/complex_14_A_a.gif","self_paced","","3","complex_dissimilar","images/stimuli/spore_stims/complex_14_A_a.gif","","","","",""
"","null","html-keyboard-response","48","223677","0.0-15.0-0.2","SS1619740338605","","","null","","","","","","<p><img src= images/blank.png width =""600"" height = ""600"" style=""position:fixed;top:50%; left:50%; transform: translate(-50%, -50%); border:5px solid black"">","","","","","","","",""
"","1266.5550000000512","sequential-stimulus-presentation-old","49","225449","0.0-15.0-1.2","SS1619740338605","trial","","40","500","1766.5550000000512","images/stimuli/spore_stims/complex_16_A_b.gif","images/stimuli/spore_stims/complex_14_A_a.gif","self_paced","","3","complex_dissimilar","images/stimuli/spore_stims/complex_14_A_a.gif","","","","",""
"","null","html-keyboard-response","50","226469","0.0-15.0-0.3","SS1619740338605","","","null","","","","","","<p><img src= images/blank.png width =""600"" height = ""600"" style=""position:fixed;top:50%; left:50%; transform: translate(-50%, -50%); border:5px solid black"">","","","","","","","",""
"","1568.530000000028","sequential-stimulus-presentation-old","51","228542","0.0-15.0-1.3","SS1619740338605","trial","","40","500","2068.530000000028","images/stimuli/spore_stims/complex_16_A_b.gif","images/stimuli/spore_stims/complex_14_A_a.gif","self_paced","","3","complex_dissimilar","images/stimuli/spore_stims/complex_14_A_a.gif","","","","",""
"","null","html-keyboard-response","52","229827","0.0-15.0-0.4","SS1619740338605","","","null","","","","","","<p><img src= images/blank.png width =""600"" height = ""600"" style=""position:fixed;top:50%; left:50%; transform: translate(-50%, -50%); border:5px solid black"">","","","","","","","",""
"","2031.3949999999604","sequential-stimulus-presentation-old","53","232364","0.0-15.0-1.4","SS1619740338605","trial","","40","500","2531.3949999999604","images/stimuli/spore_stims/complex_16_A_b.gif","images/stimuli/spore_stims/complex_14_A_a.gif","self_paced","","3","complex_dissimilar","images/stimuli/spore_stims/complex_14_A_a.gif","","","","",""
"","5403.109999999957","survey-multi-choice","54","237770","0.0-16.0","SS1619740338605","math_question","","","","","","","","","","","","{""Q0"":""9""}","[0]","9","",""
"","null","html-keyboard-response","55","238729","0.0-17.0-0.0","SS1619740338605","","","null","","","","","","<p><img src= images/blank.png width =""600"" height = ""600"" style=""position:fixed;top:50%; left:50%; transform: translate(-50%, -50%); border:5px solid black"">","","","","","","","",""
"","646.7850000000326","sequential-stimulus-presentation-old","56","254396","0.0-17.0-1.0","SS1619740338605","trial","","40","500","1146.7850000000326","images/stimuli/spore_stims/simple_11_A_b.gif","images/stimuli/spore_stims/simple_14_A_a.gif","forced_long","","4","simple_dissimilar","images/stimuli/spore_stims/simple_14_A_a.gif","","","","",""
"","null","html-keyboard-response","57","255586","0.0-17.0-0.1","SS1619740338605","","","null","","","","","","<p><img src= images/blank.png width =""600"" height = ""600"" style=""position:fixed;top:50%; left:50%; transform: translate(-50%, -50%); border:5px solid black"">","","","","","","","",""
"","150.1350000000093","sequential-stimulus-presentation-old","58","256241","0.0-17.0-1.1","SS1619740338605","trial","","40","500","650.1350000000093","images/stimuli/spore_stims/simple_11_A_b.gif","images/stimuli/spore_stims/simple_14_A_a.gif","forced_long","","4","simple_dissimilar","images/stimuli/spore_stims/simple_11_A_b.gif","","","","",""
"","null","html-keyboard-response","59","257190","0.0-17.0-0.2","SS1619740338605","","","null","","","","","","<p><img src= images/blank.png width =""600"" height = ""600"" style=""position:fixed;top:50%; left:50%; transform: translate(-50%, -50%); border:5px solid black"">","","","","","","","",""
"","391.9100000000908","sequential-stimulus-presentation-old","60","258086","0.0-17.0-1.2","SS1619740338605","trial","","40","500","891.9100000000908","images/stimuli/spore_stims/simple_11_A_b.gif","images/stimuli/spore_stims/simple_14_A_a.gif","forced_long","","4","simple_dissimilar","images/stimuli/spore_stims/simple_14_A_a.gif","","","","",""
"","null","html-keyboard-response","61","259273","0.0-17.0-0.3","SS1619740338605","","","null","","","","","","<p><img src= images/blank.png width =""600"" height = ""600"" style=""position:fixed;top:50%; left:50%; transform: translate(-50%, -50%); border:5px solid black"">","","","","","","","",""
"","875.445000000007","sequential-stimulus-presentation-old","62","260655","0.0-17.0-1.3","SS1619740338605","trial","","40","500","1375.445000000007","images/stimuli/spore_stims/simple_11_A_b.gif","images/stimuli/spore_stims/simple_14_A_a.gif","forced_long","","4","simple_dissimilar","images/stimuli/spore_stims/simple_14_A_a.gif","","","","",""
"","null","html-keyboard-response","63","261655","0.0-17.0-0.4","SS1619740338605","","","null","","","","","","<p><img src= images/blank.png width =""600"" height = ""600"" style=""position:fixed;top:50%; left:50%; transform: translate(-50%, -50%); border:5px solid black"">","","","","","","","",""
"","2023.289999999979","sequential-stimulus-presentation-old","64","264183","0.0-17.0-1.4","SS1619740338605","trial","","40","500","2523.289999999979","images/stimuli/spore_stims/simple_11_A_b.gif","images/stimuli/spore_stims/simple_14_A_a.gif","forced_long","","4","simple_dissimilar","images/stimuli/spore_stims/simple_14_A_a.gif","","","","",""
"","null","html-keyboard-response","65","265169","0.0-17.0-0.5","SS1619740338605","","","null","","","","","","<p><img src= images/blank.png width =""600"" height = ""600"" style=""position:fixed;top:50%; left:50%; transform: translate(-50%, -50%); border:5px solid black"">","","","","","","","",""
"","1458.2099999999627","sequential-stimulus-presentation-old","66","267142","0.0-17.0-1.5","SS1619740338605","trial","","40","500","1958.2099999999627","images/stimuli/spore_stims/simple_11_A_b.gif","images/stimuli/spore_stims/simple_14_A_a.gif","forced_long","","4","simple_dissimilar","images/stimuli/spore_stims/simple_11_A_b.gif","","","","",""
"","5304.100000000093","survey-multi-choice","67","272449","0.0-18.0","SS1619740338605","math_question","","","","","","","","","","","","{""Q0"":""14""}","[0]","14","",""
"","null","html-keyboard-response","68","273346","0.0-19.0-0.0","SS1619740338605","","","null","","","","","","<p><img src= images/blank.png width =""600"" height = ""600"" style=""position:fixed;top:50%; left:50%; transform: translate(-50%, -50%); border:5px solid black"">","","","","","","","",""
"","5383.809999999998","sequential-stimulus-presentation-old","69","279248","0.0-19.0-1.0","SS1619740338605","trial","","40","500","5883.809999999998","images/stimuli/spore_stims/complex_02_A_b.gif","images/stimuli/spore_stims/complex_03_A_a.gif","forced_short","","5","complex_dissimilar","images/stimuli/spore_stims/complex_03_A_a.gif","","","","",""
"","null","html-keyboard-response","70","280138","0.0-19.0-0.1","SS1619740338605","","","null","","","","","","<p><img src= images/blank.png width =""600"" height = ""600"" style=""position:fixed;top:50%; left:50%; transform: translate(-50%, -50%); border:5px solid black"">","","","","","","","",""
"","431.6249999999418","sequential-stimulus-presentation-old","71","281087","0.0-19.0-1.1","SS1619740338605","trial","","40","500","931.6249999999418","images/stimuli/spore_stims/complex_02_A_b.gif","images/stimuli/spore_stims/complex_03_A_a.gif","forced_short","","5","complex_dissimilar","images/stimuli/spore_stims/complex_03_A_a.gif","","","","",""
"","null","html-keyboard-response","72","282028","0.0-19.0-0.2","SS1619740338605","","","null","","","","","","<p><img src= images/blank.png width =""600"" height = ""600"" style=""position:fixed;top:50%; left:50%; transform: translate(-50%, -50%); border:5px solid black"">","","","","","","","",""
"","215.0250000000815","sequential-stimulus-presentation-old","73","282747","0.0-19.0-1.2","SS1619740338605","trial","","40","500","715.0250000000815","images/stimuli/spore_stims/complex_02_A_b.gif","images/stimuli/spore_stims/complex_03_A_a.gif","forced_short","","5","complex_dissimilar","images/stimuli/spore_stims/complex_03_A_a.gif","","","","",""
"","null","html-keyboard-response","74","283703","0.0-19.0-0.3","SS1619740338605","","","null","","","","","","<p><img src= images/blank.png width =""600"" height = ""600"" style=""position:fixed;top:50%; left:50%; transform: translate(-50%, -50%); border:5px solid black"">","","","","","","","",""
"","57.934999999939464","sequential-stimulus-presentation-old","75","284276","0.0-19.0-1.3","SS1619740338605","trial","","40","500","557.9349999999395","images/stimuli/spore_stims/complex_02_A_b.gif","images/stimuli/spore_stims/complex_03_A_a.gif","forced_short","","5","complex_dissimilar","images/stimuli/spore_stims/complex_03_A_a.gif","","","","",""
"","null","html-keyboard-response","76","285561","0.0-19.0-0.4","SS1619740338605","","","null","","","","","","<p><img src= images/blank.png width =""600"" height = ""600"" style=""position:fixed;top:50%; left:50%; transform: translate(-50%, -50%); border:5px solid black"">","","","","","","","",""
"","731.2249999999767","sequential-stimulus-presentation-old","77","286797","0.0-19.0-1.4","SS1619740338605","trial","","40","500","1231.2249999999767","images/stimuli/spore_stims/complex_02_A_b.gif","images/stimuli/spore_stims/complex_03_A_a.gif","forced_short","","5","complex_dissimilar","images/stimuli/spore_stims/complex_03_A_a.gif","","","","",""
"","null","html-keyboard-response","78","287786","0.0-19.0-0.5","SS1619740338605","","","null","","","","","","<p><img src= images/blank.png width =""600"" height = ""600"" style=""position:fixed;top:50%; left:50%; transform: translate(-50%, -50%); border:5px solid black"">","","","","","","","",""
"","574.8149999999441","sequential-stimulus-presentation-old","79","288877","0.0-19.0-1.5","SS1619740338605","trial","","40","500","1074.8149999999441","images/stimuli/spore_stims/complex_02_A_b.gif","images/stimuli/spore_stims/complex_03_A_a.gif","forced_short","","5","complex_dissimilar","images/stimuli/spore_stims/complex_03_A_a.gif","","","","",""
"","4733.489999999991","survey-multi-choice","80","293614","0.0-20.0","SS1619740338605","math_question","","","","","","","","","","","","{""Q0"":""16""}","[0]","16","",""
"","null","html-keyboard-response","81","294673","0.0-21.0-0.0","SS1619740338605","","","null","","","","","","<p><img src= images/blank.png width =""600"" height = ""600"" style=""position:fixed;top:50%; left:50%; transform: translate(-50%, -50%); border:5px solid black"">","","","","","","","",""
"","3048.600000000093","sequential-stimulus-presentation-old","82","298228","0.0-21.0-1.0","SS1619740338605","trial","","40","500","3548.600000000093","images/stimuli/spore_stims/complex_13_A_a.gif","images/stimuli/spore_stims/complex_07_A_b.gif","self_paced","","6","complex_dissimilar","images/stimuli/spore_stims/complex_07_A_b.gif","","","","",""
"","null","html-keyboard-response","83","299402","0.0-21.0-0.1","SS1619740338605","","","null","","","","","","<p><img src= images/blank.png width =""600"" height = ""600"" style=""position:fixed;top:50%; left:50%; transform: translate(-50%, -50%); border:5px solid black"">","","","","","","","",""
"","3871.195000000065","sequential-stimulus-presentation-old","84","303779","0.0-21.0-1.1","SS1619740338605","trial","","40","500","4371.195000000065","images/stimuli/spore_stims/complex_13_A_a.gif","images/stimuli/spore_stims/complex_07_A_b.gif","self_paced","","6","complex_dissimilar","images/stimuli/spore_stims/complex_07_A_b.gif","","","","",""
"","null","html-keyboard-response","85","304925","0.0-21.0-0.2","SS1619740338605","","","null","","","","","","<p><img src= images/blank.png width =""600"" height = ""600"" style=""position:fixed;top:50%; left:50%; transform: translate(-50%, -50%); border:5px solid black"">","","","","","","","",""
"","4231.1699999999255","sequential-stimulus-presentation-old","86","309663","0.0-21.0-1.2","SS1619740338605","trial","","40","500","4731.1699999999255","images/stimuli/spore_stims/complex_13_A_a.gif","images/stimuli/spore_stims/complex_07_A_b.gif","self_paced","","6","complex_dissimilar","images/stimuli/spore_stims/complex_13_A_a.gif","","","","",""
"","null","html-keyboard-response","87","310705","0.0-21.0-0.3","SS1619740338605","","","null","","","","","","<p><img src= images/blank.png width =""600"" height = ""600"" style=""position:fixed;top:50%; left:50%; transform: translate(-50%, -50%); border:5px solid black"">","","","","","","","",""
"","1715.5400000000373","sequential-stimulus-presentation-old","88","312926","0.0-21.0-1.3","SS1619740338605","trial","","40","500","2215.5400000000373","images/stimuli/spore_stims/complex_13_A_a.gif","images/stimuli/spore_stims/complex_07_A_b.gif","self_paced","","6","complex_dissimilar","images/stimuli/spore_stims/complex_07_A_b.gif","","","","",""
"","null","html-keyboard-response","89","313801","0.0-21.0-0.4","SS1619740338605","","","null","","","","","","<p><img src= images/blank.png width =""600"" height = ""600"" style=""position:fixed;top:50%; left:50%; transform: translate(-50%, -50%); border:5px solid black"">","","","","","","","",""
"","753.5250000000815","sequential-stimulus-presentation-old","90","315059","0.0-21.0-1.4","SS1619740338605","trial","","40","500","1253.5250000000815","images/stimuli/spore_stims/complex_13_A_a.gif","images/stimuli/spore_stims/complex_07_A_b.gif","self_paced","","6","complex_dissimilar","images/stimuli/spore_stims/complex_07_A_b.gif","","","","",""
"","4247.479999999981","survey-multi-choice","91","319311","0.0-22.0","SS1619740338605","math_question","","","","","","","","","","","","{""Q0"":""4""}","[0]","4","",""
"","null","html-keyboard-response","92","320516","0.0-23.0-0.0","SS1619740338605","","","null","","","","","","<p><img src= images/blank.png width =""600"" height = ""600"" style=""position:fixed;top:50%; left:50%; transform: translate(-50%, -50%); border:5px solid black"">","","","","","","","",""
"","6329.110000000044","sequential-stimulus-presentation-old","93","341851","0.0-23.0-1.0","SS1619740338605","trial","","40","500","6829.110000000044","images/stimuli/spore_stims/simple_20_A_a.gif","images/stimuli/spore_stims/simple_13_A_b.gif","forced_long","","7","simple_dissimilar","images/stimuli/spore_stims/simple_13_A_b.gif","","","","",""
"","null","html-keyboard-response","94","342922","0.0-23.0-0.1","SS1619740338605","","","null","","","","","","<p><img src= images/blank.png width =""600"" height = ""600"" style=""position:fixed;top:50%; left:50%; transform: translate(-50%, -50%); border:5px solid black"">","","","","","","","",""
"","481.64000000001397","sequential-stimulus-presentation-old","95","343918","0.0-23.0-1.1","SS1619740338605","trial","","40","500","981.640000000014","images/stimuli/spore_stims/simple_20_A_a.gif","images/stimuli/spore_stims/simple_13_A_b.gif","forced_long","","7","simple_dissimilar","images/stimuli/spore_stims/simple_13_A_b.gif","","","","",""
"","null","html-keyboard-response","96","344947","0.0-23.0-0.2","SS1619740338605","","","null","","","","","","<p><img src= images/blank.png width =""600"" height = ""600"" style=""position:fixed;top:50%; left:50%; transform: translate(-50%, -50%); border:5px solid black"">","","","","","","","",""
"","986.9749999999185","sequential-stimulus-presentation-old","97","346439","0.0-23.0-1.2","SS1619740338605","trial","","40","500","1486.9749999999185","images/stimuli/spore_stims/simple_20_A_a.gif","images/stimuli/spore_stims/simple_13_A_b.gif","forced_long","","7","simple_dissimilar","images/stimuli/spore_stims/simple_13_A_b.gif","","","","",""
"","null","html-keyboard-response","98","347438","0.0-23.0-0.3","SS1619740338605","","","null","","","","","","<p><img src= images/blank.png width =""600"" height = ""600"" style=""position:fixed;top:50%; left:50%; transform: translate(-50%, -50%); border:5px solid black"">","","","","","","","",""
"","932.7300000000396","sequential-stimulus-presentation-old","99","348878","0.0-23.0-1.3","SS1619740338605","trial","","40","500","1432.7300000000396","images/stimuli/spore_stims/simple_20_A_a.gif","images/stimuli/spore_stims/simple_13_A_b.gif","forced_long","","7","simple_dissimilar","images/stimuli/spore_stims/simple_13_A_b.gif","","","","",""
"","null","html-keyboard-response","100","350054","0.0-23.0-0.4","SS1619740338605","","","null","","","","","","<p><img src= images/blank.png width =""600"" height = ""600"" style=""position:fixed;top:50%; left:50%; transform: translate(-50%, -50%); border:5px solid black"">","","","","","","","",""
"","478.70999999996275","sequential-stimulus-presentation-old","101","351040","0.0-23.0-1.4","SS1619740338605","trial","","40","500","978.7099999999627","images/stimuli/spore_stims/simple_20_A_a.gif","images/stimuli/spore_stims/simple_13_A_b.gif","forced_long","","7","simple_dissimilar","images/stimuli/spore_stims/simple_20_A_a.gif","","","","",""
"","18959.014999999956","survey-multi-choice","102","370003","0.0-24.0","SS1619740338605","math_question","","","","","","","","","","","","{""Q0"":""7""}","[0]","7","",""
"","null","html-keyboard-response","103","371108","0.0-25.0-0.0","SS1619740338605","","","null","","","","","","<p><img src= images/blank.png width =""600"" height = ""600"" style=""position:fixed;top:50%; left:50%; transform: translate(-50%, -50%); border:5px solid black"">","","","","","","","",""
"","766.4349999999977","sequential-stimulus-presentation-old","104","372380","0.0-25.0-1.0","SS1619740338605","trial","","40","500","1266.4349999999977","images/stimuli/spore_stims/simple_05_A_a.gif","images/stimuli/spore_stims/simple_16_A_b.gif","self_paced","","8","simple_dissimilar","images/stimuli/spore_stims/simple_16_A_b.gif","","","","",""
"","null","html-keyboard-response","105","373350","0.0-25.0-0.1","SS1619740338605","","","null","","","","","","<p><img src= images/blank.png width =""600"" height = ""600"" style=""position:fixed;top:50%; left:50%; transform: translate(-50%, -50%); border:5px solid black"">","","","","","","","",""
"","121.41500000009546","sequential-stimulus-presentation-old","106","373976","0.0-25.0-1.1","SS1619740338605","trial","","40","500","621.4150000000955","images/stimuli/spore_stims/simple_05_A_a.gif","images/stimuli/spore_stims/simple_16_A_b.gif","self_paced","","8","simple_dissimilar","images/stimuli/spore_stims/simple_16_A_b.gif","","","","",""
"","null","html-keyboard-response","107","375223","0.0-25.0-0.2","SS1619740338605","","","null","","","","","","<p><img src= images/blank.png width =""600"" height = ""600"" style=""position:fixed;top:50%; left:50%; transform: translate(-50%, -50%); border:5px solid black"">","","","","","","","",""
"","677.734999999986","sequential-stimulus-presentation-old","108","376407","0.0-25.0-1.2","SS1619740338605","trial","","40","500","1177.734999999986","images/stimuli/spore_stims/simple_05_A_a.gif","images/stimuli/spore_stims/simple_16_A_b.gif","self_paced","","8","simple_dissimilar","images/stimuli/spore_stims/simple_16_A_b.gif","","","","",""
"","null","html-keyboard-response","109","377251","0.0-25.0-0.3","SS1619740338605","","","null","","","","","","<p><img src= images/blank.png width =""600"" height = ""600"" style=""position:fixed;top:50%; left:50%; transform: translate(-50%, -50%); border:5px solid black"">","","","","","","","",""
"","263.1700000000419","sequential-stimulus-presentation-old","110","378019","0.0-25.0-1.3","SS1619740338605","trial","","40","500","763.1700000000419","images/stimuli/spore_stims/simple_05_A_a.gif","images/stimuli/spore_stims/simple_16_A_b.gif","self_paced","","8","simple_dissimilar","images/stimuli/spore_stims/simple_16_A_b.gif","","","","",""
"","4893.054999999993","survey-multi-choice","111","382918","0.0-26.0","SS1619740338605","math_question","","","","","","","","","","","","{""Q0"":""9""}","[0]","9","",""
"","null","html-keyboard-response","112","383867","0.0-27.0-0.0","SS1619740338605","","","null","","","","","","<p><img src= images/blank.png width =""600"" height = ""600"" style=""position:fixed;top:50%; left:50%; transform: translate(-50%, -50%); border:5px solid black"">","","","","","","","",""
"","11434.659999999916","sequential-stimulus-presentation-old","113","410309","0.0-27.0-1.0","SS1619740338605","trial","","40","500","11934.659999999916","images/stimuli/spore_stims/complex_11_A_b.gif","images/stimuli/spore_stims/complex_02_A_a.gif","forced_long","","9","complex_dissimilar","images/stimuli/spore_stims/complex_02_A_a.gif","","","","",""
"","null","html-keyboard-response","114","411555","0.0-27.0-0.1","SS1619740338605","","","null","","","","","","<p><img src= images/blank.png width =""600"" height = ""600"" style=""position:fixed;top:50%; left:50%; transform: translate(-50%, -50%); border:5px solid black"">","","","","","","","",""
"","566.4550000000163","sequential-stimulus-presentation-old","115","412629","0.0-27.0-1.1","SS1619740338605","trial","","40","500","1066.4550000000163","images/stimuli/spore_stims/complex_11_A_b.gif","images/stimuli/spore_stims/complex_02_A_a.gif","forced_long","","9","complex_dissimilar","images/stimuli/spore_stims/complex_02_A_a.gif","","","","",""
"","null","html-keyboard-response","116","413448","0.0-27.0-0.2","SS1619740338605","","","null","","","","","","<p><img src= images/blank.png width =""600"" height = ""600"" style=""position:fixed;top:50%; left:50%; transform: translate(-50%, -50%); border:5px solid black"">","","","","","","","",""
"","1056.5050000000047","sequential-stimulus-presentation-old","117","415010","0.0-27.0-1.2","SS1619740338605","trial","","40","500","1556.5050000000047","images/stimuli/spore_stims/complex_11_A_b.gif","images/stimuli/spore_stims/complex_02_A_a.gif","forced_long","","9","complex_dissimilar","images/stimuli/spore_stims/complex_11_A_b.gif","","","","",""
"","null","html-keyboard-response","118","415863","0.0-27.0-0.3","SS1619740338605","","","null","","","","","","<p><img src= images/blank.png width =""600"" height = ""600"" style=""position:fixed;top:50%; left:50%; transform: translate(-50%, -50%); border:5px solid black"">","","","","","","","",""
"","4423.755000000063","sequential-stimulus-presentation-old","119","420793","0.0-27.0-1.3","SS1619740338605","trial","","40","500","4923.755000000063","images/stimuli/spore_stims/complex_11_A_b.gif","images/stimuli/spore_stims/complex_02_A_a.gif","forced_long","","9","complex_dissimilar","images/stimuli/spore_stims/complex_02_A_a.gif","","","","",""
"","null","html-keyboard-response","120","421940","0.0-27.0-0.4","SS1619740338605","","","null","","","","","","<p><img src= images/blank.png width =""600"" height = ""600"" style=""position:fixed;top:50%; left:50%; transform: translate(-50%, -50%); border:5px solid black"">","","","","","","","",""
"","816.2949999999837","sequential-stimulus-presentation-old","121","423263","0.0-27.0-1.4","SS1619740338605","trial","","40","500","1316.2949999999837","images/stimuli/spore_stims/complex_11_A_b.gif","images/stimuli/spore_stims/complex_02_A_a.gif","forced_long","","9","complex_dissimilar","images/stimuli/spore_stims/complex_02_A_a.gif","","","","",""
"","null","html-keyboard-response","122","424533","0.0-27.0-0.5","SS1619740338605","","","null","","","","","","<p><img src= images/blank.png width =""600"" height = ""600"" style=""position:fixed;top:50%; left:50%; transform: translate(-50%, -50%); border:5px solid black"">","","","","","","","",""
"","1620.740000000049","sequential-stimulus-presentation-old","123","426661","0.0-27.0-1.5","SS1619740338605","trial","","40","500","2120.740000000049","images/stimuli/spore_stims/complex_11_A_b.gif","images/stimuli/spore_stims/complex_02_A_a.gif","forced_long","","9","complex_dissimilar","images/stimuli/spore_stims/complex_11_A_b.gif","","","","",""
"","3397.500000000058","survey-multi-choice","124","430063","0.0-28.0","SS1619740338605","math_question","","","","","","","","","","","","{""Q0"":""11""}","[0]","11","",""
"","null","html-keyboard-response","125","431131","0.0-29.0-0.0","SS1619740338605","","","null","","","","","","<p><img src= images/blank.png width =""600"" height = ""600"" style=""position:fixed;top:50%; left:50%; transform: translate(-50%, -50%); border:5px solid black"">","","","","","","","",""
"","14150.929999999993","sequential-stimulus-presentation-old","126","445787","0.0-29.0-1.0","SS1619740338605","trial","","40","500","14650.929999999993","images/stimuli/spore_stims/simple_05_A_b.gif","images/stimuli/spore_stims/simple_07_A_a.gif","forced_short","","10","simple_dissimilar","images/stimuli/spore_stims/simple_07_A_a.gif","","","","",""
"","null","html-keyboard-response","127","446661","0.0-29.0-0.1","SS1619740338605","","","null","","","","","","<p><img src= images/blank.png width =""600"" height = ""600"" style=""position:fixed;top:50%; left:50%; transform: translate(-50%, -50%); border:5px solid black"">","","","","","","","",""
"","436.49500000005355","sequential-stimulus-presentation-old","128","447602","0.0-29.0-1.1","SS1619740338605","trial","","40","500","936.4950000000536","images/stimuli/spore_stims/simple_05_A_b.gif","images/stimuli/spore_stims/simple_07_A_a.gif","forced_short","","10","simple_dissimilar","images/stimuli/spore_stims/simple_07_A_a.gif","","","","",""
"","null","html-keyboard-response","129","448528","0.0-29.0-0.2","SS1619740338605","","","null","","","","","","<p><img src= images/blank.png width =""600"" height = ""600"" style=""position:fixed;top:50%; left:50%; transform: translate(-50%, -50%); border:5px solid black"">","","","","","","","",""
"","166.99500000005355","sequential-stimulus-presentation-old","130","449203","0.0-29.0-1.2","SS1619740338605","trial","","40","500","666.9950000000536","images/stimuli/spore_stims/simple_05_A_b.gif","images/stimuli/spore_stims/simple_07_A_a.gif","forced_short","","10","simple_dissimilar","images/stimuli/spore_stims/simple_07_A_a.gif","","","","",""
"","null","html-keyboard-response","131","450422","0.0-29.0-0.3","SS1619740338605","","","null","","","","","","<p><img src= images/blank.png width =""600"" height = ""600"" style=""position:fixed;top:50%; left:50%; transform: translate(-50%, -50%); border:5px solid black"">","","","","","","","",""
"","1070.7200000000303","sequential-stimulus-presentation-old","132","451998","0.0-29.0-1.3","SS1619740338605","trial","","40","500","1570.7200000000303","images/stimuli/spore_stims/simple_05_A_b.gif","images/stimuli/spore_stims/simple_07_A_a.gif","forced_short","","10","simple_dissimilar","images/stimuli/spore_stims/simple_07_A_a.gif","","","","",""
"","null","html-keyboard-response","133","453103","0.0-29.0-0.4","SS1619740338605","","","null","","","","","","<p><img src= images/blank.png width =""600"" height = ""600"" style=""position:fixed;top:50%; left:50%; transform: translate(-50%, -50%); border:5px solid black"">","","","","","","","",""
"","378.55999999993946","sequential-stimulus-presentation-old","134","453987","0.0-29.0-1.4","SS1619740338605","trial","","40","500","878.5599999999395","images/stimuli/spore_stims/simple_05_A_b.gif","images/stimuli/spore_stims/simple_07_A_a.gif","forced_short","","10","simple_dissimilar","images/stimuli/spore_stims/simple_05_A_b.gif","","","","",""
"","null","html-keyboard-response","135","454967","0.0-29.0-0.5","SS1619740338605","","","null","","","","","","<p><img src= images/blank.png width =""600"" height = ""600"" style=""position:fixed;top:50%; left:50%; transform: translate(-50%, -50%); border:5px solid black"">","","","","","","","",""
"","1052.149999999965","sequential-stimulus-presentation-old","136","456525","0.0-29.0-1.5","SS1619740338605","trial","","40","500","1552.149999999965","images/stimuli/spore_stims/simple_05_A_b.gif","images/stimuli/spore_stims/simple_07_A_a.gif","forced_short","","10","simple_dissimilar","images/stimuli/spore_stims/simple_05_A_b.gif","","","","",""
"","3805.4799999999814","survey-multi-choice","137","460335","0.0-30.0","SS1619740338605","math_question","","","","","","","","","","","","{""Q0"":""8""}","[0]","8","",""
"","null","html-keyboard-response","138","461422","0.0-31.0-0.0","SS1619740338605","","","null","","","","","","<p><img src= images/blank.png width =""600"" height = ""600"" style=""position:fixed;top:50%; left:50%; transform: translate(-50%, -50%); border:5px solid black"">","","","","","","","",""
"","1086.5750000000698","sequential-stimulus-presentation-old","139","463023","0.0-31.0-1.0","SS1619740338605","trial","","40","500","1586.5750000000698","images/stimuli/spore_stims/simple_11_A_a.gif","images/stimuli/spore_stims/simple_04_A_b.gif","forced_short","","11","simple_dissimilar","images/stimuli/spore_stims/simple_04_A_b.gif","","","","",""
"","null","html-keyboard-response","140","463950","0.0-31.0-0.1","SS1619740338605","","","null","","","","","","<p><img src= images/blank.png width =""600"" height = ""600"" style=""position:fixed;top:50%; left:50%; transform: translate(-50%, -50%); border:5px solid black"">","","","","","","","",""
"","777.2550000001211","sequential-stimulus-presentation-old","141","465234","0.0-31.0-1.1","SS1619740338605","trial","","40","500","1277.255000000121","images/stimuli/spore_stims/simple_11_A_a.gif","images/stimuli/spore_stims/simple_04_A_b.gif","forced_short","","11","simple_dissimilar","images/stimuli/spore_stims/simple_04_A_b.gif","","","","",""
"","null","html-keyboard-response","142","466300","0.0-31.0-0.2","SS1619740338605","","","null","","","","","","<p><img src= images/blank.png width =""600"" height = ""600"" style=""position:fixed;top:50%; left:50%; transform: translate(-50%, -50%); border:5px solid black"">","","","","","","","",""
"","435.0200000000186","sequential-stimulus-presentation-old","143","467252","0.0-31.0-1.2","SS1619740338605","trial","","40","500","935.0200000000186","images/stimuli/spore_stims/simple_11_A_a.gif","images/stimuli/spore_stims/simple_04_A_b.gif","forced_short","","11","simple_dissimilar","images/stimuli/spore_stims/simple_04_A_b.gif","","","","",""
"","null","html-keyboard-response","144","468391","0.0-31.0-0.3","SS1619740338605","","","null","","","","","","<p><img src= images/blank.png width =""600"" height = ""600"" style=""position:fixed;top:50%; left:50%; transform: translate(-50%, -50%); border:5px solid black"">","","","","","","","",""
"","582.7200000000303","sequential-stimulus-presentation-old","145","469478","0.0-31.0-1.3","SS1619740338605","trial","","40","500","1082.7200000000303","images/stimuli/spore_stims/simple_11_A_a.gif","images/stimuli/spore_stims/simple_04_A_b.gif","forced_short","","11","simple_dissimilar","images/stimuli/spore_stims/simple_11_A_a.gif","","","","",""
"","null","html-keyboard-response","146","470451","0.0-31.0-0.4","SS1619740338605","","","null","","","","","","<p><img src= images/blank.png width =""600"" height = ""600"" style=""position:fixed;top:50%; left:50%; transform: translate(-50%, -50%); border:5px solid black"">","","","","","","","",""
"","3670.365000000049","sequential-stimulus-presentation-old","147","474628","0.0-31.0-1.4","SS1619740338605","trial","","40","500","4170.365000000049","images/stimuli/spore_stims/simple_11_A_a.gif","images/stimuli/spore_stims/simple_04_A_b.gif","forced_short","","11","simple_dissimilar","images/stimuli/spore_stims/simple_04_A_b.gif","","","","",""
"","null","html-keyboard-response","148","475630","0.0-31.0-0.5","SS1619740338605","","","null","","","","","","<p><img src= images/blank.png width =""600"" height = ""600"" style=""position:fixed;top:50%; left:50%; transform: translate(-50%, -50%); border:5px solid black"">","","","","","","","",""
"","130.8649999999907","sequential-stimulus-presentation-old","149","476270","0.0-31.0-1.5","SS1619740338605","trial","","40","500","630.8649999999907","images/stimuli/spore_stims/simple_11_A_a.gif","images/stimuli/spore_stims/simple_04_A_b.gif","forced_short","","11","simple_dissimilar","images/stimuli/spore_stims/simple_11_A_a.gif","","","","",""
"[{""page_index"":0,""viewing_time"":7034.699999999953}]","7035.094999999972","instructions","150","483309","0.0-32.0","SS1619740338605","instructions","","","","","","","","","","","","","","","",""
"","10119.185000000056","survey-likert","151","493433","0.0-33.0","SS1619740338605","similarity_question","","","","","","","","","","","","{""Q0"":4}","[0]","","images/stimuli/spore_stims/simple_20_A_a.gif","images/stimuli/spore_stims/simple_13_A_b.gif"
"","7692.225000000035","survey-likert","152","501133","0.0-34.0","SS1619740338605","similarity_question","","","","","","","","","","","","{""Q0"":5}","[0]","","images/stimuli/spore_stims/simple_06_A_b.gif","images/stimuli/spore_stims/simple_08_A_a.gif"
"","9917.479999999923","survey-likert","153","511059","0.0-35.0","SS1619740338605","similarity_question","","","","","","","","","","","","{""Q0"":2}","[0]","","images/stimuli/spore_stims/complex_02_A_a.gif","images/stimuli/spore_stims/complex_11_A_b.gif"
"","5309.7799999999115","survey-likert","154","516376","0.0-36.0","SS1619740338605","similarity_question","","","","","","","","","","","","{""Q0"":2}","[0]","","images/stimuli/spore_stims/complex_13_A_a.gif","images/stimuli/spore_stims/complex_07_A_b.gif"
"","5614.689999999944","survey-likert","155","521997","0.0-37.0","SS1619740338605","similarity_question","","","","","","","","","","","","{""Q0"":0}","[0]","","images/stimuli/spore_stims/simple_07_A_a.gif","images/stimuli/spore_stims/simple_05_A_b.gif"
"","5771.489999999991","survey-likert","156","527775","0.0-38.0","SS1619740338605","similarity_question","","","","","","","","","","","","{""Q0"":3}","[0]","","images/stimuli/spore_stims/simple_11_A_a.gif","images/stimuli/spore_stims/simple_04_A_b.gif"
"","4489.610000000102","survey-likert","157","532272","0.0-39.0","SS1619740338605","similarity_question","","","","","","","","","","","","{""Q0"":5}","[0]","","images/stimuli/spore_stims/simple_14_A_a.gif","images/stimuli/spore_stims/simple_11_A_b.gif"
"","4238.285000000033","survey-likert","158","536517","0.0-40.0","SS1619740338605","similarity_question","","","","","","","","","","","","{""Q0"":2}","[0]","","images/stimuli/spore_stims/complex_03_A_a.gif","images/stimuli/spore_stims/complex_02_A_b.gif"
"","6739.659999999916","survey-likert","159","543262","0.0-41.0","SS1619740338605","similarity_question","","","","","","","","","","","","{""Q0"":2}","[0]","","images/stimuli/spore_stims/simple_05_A_a.gif","images/stimuli/spore_stims/simple_16_A_b.gif"
"","4938.885000000009","survey-likert","160","548208","0.0-42.0","SS1619740338605","similarity_question","","","","","","","","","","","","{""Q0"":1}","[0]","","images/stimuli/spore_stims/complex_16_A_b.gif","images/stimuli/spore_stims/complex_14_A_a.gif"
"","6577.339999999967","survey-likert","161","554792","0.0-43.0","SS1619740338605","similarity_question","","","","","","","","","","","","{""Q0"":3}","[0]","","images/stimuli/spore_stims/complex_20_A_b.gif","images/stimuli/spore_stims/complex_06_A_a.gif"
"","5372.285000000033","survey-likert","162","560171","0.0-44.0","SS1619740338605","similarity_question","","","","","","","","","","","","{""Q0"":1}","[0]","","images/stimuli/spore_stims/complex_05_A_a.gif","images/stimuli/spore_stims/complex_03_A_b.gif"
"[{""page_index"":0,""viewing_time"":4444.025000000023}]","4444.405000000028","instructions","163","564620","0.0-45.0","SS1619740338605","instructions","","","","","","","","","","","","","","","",""
"","8770.839999999967","survey-likert","164","573397","0.0-46.0","SS1619740338605","","","","","","","","","images/stimuli/spore_stims/simple_05_A_a.gif","","","","{""Q0"":0}","[0]","","",""
"","3602.509999999893","survey-likert","165","577007","0.0-47.0","SS1619740338605","","","","","","","","","images/stimuli/spore_stims/simple_11_A_b.gif","","","","{""Q0"":1}","[0]","","",""
"","3532.0100000000093","survey-likert","166","580545","0.0-48.0","SS1619740338605","","","","","","","","","images/stimuli/spore_stims/simple_06_A_b.gif","","","","{""Q0"":0}","[0]","","",""
"","4701.635000000009","survey-likert","167","585253","0.0-49.0","SS1619740338605","","","","","","","","","images/stimuli/spore_stims/simple_07_A_a.gif","","","","{""Q0"":1}","[0]","","",""
"","3657.2299999999814","survey-likert","168","588915","0.0-50.0","SS1619740338605","","","","","","","","","images/stimuli/spore_stims/complex_03_A_b.gif","","","","{""Q0"":4}","[0]","","",""
"","3764.0250000000233","survey-likert","169","592687","0.0-51.0","SS1619740338605","","","","","","","","","images/stimuli/spore_stims/complex_14_A_a.gif","","","","{""Q0"":5}","[0]","","",""
"","3099.2349999998696","survey-likert","170","595794","0.0-52.0","SS1619740338605","","","","","","","","","images/stimuli/spore_stims/complex_03_A_a.gif","","","","{""Q0"":4}","[0]","","",""
"","6280.140000000014","survey-likert","171","602080","0.0-53.0","SS1619740338605","","","","","","","","","images/stimuli/spore_stims/complex_13_A_a.gif","","","","{""Q0"":5}","[0]","","",""
"","4173.850000000093","survey-likert","172","606260","0.0-54.0","SS1619740338605","","","","","","","","","images/stimuli/spore_stims/simple_13_A_b.gif","","","","{""Q0"":0}","[0]","","",""
"","3320.92499999993","survey-likert","173","609587","0.0-55.0","SS1619740338605","","","","","","","","","images/stimuli/spore_stims/complex_06_A_a.gif","","","","{""Q0"":5}","[0]","","",""
"","3383.6350000000093","survey-likert","174","612977","0.0-56.0","SS1619740338605","","","","","","","","","images/stimuli/spore_stims/simple_11_A_a.gif","","","","{""Q0"":1}","[0]","","",""
"","4698.735000000102","survey-likert","175","617683","0.0-57.0","SS1619740338605","","","","","","","","","images/stimuli/spore_stims/complex_02_A_a.gif","","","","{""Q0"":5}","[0]","","",""
"[{""page_index"":0,""viewing_time"":2662.0949999998556}]","2662.3899999998976","instructions","176","620352","0.0-58.0","SS1619740338605","instructions","","","","","","","","","","","","","","","",""
"","3065.7149999999674","demog-age","177","623427","0.0-59.0","SS1619740338605","","","","","","","","","","","","","{""age"":""38""}","","","",""
"","7195.1549999999115","demog-ethnic-US","178","630634","0.0-60.0","SS1619740338605","","","","","","","","","","","","","{""ethnicity"":[""White""]}","[0]","","",""
"","7208.2799999999115","demog-gender-and-education","179","637849","0.0-61.0","SS1619740338605","","","","","","","","","","","","","{""gender"":""Female"",""education"":""Bachelor's Degree""}","[0,1]","","",""
"","9349.070000000065","survey-text","180","647207","0.0-62.0","SS1619740338605","feedback","","","","","","","","","","","","{""Q0"":""no""}","","","",""
"[{""page_index"":0,""viewing_time"":2084.4499999999534}]","2085.569999999949","instructions","181","649299","0.0-63.0","SS1619740338605","instructions","","","","","","","","","","","","","","","",""
