"view_history","rt","trial_type","trial_index","time_elapsed","internal_node_id","subject","stimulus_type","trial_stimulus","key_press","minimum_viewing_duration","trial_looking_time","block_deviant","block_background","exposure_type","stimulus","block_number","block_type","stimulus_displayed","responses","question_order","math_correct_answer","stimulus_left","stimulus_right"
"[{""page_index"":0,""viewing_time"":120468.24999999808}]","120468.53499999997","instructions","0","120469","0.0-0.0","SS1619740037035","","","","","","","","","","","","","","","","",""
"[{""page_index"":0,""viewing_time"":12239.470000000438},{""page_index"":1,""viewing_time"":4570.855000001757}]","16810.570000001462","instructions","1","139281","0.0-1.0","SS1619740037035","instructions","","","","","","","","","","","","","","","",""
"","4858.045000000857","sequential-stimulus-presentation-old","2","144642","0.0-2.0","SS1619740037035","","","40","500","5358.045000000857","null","null","self_paced","","","","","","","","",""
"","2779.370000000199","sequential-stimulus-presentation-old","3","147923","0.0-3.0","SS1619740037035","","","40","500","3279.370000000199","null","null","self_paced","","","","","","","","",""
"[{""page_index"":0,""viewing_time"":15693.070000001171}]","15693.279999999504","instructions","4","163617","0.0-4.0","SS1619740037035","instructions","","","","","","","","","","","","","","","",""
"","2381.9600000060746","sequential-stimulus-presentation-old","5","181002","0.0-5.0","SS1619740037035","","","40","500","2881.9600000060746","null","null","forced_long","","","","","","","","",""
"","1867.0400000046357","sequential-stimulus-presentation-old","6","183378","0.0-6.0","SS1619740037035","","","40","500","2367.0400000046357","null","null","forced_long","","","","","","","","",""
"[{""page_index"":0,""viewing_time"":2553.51000000519}]","2553.74500000471","instructions","7","185932","0.0-7.0","SS1619740037035","instructions","","","","","","","","","","","","","","","",""
"[{""page_index"":0,""viewing_time"":7944.970000004105},{""page_index"":1,""viewing_time"":9094.964999996591},{""page_index"":2,""viewing_time"":5897.990000004938},{""page_index"":3,""viewing_time"":1456.1249999969732},{""page_index"":4,""viewing_time"":798.8400000031106}]","25193.080000004556","instructions","8","211126","0.0-8.0","SS1619740037035","instructions","","","","","","","","","","","","","","","",""
"","null","html-keyboard-response","9","212040","0.0-9.0-0.0","SS1619740037035","","","null","","","","","","<p><img src= images/blank.png width =""600"" height = ""600"" style=""position:fixed;top:50%; left:50%; transform: translate(-50%, -50%); border:5px solid black"">","","","","","","","",""
"","1407.91999999783","sequential-stimulus-presentation-old","10","228452","0.0-9.0-1.0","SS1619740037035","trial","","40","500","1907.91999999783","images/stimuli/spore_stims/complex_18_A_a.gif","images/stimuli/spore_stims/complex_12_A_b.gif","forced_long","","0","complex_dissimilar","images/stimuli/spore_stims/complex_12_A_b.gif","","","","",""
"","null","html-keyboard-response","11","229402","0.0-9.0-0.1","SS1619740037035","","","null","","","","","","<p><img src= images/blank.png width =""600"" height = ""600"" style=""position:fixed;top:50%; left:50%; transform: translate(-50%, -50%); border:5px solid black"">","","","","","","","",""
"","355.5599999963306","sequential-stimulus-presentation-old","12","230274","0.0-9.0-1.1","SS1619740037035","trial","","40","500","855.5599999963306","images/stimuli/spore_stims/complex_18_A_a.gif","images/stimuli/spore_stims/complex_12_A_b.gif","forced_long","","0","complex_dissimilar","images/stimuli/spore_stims/complex_12_A_b.gif","","","","",""
"","null","html-keyboard-response","13","231343","0.0-9.0-0.2","SS1619740037035","","","null","","","","","","<p><img src= images/blank.png width =""600"" height = ""600"" style=""position:fixed;top:50%; left:50%; transform: translate(-50%, -50%); border:5px solid black"">","","","","","","","",""
"","1963.9099999985774","sequential-stimulus-presentation-old","14","233810","0.0-9.0-1.2","SS1619740037035","trial","","40","500","2463.9099999985774","images/stimuli/spore_stims/complex_18_A_a.gif","images/stimuli/spore_stims/complex_12_A_b.gif","forced_long","","0","complex_dissimilar","images/stimuli/spore_stims/complex_18_A_a.gif","","","","",""
"","null","html-keyboard-response","15","234931","0.0-9.0-0.3","SS1619740037035","","","null","","","","","","<p><img src= images/blank.png width =""600"" height = ""600"" style=""position:fixed;top:50%; left:50%; transform: translate(-50%, -50%); border:5px solid black"">","","","","","","","",""
"","1176.7299999992247","sequential-stimulus-presentation-old","16","236610","0.0-9.0-1.3","SS1619740037035","trial","","40","500","1676.7299999992247","images/stimuli/spore_stims/complex_18_A_a.gif","images/stimuli/spore_stims/complex_12_A_b.gif","forced_long","","0","complex_dissimilar","images/stimuli/spore_stims/complex_12_A_b.gif","","","","",""
"","null","html-keyboard-response","17","237670","0.0-9.0-0.4","SS1619740037035","","","null","","","","","","<p><img src= images/blank.png width =""600"" height = ""600"" style=""position:fixed;top:50%; left:50%; transform: translate(-50%, -50%); border:5px solid black"">","","","","","","","",""
"","1758.1599999975879","sequential-stimulus-presentation-old","18","239939","0.0-9.0-1.4","SS1619740037035","trial","","40","500","2258.159999997588","images/stimuli/spore_stims/complex_18_A_a.gif","images/stimuli/spore_stims/complex_12_A_b.gif","forced_long","","0","complex_dissimilar","images/stimuli/spore_stims/complex_18_A_a.gif","","","","",""
"","null","html-keyboard-response","19","240891","0.0-9.0-0.5","SS1619740037035","","","null","","","","","","<p><img src= images/blank.png width =""600"" height = ""600"" style=""position:fixed;top:50%; left:50%; transform: translate(-50%, -50%); border:5px solid black"">","","","","","","","",""
"","1967.4599999998463","sequential-stimulus-presentation-old","20","243361","0.0-9.0-1.5","SS1619740037035","trial","","40","500","2467.4599999998463","images/stimuli/spore_stims/complex_18_A_a.gif","images/stimuli/spore_stims/complex_12_A_b.gif","forced_long","","0","complex_dissimilar","images/stimuli/spore_stims/complex_12_A_b.gif","","","","",""
"","4633.220000003348","survey-multi-choice","21","247997","0.0-10.0","SS1619740037035","math_question","","","","","","","","","","","","{""Q0"":""11""}","[0]","11","",""
"","null","html-keyboard-response","22","248801","0.0-11.0-0.0","SS1619740037035","","","null","","","","","","<p><img src= images/blank.png width =""600"" height = ""600"" style=""position:fixed;top:50%; left:50%; transform: translate(-50%, -50%); border:5px solid black"">","","","","","","","",""
"","2444.0150000009453","sequential-stimulus-presentation-old","23","251748","0.0-11.0-1.0","SS1619740037035","trial","","40","500","2944.0150000009453","images/stimuli/spore_stims/complex_09_A_a.gif","images/stimuli/spore_stims/complex_13_A_b.gif","forced_short","","1","complex_dissimilar","images/stimuli/spore_stims/complex_13_A_b.gif","","","","",""
"","null","html-keyboard-response","24","252739","0.0-11.0-0.1","SS1619740037035","","","null","","","","","","<p><img src= images/blank.png width =""600"" height = ""600"" style=""position:fixed;top:50%; left:50%; transform: translate(-50%, -50%); border:5px solid black"">","","","","","","","",""
"","776.6399999964051","sequential-stimulus-presentation-old","25","254018","0.0-11.0-1.1","SS1619740037035","trial","","40","500","1276.639999996405","images/stimuli/spore_stims/complex_09_A_a.gif","images/stimuli/spore_stims/complex_13_A_b.gif","forced_short","","1","complex_dissimilar","images/stimuli/spore_stims/complex_13_A_b.gif","","","","",""
"","null","html-keyboard-response","26","254968","0.0-11.0-0.2","SS1619740037035","","","null","","","","","","<p><img src= images/blank.png width =""600"" height = ""600"" style=""position:fixed;top:50%; left:50%; transform: translate(-50%, -50%); border:5px solid black"">","","","","","","","",""
"","2370.0099999986996","sequential-stimulus-presentation-old","27","257841","0.0-11.0-1.2","SS1619740037035","trial","","40","500","2870.0099999986996","images/stimuli/spore_stims/complex_09_A_a.gif","images/stimuli/spore_stims/complex_13_A_b.gif","forced_short","","1","complex_dissimilar","images/stimuli/spore_stims/complex_13_A_b.gif","","","","",""
"","null","html-keyboard-response","28","259135","0.0-11.0-0.3","SS1619740037035","","","null","","","","","","<p><img src= images/blank.png width =""600"" height = ""600"" style=""position:fixed;top:50%; left:50%; transform: translate(-50%, -50%); border:5px solid black"">","","","","","","","",""
"","2701.5049999972107","sequential-stimulus-presentation-old","29","262339","0.0-11.0-1.3","SS1619740037035","trial","","40","500","3201.5049999972107","images/stimuli/spore_stims/complex_09_A_a.gif","images/stimuli/spore_stims/complex_13_A_b.gif","forced_short","","1","complex_dissimilar","images/stimuli/spore_stims/complex_13_A_b.gif","","","","",""
"","null","html-keyboard-response","30","263203","0.0-11.0-0.4","SS1619740037035","","","null","","","","","","<p><img src= images/blank.png width =""600"" height = ""600"" style=""position:fixed;top:50%; left:50%; transform: translate(-50%, -50%); border:5px solid black"">","","","","","","","",""
"","2247.7150000049733","sequential-stimulus-presentation-old","31","265953","0.0-11.0-1.4","SS1619740037035","trial","","40","500","2747.7150000049733","images/stimuli/spore_stims/complex_09_A_a.gif","images/stimuli/spore_stims/complex_13_A_b.gif","forced_short","","1","complex_dissimilar","images/stimuli/spore_stims/complex_09_A_a.gif","","","","",""
"","4483.205000004149","survey-multi-choice","32","270438","0.0-12.0","SS1619740037035","math_question","","","","","","","","","","","","{""Q0"":""12""}","[0]","12","",""
"","null","html-keyboard-response","33","271710","0.0-13.0-0.0","SS1619740037035","","","null","","","","","","<p><img src= images/blank.png width =""600"" height = ""600"" style=""position:fixed;top:50%; left:50%; transform: translate(-50%, -50%); border:5px solid black"">","","","","","","","",""
"","3764.84000000346","sequential-stimulus-presentation-old","34","275987","0.0-13.0-1.0","SS1619740037035","trial","","40","500","4264.84000000346","images/stimuli/spore_stims/complex_19_A_a.gif","images/stimuli/spore_stims/complex_02_A_b.gif","self_paced","","2","complex_dissimilar","images/stimuli/spore_stims/complex_02_A_b.gif","","","","",""
"","null","html-keyboard-response","35","277005","0.0-13.0-0.1","SS1619740037035","","","null","","","","","","<p><img src= images/blank.png width =""600"" height = ""600"" style=""position:fixed;top:50%; left:50%; transform: translate(-50%, -50%); border:5px solid black"">","","","","","","","",""
"","605.4199999999255","sequential-stimulus-presentation-old","36","278114","0.0-13.0-1.1","SS1619740037035","trial","","40","500","1105.4199999999255","images/stimuli/spore_stims/complex_19_A_a.gif","images/stimuli/spore_stims/complex_02_A_b.gif","self_paced","","2","complex_dissimilar","images/stimuli/spore_stims/complex_19_A_a.gif","","","","",""
"","null","html-keyboard-response","37","278943","0.0-13.0-0.2","SS1619740037035","","","null","","","","","","<p><img src= images/blank.png width =""600"" height = ""600"" style=""position:fixed;top:50%; left:50%; transform: translate(-50%, -50%); border:5px solid black"">","","","","","","","",""
"","476.12500000104774","sequential-stimulus-presentation-old","38","279921","0.0-13.0-1.2","SS1619740037035","trial","","40","500","976.1250000010477","images/stimuli/spore_stims/complex_19_A_a.gif","images/stimuli/spore_stims/complex_02_A_b.gif","self_paced","","2","complex_dissimilar","images/stimuli/spore_stims/complex_02_A_b.gif","","","","",""
"","null","html-keyboard-response","39","281003","0.0-13.0-0.3","SS1619740037035","","","null","","","","","","<p><img src= images/blank.png width =""600"" height = ""600"" style=""position:fixed;top:50%; left:50%; transform: translate(-50%, -50%); border:5px solid black"">","","","","","","","",""
"","1199.3700000020908","sequential-stimulus-presentation-old","40","282705","0.0-13.0-1.3","SS1619740037035","trial","","40","500","1699.3700000020908","images/stimuli/spore_stims/complex_19_A_a.gif","images/stimuli/spore_stims/complex_02_A_b.gif","self_paced","","2","complex_dissimilar","images/stimuli/spore_stims/complex_02_A_b.gif","","","","",""
"","null","html-keyboard-response","41","283638","0.0-13.0-0.4","SS1619740037035","","","null","","","","","","<p><img src= images/blank.png width =""600"" height = ""600"" style=""position:fixed;top:50%; left:50%; transform: translate(-50%, -50%); border:5px solid black"">","","","","","","","",""
"","581.3699999998789","sequential-stimulus-presentation-old","42","284721","0.0-13.0-1.4","SS1619740037035","trial","","40","500","1081.369999999879","images/stimuli/spore_stims/complex_19_A_a.gif","images/stimuli/spore_stims/complex_02_A_b.gif","self_paced","","2","complex_dissimilar","images/stimuli/spore_stims/complex_19_A_a.gif","","","","",""
"","null","html-keyboard-response","43","285649","0.0-13.0-0.5","SS1619740037035","","","null","","","","","","<p><img src= images/blank.png width =""600"" height = ""600"" style=""position:fixed;top:50%; left:50%; transform: translate(-50%, -50%); border:5px solid black"">","","","","","","","",""
"","404.34999999706633","sequential-stimulus-presentation-old","44","286555","0.0-13.0-1.5","SS1619740037035","trial","","40","500","904.3499999970663","images/stimuli/spore_stims/complex_19_A_a.gif","images/stimuli/spore_stims/complex_02_A_b.gif","self_paced","","2","complex_dissimilar","images/stimuli/spore_stims/complex_02_A_b.gif","","","","",""
"","2754.369999995106","survey-multi-choice","45","289311","0.0-14.0","SS1619740037035","math_question","","","","","","","","","","","","{""Q0"":""11""}","[0]","11","",""
"","null","html-keyboard-response","46","290310","0.0-15.0-0.0","SS1619740037035","","","null","","","","","","<p><img src= images/blank.png width =""600"" height = ""600"" style=""position:fixed;top:50%; left:50%; transform: translate(-50%, -50%); border:5px solid black"">","","","","","","","",""
"","1349.6349999987287","sequential-stimulus-presentation-old","47","292162","0.0-15.0-1.0","SS1619740037035","trial","","40","500","1849.6349999987287","images/stimuli/spore_stims/complex_02_A_a.gif","images/stimuli/spore_stims/complex_10_A_b.gif","self_paced","","3","complex_dissimilar","images/stimuli/spore_stims/complex_10_A_b.gif","","","","",""
"","null","html-keyboard-response","48","293374","0.0-15.0-0.1","SS1619740037035","","","null","","","","","","<p><img src= images/blank.png width =""600"" height = ""600"" style=""position:fixed;top:50%; left:50%; transform: translate(-50%, -50%); border:5px solid black"">","","","","","","","",""
"","124.5649999983143","sequential-stimulus-presentation-old","49","294002","0.0-15.0-1.1","SS1619740037035","trial","","40","500","624.5649999983143","images/stimuli/spore_stims/complex_02_A_a.gif","images/stimuli/spore_stims/complex_10_A_b.gif","self_paced","","3","complex_dissimilar","images/stimuli/spore_stims/complex_10_A_b.gif","","","","",""
"","null","html-keyboard-response","50","294988","0.0-15.0-0.2","SS1619740037035","","","null","","","","","","<p><img src= images/blank.png width =""600"" height = ""600"" style=""position:fixed;top:50%; left:50%; transform: translate(-50%, -50%); border:5px solid black"">","","","","","","","",""
"","5297.050000001094","sequential-stimulus-presentation-old","51","301059","0.0-15.0-1.2","SS1619740037035","trial","","40","500","5797.050000001094","images/stimuli/spore_stims/complex_02_A_a.gif","images/stimuli/spore_stims/complex_10_A_b.gif","self_paced","","3","complex_dissimilar","images/stimuli/spore_stims/complex_10_A_b.gif","","","","",""
"","null","html-keyboard-response","52","302097","0.0-15.0-0.3","SS1619740037035","","","null","","","","","","<p><img src= images/blank.png width =""600"" height = ""600"" style=""position:fixed;top:50%; left:50%; transform: translate(-50%, -50%); border:5px solid black"">","","","","","","","",""
"","1065.7300000020768","sequential-stimulus-presentation-old","53","303665","0.0-15.0-1.3","SS1619740037035","trial","","40","500","1565.7300000020768","images/stimuli/spore_stims/complex_02_A_a.gif","images/stimuli/spore_stims/complex_10_A_b.gif","self_paced","","3","complex_dissimilar","images/stimuli/spore_stims/complex_10_A_b.gif","","","","",""
"","null","html-keyboard-response","54","304736","0.0-15.0-0.4","SS1619740037035","","","null","","","","","","<p><img src= images/blank.png width =""600"" height = ""600"" style=""position:fixed;top:50%; left:50%; transform: translate(-50%, -50%); border:5px solid black"">","","","","","","","",""
"","1331.6200000044191","sequential-stimulus-presentation-old","55","306578","0.0-15.0-1.4","SS1619740037035","trial","","40","500","1831.6200000044191","images/stimuli/spore_stims/complex_02_A_a.gif","images/stimuli/spore_stims/complex_10_A_b.gif","self_paced","","3","complex_dissimilar","images/stimuli/spore_stims/complex_02_A_a.gif","","","","",""
"","null","html-keyboard-response","56","307390","0.0-15.0-0.5","SS1619740037035","","","null","","","","","","<p><img src= images/blank.png width =""600"" height = ""600"" style=""position:fixed;top:50%; left:50%; transform: translate(-50%, -50%); border:5px solid black"">","","","","","","","",""
"","925.8849999968661","sequential-stimulus-presentation-old","57","308818","0.0-15.0-1.5","SS1619740037035","trial","","40","500","1425.884999996866","images/stimuli/spore_stims/complex_02_A_a.gif","images/stimuli/spore_stims/complex_10_A_b.gif","self_paced","","3","complex_dissimilar","images/stimuli/spore_stims/complex_02_A_a.gif","","","","",""
"","2726.6400000007125","survey-multi-choice","58","311546","0.0-16.0","SS1619740037035","math_question","","","","","","","","","","","","{""Q0"":""12""}","[0]","12","",""
"","null","html-keyboard-response","59","312465","0.0-17.0-0.0","SS1619740037035","","","null","","","","","","<p><img src= images/blank.png width =""600"" height = ""600"" style=""position:fixed;top:50%; left:50%; transform: translate(-50%, -50%); border:5px solid black"">","","","","","","","",""
"","1994.4150000009686","sequential-stimulus-presentation-old","60","314961","0.0-17.0-1.0","SS1619740037035","trial","","40","500","2494.4150000009686","images/stimuli/spore_stims/simple_03_A_b.gif","images/stimuli/spore_stims/simple_01_A_a.gif","self_paced","","4","simple_dissimilar","images/stimuli/spore_stims/simple_01_A_a.gif","","","","",""
"","null","html-keyboard-response","61","315971","0.0-17.0-0.1","SS1619740037035","","","null","","","","","","<p><img src= images/blank.png width =""600"" height = ""600"" style=""position:fixed;top:50%; left:50%; transform: translate(-50%, -50%); border:5px solid black"">","","","","","","","",""
"","2662.080000001937","sequential-stimulus-presentation-old","62","319137","0.0-17.0-1.1","SS1619740037035","trial","","40","500","3162.080000001937","images/stimuli/spore_stims/simple_03_A_b.gif","images/stimuli/spore_stims/simple_01_A_a.gif","self_paced","","4","simple_dissimilar","images/stimuli/spore_stims/simple_01_A_a.gif","","","","",""
"","null","html-keyboard-response","63","320362","0.0-17.0-0.2","SS1619740037035","","","null","","","","","","<p><img src= images/blank.png width =""600"" height = ""600"" style=""position:fixed;top:50%; left:50%; transform: translate(-50%, -50%); border:5px solid black"">","","","","","","","",""
"","569.0749999994878","sequential-stimulus-presentation-old","64","321434","0.0-17.0-1.2","SS1619740037035","trial","","40","500","1069.0749999994878","images/stimuli/spore_stims/simple_03_A_b.gif","images/stimuli/spore_stims/simple_01_A_a.gif","self_paced","","4","simple_dissimilar","images/stimuli/spore_stims/simple_01_A_a.gif","","","","",""
"","null","html-keyboard-response","65","322372","0.0-17.0-0.3","SS1619740037035","","","null","","","","","","<p><img src= images/blank.png width =""600"" height = ""600"" style=""position:fixed;top:50%; left:50%; transform: translate(-50%, -50%); border:5px solid black"">","","","","","","","",""
"","6742.669999999693","sequential-stimulus-presentation-old","66","329618","0.0-17.0-1.3","SS1619740037035","trial","","40","500","7242.669999999693","images/stimuli/spore_stims/simple_03_A_b.gif","images/stimuli/spore_stims/simple_01_A_a.gif","self_paced","","4","simple_dissimilar","images/stimuli/spore_stims/simple_03_A_b.gif","","","","",""
"","null","html-keyboard-response","67","330850","0.0-17.0-0.4","SS1619740037035","","","null","","","","","","<p><img src= images/blank.png width =""600"" height = ""600"" style=""position:fixed;top:50%; left:50%; transform: translate(-50%, -50%); border:5px solid black"">","","","","","","","",""
"","10713.91500000027","sequential-stimulus-presentation-old","68","342066","0.0-17.0-1.4","SS1619740037035","trial","","40","500","11213.91500000027","images/stimuli/spore_stims/simple_03_A_b.gif","images/stimuli/spore_stims/simple_01_A_a.gif","self_paced","","4","simple_dissimilar","images/stimuli/spore_stims/simple_03_A_b.gif","","","","",""
"","6226.295000000391","survey-multi-choice","69","348294","0.0-18.0","SS1619740037035","math_question","","","","","","","","","","","","{""Q0"":""7""}","[0]","7","",""
"","null","html-keyboard-response","70","349510","0.0-19.0-0.0","SS1619740037035","","","null","","","","","","<p><img src= images/blank.png width =""600"" height = ""600"" style=""position:fixed;top:50%; left:50%; transform: translate(-50%, -50%); border:5px solid black"">","","","","","","","",""
"","1133.1250000003492","sequential-stimulus-presentation-old","71","351145","0.0-19.0-1.0","SS1619740037035","trial","","40","500","1633.1250000003492","images/stimuli/spore_stims/complex_13_A_a.gif","images/stimuli/spore_stims/complex_18_A_b.gif","forced_short","","5","complex_dissimilar","images/stimuli/spore_stims/complex_18_A_b.gif","","","","",""
"","null","html-keyboard-response","72","352370","0.0-19.0-0.1","SS1619740037035","","","null","","","","","","<p><img src= images/blank.png width =""600"" height = ""600"" style=""position:fixed;top:50%; left:50%; transform: translate(-50%, -50%); border:5px solid black"">","","","","","","","",""
"","1946.0400000025984","sequential-stimulus-presentation-old","73","354819","0.0-19.0-1.1","SS1619740037035","trial","","40","500","2446.0400000025984","images/stimuli/spore_stims/complex_13_A_a.gif","images/stimuli/spore_stims/complex_18_A_b.gif","forced_short","","5","complex_dissimilar","images/stimuli/spore_stims/complex_18_A_b.gif","","","","",""
"","null","html-keyboard-response","74","355999","0.0-19.0-0.2","SS1619740037035","","","null","","","","","","<p><img src= images/blank.png width =""600"" height = ""600"" style=""position:fixed;top:50%; left:50%; transform: translate(-50%, -50%); border:5px solid black"">","","","","","","","",""
"","17436.235000001034","sequential-stimulus-presentation-old","75","373938","0.0-19.0-1.2","SS1619740037035","trial","","40","500","17936.235000001034","images/stimuli/spore_stims/complex_13_A_a.gif","images/stimuli/spore_stims/complex_18_A_b.gif","forced_short","","5","complex_dissimilar","images/stimuli/spore_stims/complex_18_A_b.gif","","","","",""
"","null","html-keyboard-response","76","374909","0.0-19.0-0.3","SS1619740037035","","","null","","","","","","<p><img src= images/blank.png width =""600"" height = ""600"" style=""position:fixed;top:50%; left:50%; transform: translate(-50%, -50%); border:5px solid black"">","","","","","","","",""
"","233.74000000336673","sequential-stimulus-presentation-old","77","375650","0.0-19.0-1.3","SS1619740037035","trial","","40","500","733.7400000033667","images/stimuli/spore_stims/complex_13_A_a.gif","images/stimuli/spore_stims/complex_18_A_b.gif","forced_short","","5","complex_dissimilar","images/stimuli/spore_stims/complex_18_A_b.gif","","","","",""
"","null","html-keyboard-response","78","376887","0.0-19.0-0.4","SS1619740037035","","","null","","","","","","<p><img src= images/blank.png width =""600"" height = ""600"" style=""position:fixed;top:50%; left:50%; transform: translate(-50%, -50%); border:5px solid black"">","","","","","","","",""
"","819.8899999988498","sequential-stimulus-presentation-old","79","378210","0.0-19.0-1.4","SS1619740037035","trial","","40","500","1319.8899999988498","images/stimuli/spore_stims/complex_13_A_a.gif","images/stimuli/spore_stims/complex_18_A_b.gif","forced_short","","5","complex_dissimilar","images/stimuli/spore_stims/complex_18_A_b.gif","","","","",""
"","2498.214999999618","survey-multi-choice","80","380709","0.0-20.0","SS1619740037035","math_question","","","","","","","","","","","","{""Q0"":""7""}","[0]","7","",""
"","null","html-keyboard-response","81","381789","0.0-21.0-0.0","SS1619740037035","","","null","","","","","","<p><img src= images/blank.png width =""600"" height = ""600"" style=""position:fixed;top:50%; left:50%; transform: translate(-50%, -50%); border:5px solid black"">","","","","","","","",""
"","2553.0500000022585","sequential-stimulus-presentation-old","82","399346","0.0-21.0-1.0","SS1619740037035","trial","","40","500","3053.0500000022585","images/stimuli/spore_stims/simple_12_A_b.gif","images/stimuli/spore_stims/simple_05_A_a.gif","forced_long","","6","simple_dissimilar","images/stimuli/spore_stims/simple_05_A_a.gif","","","","",""
"","null","html-keyboard-response","83","400219","0.0-21.0-0.1","SS1619740037035","","","null","","","","","","<p><img src= images/blank.png width =""600"" height = ""600"" style=""position:fixed;top:50%; left:50%; transform: translate(-50%, -50%); border:5px solid black"">","","","","","","","",""
"","111.5700000008801","sequential-stimulus-presentation-old","84","400834","0.0-21.0-1.1","SS1619740037035","trial","","40","500","611.5700000008801","images/stimuli/spore_stims/simple_12_A_b.gif","images/stimuli/spore_stims/simple_05_A_a.gif","forced_long","","6","simple_dissimilar","images/stimuli/spore_stims/simple_05_A_a.gif","","","","",""
"","null","html-keyboard-response","85","402012","0.0-21.0-0.2","SS1619740037035","","","null","","","","","","<p><img src= images/blank.png width =""600"" height = ""600"" style=""position:fixed;top:50%; left:50%; transform: translate(-50%, -50%); border:5px solid black"">","","","","","","","",""
"","430.6300000025658","sequential-stimulus-presentation-old","86","402945","0.0-21.0-1.2","SS1619740037035","trial","","40","500","930.6300000025658","images/stimuli/spore_stims/simple_12_A_b.gif","images/stimuli/spore_stims/simple_05_A_a.gif","forced_long","","6","simple_dissimilar","images/stimuli/spore_stims/simple_05_A_a.gif","","","","",""
"","null","html-keyboard-response","87","403847","0.0-21.0-0.3","SS1619740037035","","","null","","","","","","<p><img src= images/blank.png width =""600"" height = ""600"" style=""position:fixed;top:50%; left:50%; transform: translate(-50%, -50%); border:5px solid black"">","","","","","","","",""
"","275.22500000486616","sequential-stimulus-presentation-old","88","404625","0.0-21.0-1.3","SS1619740037035","trial","","40","500","775.2250000048662","images/stimuli/spore_stims/simple_12_A_b.gif","images/stimuli/spore_stims/simple_05_A_a.gif","forced_long","","6","simple_dissimilar","images/stimuli/spore_stims/simple_05_A_a.gif","","","","",""
"","null","html-keyboard-response","89","405819","0.0-21.0-0.4","SS1619740037035","","","null","","","","","","<p><img src= images/blank.png width =""600"" height = ""600"" style=""position:fixed;top:50%; left:50%; transform: translate(-50%, -50%); border:5px solid black"">","","","","","","","",""
"","1272.1399999937275","sequential-stimulus-presentation-old","90","407594","0.0-21.0-1.4","SS1619740037035","trial","","40","500","1772.1399999937275","images/stimuli/spore_stims/simple_12_A_b.gif","images/stimuli/spore_stims/simple_05_A_a.gif","forced_long","","6","simple_dissimilar","images/stimuli/spore_stims/simple_12_A_b.gif","","","","",""
"","null","html-keyboard-response","91","408590","0.0-21.0-0.5","SS1619740037035","","","null","","","","","","<p><img src= images/blank.png width =""600"" height = ""600"" style=""position:fixed;top:50%; left:50%; transform: translate(-50%, -50%); border:5px solid black"">","","","","","","","",""
"","396.2450000036042","sequential-stimulus-presentation-old","92","409498","0.0-21.0-1.5","SS1619740037035","trial","","40","500","896.2450000036042","images/stimuli/spore_stims/simple_12_A_b.gif","images/stimuli/spore_stims/simple_05_A_a.gif","forced_long","","6","simple_dissimilar","images/stimuli/spore_stims/simple_12_A_b.gif","","","","",""
"","2411.7500000065193","survey-multi-choice","93","411911","0.0-22.0","SS1619740037035","math_question","","","","","","","","","","","","{""Q0"":""6""}","[0]","6","",""
"","null","html-keyboard-response","94","413119","0.0-23.0-0.0","SS1619740037035","","","null","","","","","","<p><img src= images/blank.png width =""600"" height = ""600"" style=""position:fixed;top:50%; left:50%; transform: translate(-50%, -50%); border:5px solid black"">","","","","","","","",""
"","971.4999999996508","sequential-stimulus-presentation-old","95","414593","0.0-23.0-1.0","SS1619740037035","trial","","40","500","1471.4999999996508","images/stimuli/spore_stims/simple_07_A_a.gif","images/stimuli/spore_stims/simple_11_A_b.gif","forced_short","","7","simple_dissimilar","images/stimuli/spore_stims/simple_11_A_b.gif","","","","",""
"","null","html-keyboard-response","96","415684","0.0-23.0-0.1","SS1619740037035","","","null","","","","","","<p><img src= images/blank.png width =""600"" height = ""600"" style=""position:fixed;top:50%; left:50%; transform: translate(-50%, -50%); border:5px solid black"">","","","","","","","",""
"","198.91999999526888","sequential-stimulus-presentation-old","97","416386","0.0-23.0-1.1","SS1619740037035","trial","","40","500","698.9199999952689","images/stimuli/spore_stims/simple_07_A_a.gif","images/stimuli/spore_stims/simple_11_A_b.gif","forced_short","","7","simple_dissimilar","images/stimuli/spore_stims/simple_11_A_b.gif","","","","",""
"","null","html-keyboard-response","98","417610","0.0-23.0-0.2","SS1619740037035","","","null","","","","","","<p><img src= images/blank.png width =""600"" height = ""600"" style=""position:fixed;top:50%; left:50%; transform: translate(-50%, -50%); border:5px solid black"">","","","","","","","",""
"","1456.7949999981793","sequential-stimulus-presentation-old","99","419570","0.0-23.0-1.2","SS1619740037035","trial","","40","500","1956.7949999981793","images/stimuli/spore_stims/simple_07_A_a.gif","images/stimuli/spore_stims/simple_11_A_b.gif","forced_short","","7","simple_dissimilar","images/stimuli/spore_stims/simple_07_A_a.gif","","","","",""
"","null","html-keyboard-response","100","420729","0.0-23.0-0.3","SS1619740037035","","","null","","","","","","<p><img src= images/blank.png width =""600"" height = ""600"" style=""position:fixed;top:50%; left:50%; transform: translate(-50%, -50%); border:5px solid black"">","","","","","","","",""
"","1858.824999995646","sequential-stimulus-presentation-old","101","423090","0.0-23.0-1.3","SS1619740037035","trial","","40","500","2358.824999995646","images/stimuli/spore_stims/simple_07_A_a.gif","images/stimuli/spore_stims/simple_11_A_b.gif","forced_short","","7","simple_dissimilar","images/stimuli/spore_stims/simple_11_A_b.gif","","","","",""
"","null","html-keyboard-response","102","424241","0.0-23.0-0.4","SS1619740037035","","","null","","","","","","<p><img src= images/blank.png width =""600"" height = ""600"" style=""position:fixed;top:50%; left:50%; transform: translate(-50%, -50%); border:5px solid black"">","","","","","","","",""
"","393.01000000699423","sequential-stimulus-presentation-old","103","425137","0.0-23.0-1.4","SS1619740037035","trial","","40","500","893.0100000069942","images/stimuli/spore_stims/simple_07_A_a.gif","images/stimuli/spore_stims/simple_11_A_b.gif","forced_short","","7","simple_dissimilar","images/stimuli/spore_stims/simple_11_A_b.gif","","","","",""
"","null","html-keyboard-response","104","426147","0.0-23.0-0.5","SS1619740037035","","","null","","","","","","<p><img src= images/blank.png width =""600"" height = ""600"" style=""position:fixed;top:50%; left:50%; transform: translate(-50%, -50%); border:5px solid black"">","","","","","","","",""
"","519.5650000022724","sequential-stimulus-presentation-old","105","427169","0.0-23.0-1.5","SS1619740037035","trial","","40","500","1019.5650000022724","images/stimuli/spore_stims/simple_07_A_a.gif","images/stimuli/spore_stims/simple_11_A_b.gif","forced_short","","7","simple_dissimilar","images/stimuli/spore_stims/simple_11_A_b.gif","","","","",""
"","2487.560000001453","survey-multi-choice","106","429659","0.0-24.0","SS1619740037035","math_question","","","","","","","","","","","","{""Q0"":""8""}","[0]","8","",""
"","null","html-keyboard-response","107","430939","0.0-25.0-0.0","SS1619740037035","","","null","","","","","","<p><img src= images/blank.png width =""600"" height = ""600"" style=""position:fixed;top:50%; left:50%; transform: translate(-50%, -50%); border:5px solid black"">","","","","","","","",""
"","3082.0149999998976","sequential-stimulus-presentation-old","108","449026","0.0-25.0-1.0","SS1619740037035","trial","","40","500","3582.0149999998976","images/stimuli/spore_stims/complex_07_A_a.gif","images/stimuli/spore_stims/complex_19_A_b.gif","forced_long","","8","complex_dissimilar","images/stimuli/spore_stims/complex_19_A_b.gif","","","","",""
"","null","html-keyboard-response","109","450221","0.0-25.0-0.1","SS1619740037035","","","null","","","","","","<p><img src= images/blank.png width =""600"" height = ""600"" style=""position:fixed;top:50%; left:50%; transform: translate(-50%, -50%); border:5px solid black"">","","","","","","","",""
"","213.10499999532476","sequential-stimulus-presentation-old","110","450945","0.0-25.0-1.1","SS1619740037035","trial","","40","500","713.1049999953248","images/stimuli/spore_stims/complex_07_A_a.gif","images/stimuli/spore_stims/complex_19_A_b.gif","forced_long","","8","complex_dissimilar","images/stimuli/spore_stims/complex_19_A_b.gif","","","","",""
"","null","html-keyboard-response","111","452065","0.0-25.0-0.2","SS1619740037035","","","null","","","","","","<p><img src= images/blank.png width =""600"" height = ""600"" style=""position:fixed;top:50%; left:50%; transform: translate(-50%, -50%); border:5px solid black"">","","","","","","","",""
"","3838.2400000046473","sequential-stimulus-presentation-old","112","456405","0.0-25.0-1.2","SS1619740037035","trial","","40","500","4338.240000004647","images/stimuli/spore_stims/complex_07_A_a.gif","images/stimuli/spore_stims/complex_19_A_b.gif","forced_long","","8","complex_dissimilar","images/stimuli/spore_stims/complex_07_A_a.gif","","","","",""
"","null","html-keyboard-response","113","457228","0.0-25.0-0.3","SS1619740037035","","","null","","","","","","<p><img src= images/blank.png width =""600"" height = ""600"" style=""position:fixed;top:50%; left:50%; transform: translate(-50%, -50%); border:5px solid black"">","","","","","","","",""
"","54.06500000390224","sequential-stimulus-presentation-old","114","457786","0.0-25.0-1.3","SS1619740037035","trial","","40","500","554.0650000039022","images/stimuli/spore_stims/complex_07_A_a.gif","images/stimuli/spore_stims/complex_19_A_b.gif","forced_long","","8","complex_dissimilar","images/stimuli/spore_stims/complex_19_A_b.gif","","","","",""
"","2243.080000000191","survey-multi-choice","115","460031","0.0-26.0","SS1619740037035","math_question","","","","","","","","","","","","{""Q0"":""6""}","[0]","6","",""
"","null","html-keyboard-response","116","460904","0.0-27.0-0.0","SS1619740037035","","","null","","","","","","<p><img src= images/blank.png width =""600"" height = ""600"" style=""position:fixed;top:50%; left:50%; transform: translate(-50%, -50%); border:5px solid black"">","","","","","","","",""
"","3720.0949999969453","sequential-stimulus-presentation-old","117","479642","0.0-27.0-1.0","SS1619740037035","trial","","40","500","4220.094999996945","images/stimuli/spore_stims/simple_13_A_a.gif","images/stimuli/spore_stims/simple_07_A_b.gif","forced_long","","9","simple_dissimilar","images/stimuli/spore_stims/simple_07_A_b.gif","","","","",""
"","null","html-keyboard-response","118","480468","0.0-27.0-0.1","SS1619740037035","","","null","","","","","","<p><img src= images/blank.png width =""600"" height = ""600"" style=""position:fixed;top:50%; left:50%; transform: translate(-50%, -50%); border:5px solid black"">","","","","","","","",""
"","261.019999998156","sequential-stimulus-presentation-old","119","481234","0.0-27.0-1.1","SS1619740037035","trial","","40","500","761.019999998156","images/stimuli/spore_stims/simple_13_A_a.gif","images/stimuli/spore_stims/simple_07_A_b.gif","forced_long","","9","simple_dissimilar","images/stimuli/spore_stims/simple_13_A_a.gif","","","","",""
"","null","html-keyboard-response","120","482144","0.0-27.0-0.2","SS1619740037035","","","null","","","","","","<p><img src= images/blank.png width =""600"" height = ""600"" style=""position:fixed;top:50%; left:50%; transform: translate(-50%, -50%); border:5px solid black"">","","","","","","","",""
"","1226.7100000026403","sequential-stimulus-presentation-old","121","483874","0.0-27.0-1.2","SS1619740037035","trial","","40","500","1726.7100000026403","images/stimuli/spore_stims/simple_13_A_a.gif","images/stimuli/spore_stims/simple_07_A_b.gif","forced_long","","9","simple_dissimilar","images/stimuli/spore_stims/simple_13_A_a.gif","","","","",""
"","null","html-keyboard-response","122","485167","0.0-27.0-0.3","SS1619740037035","","","null","","","","","","<p><img src= images/blank.png width =""600"" height = ""600"" style=""position:fixed;top:50%; left:50%; transform: translate(-50%, -50%); border:5px solid black"">","","","","","","","",""
"","107.79500000353437","sequential-stimulus-presentation-old","123","485778","0.0-27.0-1.3","SS1619740037035","trial","","40","500","607.7950000035344","images/stimuli/spore_stims/simple_13_A_a.gif","images/stimuli/spore_stims/simple_07_A_b.gif","forced_long","","9","simple_dissimilar","images/stimuli/spore_stims/simple_07_A_b.gif","","","","",""
"","5387.170000001788","survey-multi-choice","124","491167","0.0-28.0","SS1619740037035","math_question","","","","","","","","","","","","{""Q0"":""15""}","[0]","15","",""
"","null","html-keyboard-response","125","492388","0.0-29.0-0.0","SS1619740037035","","","null","","","","","","<p><img src= images/blank.png width =""600"" height = ""600"" style=""position:fixed;top:50%; left:50%; transform: translate(-50%, -50%); border:5px solid black"">","","","","","","","",""
"","1958.5550000047078","sequential-stimulus-presentation-old","126","494850","0.0-29.0-1.0","SS1619740037035","trial","","40","500","2458.555000004708","images/stimuli/spore_stims/simple_08_A_a.gif","images/stimuli/spore_stims/simple_19_A_b.gif","forced_short","","10","simple_dissimilar","images/stimuli/spore_stims/simple_19_A_b.gif","","","","",""
"","null","html-keyboard-response","127","495663","0.0-29.0-0.1","SS1619740037035","","","null","","","","","","<p><img src= images/blank.png width =""600"" height = ""600"" style=""position:fixed;top:50%; left:50%; transform: translate(-50%, -50%); border:5px solid black"">","","","","","","","",""
"","1035.5149999959394","sequential-stimulus-presentation-old","128","497202","0.0-29.0-1.1","SS1619740037035","trial","","40","500","1535.5149999959394","images/stimuli/spore_stims/simple_08_A_a.gif","images/stimuli/spore_stims/simple_19_A_b.gif","forced_short","","10","simple_dissimilar","images/stimuli/spore_stims/simple_19_A_b.gif","","","","",""
"","null","html-keyboard-response","129","498213","0.0-29.0-0.2","SS1619740037035","","","null","","","","","","<p><img src= images/blank.png width =""600"" height = ""600"" style=""position:fixed;top:50%; left:50%; transform: translate(-50%, -50%); border:5px solid black"">","","","","","","","",""
"","2086.490000001504","sequential-stimulus-presentation-old","130","500802","0.0-29.0-1.2","SS1619740037035","trial","","40","500","2586.490000001504","images/stimuli/spore_stims/simple_08_A_a.gif","images/stimuli/spore_stims/simple_19_A_b.gif","forced_short","","10","simple_dissimilar","images/stimuli/spore_stims/simple_19_A_b.gif","","","","",""
"","null","html-keyboard-response","131","501934","0.0-29.0-0.3","SS1619740037035","","","null","","","","","","<p><img src= images/blank.png width =""600"" height = ""600"" style=""position:fixed;top:50%; left:50%; transform: translate(-50%, -50%); border:5px solid black"">","","","","","","","",""
"","12252.470000006724","sequential-stimulus-presentation-old","132","514692","0.0-29.0-1.3","SS1619740037035","trial","","40","500","12752.470000006724","images/stimuli/spore_stims/simple_08_A_a.gif","images/stimuli/spore_stims/simple_19_A_b.gif","forced_short","","10","simple_dissimilar","images/stimuli/spore_stims/simple_19_A_b.gif","","","","",""
"","2490.849999994738","survey-multi-choice","133","517186","0.0-30.0","SS1619740037035","math_question","","","","","","","","","","","","{""Q0"":""8""}","[0]","8","",""
"","null","html-keyboard-response","134","518239","0.0-31.0-0.0","SS1619740037035","","","null","","","","","","<p><img src= images/blank.png width =""600"" height = ""600"" style=""position:fixed;top:50%; left:50%; transform: translate(-50%, -50%); border:5px solid black"">","","","","","","","",""
"","6029.464999999618","sequential-stimulus-presentation-old","135","524772","0.0-31.0-1.0","SS1619740037035","trial","","40","500","6529.464999999618","images/stimuli/spore_stims/simple_18_A_b.gif","images/stimuli/spore_stims/simple_16_A_a.gif","self_paced","","11","simple_dissimilar","images/stimuli/spore_stims/simple_16_A_a.gif","","","","",""
"","null","html-keyboard-response","136","525720","0.0-31.0-0.1","SS1619740037035","","","null","","","","","","<p><img src= images/blank.png width =""600"" height = ""600"" style=""position:fixed;top:50%; left:50%; transform: translate(-50%, -50%); border:5px solid black"">","","","","","","","",""
"","576.6399999993155","sequential-stimulus-presentation-old","137","526802","0.0-31.0-1.1","SS1619740037035","trial","","40","500","1076.6399999993155","images/stimuli/spore_stims/simple_18_A_b.gif","images/stimuli/spore_stims/simple_16_A_a.gif","self_paced","","11","simple_dissimilar","images/stimuli/spore_stims/simple_16_A_a.gif","","","","",""
"","null","html-keyboard-response","138","528002","0.0-31.0-0.2","SS1619740037035","","","null","","","","","","<p><img src= images/blank.png width =""600"" height = ""600"" style=""position:fixed;top:50%; left:50%; transform: translate(-50%, -50%); border:5px solid black"">","","","","","","","",""
"","280.8950000035111","sequential-stimulus-presentation-old","139","528786","0.0-31.0-1.2","SS1619740037035","trial","","40","500","780.8950000035111","images/stimuli/spore_stims/simple_18_A_b.gif","images/stimuli/spore_stims/simple_16_A_a.gif","self_paced","","11","simple_dissimilar","images/stimuli/spore_stims/simple_16_A_a.gif","","","","",""
"","null","html-keyboard-response","140","529905","0.0-31.0-0.3","SS1619740037035","","","null","","","","","","<p><img src= images/blank.png width =""600"" height = ""600"" style=""position:fixed;top:50%; left:50%; transform: translate(-50%, -50%); border:5px solid black"">","","","","","","","",""
"","248.3250000004191","sequential-stimulus-presentation-old","141","530658","0.0-31.0-1.3","SS1619740037035","trial","","40","500","748.3250000004191","images/stimuli/spore_stims/simple_18_A_b.gif","images/stimuli/spore_stims/simple_16_A_a.gif","self_paced","","11","simple_dissimilar","images/stimuli/spore_stims/simple_18_A_b.gif","","","","",""
"","null","html-keyboard-response","142","531944","0.0-31.0-0.4","SS1619740037035","","","null","","","","","","<p><img src= images/blank.png width =""600"" height = ""600"" style=""position:fixed;top:50%; left:50%; transform: translate(-50%, -50%); border:5px solid black"">","","","","","","","",""
"","332.39500000490807","sequential-stimulus-presentation-old","143","532779","0.0-31.0-1.4","SS1619740037035","trial","","40","500","832.3950000049081","images/stimuli/spore_stims/simple_18_A_b.gif","images/stimuli/spore_stims/simple_16_A_a.gif","self_paced","","11","simple_dissimilar","images/stimuli/spore_stims/simple_16_A_a.gif","","","","",""
"[{""page_index"":0,""viewing_time"":4690.4950000025565}]","4690.725000000326","instructions","144","537471","0.0-32.0","SS1619740037035","instructions","","","","","","","","","","","","","","","",""
"","6301.234999998938","survey-likert","145","543776","0.0-33.0","SS1619740037035","similarity_question","","","","","","","","","","","","{""Q0"":4}","[0]","","images/stimuli/spore_stims/simple_05_A_a.gif","images/stimuli/spore_stims/simple_12_A_b.gif"
"","3996.8549999975367","survey-likert","146","547776","0.0-34.0","SS1619740037035","similarity_question","","","","","","","","","","","","{""Q0"":4}","[0]","","images/stimuli/spore_stims/complex_09_A_a.gif","images/stimuli/spore_stims/complex_13_A_b.gif"
"","3854.9999999959255","survey-likert","147","551633","0.0-35.0","SS1619740037035","similarity_question","","","","","","","","","","","","{""Q0"":5}","[0]","","images/stimuli/spore_stims/simple_08_A_a.gif","images/stimuli/spore_stims/simple_19_A_b.gif"
"","3533.34000000183","survey-likert","148","555170","0.0-36.0","SS1619740037035","similarity_question","","","","","","","","","","","","{""Q0"":1}","[0]","","images/stimuli/spore_stims/complex_07_A_a.gif","images/stimuli/spore_stims/complex_19_A_b.gif"
"","4304.524999999558","survey-likert","149","559478","0.0-37.0","SS1619740037035","similarity_question","","","","","","","","","","","","{""Q0"":1}","[0]","","images/stimuli/spore_stims/simple_07_A_a.gif","images/stimuli/spore_stims/simple_11_A_b.gif"
"","3788.290000004112","survey-likert","150","563269","0.0-38.0","SS1619740037035","similarity_question","","","","","","","","","","","","{""Q0"":2}","[0]","","images/stimuli/spore_stims/complex_12_A_b.gif","images/stimuli/spore_stims/complex_18_A_a.gif"
"","3261.2500000032596","survey-likert","151","566533","0.0-39.0","SS1619740037035","similarity_question","","","","","","","","","","","","{""Q0"":1}","[0]","","images/stimuli/spore_stims/complex_19_A_a.gif","images/stimuli/spore_stims/complex_02_A_b.gif"
"","3693.9350000029663","survey-likert","152","570230","0.0-40.0","SS1619740037035","similarity_question","","","","","","","","","","","","{""Q0"":2}","[0]","","images/stimuli/spore_stims/complex_13_A_a.gif","images/stimuli/spore_stims/complex_18_A_b.gif"
"","3504.209999999148","survey-likert","153","573737","0.0-41.0","SS1619740037035","similarity_question","","","","","","","","","","","","{""Q0"":2}","[0]","","images/stimuli/spore_stims/simple_01_A_a.gif","images/stimuli/spore_stims/simple_03_A_b.gif"
"","2333.555000004708","survey-likert","154","576073","0.0-42.0","SS1619740037035","similarity_question","","","","","","","","","","","","{""Q0"":2}","[0]","","images/stimuli/spore_stims/simple_18_A_b.gif","images/stimuli/spore_stims/simple_16_A_a.gif"
"","2297.890000001644","survey-likert","155","578374","0.0-43.0","SS1619740037035","similarity_question","","","","","","","","","","","","{""Q0"":2}","[0]","","images/stimuli/spore_stims/simple_13_A_a.gif","images/stimuli/spore_stims/simple_07_A_b.gif"
"","3669.8499999984633","survey-likert","156","582047","0.0-44.0","SS1619740037035","similarity_question","","","","","","","","","","","","{""Q0"":4}","[0]","","images/stimuli/spore_stims/complex_10_A_b.gif","images/stimuli/spore_stims/complex_02_A_a.gif"
"[{""page_index"":0,""viewing_time"":4050.629999997909}]","4050.869999999064","instructions","157","586099","0.0-45.0","SS1619740037035","instructions","","","","","","","","","","","","","","","",""
"","3177.129999996396","survey-likert","158","589280","0.0-46.0","SS1619740037035","","","","","","","","","images/stimuli/spore_stims/complex_18_A_b.gif","","","","{""Q0"":5}","[0]","","",""
"","2353.7250000007916","survey-likert","159","591636","0.0-47.0","SS1619740037035","","","","","","","","","images/stimuli/spore_stims/complex_09_A_a.gif","","","","{""Q0"":6}","[0]","","",""
"","3731.2500000043074","survey-likert","160","595371","0.0-48.0","SS1619740037035","","","","","","","","","images/stimuli/spore_stims/simple_01_A_a.gif","","","","{""Q0"":0}","[0]","","",""
"","1587.8499999962514","survey-likert","161","596962","0.0-49.0","SS1619740037035","","","","","","","","","images/stimuli/spore_stims/simple_19_A_b.gif","","","","{""Q0"":1}","[0]","","",""
"","1707.109999995795","survey-likert","162","598672","0.0-50.0","SS1619740037035","","","","","","","","","images/stimuli/spore_stims/simple_05_A_a.gif","","","","{""Q0"":0}","[0]","","",""
"","3556.959999994375","survey-likert","163","602231","0.0-51.0","SS1619740037035","","","","","","","","","images/stimuli/spore_stims/complex_10_A_b.gif","","","","{""Q0"":5}","[0]","","",""
"","1959.3300000051968","survey-likert","164","604194","0.0-52.0","SS1619740037035","","","","","","","","","images/stimuli/spore_stims/simple_07_A_a.gif","","","","{""Q0"":0}","[0]","","",""
"","1715.0250000049127","survey-likert","165","605912","0.0-53.0","SS1619740037035","","","","","","","","","images/stimuli/spore_stims/simple_16_A_a.gif","","","","{""Q0"":1}","[0]","","",""
"","5107.900000002701","survey-likert","166","611023","0.0-54.0","SS1619740037035","","","","","","","","","images/stimuli/spore_stims/complex_19_A_b.gif","","","","{""Q0"":6}","[0]","","",""
"","2460.1350000011735","survey-likert","167","613486","0.0-55.0","SS1619740037035","","","","","","","","","images/stimuli/spore_stims/simple_07_A_b.gif","","","","{""Q0"":0}","[0]","","",""
"","5146.540000001551","survey-likert","168","618636","0.0-56.0","SS1619740037035","","","","","","","","","images/stimuli/spore_stims/complex_19_A_a.gif","","","","{""Q0"":5}","[0]","","",""
"","1784.6100000024308","survey-likert","169","620423","0.0-57.0","SS1619740037035","","","","","","","","","images/stimuli/spore_stims/complex_12_A_b.gif","","","","{""Q0"":4}","[0]","","",""
"[{""page_index"":0,""viewing_time"":2256.6250000017462}]","2256.8500000052154","instructions","170","622683","0.0-58.0","SS1619740037035","instructions","","","","","","","","","","","","","","","",""
"","2119.819999999949","demog-age","171","624807","0.0-59.0","SS1619740037035","","","","","","","","","","","","","{""age"":""20""}","","","",""
"","5068.149999999092","demog-ethnic-US","172","629879","0.0-60.0","SS1619740037035","","","","","","","","","","","","","{""ethnicity"":[""Hispanic or Latino"",""White""]}","[0]","","",""
"","7964.659999997821","demog-gender-and-education","173","637847","0.0-61.0","SS1619740037035","","","","","","","","","","","","","{""gender"":""Male"",""education"":""High school diploma""}","[0,1]","","",""
"","7001.915000000736","survey-text","174","644853","0.0-62.0","SS1619740037035","feedback","","","","","","","","","","","","{""Q0"":""No""}","","","",""
"[{""page_index"":0,""viewing_time"":1937.999999994645}]","1938.2449999975506","instructions","175","646793","0.0-63.0","SS1619740037035","instructions","","","","","","","","","","","","","","","",""
