"view_history","rt","trial_type","trial_index","time_elapsed","internal_node_id","subject","stimulus_type","trial_stimulus","key_press","minimum_viewing_duration","trial_looking_time","block_deviant","block_background","exposure_type","stimulus","block_number","block_type","stimulus_displayed","responses","question_order","math_correct_answer","stimulus_left","stimulus_right"
"[{""page_index"":0,""viewing_time"":4356.969999847934}]","4357.534999959171","instructions","0","4360","0.0-0.0","SS1619740442234","","","","","","","","","","","","","","","","",""
"[{""page_index"":0,""viewing_time"":79264.2900000792},{""page_index"":1,""viewing_time"":6120.04499998875}]","85384.57000022754","instructions","1","91756","0.0-1.0","SS1619740442234","instructions","","","","","","","","","","","","","","","",""
"","6204.635000089183","sequential-stimulus-presentation-old","2","98464","0.0-2.0","SS1619740442234","","","40","500","6704.635000089183","null","null","self_paced","","","","","","","","",""
"","5169.77999988012","sequential-stimulus-presentation-old","3","104140","0.0-3.0","SS1619740442234","","","40","500","5669.77999988012","null","null","self_paced","","","","","","","","",""
"[{""page_index"":0,""viewing_time"":18279.68000015244}]","18280.050000175834","instructions","4","122421","0.0-4.0","SS1619740442234","instructions","","","","","","","","","","","","","","","",""
"","718.7049998901784","sequential-stimulus-presentation-old","5","138142","0.0-5.0","SS1619740442234","","","40","500","1218.7049998901784","null","null","forced_long","","","","","","","","",""
"","1905.6549998931587","sequential-stimulus-presentation-old","6","140565","0.0-6.0","SS1619740442234","","","40","500","2405.6549998931587","null","null","forced_long","","","","","","","","",""
"[{""page_index"":0,""viewing_time"":6742.2850001603365}]","6742.375000147149","instructions","7","147308","0.0-7.0","SS1619740442234","instructions","","","","","","","","","","","","","","","",""
"[{""page_index"":0,""viewing_time"":10280.379999894649},{""page_index"":1,""viewing_time"":13199.514999985695},{""page_index"":2,""viewing_time"":6519.760000053793},{""page_index"":3,""viewing_time"":2727.6749999728054},{""page_index"":4,""viewing_time"":856.5849999431521}]","33584.12000001408","instructions","8","180893","0.0-8.0","SS1619740442234","instructions","","","","","","","","","","","","","","","",""
"","null","html-keyboard-response","9","181906","0.0-9.0-0.0","SS1619740442234","","","null","","","","","","<p><img src= images/blank.png width =""600"" height = ""600"" style=""position:fixed;top:50%; left:50%; transform: translate(-50%, -50%); border:5px solid black"">","","","","","","","",""
"","37021.0449998267","sequential-stimulus-presentation-old","10","219430","0.0-9.0-1.0","SS1619740442234","trial","","40","500","37521.0449998267","images/stimuli/spore_stims/complex_10_A_a.gif","images/stimuli/spore_stims/complex_08_A_b.gif","self_paced","","0","complex_dissimilar","images/stimuli/spore_stims/complex_08_A_b.gif","","","","",""
"","null","html-keyboard-response","11","220677","0.0-9.0-0.1","SS1619740442234","","","null","","","","","","<p><img src= images/blank.png width =""600"" height = ""600"" style=""position:fixed;top:50%; left:50%; transform: translate(-50%, -50%); border:5px solid black"">","","","","","","","",""
"","8692.93999997899","sequential-stimulus-presentation-old","12","229872","0.0-9.0-1.1","SS1619740442234","trial","","40","500","9192.93999997899","images/stimuli/spore_stims/complex_10_A_a.gif","images/stimuli/spore_stims/complex_08_A_b.gif","self_paced","","0","complex_dissimilar","images/stimuli/spore_stims/complex_10_A_a.gif","","","","",""
"","null","html-keyboard-response","13","230948","0.0-9.0-0.2","SS1619740442234","","","null","","","","","","<p><img src= images/blank.png width =""600"" height = ""600"" style=""position:fixed;top:50%; left:50%; transform: translate(-50%, -50%); border:5px solid black"">","","","","","","","",""
"","3975.6849999539554","sequential-stimulus-presentation-old","14","235427","0.0-9.0-1.2","SS1619740442234","trial","","40","500","4475.684999953955","images/stimuli/spore_stims/complex_10_A_a.gif","images/stimuli/spore_stims/complex_08_A_b.gif","self_paced","","0","complex_dissimilar","images/stimuli/spore_stims/complex_08_A_b.gif","","","","",""
"","null","html-keyboard-response","15","236586","0.0-9.0-0.3","SS1619740442234","","","null","","","","","","<p><img src= images/blank.png width =""600"" height = ""600"" style=""position:fixed;top:50%; left:50%; transform: translate(-50%, -50%); border:5px solid black"">","","","","","","","",""
"","13823.989999946207","sequential-stimulus-presentation-old","16","250913","0.0-9.0-1.3","SS1619740442234","trial","","40","500","14323.989999946207","images/stimuli/spore_stims/complex_10_A_a.gif","images/stimuli/spore_stims/complex_08_A_b.gif","self_paced","","0","complex_dissimilar","images/stimuli/spore_stims/complex_08_A_b.gif","","","","",""
"","null","html-keyboard-response","17","251760","0.0-9.0-0.4","SS1619740442234","","","null","","","","","","<p><img src= images/blank.png width =""600"" height = ""600"" style=""position:fixed;top:50%; left:50%; transform: translate(-50%, -50%); border:5px solid black"">","","","","","","","",""
"","9625.009999843314","sequential-stimulus-presentation-old","18","261889","0.0-9.0-1.4","SS1619740442234","trial","","40","500","10125.009999843314","images/stimuli/spore_stims/complex_10_A_a.gif","images/stimuli/spore_stims/complex_08_A_b.gif","self_paced","","0","complex_dissimilar","images/stimuli/spore_stims/complex_10_A_a.gif","","","","",""
"","3247.7299999445677","survey-multi-choice","19","265142","0.0-10.0","SS1619740442234","math_question","","","","","","","","","","","","{""Q0"":""9""}","[0]","9","",""
"","null","html-keyboard-response","20","265986","0.0-11.0-0.0","SS1619740442234","","","null","","","","","","<p><img src= images/blank.png width =""600"" height = ""600"" style=""position:fixed;top:50%; left:50%; transform: translate(-50%, -50%); border:5px solid black"">","","","","","","","",""
"","1819.6849999949336","sequential-stimulus-presentation-old","21","282809","0.0-11.0-1.0","SS1619740442234","trial","","40","500","2319.6849999949336","images/stimuli/spore_stims/simple_20_A_b.gif","images/stimuli/spore_stims/simple_11_A_a.gif","forced_long","","1","simple_dissimilar","images/stimuli/spore_stims/simple_11_A_a.gif","","","","",""
"","null","html-keyboard-response","22","283666","0.0-11.0-0.1","SS1619740442234","","","null","","","","","","<p><img src= images/blank.png width =""600"" height = ""600"" style=""position:fixed;top:50%; left:50%; transform: translate(-50%, -50%); border:5px solid black"">","","","","","","","",""
"","915.1500000152737","sequential-stimulus-presentation-old","23","285083","0.0-11.0-1.1","SS1619740442234","trial","","40","500","1415.1500000152737","images/stimuli/spore_stims/simple_20_A_b.gif","images/stimuli/spore_stims/simple_11_A_a.gif","forced_long","","1","simple_dissimilar","images/stimuli/spore_stims/simple_11_A_a.gif","","","","",""
"","null","html-keyboard-response","24","286356","0.0-11.0-0.2","SS1619740442234","","","null","","","","","","<p><img src= images/blank.png width =""600"" height = ""600"" style=""position:fixed;top:50%; left:50%; transform: translate(-50%, -50%); border:5px solid black"">","","","","","","","",""
"","10527.415000135079","sequential-stimulus-presentation-old","25","297397","0.0-11.0-1.2","SS1619740442234","trial","","40","500","11027.415000135079","images/stimuli/spore_stims/simple_20_A_b.gif","images/stimuli/spore_stims/simple_11_A_a.gif","forced_long","","1","simple_dissimilar","images/stimuli/spore_stims/simple_11_A_a.gif","","","","",""
"","null","html-keyboard-response","26","298640","0.0-11.0-0.3","SS1619740442234","","","null","","","","","","<p><img src= images/blank.png width =""600"" height = ""600"" style=""position:fixed;top:50%; left:50%; transform: translate(-50%, -50%); border:5px solid black"">","","","","","","","",""
"","7992.259999969974","sequential-stimulus-presentation-old","27","307136","0.0-11.0-1.3","SS1619740442234","trial","","40","500","8492.259999969974","images/stimuli/spore_stims/simple_20_A_b.gif","images/stimuli/spore_stims/simple_11_A_a.gif","forced_long","","1","simple_dissimilar","images/stimuli/spore_stims/simple_20_A_b.gif","","","","",""
"","null","html-keyboard-response","28","308112","0.0-11.0-0.4","SS1619740442234","","","null","","","","","","<p><img src= images/blank.png width =""600"" height = ""600"" style=""position:fixed;top:50%; left:50%; transform: translate(-50%, -50%); border:5px solid black"">","","","","","","","",""
"","5037.699999986216","sequential-stimulus-presentation-old","29","313652","0.0-11.0-1.4","SS1619740442234","trial","","40","500","5537.699999986216","images/stimuli/spore_stims/simple_20_A_b.gif","images/stimuli/spore_stims/simple_11_A_a.gif","forced_long","","1","simple_dissimilar","images/stimuli/spore_stims/simple_11_A_a.gif","","","","",""
"","4190.010000020266","survey-multi-choice","30","317845","0.0-12.0","SS1619740442234","math_question","","","","","","","","","","","","{""Q0"":""9""}","[0]","9","",""
"","null","html-keyboard-response","31","318915","0.0-13.0-0.0","SS1619740442234","","","null","","","","","","<p><img src= images/blank.png width =""600"" height = ""600"" style=""position:fixed;top:50%; left:50%; transform: translate(-50%, -50%); border:5px solid black"">","","","","","","","",""
"","718.5450000688434","sequential-stimulus-presentation-old","32","334644","0.0-13.0-1.0","SS1619740442234","trial","","40","500","1218.5450000688434","images/stimuli/spore_stims/complex_18_A_a.gif","images/stimuli/spore_stims/complex_15_A_b.gif","forced_long","","2","complex_dissimilar","images/stimuli/spore_stims/complex_15_A_b.gif","","","","",""
"","null","html-keyboard-response","33","335920","0.0-13.0-0.1","SS1619740442234","","","null","","","","","","<p><img src= images/blank.png width =""600"" height = ""600"" style=""position:fixed;top:50%; left:50%; transform: translate(-50%, -50%); border:5px solid black"">","","","","","","","",""
"","15731.970000080764","sequential-stimulus-presentation-old","34","352155","0.0-13.0-1.1","SS1619740442234","trial","","40","500","16231.970000080764","images/stimuli/spore_stims/complex_18_A_a.gif","images/stimuli/spore_stims/complex_15_A_b.gif","forced_long","","2","complex_dissimilar","images/stimuli/spore_stims/complex_15_A_b.gif","","","","",""
"","null","html-keyboard-response","35","353095","0.0-13.0-0.2","SS1619740442234","","","null","","","","","","<p><img src= images/blank.png width =""600"" height = ""600"" style=""position:fixed;top:50%; left:50%; transform: translate(-50%, -50%); border:5px solid black"">","","","","","","","",""
"","7933.859999990091","sequential-stimulus-presentation-old","36","361531","0.0-13.0-1.2","SS1619740442234","trial","","40","500","8433.85999999009","images/stimuli/spore_stims/complex_18_A_a.gif","images/stimuli/spore_stims/complex_15_A_b.gif","forced_long","","2","complex_dissimilar","images/stimuli/spore_stims/complex_15_A_b.gif","","","","",""
"","null","html-keyboard-response","37","362507","0.0-13.0-0.3","SS1619740442234","","","null","","","","","","<p><img src= images/blank.png width =""600"" height = ""600"" style=""position:fixed;top:50%; left:50%; transform: translate(-50%, -50%); border:5px solid black"">","","","","","","","",""
"","5479.9599999096245","sequential-stimulus-presentation-old","38","368490","0.0-13.0-1.3","SS1619740442234","trial","","40","500","5979.9599999096245","images/stimuli/spore_stims/complex_18_A_a.gif","images/stimuli/spore_stims/complex_15_A_b.gif","forced_long","","2","complex_dissimilar","images/stimuli/spore_stims/complex_15_A_b.gif","","","","",""
"","null","html-keyboard-response","39","369737","0.0-13.0-0.4","SS1619740442234","","","null","","","","","","<p><img src= images/blank.png width =""600"" height = ""600"" style=""position:fixed;top:50%; left:50%; transform: translate(-50%, -50%); border:5px solid black"">","","","","","","","",""
"","4642.169999890029","sequential-stimulus-presentation-old","40","374894","0.0-13.0-1.4","SS1619740442234","trial","","40","500","5142.169999890029","images/stimuli/spore_stims/complex_18_A_a.gif","images/stimuli/spore_stims/complex_15_A_b.gif","forced_long","","2","complex_dissimilar","images/stimuli/spore_stims/complex_15_A_b.gif","","","","",""
"","null","html-keyboard-response","41","376189","0.0-13.0-0.5","SS1619740442234","","","null","","","","","","<p><img src= images/blank.png width =""600"" height = ""600"" style=""position:fixed;top:50%; left:50%; transform: translate(-50%, -50%); border:5px solid black"">","","","","","","","",""
"","6953.764999983832","sequential-stimulus-presentation-old","42","383653","0.0-13.0-1.5","SS1619740442234","trial","","40","500","7453.764999983832","images/stimuli/spore_stims/complex_18_A_a.gif","images/stimuli/spore_stims/complex_15_A_b.gif","forced_long","","2","complex_dissimilar","images/stimuli/spore_stims/complex_15_A_b.gif","","","","",""
"","2909.364999970421","survey-multi-choice","43","386565","0.0-14.0","SS1619740442234","math_question","","","","","","","","","","","","{""Q0"":""7""}","[0]","7","",""
"","null","html-keyboard-response","44","387579","0.0-15.0-0.0","SS1619740442234","","","null","","","","","","<p><img src= images/blank.png width =""600"" height = ""600"" style=""position:fixed;top:50%; left:50%; transform: translate(-50%, -50%); border:5px solid black"">","","","","","","","",""
"","1800.9999999776483","sequential-stimulus-presentation-old","45","389883","0.0-15.0-1.0","SS1619740442234","trial","","40","500","2300.9999999776483","images/stimuli/spore_stims/simple_08_A_a.gif","images/stimuli/spore_stims/simple_12_A_b.gif","forced_short","","3","simple_dissimilar","images/stimuli/spore_stims/simple_12_A_b.gif","","","","",""
"","null","html-keyboard-response","46","391021","0.0-15.0-0.1","SS1619740442234","","","null","","","","","","<p><img src= images/blank.png width =""600"" height = ""600"" style=""position:fixed;top:50%; left:50%; transform: translate(-50%, -50%); border:5px solid black"">","","","","","","","",""
"","6667.520000133663","sequential-stimulus-presentation-old","47","398191","0.0-15.0-1.1","SS1619740442234","trial","","40","500","7167.520000133663","images/stimuli/spore_stims/simple_08_A_a.gif","images/stimuli/spore_stims/simple_12_A_b.gif","forced_short","","3","simple_dissimilar","images/stimuli/spore_stims/simple_12_A_b.gif","","","","",""
"","null","html-keyboard-response","48","399369","0.0-15.0-0.2","SS1619740442234","","","null","","","","","","<p><img src= images/blank.png width =""600"" height = ""600"" style=""position:fixed;top:50%; left:50%; transform: translate(-50%, -50%); border:5px solid black"">","","","","","","","",""
"","5525.604999857023","sequential-stimulus-presentation-old","49","405398","0.0-15.0-1.2","SS1619740442234","trial","","40","500","6025.604999857023","images/stimuli/spore_stims/simple_08_A_a.gif","images/stimuli/spore_stims/simple_12_A_b.gif","forced_short","","3","simple_dissimilar","images/stimuli/spore_stims/simple_08_A_a.gif","","","","",""
"","null","html-keyboard-response","50","406609","0.0-15.0-0.3","SS1619740442234","","","null","","","","","","<p><img src= images/blank.png width =""600"" height = ""600"" style=""position:fixed;top:50%; left:50%; transform: translate(-50%, -50%); border:5px solid black"">","","","","","","","",""
"","9208.24999990873","sequential-stimulus-presentation-old","51","416322","0.0-15.0-1.3","SS1619740442234","trial","","40","500","9708.24999990873","images/stimuli/spore_stims/simple_08_A_a.gif","images/stimuli/spore_stims/simple_12_A_b.gif","forced_short","","3","simple_dissimilar","images/stimuli/spore_stims/simple_12_A_b.gif","","","","",""
"","2746.3400000706315","survey-multi-choice","52","419069","0.0-16.0","SS1619740442234","math_question","","","","","","","","","","","","{""Q0"":""9""}","[0]","9","",""
"","null","html-keyboard-response","53","420267","0.0-17.0-0.0","SS1619740442234","","","null","","","","","","<p><img src= images/blank.png width =""600"" height = ""600"" style=""position:fixed;top:50%; left:50%; transform: translate(-50%, -50%); border:5px solid black"">","","","","","","","",""
"","1033.789999783039","sequential-stimulus-presentation-old","54","421803","0.0-17.0-1.0","SS1619740442234","trial","","40","500","1533.789999783039","images/stimuli/spore_stims/simple_06_A_b.gif","images/stimuli/spore_stims/simple_07_A_a.gif","forced_short","","4","simple_dissimilar","images/stimuli/spore_stims/simple_07_A_a.gif","","","","",""
"","null","html-keyboard-response","55","423087","0.0-17.0-0.1","SS1619740442234","","","null","","","","","","<p><img src= images/blank.png width =""600"" height = ""600"" style=""position:fixed;top:50%; left:50%; transform: translate(-50%, -50%); border:5px solid black"">","","","","","","","",""
"","9795.514999888837","sequential-stimulus-presentation-old","56","433385","0.0-17.0-1.1","SS1619740442234","trial","","40","500","10295.514999888837","images/stimuli/spore_stims/simple_06_A_b.gif","images/stimuli/spore_stims/simple_07_A_a.gif","forced_short","","4","simple_dissimilar","images/stimuli/spore_stims/simple_07_A_a.gif","","","","",""
"","null","html-keyboard-response","57","434501","0.0-17.0-0.2","SS1619740442234","","","null","","","","","","<p><img src= images/blank.png width =""600"" height = ""600"" style=""position:fixed;top:50%; left:50%; transform: translate(-50%, -50%); border:5px solid black"">","","","","","","","",""
"","4482.970000011846","sequential-stimulus-presentation-old","58","439487","0.0-17.0-1.2","SS1619740442234","trial","","40","500","4982.970000011846","images/stimuli/spore_stims/simple_06_A_b.gif","images/stimuli/spore_stims/simple_07_A_a.gif","forced_short","","4","simple_dissimilar","images/stimuli/spore_stims/simple_07_A_a.gif","","","","",""
"","null","html-keyboard-response","59","440612","0.0-17.0-0.3","SS1619740442234","","","null","","","","","","<p><img src= images/blank.png width =""600"" height = ""600"" style=""position:fixed;top:50%; left:50%; transform: translate(-50%, -50%); border:5px solid black"">","","","","","","","",""
"","9044.085000175983","sequential-stimulus-presentation-old","60","450172","0.0-17.0-1.3","SS1619740442234","trial","","40","500","9544.085000175983","images/stimuli/spore_stims/simple_06_A_b.gif","images/stimuli/spore_stims/simple_07_A_a.gif","forced_short","","4","simple_dissimilar","images/stimuli/spore_stims/simple_07_A_a.gif","","","","",""
"","null","html-keyboard-response","61","451119","0.0-17.0-0.4","SS1619740442234","","","null","","","","","","<p><img src= images/blank.png width =""600"" height = ""600"" style=""position:fixed;top:50%; left:50%; transform: translate(-50%, -50%); border:5px solid black"">","","","","","","","",""
"","2854.479999979958","sequential-stimulus-presentation-old","62","454489","0.0-17.0-1.4","SS1619740442234","trial","","40","500","3354.479999979958","images/stimuli/spore_stims/simple_06_A_b.gif","images/stimuli/spore_stims/simple_07_A_a.gif","forced_short","","4","simple_dissimilar","images/stimuli/spore_stims/simple_06_A_b.gif","","","","",""
"","null","html-keyboard-response","63","455743","0.0-17.0-0.5","SS1619740442234","","","null","","","","","","<p><img src= images/blank.png width =""600"" height = ""600"" style=""position:fixed;top:50%; left:50%; transform: translate(-50%, -50%); border:5px solid black"">","","","","","","","",""
"","2473.3899999409914","sequential-stimulus-presentation-old","64","458720","0.0-17.0-1.5","SS1619740442234","trial","","40","500","2973.3899999409914","images/stimuli/spore_stims/simple_06_A_b.gif","images/stimuli/spore_stims/simple_07_A_a.gif","forced_short","","4","simple_dissimilar","images/stimuli/spore_stims/simple_06_A_b.gif","","","","",""
"","2755.739999935031","survey-multi-choice","65","461477","0.0-18.0","SS1619740442234","math_question","","","","","","","","","","","","{""Q0"":""4""}","[0]","4","",""
"","null","html-keyboard-response","66","462725","0.0-19.0-0.0","SS1619740442234","","","null","","","","","","<p><img src= images/blank.png width =""600"" height = ""600"" style=""position:fixed;top:50%; left:50%; transform: translate(-50%, -50%); border:5px solid black"">","","","","","","","",""
"","15788.845000090078","sequential-stimulus-presentation-old","67","479028","0.0-19.0-1.0","SS1619740442234","trial","","40","500","16288.845000090078","images/stimuli/spore_stims/simple_10_A_b.gif","images/stimuli/spore_stims/simple_14_A_a.gif","self_paced","","5","simple_dissimilar","images/stimuli/spore_stims/simple_14_A_a.gif","","","","",""
"","null","html-keyboard-response","68","480068","0.0-19.0-0.1","SS1619740442234","","","null","","","","","","<p><img src= images/blank.png width =""600"" height = ""600"" style=""position:fixed;top:50%; left:50%; transform: translate(-50%, -50%); border:5px solid black"">","","","","","","","",""
"","5535.015000030398","sequential-stimulus-presentation-old","69","486119","0.0-19.0-1.1","SS1619740442234","trial","","40","500","6035.015000030398","images/stimuli/spore_stims/simple_10_A_b.gif","images/stimuli/spore_stims/simple_14_A_a.gif","self_paced","","5","simple_dissimilar","images/stimuli/spore_stims/simple_10_A_b.gif","","","","",""
"","null","html-keyboard-response","70","487255","0.0-19.0-0.2","SS1619740442234","","","null","","","","","","<p><img src= images/blank.png width =""600"" height = ""600"" style=""position:fixed;top:50%; left:50%; transform: translate(-50%, -50%); border:5px solid black"">","","","","","","","",""
"","4187.024999875575","sequential-stimulus-presentation-old","71","491946","0.0-19.0-1.2","SS1619740442234","trial","","40","500","4687.024999875575","images/stimuli/spore_stims/simple_10_A_b.gif","images/stimuli/spore_stims/simple_14_A_a.gif","self_paced","","5","simple_dissimilar","images/stimuli/spore_stims/simple_10_A_b.gif","","","","",""
"","null","html-keyboard-response","72","493214","0.0-19.0-0.3","SS1619740442234","","","null","","","","","","<p><img src= images/blank.png width =""600"" height = ""600"" style=""position:fixed;top:50%; left:50%; transform: translate(-50%, -50%); border:5px solid black"">","","","","","","","",""
"","3510.859999805689","sequential-stimulus-presentation-old","73","497238","0.0-19.0-1.3","SS1619740442234","trial","","40","500","4010.859999805689","images/stimuli/spore_stims/simple_10_A_b.gif","images/stimuli/spore_stims/simple_14_A_a.gif","self_paced","","5","simple_dissimilar","images/stimuli/spore_stims/simple_14_A_a.gif","","","","",""
"","null","html-keyboard-response","74","498505","0.0-19.0-0.4","SS1619740442234","","","null","","","","","","<p><img src= images/blank.png width =""600"" height = ""600"" style=""position:fixed;top:50%; left:50%; transform: translate(-50%, -50%); border:5px solid black"">","","","","","","","",""
"","3267.8949998226017","sequential-stimulus-presentation-old","75","502277","0.0-19.0-1.4","SS1619740442234","trial","","40","500","3767.8949998226017","images/stimuli/spore_stims/simple_10_A_b.gif","images/stimuli/spore_stims/simple_14_A_a.gif","self_paced","","5","simple_dissimilar","images/stimuli/spore_stims/simple_14_A_a.gif","","","","",""
"","2782.020000042394","survey-multi-choice","76","505061","0.0-20.0","SS1619740442234","math_question","","","","","","","","","","","","{""Q0"":""5""}","[0]","5","",""
"","null","html-keyboard-response","77","506071","0.0-21.0-0.0","SS1619740442234","","","null","","","","","","<p><img src= images/blank.png width =""600"" height = ""600"" style=""position:fixed;top:50%; left:50%; transform: translate(-50%, -50%); border:5px solid black"">","","","","","","","",""
"","1108.2950001582503","sequential-stimulus-presentation-old","78","507691","0.0-21.0-1.0","SS1619740442234","trial","","40","500","1608.2950001582503","images/stimuli/spore_stims/complex_11_A_b.gif","images/stimuli/spore_stims/complex_08_A_a.gif","forced_short","","6","complex_dissimilar","images/stimuli/spore_stims/complex_08_A_a.gif","","","","",""
"","null","html-keyboard-response","79","508672","0.0-21.0-0.1","SS1619740442234","","","null","","","","","","<p><img src= images/blank.png width =""600"" height = ""600"" style=""position:fixed;top:50%; left:50%; transform: translate(-50%, -50%); border:5px solid black"">","","","","","","","",""
"","3061.839999863878","sequential-stimulus-presentation-old","80","512237","0.0-21.0-1.1","SS1619740442234","trial","","40","500","3561.839999863878","images/stimuli/spore_stims/complex_11_A_b.gif","images/stimuli/spore_stims/complex_08_A_a.gif","forced_short","","6","complex_dissimilar","images/stimuli/spore_stims/complex_08_A_a.gif","","","","",""
"","null","html-keyboard-response","81","513260","0.0-21.0-0.2","SS1619740442234","","","null","","","","","","<p><img src= images/blank.png width =""600"" height = ""600"" style=""position:fixed;top:50%; left:50%; transform: translate(-50%, -50%); border:5px solid black"">","","","","","","","",""
"","3932.024999987334","sequential-stimulus-presentation-old","82","517697","0.0-21.0-1.2","SS1619740442234","trial","","40","500","4432.024999987334","images/stimuli/spore_stims/complex_11_A_b.gif","images/stimuli/spore_stims/complex_08_A_a.gif","forced_short","","6","complex_dissimilar","images/stimuli/spore_stims/complex_08_A_a.gif","","","","",""
"","null","html-keyboard-response","83","518736","0.0-21.0-0.3","SS1619740442234","","","null","","","","","","<p><img src= images/blank.png width =""600"" height = ""600"" style=""position:fixed;top:50%; left:50%; transform: translate(-50%, -50%); border:5px solid black"">","","","","","","","",""
"","3721.1549999192357","sequential-stimulus-presentation-old","84","522973","0.0-21.0-1.3","SS1619740442234","trial","","40","500","4221.154999919236","images/stimuli/spore_stims/complex_11_A_b.gif","images/stimuli/spore_stims/complex_08_A_a.gif","forced_short","","6","complex_dissimilar","images/stimuli/spore_stims/complex_11_A_b.gif","","","","",""
"","null","html-keyboard-response","85","524183","0.0-21.0-0.4","SS1619740442234","","","null","","","","","","<p><img src= images/blank.png width =""600"" height = ""600"" style=""position:fixed;top:50%; left:50%; transform: translate(-50%, -50%); border:5px solid black"">","","","","","","","",""
"","2723.600000143051","sequential-stimulus-presentation-old","86","527410","0.0-21.0-1.4","SS1619740442234","trial","","40","500","3223.600000143051","images/stimuli/spore_stims/complex_11_A_b.gif","images/stimuli/spore_stims/complex_08_A_a.gif","forced_short","","6","complex_dissimilar","images/stimuli/spore_stims/complex_11_A_b.gif","","","","",""
"","2665.359999984503","survey-multi-choice","87","530077","0.0-22.0","SS1619740442234","math_question","","","","","","","","","","","","{""Q0"":""12""}","[0]","12","",""
"","null","html-keyboard-response","88","530905","0.0-23.0-0.0","SS1619740442234","","","null","","","","","","<p><img src= images/blank.png width =""600"" height = ""600"" style=""position:fixed;top:50%; left:50%; transform: translate(-50%, -50%); border:5px solid black"">","","","","","","","",""
"","623.7900000996888","sequential-stimulus-presentation-old","89","546542","0.0-23.0-1.0","SS1619740442234","trial","","40","500","1123.7900000996888","images/stimuli/spore_stims/complex_09_A_a.gif","images/stimuli/spore_stims/complex_06_A_b.gif","forced_long","","7","complex_dissimilar","images/stimuli/spore_stims/complex_06_A_b.gif","","","","",""
"","null","html-keyboard-response","90","547671","0.0-23.0-0.1","SS1619740442234","","","null","","","","","","<p><img src= images/blank.png width =""600"" height = ""600"" style=""position:fixed;top:50%; left:50%; transform: translate(-50%, -50%); border:5px solid black"">","","","","","","","",""
"","3260.5149999726564","sequential-stimulus-presentation-old","91","551434","0.0-23.0-1.1","SS1619740442234","trial","","40","500","3760.5149999726564","images/stimuli/spore_stims/complex_09_A_a.gif","images/stimuli/spore_stims/complex_06_A_b.gif","forced_long","","7","complex_dissimilar","images/stimuli/spore_stims/complex_09_A_a.gif","","","","",""
"","null","html-keyboard-response","92","552490","0.0-23.0-0.2","SS1619740442234","","","null","","","","","","<p><img src= images/blank.png width =""600"" height = ""600"" style=""position:fixed;top:50%; left:50%; transform: translate(-50%, -50%); border:5px solid black"">","","","","","","","",""
"","3983.3250001538545","sequential-stimulus-presentation-old","93","556978","0.0-23.0-1.2","SS1619740442234","trial","","40","500","4483.3250001538545","images/stimuli/spore_stims/complex_09_A_a.gif","images/stimuli/spore_stims/complex_06_A_b.gif","forced_long","","7","complex_dissimilar","images/stimuli/spore_stims/complex_09_A_a.gif","","","","",""
"","null","html-keyboard-response","94","558151","0.0-23.0-0.3","SS1619740442234","","","null","","","","","","<p><img src= images/blank.png width =""600"" height = ""600"" style=""position:fixed;top:50%; left:50%; transform: translate(-50%, -50%); border:5px solid black"">","","","","","","","",""
"","4242.769999895245","sequential-stimulus-presentation-old","95","562905","0.0-23.0-1.3","SS1619740442234","trial","","40","500","4742.769999895245","images/stimuli/spore_stims/complex_09_A_a.gif","images/stimuli/spore_stims/complex_06_A_b.gif","forced_long","","7","complex_dissimilar","images/stimuli/spore_stims/complex_06_A_b.gif","","","","",""
"","2641.2649999838322","survey-multi-choice","96","565549","0.0-24.0","SS1619740442234","math_question","","","","","","","","","","","","{""Q0"":""8""}","[0]","8","",""
"","null","html-keyboard-response","97","566430","0.0-25.0-0.0","SS1619740442234","","","null","","","","","","<p><img src= images/blank.png width =""600"" height = ""600"" style=""position:fixed;top:50%; left:50%; transform: translate(-50%, -50%); border:5px solid black"">","","","","","","","",""
"","1008.8899999391288","sequential-stimulus-presentation-old","98","567943","0.0-25.0-1.0","SS1619740442234","trial","","40","500","1508.8899999391288","images/stimuli/spore_stims/complex_04_A_b.gif","images/stimuli/spore_stims/complex_15_A_a.gif","forced_short","","8","complex_dissimilar","images/stimuli/spore_stims/complex_15_A_a.gif","","","","",""
"","null","html-keyboard-response","99","569200","0.0-25.0-0.1","SS1619740442234","","","null","","","","","","<p><img src= images/blank.png width =""600"" height = ""600"" style=""position:fixed;top:50%; left:50%; transform: translate(-50%, -50%); border:5px solid black"">","","","","","","","",""
"","3321.3199998717755","sequential-stimulus-presentation-old","100","573032","0.0-25.0-1.1","SS1619740442234","trial","","40","500","3821.3199998717755","images/stimuli/spore_stims/complex_04_A_b.gif","images/stimuli/spore_stims/complex_15_A_a.gif","forced_short","","8","complex_dissimilar","images/stimuli/spore_stims/complex_15_A_a.gif","","","","",""
"","null","html-keyboard-response","101","573971","0.0-25.0-0.2","SS1619740442234","","","null","","","","","","<p><img src= images/blank.png width =""600"" height = ""600"" style=""position:fixed;top:50%; left:50%; transform: translate(-50%, -50%); border:5px solid black"">","","","","","","","",""
"","5468.415000010282","sequential-stimulus-presentation-old","102","579949","0.0-25.0-1.2","SS1619740442234","trial","","40","500","5968.415000010282","images/stimuli/spore_stims/complex_04_A_b.gif","images/stimuli/spore_stims/complex_15_A_a.gif","forced_short","","8","complex_dissimilar","images/stimuli/spore_stims/complex_04_A_b.gif","","","","",""
"","null","html-keyboard-response","103","581146","0.0-25.0-0.3","SS1619740442234","","","null","","","","","","<p><img src= images/blank.png width =""600"" height = ""600"" style=""position:fixed;top:50%; left:50%; transform: translate(-50%, -50%); border:5px solid black"">","","","","","","","",""
"","2232.584999874234","sequential-stimulus-presentation-old","104","583893","0.0-25.0-1.3","SS1619740442234","trial","","40","500","2732.584999874234","images/stimuli/spore_stims/complex_04_A_b.gif","images/stimuli/spore_stims/complex_15_A_a.gif","forced_short","","8","complex_dissimilar","images/stimuli/spore_stims/complex_15_A_a.gif","","","","",""
"","null","html-keyboard-response","105","584788","0.0-25.0-0.4","SS1619740442234","","","null","","","","","","<p><img src= images/blank.png width =""600"" height = ""600"" style=""position:fixed;top:50%; left:50%; transform: translate(-50%, -50%); border:5px solid black"">","","","","","","","",""
"","2659.1849999967963","sequential-stimulus-presentation-old","106","587952","0.0-25.0-1.4","SS1619740442234","trial","","40","500","3159.1849999967963","images/stimuli/spore_stims/complex_04_A_b.gif","images/stimuli/spore_stims/complex_15_A_a.gif","forced_short","","8","complex_dissimilar","images/stimuli/spore_stims/complex_15_A_a.gif","","","","",""
"","4065.785000100732","survey-multi-choice","107","592020","0.0-26.0","SS1619740442234","math_question","","","","","","","","","","","","{""Q0"":""13""}","[0]","13","",""
"","null","html-keyboard-response","108","593241","0.0-27.0-0.0","SS1619740442234","","","null","","","","","","<p><img src= images/blank.png width =""600"" height = ""600"" style=""position:fixed;top:50%; left:50%; transform: translate(-50%, -50%); border:5px solid black"">","","","","","","","",""
"","13275.42999992147","sequential-stimulus-presentation-old","109","607033","0.0-27.0-1.0","SS1619740442234","trial","","40","500","13775.42999992147","images/stimuli/spore_stims/complex_18_A_b.gif","images/stimuli/spore_stims/complex_12_A_a.gif","self_paced","","9","complex_dissimilar","images/stimuli/spore_stims/complex_12_A_a.gif","","","","",""
"","null","html-keyboard-response","110","608028","0.0-27.0-0.1","SS1619740442234","","","null","","","","","","<p><img src= images/blank.png width =""600"" height = ""600"" style=""position:fixed;top:50%; left:50%; transform: translate(-50%, -50%); border:5px solid black"">","","","","","","","",""
"","6762.344999937341","sequential-stimulus-presentation-old","111","615295","0.0-27.0-1.1","SS1619740442234","trial","","40","500","7262.344999937341","images/stimuli/spore_stims/complex_18_A_b.gif","images/stimuli/spore_stims/complex_12_A_a.gif","self_paced","","9","complex_dissimilar","images/stimuli/spore_stims/complex_12_A_a.gif","","","","",""
"","null","html-keyboard-response","112","616248","0.0-27.0-0.2","SS1619740442234","","","null","","","","","","<p><img src= images/blank.png width =""600"" height = ""600"" style=""position:fixed;top:50%; left:50%; transform: translate(-50%, -50%); border:5px solid black"">","","","","","","","",""
"","2517.9350001271814","sequential-stimulus-presentation-old","113","619278","0.0-27.0-1.2","SS1619740442234","trial","","40","500","3017.9350001271814","images/stimuli/spore_stims/complex_18_A_b.gif","images/stimuli/spore_stims/complex_12_A_a.gif","self_paced","","9","complex_dissimilar","images/stimuli/spore_stims/complex_12_A_a.gif","","","","",""
"","null","html-keyboard-response","114","620473","0.0-27.0-0.3","SS1619740442234","","","null","","","","","","<p><img src= images/blank.png width =""600"" height = ""600"" style=""position:fixed;top:50%; left:50%; transform: translate(-50%, -50%); border:5px solid black"">","","","","","","","",""
"","5575.240000151098","sequential-stimulus-presentation-old","115","626562","0.0-27.0-1.3","SS1619740442234","trial","","40","500","6075.240000151098","images/stimuli/spore_stims/complex_18_A_b.gif","images/stimuli/spore_stims/complex_12_A_a.gif","self_paced","","9","complex_dissimilar","images/stimuli/spore_stims/complex_12_A_a.gif","","","","",""
"","null","html-keyboard-response","116","627784","0.0-27.0-0.4","SS1619740442234","","","null","","","","","","<p><img src= images/blank.png width =""600"" height = ""600"" style=""position:fixed;top:50%; left:50%; transform: translate(-50%, -50%); border:5px solid black"">","","","","","","","",""
"","1783.6250001564622","sequential-stimulus-presentation-old","117","630081","0.0-27.0-1.4","SS1619740442234","trial","","40","500","2283.625000156462","images/stimuli/spore_stims/complex_18_A_b.gif","images/stimuli/spore_stims/complex_12_A_a.gif","self_paced","","9","complex_dissimilar","images/stimuli/spore_stims/complex_12_A_a.gif","","","","",""
"","3449.6999999973923","survey-multi-choice","118","633533","0.0-28.0","SS1619740442234","math_question","","","","","","","","","","","","{""Q0"":""8""}","[0]","8","",""
"","null","html-keyboard-response","119","634575","0.0-29.0-0.0","SS1619740442234","","","null","","","","","","<p><img src= images/blank.png width =""600"" height = ""600"" style=""position:fixed;top:50%; left:50%; transform: translate(-50%, -50%); border:5px solid black"">","","","","","","","",""
"","791.2800000049174","sequential-stimulus-presentation-old","120","650370","0.0-29.0-1.0","SS1619740442234","trial","","40","500","1291.2800000049174","images/stimuli/spore_stims/simple_01_A_a.gif","images/stimuli/spore_stims/simple_17_A_b.gif","forced_long","","10","simple_dissimilar","images/stimuli/spore_stims/simple_17_A_b.gif","","","","",""
"","null","html-keyboard-response","121","651196","0.0-29.0-0.1","SS1619740442234","","","null","","","","","","<p><img src= images/blank.png width =""600"" height = ""600"" style=""position:fixed;top:50%; left:50%; transform: translate(-50%, -50%); border:5px solid black"">","","","","","","","",""
"","5676.535000093281","sequential-stimulus-presentation-old","122","657386","0.0-29.0-1.1","SS1619740442234","trial","","40","500","6176.535000093281","images/stimuli/spore_stims/simple_01_A_a.gif","images/stimuli/spore_stims/simple_17_A_b.gif","forced_long","","10","simple_dissimilar","images/stimuli/spore_stims/simple_01_A_a.gif","","","","",""
"","null","html-keyboard-response","123","658311","0.0-29.0-0.2","SS1619740442234","","","null","","","","","","<p><img src= images/blank.png width =""600"" height = ""600"" style=""position:fixed;top:50%; left:50%; transform: translate(-50%, -50%); border:5px solid black"">","","","","","","","",""
"","2962.569999974221","sequential-stimulus-presentation-old","124","661778","0.0-29.0-1.2","SS1619740442234","trial","","40","500","3462.569999974221","images/stimuli/spore_stims/simple_01_A_a.gif","images/stimuli/spore_stims/simple_17_A_b.gif","forced_long","","10","simple_dissimilar","images/stimuli/spore_stims/simple_17_A_b.gif","","","","",""
"","null","html-keyboard-response","125","662623","0.0-29.0-0.3","SS1619740442234","","","null","","","","","","<p><img src= images/blank.png width =""600"" height = ""600"" style=""position:fixed;top:50%; left:50%; transform: translate(-50%, -50%); border:5px solid black"">","","","","","","","",""
"","1709.6249999012798","sequential-stimulus-presentation-old","126","664838","0.0-29.0-1.3","SS1619740442234","trial","","40","500","2209.62499990128","images/stimuli/spore_stims/simple_01_A_a.gif","images/stimuli/spore_stims/simple_17_A_b.gif","forced_long","","10","simple_dissimilar","images/stimuli/spore_stims/simple_17_A_b.gif","","","","",""
"","null","html-keyboard-response","127","665881","0.0-29.0-0.4","SS1619740442234","","","null","","","","","","<p><img src= images/blank.png width =""600"" height = ""600"" style=""position:fixed;top:50%; left:50%; transform: translate(-50%, -50%); border:5px solid black"">","","","","","","","",""
"","3589.2050000838935","sequential-stimulus-presentation-old","128","669988","0.0-29.0-1.4","SS1619740442234","trial","","40","500","4089.2050000838935","images/stimuli/spore_stims/simple_01_A_a.gif","images/stimuli/spore_stims/simple_17_A_b.gif","forced_long","","10","simple_dissimilar","images/stimuli/spore_stims/simple_01_A_a.gif","","","","",""
"","9230.609999969602","survey-multi-choice","129","679221","0.0-30.0","SS1619740442234","math_question","","","","","","","","","","","","{""Q0"":""11""}","[0]","11","",""
"","null","html-keyboard-response","130","680526","0.0-31.0-0.0","SS1619740442234","","","null","","","","","","<p><img src= images/blank.png width =""600"" height = ""600"" style=""position:fixed;top:50%; left:50%; transform: translate(-50%, -50%); border:5px solid black"">","","","","","","","",""
"","6031.399999978021","sequential-stimulus-presentation-old","131","687061","0.0-31.0-1.0","SS1619740442234","trial","","40","500","6531.399999978021","images/stimuli/spore_stims/simple_13_A_a.gif","images/stimuli/spore_stims/simple_19_A_b.gif","self_paced","","11","simple_dissimilar","images/stimuli/spore_stims/simple_19_A_b.gif","","","","",""
"","null","html-keyboard-response","132","687874","0.0-31.0-0.1","SS1619740442234","","","null","","","","","","<p><img src= images/blank.png width =""600"" height = ""600"" style=""position:fixed;top:50%; left:50%; transform: translate(-50%, -50%); border:5px solid black"">","","","","","","","",""
"","3140.390000073239","sequential-stimulus-presentation-old","133","691518","0.0-31.0-1.1","SS1619740442234","trial","","40","500","3640.390000073239","images/stimuli/spore_stims/simple_13_A_a.gif","images/stimuli/spore_stims/simple_19_A_b.gif","self_paced","","11","simple_dissimilar","images/stimuli/spore_stims/simple_19_A_b.gif","","","","",""
"","null","html-keyboard-response","134","692697","0.0-31.0-0.2","SS1619740442234","","","null","","","","","","<p><img src= images/blank.png width =""600"" height = ""600"" style=""position:fixed;top:50%; left:50%; transform: translate(-50%, -50%); border:5px solid black"">","","","","","","","",""
"","3988.8249998912215","sequential-stimulus-presentation-old","135","697189","0.0-31.0-1.2","SS1619740442234","trial","","40","500","4488.8249998912215","images/stimuli/spore_stims/simple_13_A_a.gif","images/stimuli/spore_stims/simple_19_A_b.gif","self_paced","","11","simple_dissimilar","images/stimuli/spore_stims/simple_19_A_b.gif","","","","",""
"","null","html-keyboard-response","136","698430","0.0-31.0-0.3","SS1619740442234","","","null","","","","","","<p><img src= images/blank.png width =""600"" height = ""600"" style=""position:fixed;top:50%; left:50%; transform: translate(-50%, -50%); border:5px solid black"">","","","","","","","",""
"","3405.1300000865012","sequential-stimulus-presentation-old","137","702340","0.0-31.0-1.3","SS1619740442234","trial","","40","500","3905.1300000865012","images/stimuli/spore_stims/simple_13_A_a.gif","images/stimuli/spore_stims/simple_19_A_b.gif","self_paced","","11","simple_dissimilar","images/stimuli/spore_stims/simple_19_A_b.gif","","","","",""
"[{""page_index"":0,""viewing_time"":5429.7249999362975}]","5430.034999968484","instructions","138","707773","0.0-32.0","SS1619740442234","instructions","","","","","","","","","","","","","","","",""
"","7796.044999966398","survey-likert","139","715574","0.0-33.0","SS1619740442234","similarity_question","","","","","","","","","","","","{""Q0"":0}","[0]","","images/stimuli/spore_stims/simple_01_A_a.gif","images/stimuli/spore_stims/simple_17_A_b.gif"
"","4241.195000009611","survey-likert","140","719821","0.0-34.0","SS1619740442234","similarity_question","","","","","","","","","","","","{""Q0"":0}","[0]","","images/stimuli/spore_stims/complex_12_A_a.gif","images/stimuli/spore_stims/complex_18_A_b.gif"
"","4170.424999902025","survey-likert","141","723998","0.0-35.0","SS1619740442234","similarity_question","","","","","","","","","","","","{""Q0"":2}","[0]","","images/stimuli/spore_stims/simple_06_A_b.gif","images/stimuli/spore_stims/simple_07_A_a.gif"
"","3202.0149999298155","survey-likert","142","727205","0.0-36.0","SS1619740442234","similarity_question","","","","","","","","","","","","{""Q0"":0}","[0]","","images/stimuli/spore_stims/complex_15_A_b.gif","images/stimuli/spore_stims/complex_18_A_a.gif"
"","5387.665000045672","survey-likert","143","732597","0.0-37.0","SS1619740442234","similarity_question","","","","","","","","","","","","{""Q0"":5}","[0]","","images/stimuli/spore_stims/simple_08_A_a.gif","images/stimuli/spore_stims/simple_12_A_b.gif"
"","6298.244999954477","survey-likert","144","738902","0.0-38.0","SS1619740442234","similarity_question","","","","","","","","","","","","{""Q0"":2}","[0]","","images/stimuli/spore_stims/complex_08_A_b.gif","images/stimuli/spore_stims/complex_10_A_a.gif"
"","3423.774999799207","survey-likert","145","742333","0.0-39.0","SS1619740442234","similarity_question","","","","","","","","","","","","{""Q0"":0}","[0]","","images/stimuli/spore_stims/complex_09_A_a.gif","images/stimuli/spore_stims/complex_06_A_b.gif"
"","3609.9199999589473","survey-likert","146","745949","0.0-40.0","SS1619740442234","similarity_question","","","","","","","","","","","","{""Q0"":0}","[0]","","images/stimuli/spore_stims/complex_08_A_a.gif","images/stimuli/spore_stims/complex_11_A_b.gif"
"","4081.840000115335","survey-likert","147","750037","0.0-41.0","SS1619740442234","similarity_question","","","","","","","","","","","","{""Q0"":5}","[0]","","images/stimuli/spore_stims/simple_19_A_b.gif","images/stimuli/spore_stims/simple_13_A_a.gif"
"","2714.9750001262873","survey-likert","148","752757","0.0-42.0","SS1619740442234","similarity_question","","","","","","","","","","","","{""Q0"":4}","[0]","","images/stimuli/spore_stims/simple_10_A_b.gif","images/stimuli/spore_stims/simple_14_A_a.gif"
"","2617.629999993369","survey-likert","149","755381","0.0-43.0","SS1619740442234","similarity_question","","","","","","","","","","","","{""Q0"":4}","[0]","","images/stimuli/spore_stims/simple_11_A_a.gif","images/stimuli/spore_stims/simple_20_A_b.gif"
"","3156.2850000336766","survey-likert","150","758542","0.0-44.0","SS1619740442234","similarity_question","","","","","","","","","","","","{""Q0"":2}","[0]","","images/stimuli/spore_stims/complex_04_A_b.gif","images/stimuli/spore_stims/complex_15_A_a.gif"
"[{""page_index"":0,""viewing_time"":4361.53499991633}]","4361.7599999997765","instructions","151","762908","0.0-45.0","SS1619740442234","instructions","","","","","","","","","","","","","","","",""
"","7718.170000007376","survey-likert","152","770629","0.0-46.0","SS1619740442234","","","","","","","","","images/stimuli/spore_stims/complex_08_A_a.gif","","","","{""Q0"":4}","[0]","","",""
"","4978.390000062063","survey-likert","153","775613","0.0-47.0","SS1619740442234","","","","","","","","","images/stimuli/spore_stims/simple_14_A_a.gif","","","","{""Q0"":1}","[0]","","",""
"","7513.280000071973","survey-likert","154","783133","0.0-48.0","SS1619740442234","","","","","","","","","images/stimuli/spore_stims/complex_08_A_b.gif","","","","{""Q0"":4}","[0]","","",""
"","3097.569999983534","survey-likert","155","786236","0.0-49.0","SS1619740442234","","","","","","","","","images/stimuli/spore_stims/complex_12_A_a.gif","","","","{""Q0"":5}","[0]","","",""
"","2540.5000001192093","survey-likert","156","788783","0.0-50.0","SS1619740442234","","","","","","","","","images/stimuli/spore_stims/complex_04_A_b.gif","","","","{""Q0"":6}","[0]","","",""
"","2016.594999935478","survey-likert","157","790805","0.0-51.0","SS1619740442234","","","","","","","","","images/stimuli/spore_stims/complex_09_A_a.gif","","","","{""Q0"":6}","[0]","","",""
"","1777.5599998421967","survey-likert","158","792589","0.0-52.0","SS1619740442234","","","","","","","","","images/stimuli/spore_stims/simple_06_A_b.gif","","","","{""Q0"":0}","[0]","","",""
"","1714.6250000223517","survey-likert","159","794309","0.0-53.0","SS1619740442234","","","","","","","","","images/stimuli/spore_stims/simple_13_A_a.gif","","","","{""Q0"":0}","[0]","","",""
"","1522.7500000037253","survey-likert","160","795838","0.0-54.0","SS1619740442234","","","","","","","","","images/stimuli/spore_stims/simple_11_A_a.gif","","","","{""Q0"":1}","[0]","","",""
"","3561.4949997980148","survey-likert","161","799405","0.0-55.0","SS1619740442234","","","","","","","","","images/stimuli/spore_stims/complex_18_A_a.gif","","","","{""Q0"":5}","[0]","","",""
"","1657.8899999149144","survey-likert","162","801069","0.0-56.0","SS1619740442234","","","","","","","","","images/stimuli/spore_stims/simple_12_A_b.gif","","","","{""Q0"":1}","[0]","","",""
"","4682.134999893606","survey-likert","163","805757","0.0-57.0","SS1619740442234","","","","","","","","","images/stimuli/spore_stims/simple_17_A_b.gif","","","","{""Q0"":2}","[0]","","",""
"[{""page_index"":0,""viewing_time"":1730.3250001277775}]","1730.710000032559","instructions","164","807493","0.0-58.0","SS1619740442234","instructions","","","","","","","","","","","","","","","",""
"","2681.3550000078976","demog-age","165","810181","0.0-59.0","SS1619740442234","","","","","","","","","","","","","{""age"":""21""}","","","",""
"","6498.355000047013","demog-ethnic-US","166","816685","0.0-60.0","SS1619740442234","","","","","","","","","","","","","{""ethnicity"":[""Hispanic or Latino""]}","[0]","","",""
"","13258.224999997765","demog-gender-and-education","167","829949","0.0-61.0","SS1619740442234","","","","","","","","","","","","","{""gender"":""Female"",""education"":""Some high school""}","[0,1]","","",""
"","6793.344999896362","survey-text","168","836749","0.0-62.0","SS1619740442234","feedback","","","","","","","","","","","","{""Q0"":""no""}","","","",""
"[{""page_index"":0,""viewing_time"":2349.4849998969585}]","2349.7499998193234","instructions","169","839101","0.0-63.0","SS1619740442234","instructions","","","","","","","","","","","","","","","",""
