"view_history","rt","trial_type","trial_index","time_elapsed","internal_node_id","subject","stimulus_type","trial_stimulus","key_press","minimum_viewing_duration","trial_looking_time","block_deviant","block_background","exposure_type","stimulus","block_number","block_type","stimulus_displayed","responses","question_order","math_correct_answer","stimulus_left","stimulus_right"
"[{""page_index"":0,""viewing_time"":16868.309999932535}]","16869.459999958053","instructions","0","16871","0.0-0.0","SS1619740126736","","","","","","","","","","","","","","","","",""
"[{""page_index"":0,""viewing_time"":17378.13000008464},{""page_index"":1,""viewing_time"":7275.6599999265745}]","24654.220000025816","instructions","1","43529","0.0-1.0","SS1619740126736","instructions","","","","","","","","","","","","","","","",""
"","9025.164999999106","sequential-stimulus-presentation-old","2","53058","0.0-2.0","SS1619740126736","","","40","500","9525.164999999106","null","null","self_paced","","","","","","","","",""
"","3608.9099999517202","sequential-stimulus-presentation-old","3","57172","0.0-3.0","SS1619740126736","","","40","500","4108.90999995172","null","null","self_paced","","","","","","","","",""
"[{""page_index"":0,""viewing_time"":20068.084999918938}]","20068.544999929145","instructions","4","77241","0.0-4.0","SS1619740126736","instructions","","","","","","","","","","","","","","","",""
"","1615.830000024289","sequential-stimulus-presentation-old","5","93862","0.0-5.0","SS1619740126736","","","40","500","2115.830000024289","null","null","forced_long","","","","","","","","",""
"","4055.144999991171","sequential-stimulus-presentation-old","6","98421","0.0-6.0","SS1619740126736","","","40","500","4555.144999991171","null","null","forced_long","","","","","","","","",""
"[{""page_index"":0,""viewing_time"":5671.314999926835}]","5671.934999991208","instructions","7","104095","0.0-7.0","SS1619740126736","instructions","","","","","","","","","","","","","","","",""
"[{""page_index"":0,""viewing_time"":14185.904999962077},{""page_index"":1,""viewing_time"":10103.720000013709},{""page_index"":2,""viewing_time"":7664.074999978766},{""page_index"":3,""viewing_time"":1751.6499999910593},{""page_index"":4,""viewing_time"":1128.5449999850243}]","34834.27999995183","instructions","8","138931","0.0-8.0","SS1619740126736","instructions","","","","","","","","","","","","","","","",""
"","null","html-keyboard-response","9","139877","0.0-9.0-0.0","SS1619740126736","","","null","","","","","","<p><img src= images/blank.png width =""600"" height = ""600"" style=""position:fixed;top:50%; left:50%; transform: translate(-50%, -50%); border:5px solid black"">","","","","","","","",""
"","28886.595000047237","sequential-stimulus-presentation-old","10","169267","0.0-9.0-1.0","SS1619740126736","trial","","40","500","29386.595000047237","images/stimuli/spore_stims/complex_06_A_b.gif","images/stimuli/spore_stims/complex_18_A_a.gif","self_paced","","0","complex_dissimilar","images/stimuli/spore_stims/complex_18_A_a.gif","","","","",""
"","null","html-keyboard-response","11","170462","0.0-9.0-0.1","SS1619740126736","","","null","","","","","","<p><img src= images/blank.png width =""600"" height = ""600"" style=""position:fixed;top:50%; left:50%; transform: translate(-50%, -50%); border:5px solid black"">","","","","","","","",""
"","4648.414999945089","sequential-stimulus-presentation-old","12","175618","0.0-9.0-1.1","SS1619740126736","trial","","40","500","5148.414999945089","images/stimuli/spore_stims/complex_06_A_b.gif","images/stimuli/spore_stims/complex_18_A_a.gif","self_paced","","0","complex_dissimilar","images/stimuli/spore_stims/complex_18_A_a.gif","","","","",""
"","null","html-keyboard-response","13","176814","0.0-9.0-0.2","SS1619740126736","","","null","","","","","","<p><img src= images/blank.png width =""600"" height = ""600"" style=""position:fixed;top:50%; left:50%; transform: translate(-50%, -50%); border:5px solid black"">","","","","","","","",""
"","4208.940000040457","sequential-stimulus-presentation-old","14","181530","0.0-9.0-1.2","SS1619740126736","trial","","40","500","4708.940000040457","images/stimuli/spore_stims/complex_06_A_b.gif","images/stimuli/spore_stims/complex_18_A_a.gif","self_paced","","0","complex_dissimilar","images/stimuli/spore_stims/complex_18_A_a.gif","","","","",""
"","null","html-keyboard-response","15","182812","0.0-9.0-0.3","SS1619740126736","","","null","","","","","","<p><img src= images/blank.png width =""600"" height = ""600"" style=""position:fixed;top:50%; left:50%; transform: translate(-50%, -50%); border:5px solid black"">","","","","","","","",""
"","8645.959999994375","sequential-stimulus-presentation-old","16","191969","0.0-9.0-1.3","SS1619740126736","trial","","40","500","9145.959999994375","images/stimuli/spore_stims/complex_06_A_b.gif","images/stimuli/spore_stims/complex_18_A_a.gif","self_paced","","0","complex_dissimilar","images/stimuli/spore_stims/complex_06_A_b.gif","","","","",""
"","null","html-keyboard-response","17","193180","0.0-9.0-0.4","SS1619740126736","","","null","","","","","","<p><img src= images/blank.png width =""600"" height = ""600"" style=""position:fixed;top:50%; left:50%; transform: translate(-50%, -50%); border:5px solid black"">","","","","","","","",""
"","1330.9900000458583","sequential-stimulus-presentation-old","18","195017","0.0-9.0-1.4","SS1619740126736","trial","","40","500","1830.9900000458583","images/stimuli/spore_stims/complex_06_A_b.gif","images/stimuli/spore_stims/complex_18_A_a.gif","self_paced","","0","complex_dissimilar","images/stimuli/spore_stims/complex_06_A_b.gif","","","","",""
"","null","html-keyboard-response","19","195941","0.0-9.0-0.5","SS1619740126736","","","null","","","","","","<p><img src= images/blank.png width =""600"" height = ""600"" style=""position:fixed;top:50%; left:50%; transform: translate(-50%, -50%); border:5px solid black"">","","","","","","","",""
"","2545.390000101179","sequential-stimulus-presentation-old","20","198994","0.0-9.0-1.5","SS1619740126736","trial","","40","500","3045.390000101179","images/stimuli/spore_stims/complex_06_A_b.gif","images/stimuli/spore_stims/complex_18_A_a.gif","self_paced","","0","complex_dissimilar","images/stimuli/spore_stims/complex_18_A_a.gif","","","","",""
"","7224.694999982603","survey-multi-choice","21","206223","0.0-10.0","SS1619740126736","math_question","","","","","","","","","","","","{""Q0"":""13""}","[0]","13","",""
"","null","html-keyboard-response","22","207202","0.0-11.0-0.0","SS1619740126736","","","null","","","","","","<p><img src= images/blank.png width =""600"" height = ""600"" style=""position:fixed;top:50%; left:50%; transform: translate(-50%, -50%); border:5px solid black"">","","","","","","","",""
"","1116.3599999854341","sequential-stimulus-presentation-old","23","223325","0.0-11.0-1.0","SS1619740126736","trial","","40","500","1616.3599999854341","images/stimuli/spore_stims/simple_08_A_a.gif","images/stimuli/spore_stims/simple_16_A_b.gif","forced_long","","1","simple_dissimilar","images/stimuli/spore_stims/simple_16_A_b.gif","","","","",""
"","null","html-keyboard-response","24","224617","0.0-11.0-0.1","SS1619740126736","","","null","","","","","","<p><img src= images/blank.png width =""600"" height = ""600"" style=""position:fixed;top:50%; left:50%; transform: translate(-50%, -50%); border:5px solid black"">","","","","","","","",""
"","8352.549999952316","sequential-stimulus-presentation-old","25","233475","0.0-11.0-1.1","SS1619740126736","trial","","40","500","8852.549999952316","images/stimuli/spore_stims/simple_08_A_a.gif","images/stimuli/spore_stims/simple_16_A_b.gif","forced_long","","1","simple_dissimilar","images/stimuli/spore_stims/simple_16_A_b.gif","","","","",""
"","null","html-keyboard-response","26","234518","0.0-11.0-0.2","SS1619740126736","","","null","","","","","","<p><img src= images/blank.png width =""600"" height = ""600"" style=""position:fixed;top:50%; left:50%; transform: translate(-50%, -50%); border:5px solid black"">","","","","","","","",""
"","5952.6450000703335","sequential-stimulus-presentation-old","27","240980","0.0-11.0-1.2","SS1619740126736","trial","","40","500","6452.6450000703335","images/stimuli/spore_stims/simple_08_A_a.gif","images/stimuli/spore_stims/simple_16_A_b.gif","forced_long","","1","simple_dissimilar","images/stimuli/spore_stims/simple_08_A_a.gif","","","","",""
"","null","html-keyboard-response","28","242277","0.0-11.0-0.3","SS1619740126736","","","null","","","","","","<p><img src= images/blank.png width =""600"" height = ""600"" style=""position:fixed;top:50%; left:50%; transform: translate(-50%, -50%); border:5px solid black"">","","","","","","","",""
"","5214.984999969602","sequential-stimulus-presentation-old","29","247997","0.0-11.0-1.3","SS1619740126736","trial","","40","500","5714.984999969602","images/stimuli/spore_stims/simple_08_A_a.gif","images/stimuli/spore_stims/simple_16_A_b.gif","forced_long","","1","simple_dissimilar","images/stimuli/spore_stims/simple_16_A_b.gif","","","","",""
"","null","html-keyboard-response","30","249077","0.0-11.0-0.4","SS1619740126736","","","null","","","","","","<p><img src= images/blank.png width =""600"" height = ""600"" style=""position:fixed;top:50%; left:50%; transform: translate(-50%, -50%); border:5px solid black"">","","","","","","","",""
"","1259.6499999053776","sequential-stimulus-presentation-old","31","250842","0.0-11.0-1.4","SS1619740126736","trial","","40","500","1759.6499999053776","images/stimuli/spore_stims/simple_08_A_a.gif","images/stimuli/spore_stims/simple_16_A_b.gif","forced_long","","1","simple_dissimilar","images/stimuli/spore_stims/simple_08_A_a.gif","","","","",""
"","4011.115000001155","survey-multi-choice","32","254858","0.0-12.0","SS1619740126736","math_question","","","","","","","","","","","","{""Q0"":""5""}","[0]","5","",""
"","null","html-keyboard-response","33","255840","0.0-13.0-0.0","SS1619740126736","","","null","","","","","","<p><img src= images/blank.png width =""600"" height = ""600"" style=""position:fixed;top:50%; left:50%; transform: translate(-50%, -50%); border:5px solid black"">","","","","","","","",""
"","42.37499996088445","sequential-stimulus-presentation-old","34","270890","0.0-13.0-1.0","SS1619740126736","trial","","40","500","542.3749999608845","images/stimuli/spore_stims/simple_14_A_b.gif","images/stimuli/spore_stims/simple_12_A_a.gif","forced_long","","2","simple_dissimilar","images/stimuli/spore_stims/simple_12_A_a.gif","","","","",""
"","null","html-keyboard-response","35","271732","0.0-13.0-0.1","SS1619740126736","","","null","","","","","","<p><img src= images/blank.png width =""600"" height = ""600"" style=""position:fixed;top:50%; left:50%; transform: translate(-50%, -50%); border:5px solid black"">","","","","","","","",""
"","4369.990000035614","sequential-stimulus-presentation-old","36","276606","0.0-13.0-1.1","SS1619740126736","trial","","40","500","4869.990000035614","images/stimuli/spore_stims/simple_14_A_b.gif","images/stimuli/spore_stims/simple_12_A_a.gif","forced_long","","2","simple_dissimilar","images/stimuli/spore_stims/simple_12_A_a.gif","","","","",""
"","null","html-keyboard-response","37","277672","0.0-13.0-0.2","SS1619740126736","","","null","","","","","","<p><img src= images/blank.png width =""600"" height = ""600"" style=""position:fixed;top:50%; left:50%; transform: translate(-50%, -50%); border:5px solid black"">","","","","","","","",""
"","2382.5550000183284","sequential-stimulus-presentation-old","38","280560","0.0-13.0-1.2","SS1619740126736","trial","","40","500","2882.5550000183284","images/stimuli/spore_stims/simple_14_A_b.gif","images/stimuli/spore_stims/simple_12_A_a.gif","forced_long","","2","simple_dissimilar","images/stimuli/spore_stims/simple_14_A_b.gif","","","","",""
"","null","html-keyboard-response","39","281597","0.0-13.0-0.3","SS1619740126736","","","null","","","","","","<p><img src= images/blank.png width =""600"" height = ""600"" style=""position:fixed;top:50%; left:50%; transform: translate(-50%, -50%); border:5px solid black"">","","","","","","","",""
"","1145.825000014156","sequential-stimulus-presentation-old","40","283255","0.0-13.0-1.3","SS1619740126736","trial","","40","500","1645.825000014156","images/stimuli/spore_stims/simple_14_A_b.gif","images/stimuli/spore_stims/simple_12_A_a.gif","forced_long","","2","simple_dissimilar","images/stimuli/spore_stims/simple_14_A_b.gif","","","","",""
"","5242.749999975786","survey-multi-choice","41","288501","0.0-14.0","SS1619740126736","math_question","","","","","","","","","","","","{""Q0"":""11""}","[0]","11","",""
"","null","html-keyboard-response","42","289340","0.0-15.0-0.0","SS1619740126736","","","null","","","","","","<p><img src= images/blank.png width =""600"" height = ""600"" style=""position:fixed;top:50%; left:50%; transform: translate(-50%, -50%); border:5px solid black"">","","","","","","","",""
"","874.5650000637397","sequential-stimulus-presentation-old","43","305222","0.0-15.0-1.0","SS1619740126736","trial","","40","500","1374.5650000637397","images/stimuli/spore_stims/complex_15_A_a.gif","images/stimuli/spore_stims/complex_16_A_b.gif","forced_long","","3","complex_dissimilar","images/stimuli/spore_stims/complex_16_A_b.gif","","","","",""
"","null","html-keyboard-response","44","306416","0.0-15.0-0.1","SS1619740126736","","","null","","","","","","<p><img src= images/blank.png width =""600"" height = ""600"" style=""position:fixed;top:50%; left:50%; transform: translate(-50%, -50%); border:5px solid black"">","","","","","","","",""
"","1867.6249999552965","sequential-stimulus-presentation-old","45","308789","0.0-15.0-1.1","SS1619740126736","trial","","40","500","2367.6249999552965","images/stimuli/spore_stims/complex_15_A_a.gif","images/stimuli/spore_stims/complex_16_A_b.gif","forced_long","","3","complex_dissimilar","images/stimuli/spore_stims/complex_16_A_b.gif","","","","",""
"","null","html-keyboard-response","46","309719","0.0-15.0-0.2","SS1619740126736","","","null","","","","","","<p><img src= images/blank.png width =""600"" height = ""600"" style=""position:fixed;top:50%; left:50%; transform: translate(-50%, -50%); border:5px solid black"">","","","","","","","",""
"","5169.084999943152","sequential-stimulus-presentation-old","47","315395","0.0-15.0-1.2","SS1619740126736","trial","","40","500","5669.084999943152","images/stimuli/spore_stims/complex_15_A_a.gif","images/stimuli/spore_stims/complex_16_A_b.gif","forced_long","","3","complex_dissimilar","images/stimuli/spore_stims/complex_15_A_a.gif","","","","",""
"","null","html-keyboard-response","48","316582","0.0-15.0-0.3","SS1619740126736","","","null","","","","","","<p><img src= images/blank.png width =""600"" height = ""600"" style=""position:fixed;top:50%; left:50%; transform: translate(-50%, -50%); border:5px solid black"">","","","","","","","",""
"","1273.3299999963492","sequential-stimulus-presentation-old","49","318362","0.0-15.0-1.3","SS1619740126736","trial","","40","500","1773.3299999963492","images/stimuli/spore_stims/complex_15_A_a.gif","images/stimuli/spore_stims/complex_16_A_b.gif","forced_long","","3","complex_dissimilar","images/stimuli/spore_stims/complex_16_A_b.gif","","","","",""
"","4288.67000003811","survey-multi-choice","50","322654","0.0-16.0","SS1619740126736","math_question","","","","","","","","","","","","{""Q0"":""13""}","[0]","13","",""
"","null","html-keyboard-response","51","323906","0.0-17.0-0.0","SS1619740126736","","","null","","","","","","<p><img src= images/blank.png width =""600"" height = ""600"" style=""position:fixed;top:50%; left:50%; transform: translate(-50%, -50%); border:5px solid black"">","","","","","","","",""
"","620.2849999535829","sequential-stimulus-presentation-old","52","339533","0.0-17.0-1.0","SS1619740126736","trial","","40","500","1120.2849999535829","images/stimuli/spore_stims/complex_11_A_a.gif","images/stimuli/spore_stims/complex_17_A_b.gif","forced_long","","4","complex_dissimilar","images/stimuli/spore_stims/complex_17_A_b.gif","","","","",""
"","null","html-keyboard-response","53","340576","0.0-17.0-0.1","SS1619740126736","","","null","","","","","","<p><img src= images/blank.png width =""600"" height = ""600"" style=""position:fixed;top:50%; left:50%; transform: translate(-50%, -50%); border:5px solid black"">","","","","","","","",""
"","4822.734999936074","sequential-stimulus-presentation-old","54","345908","0.0-17.0-1.1","SS1619740126736","trial","","40","500","5322.734999936074","images/stimuli/spore_stims/complex_11_A_a.gif","images/stimuli/spore_stims/complex_17_A_b.gif","forced_long","","4","complex_dissimilar","images/stimuli/spore_stims/complex_11_A_a.gif","","","","",""
"","null","html-keyboard-response","55","346797","0.0-17.0-0.2","SS1619740126736","","","null","","","","","","<p><img src= images/blank.png width =""600"" height = ""600"" style=""position:fixed;top:50%; left:50%; transform: translate(-50%, -50%); border:5px solid black"">","","","","","","","",""
"","1284.7400000318885","sequential-stimulus-presentation-old","56","348591","0.0-17.0-1.2","SS1619740126736","trial","","40","500","1784.7400000318885","images/stimuli/spore_stims/complex_11_A_a.gif","images/stimuli/spore_stims/complex_17_A_b.gif","forced_long","","4","complex_dissimilar","images/stimuli/spore_stims/complex_17_A_b.gif","","","","",""
"","null","html-keyboard-response","57","349877","0.0-17.0-0.3","SS1619740126736","","","null","","","","","","<p><img src= images/blank.png width =""600"" height = ""600"" style=""position:fixed;top:50%; left:50%; transform: translate(-50%, -50%); border:5px solid black"">","","","","","","","",""
"","804.1700000176206","sequential-stimulus-presentation-old","58","351190","0.0-17.0-1.3","SS1619740126736","trial","","40","500","1304.1700000176206","images/stimuli/spore_stims/complex_11_A_a.gif","images/stimuli/spore_stims/complex_17_A_b.gif","forced_long","","4","complex_dissimilar","images/stimuli/spore_stims/complex_17_A_b.gif","","","","",""
"","null","html-keyboard-response","59","352080","0.0-17.0-0.4","SS1619740126736","","","null","","","","","","<p><img src= images/blank.png width =""600"" height = ""600"" style=""position:fixed;top:50%; left:50%; transform: translate(-50%, -50%); border:5px solid black"">","","","","","","","",""
"","444.41999995615333","sequential-stimulus-presentation-old","60","353030","0.0-17.0-1.4","SS1619740126736","trial","","40","500","944.4199999561533","images/stimuli/spore_stims/complex_11_A_a.gif","images/stimuli/spore_stims/complex_17_A_b.gif","forced_long","","4","complex_dissimilar","images/stimuli/spore_stims/complex_17_A_b.gif","","","","",""
"","3536.850000033155","survey-multi-choice","61","356570","0.0-18.0","SS1619740126736","math_question","","","","","","","","","","","","{""Q0"":""12""}","[0]","12","",""
"","null","html-keyboard-response","62","357791","0.0-19.0-0.0","SS1619740126736","","","null","","","","","","<p><img src= images/blank.png width =""600"" height = ""600"" style=""position:fixed;top:50%; left:50%; transform: translate(-50%, -50%); border:5px solid black"">","","","","","","","",""
"","17322.54500000272","sequential-stimulus-presentation-old","63","375619","0.0-19.0-1.0","SS1619740126736","trial","","40","500","17822.54500000272","images/stimuli/spore_stims/simple_05_A_a.gif","images/stimuli/spore_stims/simple_04_A_b.gif","self_paced","","5","simple_dissimilar","images/stimuli/spore_stims/simple_04_A_b.gif","","","","",""
"","null","html-keyboard-response","64","376498","0.0-19.0-0.1","SS1619740126736","","","null","","","","","","<p><img src= images/blank.png width =""600"" height = ""600"" style=""position:fixed;top:50%; left:50%; transform: translate(-50%, -50%); border:5px solid black"">","","","","","","","",""
"","510.5650000041351","sequential-stimulus-presentation-old","65","377518","0.0-19.0-1.1","SS1619740126736","trial","","40","500","1010.5650000041351","images/stimuli/spore_stims/simple_05_A_a.gif","images/stimuli/spore_stims/simple_04_A_b.gif","self_paced","","5","simple_dissimilar","images/stimuli/spore_stims/simple_04_A_b.gif","","","","",""
"","null","html-keyboard-response","66","378438","0.0-19.0-0.2","SS1619740126736","","","null","","","","","","<p><img src= images/blank.png width =""600"" height = ""600"" style=""position:fixed;top:50%; left:50%; transform: translate(-50%, -50%); border:5px solid black"">","","","","","","","",""
"","5.235000047832727","sequential-stimulus-presentation-old","67","378952","0.0-19.0-1.2","SS1619740126736","trial","","40","500","505.2350000478327","images/stimuli/spore_stims/simple_05_A_a.gif","images/stimuli/spore_stims/simple_04_A_b.gif","self_paced","","5","simple_dissimilar","images/stimuli/spore_stims/simple_04_A_b.gif","","","","",""
"","null","html-keyboard-response","68","380053","0.0-19.0-0.3","SS1619740126736","","","null","","","","","","<p><img src= images/blank.png width =""600"" height = ""600"" style=""position:fixed;top:50%; left:50%; transform: translate(-50%, -50%); border:5px solid black"">","","","","","","","",""
"","119.8500000173226","sequential-stimulus-presentation-old","69","380679","0.0-19.0-1.3","SS1619740126736","trial","","40","500","619.8500000173226","images/stimuli/spore_stims/simple_05_A_a.gif","images/stimuli/spore_stims/simple_04_A_b.gif","self_paced","","5","simple_dissimilar","images/stimuli/spore_stims/simple_04_A_b.gif","","","","",""
"","null","html-keyboard-response","70","381803","0.0-19.0-0.4","SS1619740126736","","","null","","","","","","<p><img src= images/blank.png width =""600"" height = ""600"" style=""position:fixed;top:50%; left:50%; transform: translate(-50%, -50%); border:5px solid black"">","","","","","","","",""
"","10743.0549999699","sequential-stimulus-presentation-old","71","393057","0.0-19.0-1.4","SS1619740126736","trial","","40","500","11243.0549999699","images/stimuli/spore_stims/simple_05_A_a.gif","images/stimuli/spore_stims/simple_04_A_b.gif","self_paced","","5","simple_dissimilar","images/stimuli/spore_stims/simple_04_A_b.gif","","","","",""
"","null","html-keyboard-response","72","394288","0.0-19.0-0.5","SS1619740126736","","","null","","","","","","<p><img src= images/blank.png width =""600"" height = ""600"" style=""position:fixed;top:50%; left:50%; transform: translate(-50%, -50%); border:5px solid black"">","","","","","","","",""
"","998.7350000301376","sequential-stimulus-presentation-old","73","395796","0.0-19.0-1.5","SS1619740126736","trial","","40","500","1498.7350000301376","images/stimuli/spore_stims/simple_05_A_a.gif","images/stimuli/spore_stims/simple_04_A_b.gif","self_paced","","5","simple_dissimilar","images/stimuli/spore_stims/simple_04_A_b.gif","","","","",""
"","3735.5550000211224","survey-multi-choice","74","399538","0.0-20.0","SS1619740126736","math_question","","","","","","","","","","","","{""Q0"":""6""}","[0]","6","",""
"","null","html-keyboard-response","75","400598","0.0-21.0-0.0","SS1619740126736","","","null","","","","","","<p><img src= images/blank.png width =""600"" height = ""600"" style=""position:fixed;top:50%; left:50%; transform: translate(-50%, -50%); border:5px solid black"">","","","","","","","",""
"","2456.385000026785","sequential-stimulus-presentation-old","76","403565","0.0-21.0-1.0","SS1619740126736","trial","","40","500","2956.385000026785","images/stimuli/spore_stims/simple_06_A_b.gif","images/stimuli/spore_stims/simple_11_A_a.gif","forced_short","","6","simple_dissimilar","images/stimuli/spore_stims/simple_11_A_a.gif","","","","",""
"","null","html-keyboard-response","77","404401","0.0-21.0-0.1","SS1619740126736","","","null","","","","","","<p><img src= images/blank.png width =""600"" height = ""600"" style=""position:fixed;top:50%; left:50%; transform: translate(-50%, -50%); border:5px solid black"">","","","","","","","",""
"","1205.3649999434128","sequential-stimulus-presentation-old","78","406114","0.0-21.0-1.1","SS1619740126736","trial","","40","500","1705.3649999434128","images/stimuli/spore_stims/simple_06_A_b.gif","images/stimuli/spore_stims/simple_11_A_a.gif","forced_short","","6","simple_dissimilar","images/stimuli/spore_stims/simple_11_A_a.gif","","","","",""
"","null","html-keyboard-response","79","407298","0.0-21.0-0.2","SS1619740126736","","","null","","","","","","<p><img src= images/blank.png width =""600"" height = ""600"" style=""position:fixed;top:50%; left:50%; transform: translate(-50%, -50%); border:5px solid black"">","","","","","","","",""
"","189.19499998446554","sequential-stimulus-presentation-old","80","407993","0.0-21.0-1.2","SS1619740126736","trial","","40","500","689.1949999844655","images/stimuli/spore_stims/simple_06_A_b.gif","images/stimuli/spore_stims/simple_11_A_a.gif","forced_short","","6","simple_dissimilar","images/stimuli/spore_stims/simple_11_A_a.gif","","","","",""
"","null","html-keyboard-response","81","409026","0.0-21.0-0.3","SS1619740126736","","","null","","","","","","<p><img src= images/blank.png width =""600"" height = ""600"" style=""position:fixed;top:50%; left:50%; transform: translate(-50%, -50%); border:5px solid black"">","","","","","","","",""
"","5897.4900000030175","sequential-stimulus-presentation-old","82","415430","0.0-21.0-1.3","SS1619740126736","trial","","40","500","6397.4900000030175","images/stimuli/spore_stims/simple_06_A_b.gif","images/stimuli/spore_stims/simple_11_A_a.gif","forced_short","","6","simple_dissimilar","images/stimuli/spore_stims/simple_11_A_a.gif","","","","",""
"","3472.45500003919","survey-multi-choice","83","418905","0.0-22.0","SS1619740126736","math_question","","","","","","","","","","","","{""Q0"":""5""}","[0]","5","",""
"","null","html-keyboard-response","84","420137","0.0-23.0-0.0","SS1619740126736","","","null","","","","","","<p><img src= images/blank.png width =""600"" height = ""600"" style=""position:fixed;top:50%; left:50%; transform: translate(-50%, -50%); border:5px solid black"">","","","","","","","",""
"","1888.8300000689924","sequential-stimulus-presentation-old","85","422533","0.0-23.0-1.0","SS1619740126736","trial","","40","500","2388.8300000689924","images/stimuli/spore_stims/complex_12_A_b.gif","images/stimuli/spore_stims/complex_16_A_a.gif","forced_short","","7","complex_dissimilar","images/stimuli/spore_stims/complex_16_A_a.gif","","","","",""
"","null","html-keyboard-response","86","423651","0.0-23.0-0.1","SS1619740126736","","","null","","","","","","<p><img src= images/blank.png width =""600"" height = ""600"" style=""position:fixed;top:50%; left:50%; transform: translate(-50%, -50%); border:5px solid black"">","","","","","","","",""
"","1156.4549999311566","sequential-stimulus-presentation-old","87","425313","0.0-23.0-1.1","SS1619740126736","trial","","40","500","1656.4549999311566","images/stimuli/spore_stims/complex_12_A_b.gif","images/stimuli/spore_stims/complex_16_A_a.gif","forced_short","","7","complex_dissimilar","images/stimuli/spore_stims/complex_16_A_a.gif","","","","",""
"","null","html-keyboard-response","88","426236","0.0-23.0-0.2","SS1619740126736","","","null","","","","","","<p><img src= images/blank.png width =""600"" height = ""600"" style=""position:fixed;top:50%; left:50%; transform: translate(-50%, -50%); border:5px solid black"">","","","","","","","",""
"","228.9650000166148","sequential-stimulus-presentation-old","89","426971","0.0-23.0-1.2","SS1619740126736","trial","","40","500","728.9650000166148","images/stimuli/spore_stims/complex_12_A_b.gif","images/stimuli/spore_stims/complex_16_A_a.gif","forced_short","","7","complex_dissimilar","images/stimuli/spore_stims/complex_16_A_a.gif","","","","",""
"","null","html-keyboard-response","90","428091","0.0-23.0-0.3","SS1619740126736","","","null","","","","","","<p><img src= images/blank.png width =""600"" height = ""600"" style=""position:fixed;top:50%; left:50%; transform: translate(-50%, -50%); border:5px solid black"">","","","","","","","",""
"","934.4649999402463","sequential-stimulus-presentation-old","91","429531","0.0-23.0-1.3","SS1619740126736","trial","","40","500","1434.4649999402463","images/stimuli/spore_stims/complex_12_A_b.gif","images/stimuli/spore_stims/complex_16_A_a.gif","forced_short","","7","complex_dissimilar","images/stimuli/spore_stims/complex_16_A_a.gif","","","","",""
"","null","html-keyboard-response","92","430347","0.0-23.0-0.4","SS1619740126736","","","null","","","","","","<p><img src= images/blank.png width =""600"" height = ""600"" style=""position:fixed;top:50%; left:50%; transform: translate(-50%, -50%); border:5px solid black"">","","","","","","","",""
"","397.1400000154972","sequential-stimulus-presentation-old","93","431248","0.0-23.0-1.4","SS1619740126736","trial","","40","500","897.1400000154972","images/stimuli/spore_stims/complex_12_A_b.gif","images/stimuli/spore_stims/complex_16_A_a.gif","forced_short","","7","complex_dissimilar","images/stimuli/spore_stims/complex_16_A_a.gif","","","","",""
"","3321.819999953732","survey-multi-choice","94","434573","0.0-24.0","SS1619740126736","math_question","","","","","","","","","","","","{""Q0"":""10""}","[0]","10","",""
"","null","html-keyboard-response","95","435591","0.0-25.0-0.0","SS1619740126736","","","null","","","","","","<p><img src= images/blank.png width =""600"" height = ""600"" style=""position:fixed;top:50%; left:50%; transform: translate(-50%, -50%); border:5px solid black"">","","","","","","","",""
"","2838.3249999023974","sequential-stimulus-presentation-old","96","438936","0.0-25.0-1.0","SS1619740126736","trial","","40","500","3338.3249999023974","images/stimuli/spore_stims/complex_17_A_a.gif","images/stimuli/spore_stims/complex_05_A_b.gif","forced_short","","8","complex_dissimilar","images/stimuli/spore_stims/complex_05_A_b.gif","","","","",""
"","null","html-keyboard-response","97","439978","0.0-25.0-0.1","SS1619740126736","","","null","","","","","","<p><img src= images/blank.png width =""600"" height = ""600"" style=""position:fixed;top:50%; left:50%; transform: translate(-50%, -50%); border:5px solid black"">","","","","","","","",""
"","804.7349998960271","sequential-stimulus-presentation-old","98","441292","0.0-25.0-1.1","SS1619740126736","trial","","40","500","1304.7349998960271","images/stimuli/spore_stims/complex_17_A_a.gif","images/stimuli/spore_stims/complex_05_A_b.gif","forced_short","","8","complex_dissimilar","images/stimuli/spore_stims/complex_17_A_a.gif","","","","",""
"","null","html-keyboard-response","99","442297","0.0-25.0-0.2","SS1619740126736","","","null","","","","","","<p><img src= images/blank.png width =""600"" height = ""600"" style=""position:fixed;top:50%; left:50%; transform: translate(-50%, -50%); border:5px solid black"">","","","","","","","",""
"","3648.1999999377877","sequential-stimulus-presentation-old","100","446450","0.0-25.0-1.2","SS1619740126736","trial","","40","500","4148.199999937788","images/stimuli/spore_stims/complex_17_A_a.gif","images/stimuli/spore_stims/complex_05_A_b.gif","forced_short","","8","complex_dissimilar","images/stimuli/spore_stims/complex_05_A_b.gif","","","","",""
"","null","html-keyboard-response","101","447457","0.0-25.0-0.3","SS1619740126736","","","null","","","","","","<p><img src= images/blank.png width =""600"" height = ""600"" style=""position:fixed;top:50%; left:50%; transform: translate(-50%, -50%); border:5px solid black"">","","","","","","","",""
"","11.479999986477196","sequential-stimulus-presentation-old","102","447978","0.0-25.0-1.3","SS1619740126736","trial","","40","500","511.4799999864772","images/stimuli/spore_stims/complex_17_A_a.gif","images/stimuli/spore_stims/complex_05_A_b.gif","forced_short","","8","complex_dissimilar","images/stimuli/spore_stims/complex_17_A_a.gif","","","","",""
"","null","html-keyboard-response","103","448825","0.0-25.0-0.4","SS1619740126736","","","null","","","","","","<p><img src= images/blank.png width =""600"" height = ""600"" style=""position:fixed;top:50%; left:50%; transform: translate(-50%, -50%); border:5px solid black"">","","","","","","","",""
"","71.23999996110797","sequential-stimulus-presentation-old","104","449400","0.0-25.0-1.4","SS1619740126736","trial","","40","500","571.239999961108","images/stimuli/spore_stims/complex_17_A_a.gif","images/stimuli/spore_stims/complex_05_A_b.gif","forced_short","","8","complex_dissimilar","images/stimuli/spore_stims/complex_05_A_b.gif","","","","",""
"","3370.050000026822","survey-multi-choice","105","452775","0.0-26.0","SS1619740126736","math_question","","","","","","","","","","","","{""Q0"":""17""}","[0]","17","",""
"","null","html-keyboard-response","106","453835","0.0-27.0-0.0","SS1619740126736","","","null","","","","","","<p><img src= images/blank.png width =""600"" height = ""600"" style=""position:fixed;top:50%; left:50%; transform: translate(-50%, -50%); border:5px solid black"">","","","","","","","",""
"","1512.6799999270588","sequential-stimulus-presentation-old","107","455853","0.0-27.0-1.0","SS1619740126736","trial","","40","500","2012.6799999270588","images/stimuli/spore_stims/simple_18_A_a.gif","images/stimuli/spore_stims/simple_08_A_b.gif","forced_short","","9","simple_dissimilar","images/stimuli/spore_stims/simple_08_A_b.gif","","","","",""
"","null","html-keyboard-response","108","456874","0.0-27.0-0.1","SS1619740126736","","","null","","","","","","<p><img src= images/blank.png width =""600"" height = ""600"" style=""position:fixed;top:50%; left:50%; transform: translate(-50%, -50%); border:5px solid black"">","","","","","","","",""
"","181.43500003498048","sequential-stimulus-presentation-old","109","457563","0.0-27.0-1.1","SS1619740126736","trial","","40","500","681.4350000349805","images/stimuli/spore_stims/simple_18_A_a.gif","images/stimuli/spore_stims/simple_08_A_b.gif","forced_short","","9","simple_dissimilar","images/stimuli/spore_stims/simple_08_A_b.gif","","","","",""
"","null","html-keyboard-response","110","458504","0.0-27.0-0.2","SS1619740126736","","","null","","","","","","<p><img src= images/blank.png width =""600"" height = ""600"" style=""position:fixed;top:50%; left:50%; transform: translate(-50%, -50%); border:5px solid black"">","","","","","","","",""
"","10.110000032000244","sequential-stimulus-presentation-old","111","459031","0.0-27.0-1.2","SS1619740126736","trial","","40","500","510.11000003200024","images/stimuli/spore_stims/simple_18_A_a.gif","images/stimuli/spore_stims/simple_08_A_b.gif","forced_short","","9","simple_dissimilar","images/stimuli/spore_stims/simple_08_A_b.gif","","","","",""
"","null","html-keyboard-response","112","460052","0.0-27.0-0.3","SS1619740126736","","","null","","","","","","<p><img src= images/blank.png width =""600"" height = ""600"" style=""position:fixed;top:50%; left:50%; transform: translate(-50%, -50%); border:5px solid black"">","","","","","","","",""
"","6246.730000013486","sequential-stimulus-presentation-old","113","466808","0.0-27.0-1.3","SS1619740126736","trial","","40","500","6746.730000013486","images/stimuli/spore_stims/simple_18_A_a.gif","images/stimuli/spore_stims/simple_08_A_b.gif","forced_short","","9","simple_dissimilar","images/stimuli/spore_stims/simple_08_A_b.gif","","","","",""
"","null","html-keyboard-response","114","468043","0.0-27.0-0.4","SS1619740126736","","","null","","","","","","<p><img src= images/blank.png width =""600"" height = ""600"" style=""position:fixed;top:50%; left:50%; transform: translate(-50%, -50%); border:5px solid black"">","","","","","","","",""
"","970.5250000115484","sequential-stimulus-presentation-old","115","469521","0.0-27.0-1.4","SS1619740126736","trial","","40","500","1470.5250000115484","images/stimuli/spore_stims/simple_18_A_a.gif","images/stimuli/spore_stims/simple_08_A_b.gif","forced_short","","9","simple_dissimilar","images/stimuli/spore_stims/simple_08_A_b.gif","","","","",""
"","null","html-keyboard-response","116","470708","0.0-27.0-0.5","SS1619740126736","","","null","","","","","","<p><img src= images/blank.png width =""600"" height = ""600"" style=""position:fixed;top:50%; left:50%; transform: translate(-50%, -50%); border:5px solid black"">","","","","","","","",""
"","4494.870000053197","sequential-stimulus-presentation-old","117","475712","0.0-27.0-1.5","SS1619740126736","trial","","40","500","4994.870000053197","images/stimuli/spore_stims/simple_18_A_a.gif","images/stimuli/spore_stims/simple_08_A_b.gif","forced_short","","9","simple_dissimilar","images/stimuli/spore_stims/simple_08_A_b.gif","","","","",""
"","3434.8500000778586","survey-multi-choice","118","479151","0.0-28.0","SS1619740126736","math_question","","","","","","","","","","","","{""Q0"":""6""}","[0]","6","",""
"","null","html-keyboard-response","119","480253","0.0-29.0-0.0","SS1619740126736","","","null","","","","","","<p><img src= images/blank.png width =""600"" height = ""600"" style=""position:fixed;top:50%; left:50%; transform: translate(-50%, -50%); border:5px solid black"">","","","","","","","",""
"","682.1800000034273","sequential-stimulus-presentation-old","120","481441","0.0-29.0-1.0","SS1619740126736","trial","","40","500","1182.1800000034273","images/stimuli/spore_stims/simple_13_A_a.gif","images/stimuli/spore_stims/simple_02_A_b.gif","self_paced","","10","simple_dissimilar","images/stimuli/spore_stims/simple_02_A_b.gif","","","","",""
"","null","html-keyboard-response","121","482371","0.0-29.0-0.1","SS1619740126736","","","null","","","","","","<p><img src= images/blank.png width =""600"" height = ""600"" style=""position:fixed;top:50%; left:50%; transform: translate(-50%, -50%); border:5px solid black"">","","","","","","","",""
"","3.979999921284616","sequential-stimulus-presentation-old","122","482883","0.0-29.0-1.1","SS1619740126736","trial","","40","500","503.9799999212846","images/stimuli/spore_stims/simple_13_A_a.gif","images/stimuli/spore_stims/simple_02_A_b.gif","self_paced","","10","simple_dissimilar","images/stimuli/spore_stims/simple_02_A_b.gif","","","","",""
"","null","html-keyboard-response","123","483912","0.0-29.0-0.2","SS1619740126736","","","null","","","","","","<p><img src= images/blank.png width =""600"" height = ""600"" style=""position:fixed;top:50%; left:50%; transform: translate(-50%, -50%); border:5px solid black"">","","","","","","","",""
"","7434.669999987818","sequential-stimulus-presentation-old","124","491856","0.0-29.0-1.2","SS1619740126736","trial","","40","500","7934.669999987818","images/stimuli/spore_stims/simple_13_A_a.gif","images/stimuli/spore_stims/simple_02_A_b.gif","self_paced","","10","simple_dissimilar","images/stimuli/spore_stims/simple_02_A_b.gif","","","","",""
"","null","html-keyboard-response","125","493027","0.0-29.0-0.3","SS1619740126736","","","null","","","","","","<p><img src= images/blank.png width =""600"" height = ""600"" style=""position:fixed;top:50%; left:50%; transform: translate(-50%, -50%); border:5px solid black"">","","","","","","","",""
"","268.67000001948327","sequential-stimulus-presentation-old","126","493803","0.0-29.0-1.3","SS1619740126736","trial","","40","500","768.6700000194833","images/stimuli/spore_stims/simple_13_A_a.gif","images/stimuli/spore_stims/simple_02_A_b.gif","self_paced","","10","simple_dissimilar","images/stimuli/spore_stims/simple_02_A_b.gif","","","","",""
"","null","html-keyboard-response","127","494727","0.0-29.0-0.4","SS1619740126736","","","null","","","","","","<p><img src= images/blank.png width =""600"" height = ""600"" style=""position:fixed;top:50%; left:50%; transform: translate(-50%, -50%); border:5px solid black"">","","","","","","","",""
"","8509.83500003349","sequential-stimulus-presentation-old","128","503742","0.0-29.0-1.4","SS1619740126736","trial","","40","500","9009.83500003349","images/stimuli/spore_stims/simple_13_A_a.gif","images/stimuli/spore_stims/simple_02_A_b.gif","self_paced","","10","simple_dissimilar","images/stimuli/spore_stims/simple_02_A_b.gif","","","","",""
"","3085.1150000235066","survey-multi-choice","129","506832","0.0-30.0","SS1619740126736","math_question","","","","","","","","","","","","{""Q0"":""5""}","[0]","5","",""
"","null","html-keyboard-response","130","507882","0.0-31.0-0.0","SS1619740126736","","","null","","","","","","<p><img src= images/blank.png width =""600"" height = ""600"" style=""position:fixed;top:50%; left:50%; transform: translate(-50%, -50%); border:5px solid black"">","","","","","","","",""
"","4762.0249999454245","sequential-stimulus-presentation-old","131","513154","0.0-31.0-1.0","SS1619740126736","trial","","40","500","5262.0249999454245","images/stimuli/spore_stims/complex_03_A_a.gif","images/stimuli/spore_stims/complex_11_A_b.gif","self_paced","","11","complex_dissimilar","images/stimuli/spore_stims/complex_11_A_b.gif","","","","",""
"","null","html-keyboard-response","132","514316","0.0-31.0-0.1","SS1619740126736","","","null","","","","","","<p><img src= images/blank.png width =""600"" height = ""600"" style=""position:fixed;top:50%; left:50%; transform: translate(-50%, -50%); border:5px solid black"">","","","","","","","",""
"","98.37999998126179","sequential-stimulus-presentation-old","133","514923","0.0-31.0-1.1","SS1619740126736","trial","","40","500","598.3799999812618","images/stimuli/spore_stims/complex_03_A_a.gif","images/stimuli/spore_stims/complex_11_A_b.gif","self_paced","","11","complex_dissimilar","images/stimuli/spore_stims/complex_11_A_b.gif","","","","",""
"","null","html-keyboard-response","134","515829","0.0-31.0-0.2","SS1619740126736","","","null","","","","","","<p><img src= images/blank.png width =""600"" height = ""600"" style=""position:fixed;top:50%; left:50%; transform: translate(-50%, -50%); border:5px solid black"">","","","","","","","",""
"","7.76499998755753","sequential-stimulus-presentation-old","135","516345","0.0-31.0-1.2","SS1619740126736","trial","","40","500","507.76499998755753","images/stimuli/spore_stims/complex_03_A_a.gif","images/stimuli/spore_stims/complex_11_A_b.gif","self_paced","","11","complex_dissimilar","images/stimuli/spore_stims/complex_11_A_b.gif","","","","",""
"","null","html-keyboard-response","136","517178","0.0-31.0-0.3","SS1619740126736","","","null","","","","","","<p><img src= images/blank.png width =""600"" height = ""600"" style=""position:fixed;top:50%; left:50%; transform: translate(-50%, -50%); border:5px solid black"">","","","","","","","",""
"","3.3500000135973096","sequential-stimulus-presentation-old","137","517687","0.0-31.0-1.3","SS1619740126736","trial","","40","500","503.3500000135973","images/stimuli/spore_stims/complex_03_A_a.gif","images/stimuli/spore_stims/complex_11_A_b.gif","self_paced","","11","complex_dissimilar","images/stimuli/spore_stims/complex_11_A_b.gif","","","","",""
"","null","html-keyboard-response","138","518579","0.0-31.0-0.4","SS1619740126736","","","null","","","","","","<p><img src= images/blank.png width =""600"" height = ""600"" style=""position:fixed;top:50%; left:50%; transform: translate(-50%, -50%); border:5px solid black"">","","","","","","","",""
"","800.2799999667332","sequential-stimulus-presentation-old","139","519885","0.0-31.0-1.4","SS1619740126736","trial","","40","500","1300.2799999667332","images/stimuli/spore_stims/complex_03_A_a.gif","images/stimuli/spore_stims/complex_11_A_b.gif","self_paced","","11","complex_dissimilar","images/stimuli/spore_stims/complex_11_A_b.gif","","","","",""
"","null","html-keyboard-response","140","521141","0.0-31.0-0.5","SS1619740126736","","","null","","","","","","<p><img src= images/blank.png width =""600"" height = ""600"" style=""position:fixed;top:50%; left:50%; transform: translate(-50%, -50%); border:5px solid black"">","","","","","","","",""
"","4404.679999919608","sequential-stimulus-presentation-old","141","526057","0.0-31.0-1.5","SS1619740126736","trial","","40","500","4904.679999919608","images/stimuli/spore_stims/complex_03_A_a.gif","images/stimuli/spore_stims/complex_11_A_b.gif","self_paced","","11","complex_dissimilar","images/stimuli/spore_stims/complex_03_A_a.gif","","","","",""
"[{""page_index"":0,""viewing_time"":7703.244999982417}]","7703.760000062175","instructions","142","533761","0.0-32.0","SS1619740126736","instructions","","","","","","","","","","","","","","","",""
"","9710.235000005923","survey-likert","143","543478","0.0-33.0","SS1619740126736","similarity_question","","","","","","","","","","","","{""Q0"":4}","[0]","","images/stimuli/spore_stims/simple_13_A_a.gif","images/stimuli/spore_stims/simple_02_A_b.gif"
"","8485.325000016019","survey-likert","144","551969","0.0-34.0","SS1619740126736","similarity_question","","","","","","","","","","","","{""Q0"":2}","[0]","","images/stimuli/spore_stims/complex_18_A_a.gif","images/stimuli/spore_stims/complex_06_A_b.gif"
"","7490.519999992102","survey-likert","145","559466","0.0-35.0","SS1619740126736","similarity_question","","","","","","","","","","","","{""Q0"":0}","[0]","","images/stimuli/spore_stims/complex_12_A_b.gif","images/stimuli/spore_stims/complex_16_A_a.gif"
"","3693.275000085123","survey-likert","146","563166","0.0-36.0","SS1619740126736","similarity_question","","","","","","","","","","","","{""Q0"":1}","[0]","","images/stimuli/spore_stims/simple_16_A_b.gif","images/stimuli/spore_stims/simple_08_A_a.gif"
"","5626.404999988154","survey-likert","147","568798","0.0-37.0","SS1619740126736","similarity_question","","","","","","","","","","","","{""Q0"":2}","[0]","","images/stimuli/spore_stims/simple_11_A_a.gif","images/stimuli/spore_stims/simple_06_A_b.gif"
"","6325.530000030994","survey-likert","148","575130","0.0-38.0","SS1619740126736","similarity_question","","","","","","","","","","","","{""Q0"":1}","[0]","","images/stimuli/spore_stims/complex_15_A_a.gif","images/stimuli/spore_stims/complex_16_A_b.gif"
"","5705.960000050254","survey-likert","149","580842","0.0-39.0","SS1619740126736","similarity_question","","","","","","","","","","","","{""Q0"":0}","[0]","","images/stimuli/spore_stims/complex_11_A_b.gif","images/stimuli/spore_stims/complex_03_A_a.gif"
"","7366.009999997914","survey-likert","150","588214","0.0-40.0","SS1619740126736","similarity_question","","","","","","","","","","","","{""Q0"":2}","[0]","","images/stimuli/spore_stims/simple_12_A_a.gif","images/stimuli/spore_stims/simple_14_A_b.gif"
"","4812.66999989748","survey-likert","151","593032","0.0-41.0","SS1619740126736","similarity_question","","","","","","","","","","","","{""Q0"":1}","[0]","","images/stimuli/spore_stims/simple_08_A_b.gif","images/stimuli/spore_stims/simple_18_A_a.gif"
"","4142.224999959581","survey-likert","152","597180","0.0-42.0","SS1619740126736","similarity_question","","","","","","","","","","","","{""Q0"":1}","[0]","","images/stimuli/spore_stims/complex_17_A_a.gif","images/stimuli/spore_stims/complex_05_A_b.gif"
"","5116.800000076182","survey-likert","153","602303","0.0-43.0","SS1619740126736","similarity_question","","","","","","","","","","","","{""Q0"":3}","[0]","","images/stimuli/spore_stims/complex_11_A_a.gif","images/stimuli/spore_stims/complex_17_A_b.gif"
"","3877.3999999975786","survey-likert","154","606185","0.0-44.0","SS1619740126736","similarity_question","","","","","","","","","","","","{""Q0"":2}","[0]","","images/stimuli/spore_stims/simple_04_A_b.gif","images/stimuli/spore_stims/simple_05_A_a.gif"
"[{""page_index"":0,""viewing_time"":6100.399999995716}]","6100.729999947362","instructions","155","612291","0.0-45.0","SS1619740126736","instructions","","","","","","","","","","","","","","","",""
"","5921.185000101104","survey-likert","156","618217","0.0-46.0","SS1619740126736","","","","","","","","","images/stimuli/spore_stims/complex_18_A_a.gif","","","","{""Q0"":5}","[0]","","",""
"","7064.914999995381","survey-likert","157","625289","0.0-47.0","SS1619740126736","","","","","","","","","images/stimuli/spore_stims/complex_15_A_a.gif","","","","{""Q0"":5}","[0]","","",""
"","2875.869999988936","survey-likert","158","628171","0.0-48.0","SS1619740126736","","","","","","","","","images/stimuli/spore_stims/complex_05_A_b.gif","","","","{""Q0"":5}","[0]","","",""
"","2918.874999973923","survey-likert","159","631096","0.0-49.0","SS1619740126736","","","","","","","","","images/stimuli/spore_stims/complex_11_A_a.gif","","","","{""Q0"":5}","[0]","","",""
"","7049.95500005316","survey-likert","160","638153","0.0-50.0","SS1619740126736","","","","","","","","","images/stimuli/spore_stims/simple_06_A_b.gif","","","","{""Q0"":0}","[0]","","",""
"","2709.8299999488518","survey-likert","161","640868","0.0-51.0","SS1619740126736","","","","","","","","","images/stimuli/spore_stims/simple_13_A_a.gif","","","","{""Q0"":0}","[0]","","",""
"","4489.644999965094","survey-likert","162","645365","0.0-52.0","SS1619740126736","","","","","","","","","images/stimuli/spore_stims/simple_08_A_b.gif","","","","{""Q0"":0}","[0]","","",""
"","2897.454999969341","survey-likert","163","648269","0.0-53.0","SS1619740126736","","","","","","","","","images/stimuli/spore_stims/simple_05_A_a.gif","","","","{""Q0"":0}","[0]","","",""
"","3897.679999936372","survey-likert","164","652172","0.0-54.0","SS1619740126736","","","","","","","","","images/stimuli/spore_stims/simple_08_A_a.gif","","","","{""Q0"":0}","[0]","","",""
"","4349.244999932125","survey-likert","165","656530","0.0-55.0","SS1619740126736","","","","","","","","","images/stimuli/spore_stims/complex_16_A_a.gif","","","","{""Q0"":5}","[0]","","",""
"","2818.5250000096858","survey-likert","166","659354","0.0-56.0","SS1619740126736","","","","","","","","","images/stimuli/spore_stims/complex_11_A_b.gif","","","","{""Q0"":4}","[0]","","",""
"","2799.2349999258295","survey-likert","167","662159","0.0-57.0","SS1619740126736","","","","","","","","","images/stimuli/spore_stims/simple_14_A_b.gif","","","","{""Q0"":1}","[0]","","",""
"[{""page_index"":0,""viewing_time"":2712.1749999932945}]","2712.569999974221","instructions","168","664878","0.0-58.0","SS1619740126736","instructions","","","","","","","","","","","","","","","",""
"","3648.9000000292435","demog-age","169","668534","0.0-59.0","SS1619740126736","","","","","","","","","","","","","{""age"":""28""}","","","",""
"","7045.660000061616","demog-ethnic-US","170","675591","0.0-60.0","SS1619740126736","","","","","","","","","","","","","{""ethnicity"":[""White""]}","[0]","","",""
"","9432.030000025406","demog-gender-and-education","171","685030","0.0-61.0","SS1619740126736","","","","","","","","","","","","","{""gender"":""Female"",""education"":""Bachelor's Degree""}","[0,1]","","",""
"","21615.519999992102","survey-text","172","706655","0.0-62.0","SS1619740126736","feedback","","","","","","","","","","","","{""Q0"":""I did not face any issues""}","","","",""
"[{""page_index"":0,""viewing_time"":1741.829999955371}]","1742.1900000190362","instructions","173","708402","0.0-63.0","SS1619740126736","instructions","","","","","","","","","","","","","","","",""
