"view_history","rt","trial_type","trial_index","time_elapsed","internal_node_id","subject","stimulus_type","trial_stimulus","key_press","minimum_viewing_duration","trial_looking_time","block_deviant","block_background","exposure_type","stimulus","block_number","block_type","stimulus_displayed","responses","question_order","math_correct_answer","stimulus_left","stimulus_right"
"[{""page_index"":0,""viewing_time"":115572.06500001485}]","115572.97999999719","instructions","0","115570","0.0-0.0","SS1619739490440","","","","","","","","","","","","","","","","",""
"[{""page_index"":0,""viewing_time"":18578.68499995675},{""page_index"":1,""viewing_time"":8151.930000050925}]","26730.914999963716","instructions","1","144312","0.0-1.0","SS1619739490440","instructions","","","","","","","","","","","","","","","",""
"","6373.859999992419","sequential-stimulus-presentation-old","2","151194","0.0-2.0","SS1619739490440","","","40","500","6873.859999992419","null","null","self_paced","","","","","","","","",""
"","5726.309999998193","sequential-stimulus-presentation-old","3","157427","0.0-3.0","SS1619739490440","","","40","500","6226.309999998193","null","null","self_paced","","","","","","","","",""
"[{""page_index"":0,""viewing_time"":13128.50500002969}]","13128.850000037346","instructions","4","170560","0.0-4.0","SS1619739490440","instructions","","","","","","","","","","","","","","","",""
"","871.4299999992363","sequential-stimulus-presentation-old","5","186447","0.0-5.0","SS1619739490440","","","40","500","1371.4299999992363","null","null","forced_long","","","","","","","","",""
"","4637.54499994684","sequential-stimulus-presentation-old","6","191602","0.0-6.0","SS1619739490440","","","40","500","5137.54499994684","null","null","forced_long","","","","","","","","",""
"[{""page_index"":0,""viewing_time"":4810.524999978952}]","4810.814999975264","instructions","7","196415","0.0-7.0","SS1619739490440","instructions","","","","","","","","","","","","","","","",""
"[{""page_index"":0,""viewing_time"":8398.440000019036},{""page_index"":1,""viewing_time"":17791.95499996422},{""page_index"":2,""viewing_time"":6295.855000033043},{""page_index"":3,""viewing_time"":1255.9999999939464},{""page_index"":4,""viewing_time"":1367.969999962952}]","35110.51500000758","instructions","8","231527","0.0-8.0","SS1619739490440","instructions","","","","","","","","","","","","","","","",""
"","null","html-keyboard-response","9","232822","0.0-9.0-0.0","SS1619739490440","","","null","","","","","","<p><img src= images/blank.png width =""600"" height = ""600"" style=""position:fixed;top:50%; left:50%; transform: translate(-50%, -50%); border:5px solid black"">","","","","","","","",""
"","9912.459999963176","sequential-stimulus-presentation-old","10","243248","0.0-9.0-1.0","SS1619739490440","trial","","40","500","10412.459999963176","images/stimuli/spore_stims/complex_20_A_b.gif","images/stimuli/spore_stims/complex_09_A_a.gif","self_paced","","0","complex_dissimilar","images/stimuli/spore_stims/complex_09_A_a.gif","","","","",""
"","null","html-keyboard-response","11","244163","0.0-9.0-0.1","SS1619739490440","","","null","","","","","","<p><img src= images/blank.png width =""600"" height = ""600"" style=""position:fixed;top:50%; left:50%; transform: translate(-50%, -50%); border:5px solid black"">","","","","","","","",""
"","7822.035000019241","sequential-stimulus-presentation-old","12","252493","0.0-9.0-1.1","SS1619739490440","trial","","40","500","8322.035000019241","images/stimuli/spore_stims/complex_20_A_b.gif","images/stimuli/spore_stims/complex_09_A_a.gif","self_paced","","0","complex_dissimilar","images/stimuli/spore_stims/complex_20_A_b.gif","","","","",""
"","null","html-keyboard-response","13","253593","0.0-9.0-0.2","SS1619739490440","","","null","","","","","","<p><img src= images/blank.png width =""600"" height = ""600"" style=""position:fixed;top:50%; left:50%; transform: translate(-50%, -50%); border:5px solid black"">","","","","","","","",""
"","4244.030000001658","sequential-stimulus-presentation-old","14","258345","0.0-9.0-1.2","SS1619739490440","trial","","40","500","4744.030000001658","images/stimuli/spore_stims/complex_20_A_b.gif","images/stimuli/spore_stims/complex_09_A_a.gif","self_paced","","0","complex_dissimilar","images/stimuli/spore_stims/complex_20_A_b.gif","","","","",""
"","null","html-keyboard-response","15","259480","0.0-9.0-0.3","SS1619739490440","","","null","","","","","","<p><img src= images/blank.png width =""600"" height = ""600"" style=""position:fixed;top:50%; left:50%; transform: translate(-50%, -50%); border:5px solid black"">","","","","","","","",""
"","2580.5649999529123","sequential-stimulus-presentation-old","16","262586","0.0-9.0-1.3","SS1619739490440","trial","","40","500","3080.5649999529123","images/stimuli/spore_stims/complex_20_A_b.gif","images/stimuli/spore_stims/complex_09_A_a.gif","self_paced","","0","complex_dissimilar","images/stimuli/spore_stims/complex_09_A_a.gif","","","","",""
"","3194.595000008121","survey-multi-choice","17","265791","0.0-10.0","SS1619739490440","math_question","","","","","","","","","","","","{""Q0"":""10""}","[0]","10","",""
"","null","html-keyboard-response","18","266971","0.0-11.0-0.0","SS1619739490440","","","null","","","","","","<p><img src= images/blank.png width =""600"" height = ""600"" style=""position:fixed;top:50%; left:50%; transform: translate(-50%, -50%); border:5px solid black"">","","","","","","","",""
"","9968.770000035875","sequential-stimulus-presentation-old","19","277450","0.0-11.0-1.0","SS1619739490440","trial","","40","500","10468.770000035875","images/stimuli/spore_stims/complex_17_A_a.gif","images/stimuli/spore_stims/complex_16_A_b.gif","self_paced","","1","complex_dissimilar","images/stimuli/spore_stims/complex_16_A_b.gif","","","","",""
"","null","html-keyboard-response","20","278547","0.0-11.0-0.1","SS1619739490440","","","null","","","","","","<p><img src= images/blank.png width =""600"" height = ""600"" style=""position:fixed;top:50%; left:50%; transform: translate(-50%, -50%); border:5px solid black"">","","","","","","","",""
"","5298.670000047423","sequential-stimulus-presentation-old","21","284357","0.0-11.0-1.1","SS1619739490440","trial","","40","500","5798.670000047423","images/stimuli/spore_stims/complex_17_A_a.gif","images/stimuli/spore_stims/complex_16_A_b.gif","self_paced","","1","complex_dissimilar","images/stimuli/spore_stims/complex_16_A_b.gif","","","","",""
"","null","html-keyboard-response","22","285561","0.0-11.0-0.2","SS1619739490440","","","null","","","","","","<p><img src= images/blank.png width =""600"" height = ""600"" style=""position:fixed;top:50%; left:50%; transform: translate(-50%, -50%); border:5px solid black"">","","","","","","","",""
"","5294.0749999834225","sequential-stimulus-presentation-old","23","291366","0.0-11.0-1.2","SS1619739490440","trial","","40","500","5794.0749999834225","images/stimuli/spore_stims/complex_17_A_a.gif","images/stimuli/spore_stims/complex_16_A_b.gif","self_paced","","1","complex_dissimilar","images/stimuli/spore_stims/complex_17_A_a.gif","","","","",""
"","null","html-keyboard-response","24","292431","0.0-11.0-0.3","SS1619739490440","","","null","","","","","","<p><img src= images/blank.png width =""600"" height = ""600"" style=""position:fixed;top:50%; left:50%; transform: translate(-50%, -50%); border:5px solid black"">","","","","","","","",""
"","4286.994999973103","sequential-stimulus-presentation-old","25","297232","0.0-11.0-1.3","SS1619739490440","trial","","40","500","4786.994999973103","images/stimuli/spore_stims/complex_17_A_a.gif","images/stimuli/spore_stims/complex_16_A_b.gif","self_paced","","1","complex_dissimilar","images/stimuli/spore_stims/complex_16_A_b.gif","","","","",""
"","null","html-keyboard-response","26","298358","0.0-11.0-0.4","SS1619739490440","","","null","","","","","","<p><img src= images/blank.png width =""600"" height = ""600"" style=""position:fixed;top:50%; left:50%; transform: translate(-50%, -50%); border:5px solid black"">","","","","","","","",""
"","690.4150000191294","sequential-stimulus-presentation-old","27","299556","0.0-11.0-1.4","SS1619739490440","trial","","40","500","1190.4150000191294","images/stimuli/spore_stims/complex_17_A_a.gif","images/stimuli/spore_stims/complex_16_A_b.gif","self_paced","","1","complex_dissimilar","images/stimuli/spore_stims/complex_16_A_b.gif","","","","",""
"","null","html-keyboard-response","28","300557","0.0-11.0-0.5","SS1619739490440","","","null","","","","","","<p><img src= images/blank.png width =""600"" height = ""600"" style=""position:fixed;top:50%; left:50%; transform: translate(-50%, -50%); border:5px solid black"">","","","","","","","",""
"","2770.86499996949","sequential-stimulus-presentation-old","29","303843","0.0-11.0-1.5","SS1619739490440","trial","","40","500","3270.86499996949","images/stimuli/spore_stims/complex_17_A_a.gif","images/stimuli/spore_stims/complex_16_A_b.gif","self_paced","","1","complex_dissimilar","images/stimuli/spore_stims/complex_16_A_b.gif","","","","",""
"","3620.7000000285916","survey-multi-choice","30","307470","0.0-12.0","SS1619739490440","math_question","","","","","","","","","","","","{""Q0"":""14""}","[0]","14","",""
"","null","html-keyboard-response","31","308545","0.0-13.0-0.0","SS1619739490440","","","null","","","","","","<p><img src= images/blank.png width =""600"" height = ""600"" style=""position:fixed;top:50%; left:50%; transform: translate(-50%, -50%); border:5px solid black"">","","","","","","","",""
"","2288.02999999607","sequential-stimulus-presentation-old","32","311361","0.0-13.0-1.0","SS1619739490440","trial","","40","500","2788.02999999607","images/stimuli/spore_stims/simple_04_A_b.gif","images/stimuli/spore_stims/simple_08_A_a.gif","forced_short","","2","simple_dissimilar","images/stimuli/spore_stims/simple_08_A_a.gif","","","","",""
"","null","html-keyboard-response","33","312477","0.0-13.0-0.1","SS1619739490440","","","null","","","","","","<p><img src= images/blank.png width =""600"" height = ""600"" style=""position:fixed;top:50%; left:50%; transform: translate(-50%, -50%); border:5px solid black"">","","","","","","","",""
"","3064.249999995809","sequential-stimulus-presentation-old","34","316054","0.0-13.0-1.1","SS1619739490440","trial","","40","500","3564.249999995809","images/stimuli/spore_stims/simple_04_A_b.gif","images/stimuli/spore_stims/simple_08_A_a.gif","forced_short","","2","simple_dissimilar","images/stimuli/spore_stims/simple_04_A_b.gif","","","","",""
"","null","html-keyboard-response","35","317337","0.0-13.0-0.2","SS1619739490440","","","null","","","","","","<p><img src= images/blank.png width =""600"" height = ""600"" style=""position:fixed;top:50%; left:50%; transform: translate(-50%, -50%); border:5px solid black"">","","","","","","","",""
"","3635.9100000117905","sequential-stimulus-presentation-old","36","321486","0.0-13.0-1.2","SS1619739490440","trial","","40","500","4135.9100000117905","images/stimuli/spore_stims/simple_04_A_b.gif","images/stimuli/spore_stims/simple_08_A_a.gif","forced_short","","2","simple_dissimilar","images/stimuli/spore_stims/simple_08_A_a.gif","","","","",""
"","null","html-keyboard-response","37","322370","0.0-13.0-0.3","SS1619739490440","","","null","","","","","","<p><img src= images/blank.png width =""600"" height = ""600"" style=""position:fixed;top:50%; left:50%; transform: translate(-50%, -50%); border:5px solid black"">","","","","","","","",""
"","5454.484999994747","sequential-stimulus-presentation-old","38","328336","0.0-13.0-1.3","SS1619739490440","trial","","40","500","5954.484999994747","images/stimuli/spore_stims/simple_04_A_b.gif","images/stimuli/spore_stims/simple_08_A_a.gif","forced_short","","2","simple_dissimilar","images/stimuli/spore_stims/simple_04_A_b.gif","","","","",""
"","null","html-keyboard-response","39","329421","0.0-13.0-0.4","SS1619739490440","","","null","","","","","","<p><img src= images/blank.png width =""600"" height = ""600"" style=""position:fixed;top:50%; left:50%; transform: translate(-50%, -50%); border:5px solid black"">","","","","","","","",""
"","2484.974999970291","sequential-stimulus-presentation-old","40","332415","0.0-13.0-1.4","SS1619739490440","trial","","40","500","2984.974999970291","images/stimuli/spore_stims/simple_04_A_b.gif","images/stimuli/spore_stims/simple_08_A_a.gif","forced_short","","2","simple_dissimilar","images/stimuli/spore_stims/simple_08_A_a.gif","","","","",""
"","null","html-keyboard-response","41","333377","0.0-13.0-0.5","SS1619739490440","","","null","","","","","","<p><img src= images/blank.png width =""600"" height = ""600"" style=""position:fixed;top:50%; left:50%; transform: translate(-50%, -50%); border:5px solid black"">","","","","","","","",""
"","3768.289999978151","sequential-stimulus-presentation-old","42","337654","0.0-13.0-1.5","SS1619739490440","trial","","40","500","4268.289999978151","images/stimuli/spore_stims/simple_04_A_b.gif","images/stimuli/spore_stims/simple_08_A_a.gif","forced_short","","2","simple_dissimilar","images/stimuli/spore_stims/simple_08_A_a.gif","","","","",""
"","3222.9699999443255","survey-multi-choice","43","340879","0.0-14.0","SS1619739490440","math_question","","","","","","","","","","","","{""Q0"":""5""}","[0]","5","",""
"","null","html-keyboard-response","44","341706","0.0-15.0-0.0","SS1619739490440","","","null","","","","","","<p><img src= images/blank.png width =""600"" height = ""600"" style=""position:fixed;top:50%; left:50%; transform: translate(-50%, -50%); border:5px solid black"">","","","","","","","",""
"","5248.574999975972","sequential-stimulus-presentation-old","45","347466","0.0-15.0-1.0","SS1619739490440","trial","","40","500","5748.574999975972","images/stimuli/spore_stims/simple_19_A_a.gif","images/stimuli/spore_stims/simple_10_A_b.gif","self_paced","","3","simple_dissimilar","images/stimuli/spore_stims/simple_10_A_b.gif","","","","",""
"","null","html-keyboard-response","46","348370","0.0-15.0-0.1","SS1619739490440","","","null","","","","","","<p><img src= images/blank.png width =""600"" height = ""600"" style=""position:fixed;top:50%; left:50%; transform: translate(-50%, -50%); border:5px solid black"">","","","","","","","",""
"","2565.1250000228174","sequential-stimulus-presentation-old","47","351445","0.0-15.0-1.1","SS1619739490440","trial","","40","500","3065.1250000228174","images/stimuli/spore_stims/simple_19_A_a.gif","images/stimuli/spore_stims/simple_10_A_b.gif","self_paced","","3","simple_dissimilar","images/stimuli/spore_stims/simple_19_A_a.gif","","","","",""
"","null","html-keyboard-response","48","352263","0.0-15.0-0.2","SS1619739490440","","","null","","","","","","<p><img src= images/blank.png width =""600"" height = ""600"" style=""position:fixed;top:50%; left:50%; transform: translate(-50%, -50%); border:5px solid black"">","","","","","","","",""
"","3876.4550000196323","sequential-stimulus-presentation-old","49","356649","0.0-15.0-1.2","SS1619739490440","trial","","40","500","4376.455000019632","images/stimuli/spore_stims/simple_19_A_a.gif","images/stimuli/spore_stims/simple_10_A_b.gif","self_paced","","3","simple_dissimilar","images/stimuli/spore_stims/simple_10_A_b.gif","","","","",""
"","null","html-keyboard-response","50","357889","0.0-15.0-0.3","SS1619739490440","","","null","","","","","","<p><img src= images/blank.png width =""600"" height = ""600"" style=""position:fixed;top:50%; left:50%; transform: translate(-50%, -50%); border:5px solid black"">","","","","","","","",""
"","3044.324999966193","sequential-stimulus-presentation-old","51","361452","0.0-15.0-1.3","SS1619739490440","trial","","40","500","3544.324999966193","images/stimuli/spore_stims/simple_19_A_a.gif","images/stimuli/spore_stims/simple_10_A_b.gif","self_paced","","3","simple_dissimilar","images/stimuli/spore_stims/simple_10_A_b.gif","","","","",""
"","null","html-keyboard-response","52","362323","0.0-15.0-0.4","SS1619739490440","","","null","","","","","","<p><img src= images/blank.png width =""600"" height = ""600"" style=""position:fixed;top:50%; left:50%; transform: translate(-50%, -50%); border:5px solid black"">","","","","","","","",""
"","3195.8200000226498","sequential-stimulus-presentation-old","53","366036","0.0-15.0-1.4","SS1619739490440","trial","","40","500","3695.8200000226498","images/stimuli/spore_stims/simple_19_A_a.gif","images/stimuli/spore_stims/simple_10_A_b.gif","self_paced","","3","simple_dissimilar","images/stimuli/spore_stims/simple_19_A_a.gif","","","","",""
"","2316.6699999710545","survey-multi-choice","54","368358","0.0-16.0","SS1619739490440","math_question","","","","","","","","","","","","{""Q0"":""2""}","[0]","2","",""
"","null","html-keyboard-response","55","369558","0.0-17.0-0.0","SS1619739490440","","","null","","","","","","<p><img src= images/blank.png width =""600"" height = ""600"" style=""position:fixed;top:50%; left:50%; transform: translate(-50%, -50%); border:5px solid black"">","","","","","","","",""
"","1562.0449999696575","sequential-stimulus-presentation-old","56","371645","0.0-17.0-1.0","SS1619739490440","trial","","40","500","2062.0449999696575","images/stimuli/spore_stims/complex_10_A_b.gif","images/stimuli/spore_stims/complex_19_A_a.gif","forced_short","","4","complex_dissimilar","images/stimuli/spore_stims/complex_19_A_a.gif","","","","",""
"","null","html-keyboard-response","57","372591","0.0-17.0-0.1","SS1619739490440","","","null","","","","","","<p><img src= images/blank.png width =""600"" height = ""600"" style=""position:fixed;top:50%; left:50%; transform: translate(-50%, -50%); border:5px solid black"">","","","","","","","",""
"","4006.9099999964237","sequential-stimulus-presentation-old","58","377108","0.0-17.0-1.1","SS1619739490440","trial","","40","500","4506.909999996424","images/stimuli/spore_stims/complex_10_A_b.gif","images/stimuli/spore_stims/complex_19_A_a.gif","forced_short","","4","complex_dissimilar","images/stimuli/spore_stims/complex_19_A_a.gif","","","","",""
"","null","html-keyboard-response","59","378041","0.0-17.0-0.2","SS1619739490440","","","null","","","","","","<p><img src= images/blank.png width =""600"" height = ""600"" style=""position:fixed;top:50%; left:50%; transform: translate(-50%, -50%); border:5px solid black"">","","","","","","","",""
"","8815.345000009984","sequential-stimulus-presentation-old","60","387374","0.0-17.0-1.2","SS1619739490440","trial","","40","500","9315.345000009984","images/stimuli/spore_stims/complex_10_A_b.gif","images/stimuli/spore_stims/complex_19_A_a.gif","forced_short","","4","complex_dissimilar","images/stimuli/spore_stims/complex_19_A_a.gif","","","","",""
"","null","html-keyboard-response","61","388652","0.0-17.0-0.3","SS1619739490440","","","null","","","","","","<p><img src= images/blank.png width =""600"" height = ""600"" style=""position:fixed;top:50%; left:50%; transform: translate(-50%, -50%); border:5px solid black"">","","","","","","","",""
"","5536.275000020396","sequential-stimulus-presentation-old","62","394700","0.0-17.0-1.3","SS1619739490440","trial","","40","500","6036.275000020396","images/stimuli/spore_stims/complex_10_A_b.gif","images/stimuli/spore_stims/complex_19_A_a.gif","forced_short","","4","complex_dissimilar","images/stimuli/spore_stims/complex_19_A_a.gif","","","","",""
"","2946.72000000719","survey-multi-choice","63","397653","0.0-18.0","SS1619739490440","math_question","","","","","","","","","","","","{""Q0"":""11""}","[0]","11","",""
"","null","html-keyboard-response","64","398827","0.0-19.0-0.0","SS1619739490440","","","null","","","","","","<p><img src= images/blank.png width =""600"" height = ""600"" style=""position:fixed;top:50%; left:50%; transform: translate(-50%, -50%); border:5px solid black"">","","","","","","","",""
"","977.2450000164099","sequential-stimulus-presentation-old","65","414816","0.0-19.0-1.0","SS1619739490440","trial","","40","500","1477.24500001641","images/stimuli/spore_stims/simple_14_A_b.gif","images/stimuli/spore_stims/simple_15_A_a.gif","forced_long","","5","simple_dissimilar","images/stimuli/spore_stims/simple_15_A_a.gif","","","","",""
"","null","html-keyboard-response","66","415769","0.0-19.0-0.1","SS1619739490440","","","null","","","","","","<p><img src= images/blank.png width =""600"" height = ""600"" style=""position:fixed;top:50%; left:50%; transform: translate(-50%, -50%); border:5px solid black"">","","","","","","","",""
"","12233.315000019502","sequential-stimulus-presentation-old","67","428528","0.0-19.0-1.1","SS1619739490440","trial","","40","500","12733.315000019502","images/stimuli/spore_stims/simple_14_A_b.gif","images/stimuli/spore_stims/simple_15_A_a.gif","forced_long","","5","simple_dissimilar","images/stimuli/spore_stims/simple_15_A_a.gif","","","","",""
"","null","html-keyboard-response","68","429606","0.0-19.0-0.2","SS1619739490440","","","null","","","","","","<p><img src= images/blank.png width =""600"" height = ""600"" style=""position:fixed;top:50%; left:50%; transform: translate(-50%, -50%); border:5px solid black"">","","","","","","","",""
"","6895.495000004303","sequential-stimulus-presentation-old","69","437013","0.0-19.0-1.2","SS1619739490440","trial","","40","500","7395.495000004303","images/stimuli/spore_stims/simple_14_A_b.gif","images/stimuli/spore_stims/simple_15_A_a.gif","forced_long","","5","simple_dissimilar","images/stimuli/spore_stims/simple_15_A_a.gif","","","","",""
"","null","html-keyboard-response","70","437850","0.0-19.0-0.3","SS1619739490440","","","null","","","","","","<p><img src= images/blank.png width =""600"" height = ""600"" style=""position:fixed;top:50%; left:50%; transform: translate(-50%, -50%); border:5px solid black"">","","","","","","","",""
"","5627.479999966454","sequential-stimulus-presentation-old","71","443994","0.0-19.0-1.3","SS1619739490440","trial","","40","500","6127.479999966454","images/stimuli/spore_stims/simple_14_A_b.gif","images/stimuli/spore_stims/simple_15_A_a.gif","forced_long","","5","simple_dissimilar","images/stimuli/spore_stims/simple_15_A_a.gif","","","","",""
"","null","html-keyboard-response","72","445256","0.0-19.0-0.4","SS1619739490440","","","null","","","","","","<p><img src= images/blank.png width =""600"" height = ""600"" style=""position:fixed;top:50%; left:50%; transform: translate(-50%, -50%); border:5px solid black"">","","","","","","","",""
"","6464.564999972936","sequential-stimulus-presentation-old","73","452233","0.0-19.0-1.4","SS1619739490440","trial","","40","500","6964.564999972936","images/stimuli/spore_stims/simple_14_A_b.gif","images/stimuli/spore_stims/simple_15_A_a.gif","forced_long","","5","simple_dissimilar","images/stimuli/spore_stims/simple_15_A_a.gif","","","","",""
"","null","html-keyboard-response","74","453168","0.0-19.0-0.5","SS1619739490440","","","null","","","","","","<p><img src= images/blank.png width =""600"" height = ""600"" style=""position:fixed;top:50%; left:50%; transform: translate(-50%, -50%); border:5px solid black"">","","","","","","","",""
"","3829.3549999943934","sequential-stimulus-presentation-old","75","457513","0.0-19.0-1.5","SS1619739490440","trial","","40","500","4329.354999994393","images/stimuli/spore_stims/simple_14_A_b.gif","images/stimuli/spore_stims/simple_15_A_a.gif","forced_long","","5","simple_dissimilar","images/stimuli/spore_stims/simple_15_A_a.gif","","","","",""
"","2710.655000002589","survey-multi-choice","76","460230","0.0-20.0","SS1619739490440","math_question","","","","","","","","","","","","{""Q0"":""10""}","[0]","10","",""
"","null","html-keyboard-response","77","461298","0.0-21.0-0.0","SS1619739490440","","","null","","","","","","<p><img src= images/blank.png width =""600"" height = ""600"" style=""position:fixed;top:50%; left:50%; transform: translate(-50%, -50%); border:5px solid black"">","","","","","","","",""
"","1293.4000000241213","sequential-stimulus-presentation-old","78","463107","0.0-21.0-1.0","SS1619739490440","trial","","40","500","1793.4000000241213","images/stimuli/spore_stims/complex_01_A_b.gif","images/stimuli/spore_stims/complex_18_A_a.gif","forced_short","","6","complex_dissimilar","images/stimuli/spore_stims/complex_18_A_a.gif","","","","",""
"","null","html-keyboard-response","79","464060","0.0-21.0-0.1","SS1619739490440","","","null","","","","","","<p><img src= images/blank.png width =""600"" height = ""600"" style=""position:fixed;top:50%; left:50%; transform: translate(-50%, -50%); border:5px solid black"">","","","","","","","",""
"","3063.7600000482053","sequential-stimulus-presentation-old","80","467632","0.0-21.0-1.1","SS1619739490440","trial","","40","500","3563.7600000482053","images/stimuli/spore_stims/complex_01_A_b.gif","images/stimuli/spore_stims/complex_18_A_a.gif","forced_short","","6","complex_dissimilar","images/stimuli/spore_stims/complex_01_A_b.gif","","","","",""
"","null","html-keyboard-response","81","468619","0.0-21.0-0.2","SS1619739490440","","","null","","","","","","<p><img src= images/blank.png width =""600"" height = ""600"" style=""position:fixed;top:50%; left:50%; transform: translate(-50%, -50%); border:5px solid black"">","","","","","","","",""
"","3322.905000008177","sequential-stimulus-presentation-old","82","472456","0.0-21.0-1.2","SS1619739490440","trial","","40","500","3822.905000008177","images/stimuli/spore_stims/complex_01_A_b.gif","images/stimuli/spore_stims/complex_18_A_a.gif","forced_short","","6","complex_dissimilar","images/stimuli/spore_stims/complex_18_A_a.gif","","","","",""
"","null","html-keyboard-response","83","473438","0.0-21.0-0.3","SS1619739490440","","","null","","","","","","<p><img src= images/blank.png width =""600"" height = ""600"" style=""position:fixed;top:50%; left:50%; transform: translate(-50%, -50%); border:5px solid black"">","","","","","","","",""
"","3361.0999999800697","sequential-stimulus-presentation-old","84","477327","0.0-21.0-1.3","SS1619739490440","trial","","40","500","3861.0999999800697","images/stimuli/spore_stims/complex_01_A_b.gif","images/stimuli/spore_stims/complex_18_A_a.gif","forced_short","","6","complex_dissimilar","images/stimuli/spore_stims/complex_18_A_a.gif","","","","",""
"","null","html-keyboard-response","85","478347","0.0-21.0-0.4","SS1619739490440","","","null","","","","","","<p><img src= images/blank.png width =""600"" height = ""600"" style=""position:fixed;top:50%; left:50%; transform: translate(-50%, -50%); border:5px solid black"">","","","","","","","",""
"","4563.404999964405","sequential-stimulus-presentation-old","86","483427","0.0-21.0-1.4","SS1619739490440","trial","","40","500","5063.404999964405","images/stimuli/spore_stims/complex_01_A_b.gif","images/stimuli/spore_stims/complex_18_A_a.gif","forced_short","","6","complex_dissimilar","images/stimuli/spore_stims/complex_18_A_a.gif","","","","",""
"","null","html-keyboard-response","87","484585","0.0-21.0-0.5","SS1619739490440","","","null","","","","","","<p><img src= images/blank.png width =""600"" height = ""600"" style=""position:fixed;top:50%; left:50%; transform: translate(-50%, -50%); border:5px solid black"">","","","","","","","",""
"","3443.6749999877065","sequential-stimulus-presentation-old","88","488542","0.0-21.0-1.5","SS1619739490440","trial","","40","500","3943.6749999877065","images/stimuli/spore_stims/complex_01_A_b.gif","images/stimuli/spore_stims/complex_18_A_a.gif","forced_short","","6","complex_dissimilar","images/stimuli/spore_stims/complex_18_A_a.gif","","","","",""
"","2720.470000000205","survey-multi-choice","89","491269","0.0-22.0","SS1619739490440","math_question","","","","","","","","","","","","{""Q0"":""11""}","[0]","11","",""
"","null","html-keyboard-response","90","492268","0.0-23.0-0.0","SS1619739490440","","","null","","","","","","<p><img src= images/blank.png width =""600"" height = ""600"" style=""position:fixed;top:50%; left:50%; transform: translate(-50%, -50%); border:5px solid black"">","","","","","","","",""
"","2641.5649999980815","sequential-stimulus-presentation-old","91","495424","0.0-23.0-1.0","SS1619739490440","trial","","40","500","3141.5649999980815","images/stimuli/spore_stims/simple_04_A_a.gif","images/stimuli/spore_stims/simple_18_A_b.gif","forced_short","","7","simple_dissimilar","images/stimuli/spore_stims/simple_18_A_b.gif","","","","",""
"","null","html-keyboard-response","92","496673","0.0-23.0-0.1","SS1619739490440","","","null","","","","","","<p><img src= images/blank.png width =""600"" height = ""600"" style=""position:fixed;top:50%; left:50%; transform: translate(-50%, -50%); border:5px solid black"">","","","","","","","",""
"","6252.51500000013","sequential-stimulus-presentation-old","93","503438","0.0-23.0-1.1","SS1619739490440","trial","","40","500","6752.51500000013","images/stimuli/spore_stims/simple_04_A_a.gif","images/stimuli/spore_stims/simple_18_A_b.gif","forced_short","","7","simple_dissimilar","images/stimuli/spore_stims/simple_18_A_b.gif","","","","",""
"","null","html-keyboard-response","94","504755","0.0-23.0-0.2","SS1619739490440","","","null","","","","","","<p><img src= images/blank.png width =""600"" height = ""600"" style=""position:fixed;top:50%; left:50%; transform: translate(-50%, -50%); border:5px solid black"">","","","","","","","",""
"","4604.985000041779","sequential-stimulus-presentation-old","95","509870","0.0-23.0-1.2","SS1619739490440","trial","","40","500","5104.985000041779","images/stimuli/spore_stims/simple_04_A_a.gif","images/stimuli/spore_stims/simple_18_A_b.gif","forced_short","","7","simple_dissimilar","images/stimuli/spore_stims/simple_04_A_a.gif","","","","",""
"","null","html-keyboard-response","96","511155","0.0-23.0-0.3","SS1619739490440","","","null","","","","","","<p><img src= images/blank.png width =""600"" height = ""600"" style=""position:fixed;top:50%; left:50%; transform: translate(-50%, -50%); border:5px solid black"">","","","","","","","",""
"","9458.249999966938","sequential-stimulus-presentation-old","97","521133","0.0-23.0-1.3","SS1619739490440","trial","","40","500","9958.249999966938","images/stimuli/spore_stims/simple_04_A_a.gif","images/stimuli/spore_stims/simple_18_A_b.gif","forced_short","","7","simple_dissimilar","images/stimuli/spore_stims/simple_04_A_a.gif","","","","",""
"","4861.474999983329","survey-multi-choice","98","526004","0.0-24.0","SS1619739490440","math_question","","","","","","","","","","","","{""Q0"":""12""}","[0]","12","",""
"","null","html-keyboard-response","99","527134","0.0-25.0-0.0","SS1619739490440","","","null","","","","","","<p><img src= images/blank.png width =""600"" height = ""600"" style=""position:fixed;top:50%; left:50%; transform: translate(-50%, -50%); border:5px solid black"">","","","","","","","",""
"","9063.034999999218","sequential-stimulus-presentation-old","100","536720","0.0-25.0-1.0","SS1619739490440","trial","","40","500","9563.034999999218","images/stimuli/spore_stims/simple_09_A_a.gif","images/stimuli/spore_stims/simple_15_A_b.gif","self_paced","","8","simple_dissimilar","images/stimuli/spore_stims/simple_15_A_b.gif","","","","",""
"","null","html-keyboard-response","101","537854","0.0-25.0-0.1","SS1619739490440","","","null","","","","","","<p><img src= images/blank.png width =""600"" height = ""600"" style=""position:fixed;top:50%; left:50%; transform: translate(-50%, -50%); border:5px solid black"">","","","","","","","",""
"","6316.234999976587","sequential-stimulus-presentation-old","102","544682","0.0-25.0-1.1","SS1619739490440","trial","","40","500","6816.234999976587","images/stimuli/spore_stims/simple_09_A_a.gif","images/stimuli/spore_stims/simple_15_A_b.gif","self_paced","","8","simple_dissimilar","images/stimuli/spore_stims/simple_15_A_b.gif","","","","",""
"","null","html-keyboard-response","103","545801","0.0-25.0-0.2","SS1619739490440","","","null","","","","","","<p><img src= images/blank.png width =""600"" height = ""600"" style=""position:fixed;top:50%; left:50%; transform: translate(-50%, -50%); border:5px solid black"">","","","","","","","",""
"","4558.190000010654","sequential-stimulus-presentation-old","104","550876","0.0-25.0-1.2","SS1619739490440","trial","","40","500","5058.190000010654","images/stimuli/spore_stims/simple_09_A_a.gif","images/stimuli/spore_stims/simple_15_A_b.gif","self_paced","","8","simple_dissimilar","images/stimuli/spore_stims/simple_15_A_b.gif","","","","",""
"","null","html-keyboard-response","105","552048","0.0-25.0-0.3","SS1619739490440","","","null","","","","","","<p><img src= images/blank.png width =""600"" height = ""600"" style=""position:fixed;top:50%; left:50%; transform: translate(-50%, -50%); border:5px solid black"">","","","","","","","",""
"","9623.735000030138","sequential-stimulus-presentation-old","106","562186","0.0-25.0-1.3","SS1619739490440","trial","","40","500","10123.735000030138","images/stimuli/spore_stims/simple_09_A_a.gif","images/stimuli/spore_stims/simple_15_A_b.gif","self_paced","","8","simple_dissimilar","images/stimuli/spore_stims/simple_15_A_b.gif","","","","",""
"","null","html-keyboard-response","107","563498","0.0-25.0-0.4","SS1619739490440","","","null","","","","","","<p><img src= images/blank.png width =""600"" height = ""600"" style=""position:fixed;top:50%; left:50%; transform: translate(-50%, -50%); border:5px solid black"">","","","","","","","",""
"","14745.68500003079","sequential-stimulus-presentation-old","108","578755","0.0-25.0-1.4","SS1619739490440","trial","","40","500","15245.68500003079","images/stimuli/spore_stims/simple_09_A_a.gif","images/stimuli/spore_stims/simple_15_A_b.gif","self_paced","","8","simple_dissimilar","images/stimuli/spore_stims/simple_15_A_b.gif","","","","",""
"","null","html-keyboard-response","109","579820","0.0-25.0-0.5","SS1619739490440","","","null","","","","","","<p><img src= images/blank.png width =""600"" height = ""600"" style=""position:fixed;top:50%; left:50%; transform: translate(-50%, -50%); border:5px solid black"">","","","","","","","",""
"","10125.44000003254","sequential-stimulus-presentation-old","110","590461","0.0-25.0-1.5","SS1619739490440","trial","","40","500","10625.44000003254","images/stimuli/spore_stims/simple_09_A_a.gif","images/stimuli/spore_stims/simple_15_A_b.gif","self_paced","","8","simple_dissimilar","images/stimuli/spore_stims/simple_15_A_b.gif","","","","",""
"","2814.989999984391","survey-multi-choice","111","593284","0.0-26.0","SS1619739490440","math_question","","","","","","","","","","","","{""Q0"":""9""}","[0]","9","",""
"","null","html-keyboard-response","112","594171","0.0-27.0-0.0","SS1619739490440","","","null","","","","","","<p><img src= images/blank.png width =""600"" height = ""600"" style=""position:fixed;top:50%; left:50%; transform: translate(-50%, -50%); border:5px solid black"">","","","","","","","",""
"","8497.204999963287","sequential-stimulus-presentation-old","113","617683","0.0-27.0-1.0","SS1619739490440","trial","","40","500","8997.204999963287","images/stimuli/spore_stims/complex_05_A_a.gif","images/stimuli/spore_stims/complex_04_A_b.gif","forced_long","","9","complex_dissimilar","images/stimuli/spore_stims/complex_04_A_b.gif","","","","",""
"","null","html-keyboard-response","114","618609","0.0-27.0-0.1","SS1619739490440","","","null","","","","","","<p><img src= images/blank.png width =""600"" height = ""600"" style=""position:fixed;top:50%; left:50%; transform: translate(-50%, -50%); border:5px solid black"">","","","","","","","",""
"","7211.710000003222","sequential-stimulus-presentation-old","115","626338","0.0-27.0-1.1","SS1619739490440","trial","","40","500","7711.710000003222","images/stimuli/spore_stims/complex_05_A_a.gif","images/stimuli/spore_stims/complex_04_A_b.gif","forced_long","","9","complex_dissimilar","images/stimuli/spore_stims/complex_04_A_b.gif","","","","",""
"","null","html-keyboard-response","116","627218","0.0-27.0-0.2","SS1619739490440","","","null","","","","","","<p><img src= images/blank.png width =""600"" height = ""600"" style=""position:fixed;top:50%; left:50%; transform: translate(-50%, -50%); border:5px solid black"">","","","","","","","",""
"","5133.244999975432","sequential-stimulus-presentation-old","117","632865","0.0-27.0-1.2","SS1619739490440","trial","","40","500","5633.244999975432","images/stimuli/spore_stims/complex_05_A_a.gif","images/stimuli/spore_stims/complex_04_A_b.gif","forced_long","","9","complex_dissimilar","images/stimuli/spore_stims/complex_05_A_a.gif","","","","",""
"","null","html-keyboard-response","118","634010","0.0-27.0-0.3","SS1619739490440","","","null","","","","","","<p><img src= images/blank.png width =""600"" height = ""600"" style=""position:fixed;top:50%; left:50%; transform: translate(-50%, -50%); border:5px solid black"">","","","","","","","",""
"","1919.3349999841303","sequential-stimulus-presentation-old","119","636442","0.0-27.0-1.3","SS1619739490440","trial","","40","500","2419.3349999841303","images/stimuli/spore_stims/complex_05_A_a.gif","images/stimuli/spore_stims/complex_04_A_b.gif","forced_long","","9","complex_dissimilar","images/stimuli/spore_stims/complex_04_A_b.gif","","","","",""
"","null","html-keyboard-response","120","637337","0.0-27.0-0.4","SS1619739490440","","","null","","","","","","<p><img src= images/blank.png width =""600"" height = ""600"" style=""position:fixed;top:50%; left:50%; transform: translate(-50%, -50%); border:5px solid black"">","","","","","","","",""
"","2700.7250000024214","sequential-stimulus-presentation-old","121","640553","0.0-27.0-1.4","SS1619739490440","trial","","40","500","3200.7250000024214","images/stimuli/spore_stims/complex_05_A_a.gif","images/stimuli/spore_stims/complex_04_A_b.gif","forced_long","","9","complex_dissimilar","images/stimuli/spore_stims/complex_04_A_b.gif","","","","",""
"","null","html-keyboard-response","122","641516","0.0-27.0-0.5","SS1619739490440","","","null","","","","","","<p><img src= images/blank.png width =""600"" height = ""600"" style=""position:fixed;top:50%; left:50%; transform: translate(-50%, -50%); border:5px solid black"">","","","","","","","",""
"","3729.3899999931455","sequential-stimulus-presentation-old","123","645761","0.0-27.0-1.5","SS1619739490440","trial","","40","500","4229.3899999931455","images/stimuli/spore_stims/complex_05_A_a.gif","images/stimuli/spore_stims/complex_04_A_b.gif","forced_long","","9","complex_dissimilar","images/stimuli/spore_stims/complex_05_A_a.gif","","","","",""
"","5249.679999949876","survey-multi-choice","124","651020","0.0-28.0","SS1619739490440","math_question","","","","","","","","","","","","{""Q0"":""12""}","[0]","12","",""
"","null","html-keyboard-response","125","652009","0.0-29.0-0.0","SS1619739490440","","","null","","","","","","<p><img src= images/blank.png width =""600"" height = ""600"" style=""position:fixed;top:50%; left:50%; transform: translate(-50%, -50%); border:5px solid black"">","","","","","","","",""
"","1244.5900000166148","sequential-stimulus-presentation-old","126","668275","0.0-29.0-1.0","SS1619739490440","trial","","40","500","1744.5900000166148","images/stimuli/spore_stims/complex_17_A_b.gif","images/stimuli/spore_stims/complex_10_A_a.gif","forced_long","","10","complex_dissimilar","images/stimuli/spore_stims/complex_10_A_a.gif","","","","",""
"","null","html-keyboard-response","127","669382","0.0-29.0-0.1","SS1619739490440","","","null","","","","","","<p><img src= images/blank.png width =""600"" height = ""600"" style=""position:fixed;top:50%; left:50%; transform: translate(-50%, -50%); border:5px solid black"">","","","","","","","",""
"","2953.0999999842606","sequential-stimulus-presentation-old","128","672848","0.0-29.0-1.1","SS1619739490440","trial","","40","500","3453.0999999842606","images/stimuli/spore_stims/complex_17_A_b.gif","images/stimuli/spore_stims/complex_10_A_a.gif","forced_long","","10","complex_dissimilar","images/stimuli/spore_stims/complex_10_A_a.gif","","","","",""
"","null","html-keyboard-response","129","673676","0.0-29.0-0.2","SS1619739490440","","","null","","","","","","<p><img src= images/blank.png width =""600"" height = ""600"" style=""position:fixed;top:50%; left:50%; transform: translate(-50%, -50%); border:5px solid black"">","","","","","","","",""
"","4971.1349999997765","sequential-stimulus-presentation-old","130","679163","0.0-29.0-1.2","SS1619739490440","trial","","40","500","5471.1349999997765","images/stimuli/spore_stims/complex_17_A_b.gif","images/stimuli/spore_stims/complex_10_A_a.gif","forced_long","","10","complex_dissimilar","images/stimuli/spore_stims/complex_10_A_a.gif","","","","",""
"","null","html-keyboard-response","131","680190","0.0-29.0-0.3","SS1619739490440","","","null","","","","","","<p><img src= images/blank.png width =""600"" height = ""600"" style=""position:fixed;top:50%; left:50%; transform: translate(-50%, -50%); border:5px solid black"">","","","","","","","",""
"","2858.845000038855","sequential-stimulus-presentation-old","132","683567","0.0-29.0-1.3","SS1619739490440","trial","","40","500","3358.845000038855","images/stimuli/spore_stims/complex_17_A_b.gif","images/stimuli/spore_stims/complex_10_A_a.gif","forced_long","","10","complex_dissimilar","images/stimuli/spore_stims/complex_10_A_a.gif","","","","",""
"","null","html-keyboard-response","133","684548","0.0-29.0-0.4","SS1619739490440","","","null","","","","","","<p><img src= images/blank.png width =""600"" height = ""600"" style=""position:fixed;top:50%; left:50%; transform: translate(-50%, -50%); border:5px solid black"">","","","","","","","",""
"","5289.9250000482425","sequential-stimulus-presentation-old","134","690355","0.0-29.0-1.4","SS1619739490440","trial","","40","500","5789.9250000482425","images/stimuli/spore_stims/complex_17_A_b.gif","images/stimuli/spore_stims/complex_10_A_a.gif","forced_long","","10","complex_dissimilar","images/stimuli/spore_stims/complex_17_A_b.gif","","","","",""
"","3775.9899999946356","survey-multi-choice","135","694140","0.0-30.0","SS1619739490440","math_question","","","","","","","","","","","","{""Q0"":""10""}","[0]","10","",""
"","null","html-keyboard-response","136","695052","0.0-31.0-0.0","SS1619739490440","","","null","","","","","","<p><img src= images/blank.png width =""600"" height = ""600"" style=""position:fixed;top:50%; left:50%; transform: translate(-50%, -50%); border:5px solid black"">","","","","","","","",""
"","4359.539999975823","sequential-stimulus-presentation-old","137","714445","0.0-31.0-1.0","SS1619739490440","trial","","40","500","4859.539999975823","images/stimuli/spore_stims/simple_11_A_a.gif","images/stimuli/spore_stims/simple_01_A_b.gif","forced_long","","11","simple_dissimilar","images/stimuli/spore_stims/simple_01_A_b.gif","","","","",""
"","null","html-keyboard-response","138","715735","0.0-31.0-0.1","SS1619739490440","","","null","","","","","","<p><img src= images/blank.png width =""600"" height = ""600"" style=""position:fixed;top:50%; left:50%; transform: translate(-50%, -50%); border:5px solid black"">","","","","","","","",""
"","9039.950000005774","sequential-stimulus-presentation-old","139","725294","0.0-31.0-1.1","SS1619739490440","trial","","40","500","9539.950000005774","images/stimuli/spore_stims/simple_11_A_a.gif","images/stimuli/spore_stims/simple_01_A_b.gif","forced_long","","11","simple_dissimilar","images/stimuli/spore_stims/simple_01_A_b.gif","","","","",""
"","null","html-keyboard-response","140","726367","0.0-31.0-0.2","SS1619739490440","","","null","","","","","","<p><img src= images/blank.png width =""600"" height = ""600"" style=""position:fixed;top:50%; left:50%; transform: translate(-50%, -50%); border:5px solid black"">","","","","","","","",""
"","2879.6199999633245","sequential-stimulus-presentation-old","141","729762","0.0-31.0-1.2","SS1619739490440","trial","","40","500","3379.6199999633245","images/stimuli/spore_stims/simple_11_A_a.gif","images/stimuli/spore_stims/simple_01_A_b.gif","forced_long","","11","simple_dissimilar","images/stimuli/spore_stims/simple_01_A_b.gif","","","","",""
"","null","html-keyboard-response","142","730611","0.0-31.0-0.3","SS1619739490440","","","null","","","","","","<p><img src= images/blank.png width =""600"" height = ""600"" style=""position:fixed;top:50%; left:50%; transform: translate(-50%, -50%); border:5px solid black"">","","","","","","","",""
"","4958.824999979697","sequential-stimulus-presentation-old","143","736084","0.0-31.0-1.3","SS1619739490440","trial","","40","500","5458.824999979697","images/stimuli/spore_stims/simple_11_A_a.gif","images/stimuli/spore_stims/simple_01_A_b.gif","forced_long","","11","simple_dissimilar","images/stimuli/spore_stims/simple_01_A_b.gif","","","","",""
"[{""page_index"":0,""viewing_time"":4535.000000032596}]","4535.350000020117","instructions","144","740627","0.0-32.0","SS1619739490440","instructions","","","","","","","","","","","","","","","",""
"","7603.405000001658","survey-likert","145","748236","0.0-33.0","SS1619739490440","similarity_question","","","","","","","","","","","","{""Q0"":1}","[0]","","images/stimuli/spore_stims/complex_17_A_a.gif","images/stimuli/spore_stims/complex_16_A_b.gif"
"","6066.374999994878","survey-likert","146","754307","0.0-34.0","SS1619739490440","similarity_question","","","","","","","","","","","","{""Q0"":4}","[0]","","images/stimuli/spore_stims/simple_08_A_a.gif","images/stimuli/spore_stims/simple_04_A_b.gif"
"","3514.469999994617","survey-likert","147","757827","0.0-35.0","SS1619739490440","similarity_question","","","","","","","","","","","","{""Q0"":0}","[0]","","images/stimuli/spore_stims/complex_04_A_b.gif","images/stimuli/spore_stims/complex_05_A_a.gif"
"","2986.1849999870174","survey-likert","148","760819","0.0-36.0","SS1619739490440","similarity_question","","","","","","","","","","","","{""Q0"":6}","[0]","","images/stimuli/spore_stims/complex_20_A_b.gif","images/stimuli/spore_stims/complex_09_A_a.gif"
"","5522.555000032298","survey-likert","149","766347","0.0-37.0","SS1619739490440","similarity_question","","","","","","","","","","","","{""Q0"":1}","[0]","","images/stimuli/spore_stims/complex_17_A_b.gif","images/stimuli/spore_stims/complex_10_A_a.gif"
"","3539.3650000332855","survey-likert","150","769891","0.0-38.0","SS1619739490440","similarity_question","","","","","","","","","","","","{""Q0"":6}","[0]","","images/stimuli/spore_stims/simple_09_A_a.gif","images/stimuli/spore_stims/simple_15_A_b.gif"
"","5371.080000011716","survey-likert","151","775267","0.0-39.0","SS1619739490440","similarity_question","","","","","","","","","","","","{""Q0"":4}","[0]","","images/stimuli/spore_stims/complex_10_A_b.gif","images/stimuli/spore_stims/complex_19_A_a.gif"
"","11762.104999972507","survey-likert","152","787035","0.0-40.0","SS1619739490440","similarity_question","","","","","","","","","","","","{""Q0"":4}","[0]","","images/stimuli/spore_stims/complex_01_A_b.gif","images/stimuli/spore_stims/complex_18_A_a.gif"
"","5282.6749999658205","survey-likert","153","792322","0.0-41.0","SS1619739490440","similarity_question","","","","","","","","","","","","{""Q0"":4}","[0]","","images/stimuli/spore_stims/simple_15_A_a.gif","images/stimuli/spore_stims/simple_14_A_b.gif"
"","3386.515000020154","survey-likert","154","795715","0.0-42.0","SS1619739490440","similarity_question","","","","","","","","","","","","{""Q0"":6}","[0]","","images/stimuli/spore_stims/simple_10_A_b.gif","images/stimuli/spore_stims/simple_19_A_a.gif"
"","5210.5000000447035","survey-likert","155","800931","0.0-43.0","SS1619739490440","similarity_question","","","","","","","","","","","","{""Q0"":6}","[0]","","images/stimuli/spore_stims/simple_18_A_b.gif","images/stimuli/spore_stims/simple_04_A_a.gif"
"","4761.6449999623","survey-likert","156","805698","0.0-44.0","SS1619739490440","similarity_question","","","","","","","","","","","","{""Q0"":5}","[0]","","images/stimuli/spore_stims/simple_01_A_b.gif","images/stimuli/spore_stims/simple_11_A_a.gif"
"[{""page_index"":0,""viewing_time"":8442.20500002848}]","8442.610000027344","instructions","157","814146","0.0-45.0","SS1619739490440","instructions","","","","","","","","","","","","","","","",""
"","3923.8400000031106","survey-likert","158","818074","0.0-46.0","SS1619739490440","","","","","","","","","images/stimuli/spore_stims/simple_01_A_b.gif","","","","{""Q0"":1}","[0]","","",""
"","2674.575000011828","survey-likert","159","820754","0.0-47.0","SS1619739490440","","","","","","","","","images/stimuli/spore_stims/simple_04_A_b.gif","","","","{""Q0"":0}","[0]","","",""
"","5323.120000015479","survey-likert","160","826082","0.0-48.0","SS1619739490440","","","","","","","","","images/stimuli/spore_stims/simple_15_A_b.gif","","","","{""Q0"":2}","[0]","","",""
"","2466.2649999954738","survey-likert","161","828554","0.0-49.0","SS1619739490440","","","","","","","","","images/stimuli/spore_stims/complex_18_A_a.gif","","","","{""Q0"":6}","[0]","","",""
"","2698.804999992717","survey-likert","162","831258","0.0-50.0","SS1619739490440","","","","","","","","","images/stimuli/spore_stims/complex_09_A_a.gif","","","","{""Q0"":6}","[0]","","",""
"","2707.079999963753","survey-likert","163","833971","0.0-51.0","SS1619739490440","","","","","","","","","images/stimuli/spore_stims/simple_14_A_b.gif","","","","{""Q0"":2}","[0]","","",""
"","3250.3750000032596","survey-likert","164","837227","0.0-52.0","SS1619739490440","","","","","","","","","images/stimuli/spore_stims/complex_17_A_a.gif","","","","{""Q0"":4}","[0]","","",""
"","3898.3249999582767","survey-likert","165","841131","0.0-53.0","SS1619739490440","","","","","","","","","images/stimuli/spore_stims/simple_18_A_b.gif","","","","{""Q0"":1}","[0]","","",""
"","5650.66000004299","survey-likert","166","846787","0.0-54.0","SS1619739490440","","","","","","","","","images/stimuli/spore_stims/complex_17_A_b.gif","","","","{""Q0"":4}","[0]","","",""
"","5418.084999953862","survey-likert","167","852211","0.0-55.0","SS1619739490440","","","","","","","","","images/stimuli/spore_stims/simple_10_A_b.gif","","","","{""Q0"":0}","[0]","","",""
"","5531.320000009146","survey-likert","168","857747","0.0-56.0","SS1619739490440","","","","","","","","","images/stimuli/spore_stims/complex_10_A_b.gif","","","","{""Q0"":6}","[0]","","",""
"","14089.984999969602","survey-likert","169","871842","0.0-57.0","SS1619739490440","","","","","","","","","images/stimuli/spore_stims/complex_04_A_b.gif","","","","{""Q0"":5}","[0]","","",""
"[{""page_index"":0,""viewing_time"":1739.1550000174902}]","1739.4550000317395","instructions","170","873586","0.0-58.0","SS1619739490440","instructions","","","","","","","","","","","","","","","",""
"","1888.8150000129826","demog-age","171","875482","0.0-59.0","SS1619739490440","","","","","","","","","","","","","{""age"":""22""}","","","",""
"","3487.6900000381283","demog-ethnic-US","172","878979","0.0-60.0","SS1619739490440","","","","","","","","","","","","","{""ethnicity"":[""Hispanic or Latino""]}","[0]","","",""
"","13969.860000011977","demog-gender-and-education","173","892954","0.0-61.0","SS1619739490440","","","","","","","","","","","","","{""gender"":""Female"",""education"":""High school diploma""}","[0,1]","","",""
"","14880.394999985583","survey-text","174","907842","0.0-62.0","SS1619739490440","feedback","","","","","","","","","","","","{""Q0"":""no, everything was ok""}","","","",""
"[{""page_index"":0,""viewing_time"":2051.824999973178}]","2052.175000018906","instructions","175","909898","0.0-63.0","SS1619739490440","instructions","","","","","","","","","","","","","","","",""
