"view_history","rt","trial_type","trial_index","time_elapsed","internal_node_id","subject","stimulus_type","trial_stimulus","key_press","minimum_viewing_duration","trial_looking_time","block_deviant","block_background","exposure_type","stimulus","block_number","block_type","stimulus_displayed","responses","question_order","math_correct_answer","stimulus_left","stimulus_right"
"[{""page_index"":0,""viewing_time"":5086.295000044629}]","5086.684999987483","instructions","0","5087","0.0-0.0","SS1619739672831","","","","","","","","","","","","","","","","",""
"[{""page_index"":0,""viewing_time"":10396.240000030957},{""page_index"":1,""viewing_time"":5856.265000067651}]","16252.72000010591","instructions","1","23343","0.0-1.0","SS1619739672831","instructions","","","","","","","","","","","","","","","",""
"","8678.89500001911","sequential-stimulus-presentation-old","2","32524","0.0-2.0","SS1619739672831","","","40","500","9178.89500001911","null","null","self_paced","","","","","","","","",""
"","5853.170000016689","sequential-stimulus-presentation-old","3","38878","0.0-3.0","SS1619739672831","","","40","500","6353.170000016689","null","null","self_paced","","","","","","","","",""
"[{""page_index"":0,""viewing_time"":14310.040000011213}]","14310.230000060983","instructions","4","53189","0.0-4.0","SS1619739672831","instructions","","","","","","","","","","","","","","","",""
"","368.84000001009554","sequential-stimulus-presentation-old","5","68560","0.0-5.0","SS1619739672831","","","40","500","868.8400000100955","null","null","forced_long","","","","","","","","",""
"","3226.050000055693","sequential-stimulus-presentation-old","6","72289","0.0-6.0","SS1619739672831","","","40","500","3726.050000055693","null","null","forced_long","","","","","","","","",""
"[{""page_index"":0,""viewing_time"":3485.395000083372}]","3485.5300000635907","instructions","7","75775","0.0-7.0","SS1619739672831","instructions","","","","","","","","","","","","","","","",""
"[{""page_index"":0,""viewing_time"":10005.624999990687},{""page_index"":1,""viewing_time"":13686.67500000447},{""page_index"":2,""viewing_time"":7949.69499995932},{""page_index"":3,""viewing_time"":1890.1599999517202},{""page_index"":4,""viewing_time"":1816.2449999945238}]","35348.59999991022","instructions","8","111124","0.0-8.0","SS1619739672831","instructions","","","","","","","","","","","","","","","",""
"","null","html-keyboard-response","9","112035","0.0-9.0-0.0","SS1619739672831","","","null","","","","","","<p><img src= images/blank.png width =""600"" height = ""600"" style=""position:fixed;top:50%; left:50%; transform: translate(-50%, -50%); border:5px solid black"">","","","","","","","",""
"","353.75499993097037","sequential-stimulus-presentation-old","10","127396","0.0-9.0-1.0","SS1619739672831","trial","","40","500","853.7549999309704","images/stimuli/spore_stims/simple_15_A_b.gif","images/stimuli/spore_stims/simple_17_A_a.gif","forced_long","","0","simple_dissimilar","images/stimuli/spore_stims/simple_17_A_a.gif","","","","",""
"","null","html-keyboard-response","11","128646","0.0-9.0-0.1","SS1619739672831","","","null","","","","","","<p><img src= images/blank.png width =""600"" height = ""600"" style=""position:fixed;top:50%; left:50%; transform: translate(-50%, -50%); border:5px solid black"">","","","","","","","",""
"","3846.129999961704","sequential-stimulus-presentation-old","12","132994","0.0-9.0-1.1","SS1619739672831","trial","","40","500","4346.129999961704","images/stimuli/spore_stims/simple_15_A_b.gif","images/stimuli/spore_stims/simple_17_A_a.gif","forced_long","","0","simple_dissimilar","images/stimuli/spore_stims/simple_17_A_a.gif","","","","",""
"","null","html-keyboard-response","13","134231","0.0-9.0-0.2","SS1619739672831","","","null","","","","","","<p><img src= images/blank.png width =""600"" height = ""600"" style=""position:fixed;top:50%; left:50%; transform: translate(-50%, -50%); border:5px solid black"">","","","","","","","",""
"","707.1549999527633","sequential-stimulus-presentation-old","14","135441","0.0-9.0-1.2","SS1619739672831","trial","","40","500","1207.1549999527633","images/stimuli/spore_stims/simple_15_A_b.gif","images/stimuli/spore_stims/simple_17_A_a.gif","forced_long","","0","simple_dissimilar","images/stimuli/spore_stims/simple_17_A_a.gif","","","","",""
"","null","html-keyboard-response","15","136280","0.0-9.0-0.3","SS1619739672831","","","null","","","","","","<p><img src= images/blank.png width =""600"" height = ""600"" style=""position:fixed;top:50%; left:50%; transform: translate(-50%, -50%); border:5px solid black"">","","","","","","","",""
"","919.1950000822544","sequential-stimulus-presentation-old","16","137705","0.0-9.0-1.3","SS1619739672831","trial","","40","500","1419.1950000822544","images/stimuli/spore_stims/simple_15_A_b.gif","images/stimuli/spore_stims/simple_17_A_a.gif","forced_long","","0","simple_dissimilar","images/stimuli/spore_stims/simple_15_A_b.gif","","","","",""
"","null","html-keyboard-response","17","138528","0.0-9.0-0.4","SS1619739672831","","","null","","","","","","<p><img src= images/blank.png width =""600"" height = ""600"" style=""position:fixed;top:50%; left:50%; transform: translate(-50%, -50%); border:5px solid black"">","","","","","","","",""
"","2117.7499999757856","sequential-stimulus-presentation-old","18","141148","0.0-9.0-1.4","SS1619739672831","trial","","40","500","2617.7499999757856","images/stimuli/spore_stims/simple_15_A_b.gif","images/stimuli/spore_stims/simple_17_A_a.gif","forced_long","","0","simple_dissimilar","images/stimuli/spore_stims/simple_17_A_a.gif","","","","",""
"","4770.994999911636","survey-multi-choice","19","145922","0.0-10.0","SS1619739672831","math_question","","","","","","","","","","","","{""Q0"":""6""}","[0]","6","",""
"","null","html-keyboard-response","20","147149","0.0-11.0-0.0","SS1619739672831","","","null","","","","","","<p><img src= images/blank.png width =""600"" height = ""600"" style=""position:fixed;top:50%; left:50%; transform: translate(-50%, -50%); border:5px solid black"">","","","","","","","",""
"","805.045000044629","sequential-stimulus-presentation-old","21","148457","0.0-11.0-1.0","SS1619739672831","trial","","40","500","1305.045000044629","images/stimuli/spore_stims/complex_10_A_b.gif","images/stimuli/spore_stims/complex_19_A_a.gif","self_paced","","1","complex_dissimilar","images/stimuli/spore_stims/complex_19_A_a.gif","","","","",""
"","null","html-keyboard-response","22","149758","0.0-11.0-0.1","SS1619739672831","","","null","","","","","","<p><img src= images/blank.png width =""600"" height = ""600"" style=""position:fixed;top:50%; left:50%; transform: translate(-50%, -50%); border:5px solid black"">","","","","","","","",""
"","885.3949999902397","sequential-stimulus-presentation-old","23","151147","0.0-11.0-1.1","SS1619739672831","trial","","40","500","1385.3949999902397","images/stimuli/spore_stims/complex_10_A_b.gif","images/stimuli/spore_stims/complex_19_A_a.gif","self_paced","","1","complex_dissimilar","images/stimuli/spore_stims/complex_19_A_a.gif","","","","",""
"","null","html-keyboard-response","24","152317","0.0-11.0-0.2","SS1619739672831","","","null","","","","","","<p><img src= images/blank.png width =""600"" height = ""600"" style=""position:fixed;top:50%; left:50%; transform: translate(-50%, -50%); border:5px solid black"">","","","","","","","",""
"","1403.9900000207126","sequential-stimulus-presentation-old","25","154223","0.0-11.0-1.2","SS1619739672831","trial","","40","500","1903.9900000207126","images/stimuli/spore_stims/complex_10_A_b.gif","images/stimuli/spore_stims/complex_19_A_a.gif","self_paced","","1","complex_dissimilar","images/stimuli/spore_stims/complex_19_A_a.gif","","","","",""
"","null","html-keyboard-response","26","155448","0.0-11.0-0.3","SS1619739672831","","","null","","","","","","<p><img src= images/blank.png width =""600"" height = ""600"" style=""position:fixed;top:50%; left:50%; transform: translate(-50%, -50%); border:5px solid black"">","","","","","","","",""
"","586.8000000482425","sequential-stimulus-presentation-old","27","156536","0.0-11.0-1.3","SS1619739672831","trial","","40","500","1086.8000000482425","images/stimuli/spore_stims/complex_10_A_b.gif","images/stimuli/spore_stims/complex_19_A_a.gif","self_paced","","1","complex_dissimilar","images/stimuli/spore_stims/complex_19_A_a.gif","","","","",""
"","null","html-keyboard-response","28","157576","0.0-11.0-0.4","SS1619739672831","","","null","","","","","","<p><img src= images/blank.png width =""600"" height = ""600"" style=""position:fixed;top:50%; left:50%; transform: translate(-50%, -50%); border:5px solid black"">","","","","","","","",""
"","73.91999999526888","sequential-stimulus-presentation-old","29","158160","0.0-11.0-1.4","SS1619739672831","trial","","40","500","573.9199999952689","images/stimuli/spore_stims/complex_10_A_b.gif","images/stimuli/spore_stims/complex_19_A_a.gif","self_paced","","1","complex_dissimilar","images/stimuli/spore_stims/complex_19_A_a.gif","","","","",""
"","null","html-keyboard-response","30","159215","0.0-11.0-0.5","SS1619739672831","","","null","","","","","","<p><img src= images/blank.png width =""600"" height = ""600"" style=""position:fixed;top:50%; left:50%; transform: translate(-50%, -50%); border:5px solid black"">","","","","","","","",""
"","793.9100000075996","sequential-stimulus-presentation-old","31","160511","0.0-11.0-1.5","SS1619739672831","trial","","40","500","1293.9100000075996","images/stimuli/spore_stims/complex_10_A_b.gif","images/stimuli/spore_stims/complex_19_A_a.gif","self_paced","","1","complex_dissimilar","images/stimuli/spore_stims/complex_19_A_a.gif","","","","",""
"","3241.009999997914","survey-multi-choice","32","163754","0.0-12.0","SS1619739672831","math_question","","","","","","","","","","","","{""Q0"":""4""}","[0]","4","",""
"","null","html-keyboard-response","33","164882","0.0-13.0-0.0","SS1619739672831","","","null","","","","","","<p><img src= images/blank.png width =""600"" height = ""600"" style=""position:fixed;top:50%; left:50%; transform: translate(-50%, -50%); border:5px solid black"">","","","","","","","",""
"","404.8750000074506","sequential-stimulus-presentation-old","34","165790","0.0-13.0-1.0","SS1619739672831","trial","","40","500","904.8750000074506","images/stimuli/spore_stims/complex_06_A_b.gif","images/stimuli/spore_stims/complex_16_A_a.gif","self_paced","","2","complex_dissimilar","images/stimuli/spore_stims/complex_16_A_a.gif","","","","",""
"","null","html-keyboard-response","35","166885","0.0-13.0-0.1","SS1619739672831","","","null","","","","","","<p><img src= images/blank.png width =""600"" height = ""600"" style=""position:fixed;top:50%; left:50%; transform: translate(-50%, -50%); border:5px solid black"">","","","","","","","",""
"","792.020000051707","sequential-stimulus-presentation-old","36","168181","0.0-13.0-1.1","SS1619739672831","trial","","40","500","1292.020000051707","images/stimuli/spore_stims/complex_06_A_b.gif","images/stimuli/spore_stims/complex_16_A_a.gif","self_paced","","2","complex_dissimilar","images/stimuli/spore_stims/complex_16_A_a.gif","","","","",""
"","null","html-keyboard-response","37","168990","0.0-13.0-0.2","SS1619739672831","","","null","","","","","","<p><img src= images/blank.png width =""600"" height = ""600"" style=""position:fixed;top:50%; left:50%; transform: translate(-50%, -50%); border:5px solid black"">","","","","","","","",""
"","1020.4650000669062","sequential-stimulus-presentation-old","38","170513","0.0-13.0-1.2","SS1619739672831","trial","","40","500","1520.4650000669062","images/stimuli/spore_stims/complex_06_A_b.gif","images/stimuli/spore_stims/complex_16_A_a.gif","self_paced","","2","complex_dissimilar","images/stimuli/spore_stims/complex_16_A_a.gif","","","","",""
"","null","html-keyboard-response","39","171333","0.0-13.0-0.3","SS1619739672831","","","null","","","","","","<p><img src= images/blank.png width =""600"" height = ""600"" style=""position:fixed;top:50%; left:50%; transform: translate(-50%, -50%); border:5px solid black"">","","","","","","","",""
"","540.0699999881908","sequential-stimulus-presentation-old","40","172375","0.0-13.0-1.3","SS1619739672831","trial","","40","500","1040.0699999881908","images/stimuli/spore_stims/complex_06_A_b.gif","images/stimuli/spore_stims/complex_16_A_a.gif","self_paced","","2","complex_dissimilar","images/stimuli/spore_stims/complex_16_A_a.gif","","","","",""
"","null","html-keyboard-response","41","173304","0.0-13.0-0.4","SS1619739672831","","","null","","","","","","<p><img src= images/blank.png width =""600"" height = ""600"" style=""position:fixed;top:50%; left:50%; transform: translate(-50%, -50%); border:5px solid black"">","","","","","","","",""
"","1043.7849999871105","sequential-stimulus-presentation-old","42","174862","0.0-13.0-1.4","SS1619739672831","trial","","40","500","1543.7849999871105","images/stimuli/spore_stims/complex_06_A_b.gif","images/stimuli/spore_stims/complex_16_A_a.gif","self_paced","","2","complex_dissimilar","images/stimuli/spore_stims/complex_16_A_a.gif","","","","",""
"","3648.8850000314415","survey-multi-choice","43","178512","0.0-14.0","SS1619739672831","math_question","","","","","","","","","","","","{""Q0"":""8""}","[0]","8","",""
"","null","html-keyboard-response","44","179552","0.0-15.0-0.0","SS1619739672831","","","null","","","","","","<p><img src= images/blank.png width =""600"" height = ""600"" style=""position:fixed;top:50%; left:50%; transform: translate(-50%, -50%); border:5px solid black"">","","","","","","","",""
"","9401.940000010654","sequential-stimulus-presentation-old","45","189457","0.0-15.0-1.0","SS1619739672831","trial","","40","500","9901.940000010654","images/stimuli/spore_stims/complex_18_A_a.gif","images/stimuli/spore_stims/complex_20_A_b.gif","forced_short","","3","complex_dissimilar","images/stimuli/spore_stims/complex_20_A_b.gif","","","","",""
"","null","html-keyboard-response","46","190553","0.0-15.0-0.1","SS1619739672831","","","null","","","","","","<p><img src= images/blank.png width =""600"" height = ""600"" style=""position:fixed;top:50%; left:50%; transform: translate(-50%, -50%); border:5px solid black"">","","","","","","","",""
"","2139.1800000565127","sequential-stimulus-presentation-old","47","193196","0.0-15.0-1.1","SS1619739672831","trial","","40","500","2639.1800000565127","images/stimuli/spore_stims/complex_18_A_a.gif","images/stimuli/spore_stims/complex_20_A_b.gif","forced_short","","3","complex_dissimilar","images/stimuli/spore_stims/complex_20_A_b.gif","","","","",""
"","null","html-keyboard-response","48","194475","0.0-15.0-0.2","SS1619739672831","","","null","","","","","","<p><img src= images/blank.png width =""600"" height = ""600"" style=""position:fixed;top:50%; left:50%; transform: translate(-50%, -50%); border:5px solid black"">","","","","","","","",""
"","644.4550000596792","sequential-stimulus-presentation-old","49","195621","0.0-15.0-1.2","SS1619739672831","trial","","40","500","1144.4550000596792","images/stimuli/spore_stims/complex_18_A_a.gif","images/stimuli/spore_stims/complex_20_A_b.gif","forced_short","","3","complex_dissimilar","images/stimuli/spore_stims/complex_20_A_b.gif","","","","",""
"","null","html-keyboard-response","50","196521","0.0-15.0-0.3","SS1619739672831","","","null","","","","","","<p><img src= images/blank.png width =""600"" height = ""600"" style=""position:fixed;top:50%; left:50%; transform: translate(-50%, -50%); border:5px solid black"">","","","","","","","",""
"","383.57000006362796","sequential-stimulus-presentation-old","51","197407","0.0-15.0-1.3","SS1619739672831","trial","","40","500","883.570000063628","images/stimuli/spore_stims/complex_18_A_a.gif","images/stimuli/spore_stims/complex_20_A_b.gif","forced_short","","3","complex_dissimilar","images/stimuli/spore_stims/complex_20_A_b.gif","","","","",""
"","null","html-keyboard-response","52","198329","0.0-15.0-0.4","SS1619739672831","","","null","","","","","","<p><img src= images/blank.png width =""600"" height = ""600"" style=""position:fixed;top:50%; left:50%; transform: translate(-50%, -50%); border:5px solid black"">","","","","","","","",""
"","50.77500001061708","sequential-stimulus-presentation-old","53","198895","0.0-15.0-1.4","SS1619739672831","trial","","40","500","550.7750000106171","images/stimuli/spore_stims/complex_18_A_a.gif","images/stimuli/spore_stims/complex_20_A_b.gif","forced_short","","3","complex_dissimilar","images/stimuli/spore_stims/complex_20_A_b.gif","","","","",""
"","null","html-keyboard-response","54","199850","0.0-15.0-0.5","SS1619739672831","","","null","","","","","","<p><img src= images/blank.png width =""600"" height = ""600"" style=""position:fixed;top:50%; left:50%; transform: translate(-50%, -50%); border:5px solid black"">","","","","","","","",""
"","1226.509999949485","sequential-stimulus-presentation-old","55","201579","0.0-15.0-1.5","SS1619739672831","trial","","40","500","1726.509999949485","images/stimuli/spore_stims/complex_18_A_a.gif","images/stimuli/spore_stims/complex_20_A_b.gif","forced_short","","3","complex_dissimilar","images/stimuli/spore_stims/complex_20_A_b.gif","","","","",""
"","7446.9650000100955","survey-multi-choice","56","209028","0.0-16.0","SS1619739672831","math_question","","","","","","","","","","","","{""Q0"":""11""}","[0]","11","",""
"","null","html-keyboard-response","57","210289","0.0-17.0-0.0","SS1619739672831","","","null","","","","","","<p><img src= images/blank.png width =""600"" height = ""600"" style=""position:fixed;top:50%; left:50%; transform: translate(-50%, -50%); border:5px solid black"">","","","","","","","",""
"","177.26999998558313","sequential-stimulus-presentation-old","58","225471","0.0-17.0-1.0","SS1619739672831","trial","","40","500","677.2699999855831","images/stimuli/spore_stims/complex_15_A_a.gif","images/stimuli/spore_stims/complex_09_A_b.gif","forced_long","","4","complex_dissimilar","images/stimuli/spore_stims/complex_09_A_b.gif","","","","",""
"","null","html-keyboard-response","59","226660","0.0-17.0-0.1","SS1619739672831","","","null","","","","","","<p><img src= images/blank.png width =""600"" height = ""600"" style=""position:fixed;top:50%; left:50%; transform: translate(-50%, -50%); border:5px solid black"">","","","","","","","",""
"","294.79499999433756","sequential-stimulus-presentation-old","60","227458","0.0-17.0-1.1","SS1619739672831","trial","","40","500","794.7949999943376","images/stimuli/spore_stims/complex_15_A_a.gif","images/stimuli/spore_stims/complex_09_A_b.gif","forced_long","","4","complex_dissimilar","images/stimuli/spore_stims/complex_09_A_b.gif","","","","",""
"","null","html-keyboard-response","61","228381","0.0-17.0-0.2","SS1619739672831","","","null","","","","","","<p><img src= images/blank.png width =""600"" height = ""600"" style=""position:fixed;top:50%; left:50%; transform: translate(-50%, -50%); border:5px solid black"">","","","","","","","",""
"","4310.354999965057","sequential-stimulus-presentation-old","62","233193","0.0-17.0-1.2","SS1619739672831","trial","","40","500","4810.354999965057","images/stimuli/spore_stims/complex_15_A_a.gif","images/stimuli/spore_stims/complex_09_A_b.gif","forced_long","","4","complex_dissimilar","images/stimuli/spore_stims/complex_09_A_b.gif","","","","",""
"","null","html-keyboard-response","63","234485","0.0-17.0-0.3","SS1619739672831","","","null","","","","","","<p><img src= images/blank.png width =""600"" height = ""600"" style=""position:fixed;top:50%; left:50%; transform: translate(-50%, -50%); border:5px solid black"">","","","","","","","",""
"","1593.180000083521","sequential-stimulus-presentation-old","64","236585","0.0-17.0-1.3","SS1619739672831","trial","","40","500","2093.180000083521","images/stimuli/spore_stims/complex_15_A_a.gif","images/stimuli/spore_stims/complex_09_A_b.gif","forced_long","","4","complex_dissimilar","images/stimuli/spore_stims/complex_15_A_a.gif","","","","",""
"","null","html-keyboard-response","65","237806","0.0-17.0-0.4","SS1619739672831","","","null","","","","","","<p><img src= images/blank.png width =""600"" height = ""600"" style=""position:fixed;top:50%; left:50%; transform: translate(-50%, -50%); border:5px solid black"">","","","","","","","",""
"","209.50999995693564","sequential-stimulus-presentation-old","66","238520","0.0-17.0-1.4","SS1619739672831","trial","","40","500","709.5099999569356","images/stimuli/spore_stims/complex_15_A_a.gif","images/stimuli/spore_stims/complex_09_A_b.gif","forced_long","","4","complex_dissimilar","images/stimuli/spore_stims/complex_09_A_b.gif","","","","",""
"","null","html-keyboard-response","67","239671","0.0-17.0-0.5","SS1619739672831","","","null","","","","","","<p><img src= images/blank.png width =""600"" height = ""600"" style=""position:fixed;top:50%; left:50%; transform: translate(-50%, -50%); border:5px solid black"">","","","","","","","",""
"","504.5950000640005","sequential-stimulus-presentation-old","68","240679","0.0-17.0-1.5","SS1619739672831","trial","","40","500","1004.5950000640005","images/stimuli/spore_stims/complex_15_A_a.gif","images/stimuli/spore_stims/complex_09_A_b.gif","forced_long","","4","complex_dissimilar","images/stimuli/spore_stims/complex_15_A_a.gif","","","","",""
"","2688.9199999859557","survey-multi-choice","69","243370","0.0-18.0","SS1619739672831","math_question","","","","","","","","","","","","{""Q0"":""6""}","[0]","6","",""
"","null","html-keyboard-response","70","244649","0.0-19.0-0.0","SS1619739672831","","","null","","","","","","<p><img src= images/blank.png width =""600"" height = ""600"" style=""position:fixed;top:50%; left:50%; transform: translate(-50%, -50%); border:5px solid black"">","","","","","","","",""
"","16497.199999983422","sequential-stimulus-presentation-old","71","261656","0.0-19.0-1.0","SS1619739672831","trial","","40","500","16997.199999983422","images/stimuli/spore_stims/simple_16_A_b.gif","images/stimuli/spore_stims/simple_19_A_a.gif","forced_short","","5","simple_dissimilar","images/stimuli/spore_stims/simple_19_A_a.gif","","","","",""
"","null","html-keyboard-response","72","262961","0.0-19.0-0.1","SS1619739672831","","","null","","","","","","<p><img src= images/blank.png width =""600"" height = ""600"" style=""position:fixed;top:50%; left:50%; transform: translate(-50%, -50%); border:5px solid black"">","","","","","","","",""
"","243.00499993842095","sequential-stimulus-presentation-old","73","263708","0.0-19.0-1.1","SS1619739672831","trial","","40","500","743.004999938421","images/stimuli/spore_stims/simple_16_A_b.gif","images/stimuli/spore_stims/simple_19_A_a.gif","forced_short","","5","simple_dissimilar","images/stimuli/spore_stims/simple_16_A_b.gif","","","","",""
"","null","html-keyboard-response","74","264699","0.0-19.0-0.2","SS1619739672831","","","null","","","","","","<p><img src= images/blank.png width =""600"" height = ""600"" style=""position:fixed;top:50%; left:50%; transform: translate(-50%, -50%); border:5px solid black"">","","","","","","","",""
"","5389.880000031553","sequential-stimulus-presentation-old","75","270599","0.0-19.0-1.2","SS1619739672831","trial","","40","500","5889.880000031553","images/stimuli/spore_stims/simple_16_A_b.gif","images/stimuli/spore_stims/simple_19_A_a.gif","forced_short","","5","simple_dissimilar","images/stimuli/spore_stims/simple_19_A_a.gif","","","","",""
"","null","html-keyboard-response","76","271455","0.0-19.0-0.3","SS1619739672831","","","null","","","","","","<p><img src= images/blank.png width =""600"" height = ""600"" style=""position:fixed;top:50%; left:50%; transform: translate(-50%, -50%); border:5px solid black"">","","","","","","","",""
"","2660.340000060387","sequential-stimulus-presentation-old","77","274626","0.0-19.0-1.3","SS1619739672831","trial","","40","500","3160.340000060387","images/stimuli/spore_stims/simple_16_A_b.gif","images/stimuli/spore_stims/simple_19_A_a.gif","forced_short","","5","simple_dissimilar","images/stimuli/spore_stims/simple_19_A_a.gif","","","","",""
"","null","html-keyboard-response","78","275827","0.0-19.0-0.4","SS1619739672831","","","null","","","","","","<p><img src= images/blank.png width =""600"" height = ""600"" style=""position:fixed;top:50%; left:50%; transform: translate(-50%, -50%); border:5px solid black"">","","","","","","","",""
"","217.96500007621944","sequential-stimulus-presentation-old","79","276556","0.0-19.0-1.4","SS1619739672831","trial","","40","500","717.9650000762194","images/stimuli/spore_stims/simple_16_A_b.gif","images/stimuli/spore_stims/simple_19_A_a.gif","forced_short","","5","simple_dissimilar","images/stimuli/spore_stims/simple_19_A_a.gif","","","","",""
"","null","html-keyboard-response","80","277738","0.0-19.0-0.5","SS1619739672831","","","null","","","","","","<p><img src= images/blank.png width =""600"" height = ""600"" style=""position:fixed;top:50%; left:50%; transform: translate(-50%, -50%); border:5px solid black"">","","","","","","","",""
"","185.24999998044223","sequential-stimulus-presentation-old","81","278426","0.0-19.0-1.5","SS1619739672831","trial","","40","500","685.2499999804422","images/stimuli/spore_stims/simple_16_A_b.gif","images/stimuli/spore_stims/simple_19_A_a.gif","forced_short","","5","simple_dissimilar","images/stimuli/spore_stims/simple_16_A_b.gif","","","","",""
"","5639.7199999773875","survey-multi-choice","82","284070","0.0-20.0","SS1619739672831","math_question","","","","","","","","","","","","{""Q0"":""12""}","[0]","12","",""
"","null","html-keyboard-response","83","285201","0.0-21.0-0.0","SS1619739672831","","","null","","","","","","<p><img src= images/blank.png width =""600"" height = ""600"" style=""position:fixed;top:50%; left:50%; transform: translate(-50%, -50%); border:5px solid black"">","","","","","","","",""
"","12.860000017099082","sequential-stimulus-presentation-old","84","285726","0.0-21.0-1.0","SS1619739672831","trial","","40","500","512.8600000170991","images/stimuli/spore_stims/complex_13_A_b.gif","images/stimuli/spore_stims/complex_05_A_a.gif","forced_short","","6","complex_dissimilar","images/stimuli/spore_stims/complex_05_A_a.gif","","","","",""
"","null","html-keyboard-response","85","286868","0.0-21.0-0.1","SS1619739672831","","","null","","","","","","<p><img src= images/blank.png width =""600"" height = ""600"" style=""position:fixed;top:50%; left:50%; transform: translate(-50%, -50%); border:5px solid black"">","","","","","","","",""
"","48.20499999914318","sequential-stimulus-presentation-old","86","287427","0.0-21.0-1.1","SS1619739672831","trial","","40","500","548.2049999991432","images/stimuli/spore_stims/complex_13_A_b.gif","images/stimuli/spore_stims/complex_05_A_a.gif","forced_short","","6","complex_dissimilar","images/stimuli/spore_stims/complex_05_A_a.gif","","","","",""
"","null","html-keyboard-response","87","288263","0.0-21.0-0.2","SS1619739672831","","","null","","","","","","<p><img src= images/blank.png width =""600"" height = ""600"" style=""position:fixed;top:50%; left:50%; transform: translate(-50%, -50%); border:5px solid black"">","","","","","","","",""
"","238.03999996744096","sequential-stimulus-presentation-old","88","289004","0.0-21.0-1.2","SS1619739672831","trial","","40","500","738.039999967441","images/stimuli/spore_stims/complex_13_A_b.gif","images/stimuli/spore_stims/complex_05_A_a.gif","forced_short","","6","complex_dissimilar","images/stimuli/spore_stims/complex_05_A_a.gif","","","","",""
"","null","html-keyboard-response","89","290001","0.0-21.0-0.3","SS1619739672831","","","null","","","","","","<p><img src= images/blank.png width =""600"" height = ""600"" style=""position:fixed;top:50%; left:50%; transform: translate(-50%, -50%); border:5px solid black"">","","","","","","","",""
"","33.11499999836087","sequential-stimulus-presentation-old","90","290536","0.0-21.0-1.3","SS1619739672831","trial","","40","500","533.1149999983609","images/stimuli/spore_stims/complex_13_A_b.gif","images/stimuli/spore_stims/complex_05_A_a.gif","forced_short","","6","complex_dissimilar","images/stimuli/spore_stims/complex_05_A_a.gif","","","","",""
"","null","html-keyboard-response","91","291567","0.0-21.0-0.4","SS1619739672831","","","null","","","","","","<p><img src= images/blank.png width =""600"" height = ""600"" style=""position:fixed;top:50%; left:50%; transform: translate(-50%, -50%); border:5px solid black"">","","","","","","","",""
"","58.42499993741512","sequential-stimulus-presentation-old","92","292136","0.0-21.0-1.4","SS1619739672831","trial","","40","500","558.4249999374151","images/stimuli/spore_stims/complex_13_A_b.gif","images/stimuli/spore_stims/complex_05_A_a.gif","forced_short","","6","complex_dissimilar","images/stimuli/spore_stims/complex_05_A_a.gif","","","","",""
"","null","html-keyboard-response","93","293411","0.0-21.0-0.5","SS1619739672831","","","null","","","","","","<p><img src= images/blank.png width =""600"" height = ""600"" style=""position:fixed;top:50%; left:50%; transform: translate(-50%, -50%); border:5px solid black"">","","","","","","","",""
"","16247.260000091046","sequential-stimulus-presentation-old","94","310161","0.0-21.0-1.5","SS1619739672831","trial","","40","500","16747.260000091046","images/stimuli/spore_stims/complex_13_A_b.gif","images/stimuli/spore_stims/complex_05_A_a.gif","forced_short","","6","complex_dissimilar","images/stimuli/spore_stims/complex_05_A_a.gif","","","","",""
"","10856.900000013411","survey-multi-choice","95","321021","0.0-22.0","SS1619739672831","math_question","","","","","","","","","","","","{""Q0"":""10""}","[0]","10","",""
"","null","html-keyboard-response","96","322221","0.0-23.0-0.0","SS1619739672831","","","null","","","","","","<p><img src= images/blank.png width =""600"" height = ""600"" style=""position:fixed;top:50%; left:50%; transform: translate(-50%, -50%); border:5px solid black"">","","","","","","","",""
"","116.76999996416271","sequential-stimulus-presentation-old","97","322841","0.0-23.0-1.0","SS1619739672831","trial","","40","500","616.7699999641627","images/stimuli/spore_stims/simple_05_A_a.gif","images/stimuli/spore_stims/simple_18_A_b.gif","self_paced","","7","simple_dissimilar","images/stimuli/spore_stims/simple_18_A_b.gif","","","","",""
"","null","html-keyboard-response","98","324026","0.0-23.0-0.1","SS1619739672831","","","null","","","","","","<p><img src= images/blank.png width =""600"" height = ""600"" style=""position:fixed;top:50%; left:50%; transform: translate(-50%, -50%); border:5px solid black"">","","","","","","","",""
"","7168.660000083037","sequential-stimulus-presentation-old","99","331698","0.0-23.0-1.1","SS1619739672831","trial","","40","500","7668.660000083037","images/stimuli/spore_stims/simple_05_A_a.gif","images/stimuli/spore_stims/simple_18_A_b.gif","self_paced","","7","simple_dissimilar","images/stimuli/spore_stims/simple_18_A_b.gif","","","","",""
"","null","html-keyboard-response","100","332912","0.0-23.0-0.2","SS1619739672831","","","null","","","","","","<p><img src= images/blank.png width =""600"" height = ""600"" style=""position:fixed;top:50%; left:50%; transform: translate(-50%, -50%); border:5px solid black"">","","","","","","","",""
"","18274.24499997869","sequential-stimulus-presentation-old","101","351689","0.0-23.0-1.2","SS1619739672831","trial","","40","500","18774.24499997869","images/stimuli/spore_stims/simple_05_A_a.gif","images/stimuli/spore_stims/simple_18_A_b.gif","self_paced","","7","simple_dissimilar","images/stimuli/spore_stims/simple_18_A_b.gif","","","","",""
"","null","html-keyboard-response","102","352953","0.0-23.0-0.3","SS1619739672831","","","null","","","","","","<p><img src= images/blank.png width =""600"" height = ""600"" style=""position:fixed;top:50%; left:50%; transform: translate(-50%, -50%); border:5px solid black"">","","","","","","","",""
"","54.074999992735684","sequential-stimulus-presentation-old","103","353510","0.0-23.0-1.3","SS1619739672831","trial","","40","500","554.0749999927357","images/stimuli/spore_stims/simple_05_A_a.gif","images/stimuli/spore_stims/simple_18_A_b.gif","self_paced","","7","simple_dissimilar","images/stimuli/spore_stims/simple_18_A_b.gif","","","","",""
"","null","html-keyboard-response","104","354533","0.0-23.0-0.4","SS1619739672831","","","null","","","","","","<p><img src= images/blank.png width =""600"" height = ""600"" style=""position:fixed;top:50%; left:50%; transform: translate(-50%, -50%); border:5px solid black"">","","","","","","","",""
"","2508.8000000687316","sequential-stimulus-presentation-old","105","357544","0.0-23.0-1.4","SS1619739672831","trial","","40","500","3008.8000000687316","images/stimuli/spore_stims/simple_05_A_a.gif","images/stimuli/spore_stims/simple_18_A_b.gif","self_paced","","7","simple_dissimilar","images/stimuli/spore_stims/simple_18_A_b.gif","","","","",""
"","null","html-keyboard-response","106","358528","0.0-23.0-0.5","SS1619739672831","","","null","","","","","","<p><img src= images/blank.png width =""600"" height = ""600"" style=""position:fixed;top:50%; left:50%; transform: translate(-50%, -50%); border:5px solid black"">","","","","","","","",""
"","1380.765000008978","sequential-stimulus-presentation-old","107","360414","0.0-23.0-1.5","SS1619739672831","trial","","40","500","1880.765000008978","images/stimuli/spore_stims/simple_05_A_a.gif","images/stimuli/spore_stims/simple_18_A_b.gif","self_paced","","7","simple_dissimilar","images/stimuli/spore_stims/simple_18_A_b.gif","","","","",""
"","4316.740000038408","survey-multi-choice","108","364734","0.0-24.0","SS1619739672831","math_question","","","","","","","","","","","","{""Q0"":""13""}","[0]","13","",""
"","null","html-keyboard-response","109","365667","0.0-25.0-0.0","SS1619739672831","","","null","","","","","","<p><img src= images/blank.png width =""600"" height = ""600"" style=""position:fixed;top:50%; left:50%; transform: translate(-50%, -50%); border:5px solid black"">","","","","","","","",""
"","2019.7349999798462","sequential-stimulus-presentation-old","110","382691","0.0-25.0-1.0","SS1619739672831","trial","","40","500","2519.734999979846","images/stimuli/spore_stims/complex_18_A_b.gif","images/stimuli/spore_stims/complex_10_A_a.gif","forced_long","","8","complex_dissimilar","images/stimuli/spore_stims/complex_10_A_a.gif","","","","",""
"","null","html-keyboard-response","111","383576","0.0-25.0-0.1","SS1619739672831","","","null","","","","","","<p><img src= images/blank.png width =""600"" height = ""600"" style=""position:fixed;top:50%; left:50%; transform: translate(-50%, -50%); border:5px solid black"">","","","","","","","",""
"","171.52999993413687","sequential-stimulus-presentation-old","112","384250","0.0-25.0-1.1","SS1619739672831","trial","","40","500","671.5299999341369","images/stimuli/spore_stims/complex_18_A_b.gif","images/stimuli/spore_stims/complex_10_A_a.gif","forced_long","","8","complex_dissimilar","images/stimuli/spore_stims/complex_10_A_a.gif","","","","",""
"","null","html-keyboard-response","113","385375","0.0-25.0-0.2","SS1619739672831","","","null","","","","","","<p><img src= images/blank.png width =""600"" height = ""600"" style=""position:fixed;top:50%; left:50%; transform: translate(-50%, -50%); border:5px solid black"">","","","","","","","",""
"","52.93500004336238","sequential-stimulus-presentation-old","114","385936","0.0-25.0-1.2","SS1619739672831","trial","","40","500","552.9350000433624","images/stimuli/spore_stims/complex_18_A_b.gif","images/stimuli/spore_stims/complex_10_A_a.gif","forced_long","","8","complex_dissimilar","images/stimuli/spore_stims/complex_18_A_b.gif","","","","",""
"","null","html-keyboard-response","115","387051","0.0-25.0-0.3","SS1619739672831","","","null","","","","","","<p><img src= images/blank.png width =""600"" height = ""600"" style=""position:fixed;top:50%; left:50%; transform: translate(-50%, -50%); border:5px solid black"">","","","","","","","",""
"","298.14500000793487","sequential-stimulus-presentation-old","116","387859","0.0-25.0-1.3","SS1619739672831","trial","","40","500","798.1450000079349","images/stimuli/spore_stims/complex_18_A_b.gif","images/stimuli/spore_stims/complex_10_A_a.gif","forced_long","","8","complex_dissimilar","images/stimuli/spore_stims/complex_10_A_a.gif","","","","",""
"","null","html-keyboard-response","117","388820","0.0-25.0-0.4","SS1619739672831","","","null","","","","","","<p><img src= images/blank.png width =""600"" height = ""600"" style=""position:fixed;top:50%; left:50%; transform: translate(-50%, -50%); border:5px solid black"">","","","","","","","",""
"","58.674999978393316","sequential-stimulus-presentation-old","118","389383","0.0-25.0-1.4","SS1619739672831","trial","","40","500","558.6749999783933","images/stimuli/spore_stims/complex_18_A_b.gif","images/stimuli/spore_stims/complex_10_A_a.gif","forced_long","","8","complex_dissimilar","images/stimuli/spore_stims/complex_18_A_b.gif","","","","",""
"","3747.9349999921396","survey-multi-choice","119","393134","0.0-26.0","SS1619739672831","math_question","","","","","","","","","","","","{""Q0"":""4""}","[0]","4","",""
"","null","html-keyboard-response","120","394312","0.0-27.0-0.0","SS1619739672831","","","null","","","","","","<p><img src= images/blank.png width =""600"" height = ""600"" style=""position:fixed;top:50%; left:50%; transform: translate(-50%, -50%); border:5px solid black"">","","","","","","","",""
"","218.9750000834465","sequential-stimulus-presentation-old","121","395034","0.0-27.0-1.0","SS1619739672831","trial","","40","500","718.9750000834465","images/stimuli/spore_stims/simple_04_A_a.gif","images/stimuli/spore_stims/simple_02_A_b.gif","forced_short","","9","simple_dissimilar","images/stimuli/spore_stims/simple_02_A_b.gif","","","","",""
"","null","html-keyboard-response","122","396239","0.0-27.0-0.1","SS1619739672831","","","null","","","","","","<p><img src= images/blank.png width =""600"" height = ""600"" style=""position:fixed;top:50%; left:50%; transform: translate(-50%, -50%); border:5px solid black"">","","","","","","","",""
"","261.0850000055507","sequential-stimulus-presentation-old","123","397013","0.0-27.0-1.1","SS1619739672831","trial","","40","500","761.0850000055507","images/stimuli/spore_stims/simple_04_A_a.gif","images/stimuli/spore_stims/simple_02_A_b.gif","forced_short","","9","simple_dissimilar","images/stimuli/spore_stims/simple_02_A_b.gif","","","","",""
"","null","html-keyboard-response","124","398135","0.0-27.0-0.2","SS1619739672831","","","null","","","","","","<p><img src= images/blank.png width =""600"" height = ""600"" style=""position:fixed;top:50%; left:50%; transform: translate(-50%, -50%); border:5px solid black"">","","","","","","","",""
"","212.47999998740852","sequential-stimulus-presentation-old","125","398862","0.0-27.0-1.2","SS1619739672831","trial","","40","500","712.4799999874085","images/stimuli/spore_stims/simple_04_A_a.gif","images/stimuli/spore_stims/simple_02_A_b.gif","forced_short","","9","simple_dissimilar","images/stimuli/spore_stims/simple_02_A_b.gif","","","","",""
"","null","html-keyboard-response","126","399767","0.0-27.0-0.3","SS1619739672831","","","null","","","","","","<p><img src= images/blank.png width =""600"" height = ""600"" style=""position:fixed;top:50%; left:50%; transform: translate(-50%, -50%); border:5px solid black"">","","","","","","","",""
"","157.11000002920628","sequential-stimulus-presentation-old","127","400428","0.0-27.0-1.3","SS1619739672831","trial","","40","500","657.1100000292063","images/stimuli/spore_stims/simple_04_A_a.gif","images/stimuli/spore_stims/simple_02_A_b.gif","forced_short","","9","simple_dissimilar","images/stimuli/spore_stims/simple_02_A_b.gif","","","","",""
"","null","html-keyboard-response","128","401623","0.0-27.0-0.4","SS1619739672831","","","null","","","","","","<p><img src= images/blank.png width =""600"" height = ""600"" style=""position:fixed;top:50%; left:50%; transform: translate(-50%, -50%); border:5px solid black"">","","","","","","","",""
"","3601.1900000739843","sequential-stimulus-presentation-old","129","405727","0.0-27.0-1.4","SS1619739672831","trial","","40","500","4101.190000073984","images/stimuli/spore_stims/simple_04_A_a.gif","images/stimuli/spore_stims/simple_02_A_b.gif","forced_short","","9","simple_dissimilar","images/stimuli/spore_stims/simple_02_A_b.gif","","","","",""
"","null","html-keyboard-response","130","406940","0.0-27.0-0.5","SS1619739672831","","","null","","","","","","<p><img src= images/blank.png width =""600"" height = ""600"" style=""position:fixed;top:50%; left:50%; transform: translate(-50%, -50%); border:5px solid black"">","","","","","","","",""
"","99.29500008001924","sequential-stimulus-presentation-old","131","407542","0.0-27.0-1.5","SS1619739672831","trial","","40","500","599.2950000800192","images/stimuli/spore_stims/simple_04_A_a.gif","images/stimuli/spore_stims/simple_02_A_b.gif","forced_short","","9","simple_dissimilar","images/stimuli/spore_stims/simple_02_A_b.gif","","","","",""
"","3474.2499999701977","survey-multi-choice","132","411019","0.0-28.0","SS1619739672831","math_question","","","","","","","","","","","","{""Q0"":""9""}","[0]","9","",""
"","null","html-keyboard-response","133","412083","0.0-29.0-0.0","SS1619739672831","","","null","","","","","","<p><img src= images/blank.png width =""600"" height = ""600"" style=""position:fixed;top:50%; left:50%; transform: translate(-50%, -50%); border:5px solid black"">","","","","","","","",""
"","33134.20000008773","sequential-stimulus-presentation-old","134","445722","0.0-29.0-1.0","SS1619739672831","trial","","40","500","33634.20000008773","images/stimuli/spore_stims/simple_01_A_a.gif","images/stimuli/spore_stims/simple_05_A_b.gif","self_paced","","10","simple_dissimilar","images/stimuli/spore_stims/simple_05_A_b.gif","","","","",""
"","null","html-keyboard-response","135","446574","0.0-29.0-0.1","SS1619739672831","","","null","","","","","","<p><img src= images/blank.png width =""600"" height = ""600"" style=""position:fixed;top:50%; left:50%; transform: translate(-50%, -50%); border:5px solid black"">","","","","","","","",""
"","505.8049999643117","sequential-stimulus-presentation-old","136","447583","0.0-29.0-1.1","SS1619739672831","trial","","40","500","1005.8049999643117","images/stimuli/spore_stims/simple_01_A_a.gif","images/stimuli/spore_stims/simple_05_A_b.gif","self_paced","","10","simple_dissimilar","images/stimuli/spore_stims/simple_05_A_b.gif","","","","",""
"","null","html-keyboard-response","137","448598","0.0-29.0-0.2","SS1619739672831","","","null","","","","","","<p><img src= images/blank.png width =""600"" height = ""600"" style=""position:fixed;top:50%; left:50%; transform: translate(-50%, -50%); border:5px solid black"">","","","","","","","",""
"","309.76500001270324","sequential-stimulus-presentation-old","138","449412","0.0-29.0-1.2","SS1619739672831","trial","","40","500","809.7650000127032","images/stimuli/spore_stims/simple_01_A_a.gif","images/stimuli/spore_stims/simple_05_A_b.gif","self_paced","","10","simple_dissimilar","images/stimuli/spore_stims/simple_01_A_a.gif","","","","",""
"","null","html-keyboard-response","139","450388","0.0-29.0-0.3","SS1619739672831","","","null","","","","","","<p><img src= images/blank.png width =""600"" height = ""600"" style=""position:fixed;top:50%; left:50%; transform: translate(-50%, -50%); border:5px solid black"">","","","","","","","",""
"","307.28999990969896","sequential-stimulus-presentation-old","140","451199","0.0-29.0-1.3","SS1619739672831","trial","","40","500","807.289999909699","images/stimuli/spore_stims/simple_01_A_a.gif","images/stimuli/spore_stims/simple_05_A_b.gif","self_paced","","10","simple_dissimilar","images/stimuli/spore_stims/simple_05_A_b.gif","","","","",""
"","3557.5999999418855","survey-multi-choice","141","454759","0.0-30.0","SS1619739672831","math_question","","","","","","","","","","","","{""Q0"":""10""}","[0]","10","",""
"","null","html-keyboard-response","142","455757","0.0-31.0-0.0","SS1619739672831","","","null","","","","","","<p><img src= images/blank.png width =""600"" height = ""600"" style=""position:fixed;top:50%; left:50%; transform: translate(-50%, -50%); border:5px solid black"">","","","","","","","",""
"","2410.0649999454618","sequential-stimulus-presentation-old","143","473182","0.0-31.0-1.0","SS1619739672831","trial","","40","500","2910.0649999454618","images/stimuli/spore_stims/simple_03_A_a.gif","images/stimuli/spore_stims/simple_08_A_b.gif","forced_long","","11","simple_dissimilar","images/stimuli/spore_stims/simple_08_A_b.gif","","","","",""
"","null","html-keyboard-response","144","474294","0.0-31.0-0.1","SS1619739672831","","","null","","","","","","<p><img src= images/blank.png width =""600"" height = ""600"" style=""position:fixed;top:50%; left:50%; transform: translate(-50%, -50%); border:5px solid black"">","","","","","","","",""
"","1590.995000093244","sequential-stimulus-presentation-old","145","476390","0.0-31.0-1.1","SS1619739672831","trial","","40","500","2090.995000093244","images/stimuli/spore_stims/simple_03_A_a.gif","images/stimuli/spore_stims/simple_08_A_b.gif","forced_long","","11","simple_dissimilar","images/stimuli/spore_stims/simple_08_A_b.gif","","","","",""
"","null","html-keyboard-response","146","477528","0.0-31.0-0.2","SS1619739672831","","","null","","","","","","<p><img src= images/blank.png width =""600"" height = ""600"" style=""position:fixed;top:50%; left:50%; transform: translate(-50%, -50%); border:5px solid black"">","","","","","","","",""
"","6137.875000014901","sequential-stimulus-presentation-old","147","484173","0.0-31.0-1.2","SS1619739672831","trial","","40","500","6637.875000014901","images/stimuli/spore_stims/simple_03_A_a.gif","images/stimuli/spore_stims/simple_08_A_b.gif","forced_long","","11","simple_dissimilar","images/stimuli/spore_stims/simple_08_A_b.gif","","","","",""
"","null","html-keyboard-response","148","485425","0.0-31.0-0.3","SS1619739672831","","","null","","","","","","<p><img src= images/blank.png width =""600"" height = ""600"" style=""position:fixed;top:50%; left:50%; transform: translate(-50%, -50%); border:5px solid black"">","","","","","","","",""
"","1355.6600000010803","sequential-stimulus-presentation-old","149","487284","0.0-31.0-1.3","SS1619739672831","trial","","40","500","1855.6600000010803","images/stimuli/spore_stims/simple_03_A_a.gif","images/stimuli/spore_stims/simple_08_A_b.gif","forced_long","","11","simple_dissimilar","images/stimuli/spore_stims/simple_08_A_b.gif","","","","",""
"","null","html-keyboard-response","150","488389","0.0-31.0-0.4","SS1619739672831","","","null","","","","","","<p><img src= images/blank.png width =""600"" height = ""600"" style=""position:fixed;top:50%; left:50%; transform: translate(-50%, -50%); border:5px solid black"">","","","","","","","",""
"","1364.8800000082701","sequential-stimulus-presentation-old","151","490257","0.0-31.0-1.4","SS1619739672831","trial","","40","500","1864.8800000082701","images/stimuli/spore_stims/simple_03_A_a.gif","images/stimuli/spore_stims/simple_08_A_b.gif","forced_long","","11","simple_dissimilar","images/stimuli/spore_stims/simple_08_A_b.gif","","","","",""
"","null","html-keyboard-response","152","491342","0.0-31.0-0.5","SS1619739672831","","","null","","","","","","<p><img src= images/blank.png width =""600"" height = ""600"" style=""position:fixed;top:50%; left:50%; transform: translate(-50%, -50%); border:5px solid black"">","","","","","","","",""
"","9743.41499991715","sequential-stimulus-presentation-old","153","501597","0.0-31.0-1.5","SS1619739672831","trial","","40","500","10243.41499991715","images/stimuli/spore_stims/simple_03_A_a.gif","images/stimuli/spore_stims/simple_08_A_b.gif","forced_long","","11","simple_dissimilar","images/stimuli/spore_stims/simple_08_A_b.gif","","","","",""
"[{""page_index"":0,""viewing_time"":69272.83500006888}]","69273.22000009008","instructions","154","570872","0.0-32.0","SS1619739672831","instructions","","","","","","","","","","","","","","","",""
"","9066.290000104345","survey-likert","155","579945","0.0-33.0","SS1619739672831","similarity_question","","","","","","","","","","","","{""Q0"":4}","[0]","","images/stimuli/spore_stims/simple_05_A_a.gif","images/stimuli/spore_stims/simple_18_A_b.gif"
"","3260.6949999462813","survey-likert","156","583215","0.0-34.0","SS1619739672831","similarity_question","","","","","","","","","","","","{""Q0"":5}","[0]","","images/stimuli/spore_stims/complex_19_A_a.gif","images/stimuli/spore_stims/complex_10_A_b.gif"
"","4865.879999939352","survey-likert","157","588088","0.0-35.0","SS1619739672831","similarity_question","","","","","","","","","","","","{""Q0"":2}","[0]","","images/stimuli/spore_stims/complex_10_A_a.gif","images/stimuli/spore_stims/complex_18_A_b.gif"
"","4217.544999904931","survey-likert","158","592312","0.0-36.0","SS1619739672831","similarity_question","","","","","","","","","","","","{""Q0"":3}","[0]","","images/stimuli/spore_stims/complex_16_A_a.gif","images/stimuli/spore_stims/complex_06_A_b.gif"
"","3561.280000023544","survey-likert","159","595880","0.0-37.0","SS1619739672831","similarity_question","","","","","","","","","","","","{""Q0"":1}","[0]","","images/stimuli/spore_stims/complex_05_A_a.gif","images/stimuli/spore_stims/complex_13_A_b.gif"
"","2697.289999923669","survey-likert","160","598584","0.0-38.0","SS1619739672831","similarity_question","","","","","","","","","","","","{""Q0"":4}","[0]","","images/stimuli/spore_stims/simple_19_A_a.gif","images/stimuli/spore_stims/simple_16_A_b.gif"
"","3210.235000005923","survey-likert","161","601800","0.0-39.0","SS1619739672831","similarity_question","","","","","","","","","","","","{""Q0"":5}","[0]","","images/stimuli/spore_stims/simple_02_A_b.gif","images/stimuli/spore_stims/simple_04_A_a.gif"
"","2633.8550000218675","survey-likert","162","604440","0.0-40.0","SS1619739672831","similarity_question","","","","","","","","","","","","{""Q0"":5}","[0]","","images/stimuli/spore_stims/simple_03_A_a.gif","images/stimuli/spore_stims/simple_08_A_b.gif"
"","8625.769999925978","survey-likert","163","613071","0.0-41.0","SS1619739672831","similarity_question","","","","","","","","","","","","{""Q0"":4}","[0]","","images/stimuli/spore_stims/simple_01_A_a.gif","images/stimuli/spore_stims/simple_05_A_b.gif"
"","2889.4100000616163","survey-likert","164","615967","0.0-42.0","SS1619739672831","similarity_question","","","","","","","","","","","","{""Q0"":5}","[0]","","images/stimuli/spore_stims/simple_17_A_a.gif","images/stimuli/spore_stims/simple_15_A_b.gif"
"","2866.024999995716","survey-likert","165","618840","0.0-43.0","SS1619739672831","similarity_question","","","","","","","","","","","","{""Q0"":3}","[0]","","images/stimuli/spore_stims/complex_20_A_b.gif","images/stimuli/spore_stims/complex_18_A_a.gif"
"","5172.724999953061","survey-likert","166","624020","0.0-44.0","SS1619739672831","similarity_question","","","","","","","","","","","","{""Q0"":2}","[0]","","images/stimuli/spore_stims/complex_15_A_a.gif","images/stimuli/spore_stims/complex_09_A_b.gif"
"[{""page_index"":0,""viewing_time"":4596.430000034161}]","4596.699999994598","instructions","167","628623","0.0-45.0","SS1619739672831","instructions","","","","","","","","","","","","","","","",""
"","4379.210000042804","survey-likert","168","633007","0.0-46.0","SS1619739672831","","","","","","","","","images/stimuli/spore_stims/complex_09_A_b.gif","","","","{""Q0"":4}","[0]","","",""
"","2474.6199999935925","survey-likert","169","635488","0.0-47.0","SS1619739672831","","","","","","","","","images/stimuli/spore_stims/complex_18_A_b.gif","","","","{""Q0"":5}","[0]","","",""
"","3938.465000013821","survey-likert","170","639432","0.0-48.0","SS1619739672831","","","","","","","","","images/stimuli/spore_stims/simple_05_A_b.gif","","","","{""Q0"":0}","[0]","","",""
"","3559.6599999116734","survey-likert","171","642999","0.0-49.0","SS1619739672831","","","","","","","","","images/stimuli/spore_stims/complex_06_A_b.gif","","","","{""Q0"":4}","[0]","","",""
"","2370.1200000941753","survey-likert","172","645375","0.0-50.0","SS1619739672831","","","","","","","","","images/stimuli/spore_stims/simple_19_A_a.gif","","","","{""Q0"":1}","[0]","","",""
"","2458.450000034645","survey-likert","173","647840","0.0-51.0","SS1619739672831","","","","","","","","","images/stimuli/spore_stims/complex_13_A_b.gif","","","","{""Q0"":5}","[0]","","",""
"","2793.489999952726","survey-likert","174","650639","0.0-52.0","SS1619739672831","","","","","","","","","images/stimuli/spore_stims/complex_19_A_a.gif","","","","{""Q0"":5}","[0]","","",""
"","3153.569999965839","survey-likert","175","653800","0.0-53.0","SS1619739672831","","","","","","","","","images/stimuli/spore_stims/simple_15_A_b.gif","","","","{""Q0"":0}","[0]","","",""
"","2951.9700000528246","survey-likert","176","656759","0.0-54.0","SS1619739672831","","","","","","","","","images/stimuli/spore_stims/complex_18_A_a.gif","","","","{""Q0"":4}","[0]","","",""
"","7960.654999944381","survey-likert","177","664727","0.0-55.0","SS1619739672831","","","","","","","","","images/stimuli/spore_stims/simple_18_A_b.gif","","","","{""Q0"":2}","[0]","","",""
"","2561.244999989867","survey-likert","178","667296","0.0-56.0","SS1619739672831","","","","","","","","","images/stimuli/spore_stims/simple_08_A_b.gif","","","","{""Q0"":1}","[0]","","",""
"","1887.209999957122","survey-likert","179","669191","0.0-57.0","SS1619739672831","","","","","","","","","images/stimuli/spore_stims/simple_04_A_a.gif","","","","{""Q0"":1}","[0]","","",""
"[{""page_index"":0,""viewing_time"":2146.930000046268}]","2147.2550000762567","instructions","180","671344","0.0-58.0","SS1619739672831","instructions","","","","","","","","","","","","","","","",""
"","2458.9799999957904","demog-age","181","673807","0.0-59.0","SS1619739672831","","","","","","","","","","","","","{""age"":""21""}","","","",""
"","5562.909999978729","demog-ethnic-US","182","679375","0.0-60.0","SS1619739672831","","","","","","","","","","","","","{""ethnicity"":[""White""]}","[0]","","",""
"","7681.665000040084","demog-gender-and-education","183","687064","0.0-61.0","SS1619739672831","","","","","","","","","","","","","{""gender"":""Non-binary"",""education"":""High school diploma""}","[0,1]","","",""
"","8669.495000038296","survey-text","184","695743","0.0-62.0","SS1619739672831","feedback","","","","","","","","","","","","{""Q0"":""No""}","","","",""
"[{""page_index"":0,""viewing_time"":1165.0349999545142}]","1165.2999999932945","instructions","185","696911","0.0-63.0","SS1619739672831","instructions","","","","","","","","","","","","","","","",""
