"view_history","rt","trial_type","trial_index","time_elapsed","internal_node_id","subject","stimulus_type","trial_stimulus","key_press","minimum_viewing_duration","trial_looking_time","block_deviant","block_background","exposure_type","stimulus","block_number","block_type","stimulus_displayed","responses","question_order","math_correct_answer","stimulus_left","stimulus_right"
"[{""page_index"":0,""viewing_time"":19839.599999999336}]","19840.329999999085","instructions","0","19841","0.0-0.0","SS1619739642555","","","","","","","","","","","","","","","","",""
"[{""page_index"":0,""viewing_time"":25092.350000000806},{""page_index"":1,""viewing_time"":10745.03999999979}]","35838.27000000019","instructions","1","57683","0.0-1.0","SS1619739642555","instructions","","","","","","","","","","","","","","","",""
"","13795.454999999492","sequential-stimulus-presentation-old","2","71985","0.0-2.0","SS1619739642555","","","40","500","14295.454999999492","null","null","self_paced","","","","","","","","",""
"","16377.650000000358","sequential-stimulus-presentation-old","3","88868","0.0-3.0","SS1619739642555","","","40","500","16877.650000000358","null","null","self_paced","","","","","","","","",""
"[{""page_index"":0,""viewing_time"":1030262.3199999979}]","1030263.3999999998","instructions","4","1119132","0.0-4.0","SS1619739642555","instructions","","","","","","","","","","","","","","","",""
"","8393.724999997998","sequential-stimulus-presentation-old","5","1142535","0.0-5.0","SS1619739642555","","","40","500","8893.724999997998","null","null","forced_long","","","","","","","","",""
"","9496.429999999236","sequential-stimulus-presentation-old","6","1152546","0.0-6.0","SS1619739642555","","","40","500","9996.429999999236","null","null","forced_long","","","","","","","","",""
"[{""page_index"":0,""viewing_time"":9217.519999998389}]","9217.974999999627","instructions","7","1161765","0.0-7.0","SS1619739642555","instructions","","","","","","","","","","","","","","","",""
"[{""page_index"":0,""viewing_time"":15311.484999998473},{""page_index"":1,""viewing_time"":29281.715000001015},{""page_index"":2,""viewing_time"":9896.730000000447},{""page_index"":3,""viewing_time"":1351.555000001099},{""page_index"":4,""viewing_time"":1719.6649999967776}]","57561.53999999887","instructions","8","1219328","0.0-8.0","SS1619739642555","instructions","","","","","","","","","","","","","","","",""
"","null","html-keyboard-response","9","1220305","0.0-9.0-0.0","SS1619739642555","","","null","","","","","","<p><img src= images/blank.png width =""600"" height = ""600"" style=""position:fixed;top:50%; left:50%; transform: translate(-50%, -50%); border:5px solid black"">","","","","","","","",""
"","583.0599999972619","sequential-stimulus-presentation-old","10","1235893","0.0-9.0-1.0","SS1619739642555","trial","","40","500","1083.059999997262","images/stimuli/spore_stims/complex_18_A_a.gif","images/stimuli/spore_stims/complex_08_A_b.gif","forced_long","","0","complex_dissimilar","images/stimuli/spore_stims/complex_08_A_b.gif","","","","",""
"","null","html-keyboard-response","11","1236950","0.0-9.0-0.1","SS1619739642555","","","null","","","","","","<p><img src= images/blank.png width =""600"" height = ""600"" style=""position:fixed;top:50%; left:50%; transform: translate(-50%, -50%); border:5px solid black"">","","","","","","","",""
"","4714.719999999972","sequential-stimulus-presentation-old","12","1242177","0.0-9.0-1.1","SS1619739642555","trial","","40","500","5214.719999999972","images/stimuli/spore_stims/complex_18_A_a.gif","images/stimuli/spore_stims/complex_08_A_b.gif","forced_long","","0","complex_dissimilar","images/stimuli/spore_stims/complex_08_A_b.gif","","","","",""
"","null","html-keyboard-response","13","1243431","0.0-9.0-0.2","SS1619739642555","","","null","","","","","","<p><img src= images/blank.png width =""600"" height = ""600"" style=""position:fixed;top:50%; left:50%; transform: translate(-50%, -50%); border:5px solid black"">","","","","","","","",""
"","7980.319999998668","sequential-stimulus-presentation-old","14","1251915","0.0-9.0-1.2","SS1619739642555","trial","","40","500","8480.319999998668","images/stimuli/spore_stims/complex_18_A_a.gif","images/stimuli/spore_stims/complex_08_A_b.gif","forced_long","","0","complex_dissimilar","images/stimuli/spore_stims/complex_08_A_b.gif","","","","",""
"","null","html-keyboard-response","15","1253011","0.0-9.0-0.3","SS1619739642555","","","null","","","","","","<p><img src= images/blank.png width =""600"" height = ""600"" style=""position:fixed;top:50%; left:50%; transform: translate(-50%, -50%); border:5px solid black"">","","","","","","","",""
"","25209.224999998696","sequential-stimulus-presentation-old","16","1278723","0.0-9.0-1.3","SS1619739642555","trial","","40","500","25709.224999998696","images/stimuli/spore_stims/complex_18_A_a.gif","images/stimuli/spore_stims/complex_08_A_b.gif","forced_long","","0","complex_dissimilar","images/stimuli/spore_stims/complex_08_A_b.gif","","","","",""
"","null","html-keyboard-response","17","1279732","0.0-9.0-0.4","SS1619739642555","","","null","","","","","","<p><img src= images/blank.png width =""600"" height = ""600"" style=""position:fixed;top:50%; left:50%; transform: translate(-50%, -50%); border:5px solid black"">","","","","","","","",""
"","1357.005000001518","sequential-stimulus-presentation-old","18","1281593","0.0-9.0-1.4","SS1619739642555","trial","","40","500","1857.005000001518","images/stimuli/spore_stims/complex_18_A_a.gif","images/stimuli/spore_stims/complex_08_A_b.gif","forced_long","","0","complex_dissimilar","images/stimuli/spore_stims/complex_08_A_b.gif","","","","",""
"","5703.04000000027","survey-multi-choice","19","1287300","0.0-10.0","SS1619739642555","math_question","","","","","","","","","","","","{""Q0"":""11""}","[0]","11","",""
"","null","html-keyboard-response","20","1288208","0.0-11.0-0.0","SS1619739642555","","","null","","","","","","<p><img src= images/blank.png width =""600"" height = ""600"" style=""position:fixed;top:50%; left:50%; transform: translate(-50%, -50%); border:5px solid black"">","","","","","","","",""
"","452.2050000014715","sequential-stimulus-presentation-old","21","1303663","0.0-11.0-1.0","SS1619739642555","trial","","40","500","952.2050000014715","images/stimuli/spore_stims/simple_02_A_a.gif","images/stimuli/spore_stims/simple_08_A_b.gif","forced_long","","1","simple_dissimilar","images/stimuli/spore_stims/simple_08_A_b.gif","","","","",""
"","null","html-keyboard-response","22","1304492","0.0-11.0-0.1","SS1619739642555","","","null","","","","","","<p><img src= images/blank.png width =""600"" height = ""600"" style=""position:fixed;top:50%; left:50%; transform: translate(-50%, -50%); border:5px solid black"">","","","","","","","",""
"","4023.3750000006985","sequential-stimulus-presentation-old","23","1309019","0.0-11.0-1.1","SS1619739642555","trial","","40","500","4523.3750000006985","images/stimuli/spore_stims/simple_02_A_a.gif","images/stimuli/spore_stims/simple_08_A_b.gif","forced_long","","1","simple_dissimilar","images/stimuli/spore_stims/simple_02_A_a.gif","","","","",""
"","null","html-keyboard-response","24","1309869","0.0-11.0-0.2","SS1619739642555","","","null","","","","","","<p><img src= images/blank.png width =""600"" height = ""600"" style=""position:fixed;top:50%; left:50%; transform: translate(-50%, -50%); border:5px solid black"">","","","","","","","",""
"","6090.7049999986775","sequential-stimulus-presentation-old","25","1316469","0.0-11.0-1.2","SS1619739642555","trial","","40","500","6590.7049999986775","images/stimuli/spore_stims/simple_02_A_a.gif","images/stimuli/spore_stims/simple_08_A_b.gif","forced_long","","1","simple_dissimilar","images/stimuli/spore_stims/simple_08_A_b.gif","","","","",""
"","null","html-keyboard-response","26","1317575","0.0-11.0-0.3","SS1619739642555","","","null","","","","","","<p><img src= images/blank.png width =""600"" height = ""600"" style=""position:fixed;top:50%; left:50%; transform: translate(-50%, -50%); border:5px solid black"">","","","","","","","",""
"","10114.140000001527","sequential-stimulus-presentation-old","27","1328192","0.0-11.0-1.3","SS1619739642555","trial","","40","500","10614.140000001527","images/stimuli/spore_stims/simple_02_A_a.gif","images/stimuli/spore_stims/simple_08_A_b.gif","forced_long","","1","simple_dissimilar","images/stimuli/spore_stims/simple_08_A_b.gif","","","","",""
"","null","html-keyboard-response","28","1329273","0.0-11.0-0.4","SS1619739642555","","","null","","","","","","<p><img src= images/blank.png width =""600"" height = ""600"" style=""position:fixed;top:50%; left:50%; transform: translate(-50%, -50%); border:5px solid black"">","","","","","","","",""
"","10230.315000000875","sequential-stimulus-presentation-old","29","1340007","0.0-11.0-1.4","SS1619739642555","trial","","40","500","10730.315000000875","images/stimuli/spore_stims/simple_02_A_a.gif","images/stimuli/spore_stims/simple_08_A_b.gif","forced_long","","1","simple_dissimilar","images/stimuli/spore_stims/simple_02_A_a.gif","","","","",""
"","null","html-keyboard-response","30","1341130","0.0-11.0-0.5","SS1619739642555","","","null","","","","","","<p><img src= images/blank.png width =""600"" height = ""600"" style=""position:fixed;top:50%; left:50%; transform: translate(-50%, -50%); border:5px solid black"">","","","","","","","",""
"","1804.720000000205","sequential-stimulus-presentation-old","31","1343439","0.0-11.0-1.5","SS1619739642555","trial","","40","500","2304.720000000205","images/stimuli/spore_stims/simple_02_A_a.gif","images/stimuli/spore_stims/simple_08_A_b.gif","forced_long","","1","simple_dissimilar","images/stimuli/spore_stims/simple_08_A_b.gif","","","","",""
"","3413.3999999975786","survey-multi-choice","32","1346855","0.0-12.0","SS1619739642555","math_question","","","","","","","","","","","","{""Q0"":""4""}","[0]","4","",""
"","null","html-keyboard-response","33","1347800","0.0-13.0-0.0","SS1619739642555","","","null","","","","","","<p><img src= images/blank.png width =""600"" height = ""600"" style=""position:fixed;top:50%; left:50%; transform: translate(-50%, -50%); border:5px solid black"">","","","","","","","",""
"","18938.57000000216","sequential-stimulus-presentation-old","34","1367258","0.0-13.0-1.0","SS1619739642555","trial","","40","500","19438.57000000216","images/stimuli/spore_stims/complex_16_A_b.gif","images/stimuli/spore_stims/complex_13_A_a.gif","self_paced","","2","complex_dissimilar","images/stimuli/spore_stims/complex_13_A_a.gif","","","","",""
"","null","html-keyboard-response","35","1368144","0.0-13.0-0.1","SS1619739642555","","","null","","","","","","<p><img src= images/blank.png width =""600"" height = ""600"" style=""position:fixed;top:50%; left:50%; transform: translate(-50%, -50%); border:5px solid black"">","","","","","","","",""
"","5322.804999999702","sequential-stimulus-presentation-old","36","1373980","0.0-13.0-1.1","SS1619739642555","trial","","40","500","5822.804999999702","images/stimuli/spore_stims/complex_16_A_b.gif","images/stimuli/spore_stims/complex_13_A_a.gif","self_paced","","2","complex_dissimilar","images/stimuli/spore_stims/complex_16_A_b.gif","","","","",""
"","null","html-keyboard-response","37","1374879","0.0-13.0-0.2","SS1619739642555","","","null","","","","","","<p><img src= images/blank.png width =""600"" height = ""600"" style=""position:fixed;top:50%; left:50%; transform: translate(-50%, -50%); border:5px solid black"">","","","","","","","",""
"","5895.985000002896","sequential-stimulus-presentation-old","38","1381281","0.0-13.0-1.2","SS1619739642555","trial","","40","500","6395.985000002896","images/stimuli/spore_stims/complex_16_A_b.gif","images/stimuli/spore_stims/complex_13_A_a.gif","self_paced","","2","complex_dissimilar","images/stimuli/spore_stims/complex_13_A_a.gif","","","","",""
"","null","html-keyboard-response","39","1382477","0.0-13.0-0.3","SS1619739642555","","","null","","","","","","<p><img src= images/blank.png width =""600"" height = ""600"" style=""position:fixed;top:50%; left:50%; transform: translate(-50%, -50%); border:5px solid black"">","","","","","","","",""
"","5131.365000001155","sequential-stimulus-presentation-old","40","1388112","0.0-13.0-1.3","SS1619739642555","trial","","40","500","5631.365000001155","images/stimuli/spore_stims/complex_16_A_b.gif","images/stimuli/spore_stims/complex_13_A_a.gif","self_paced","","2","complex_dissimilar","images/stimuli/spore_stims/complex_13_A_a.gif","","","","",""
"","3912.4499999999534","survey-multi-choice","41","1392026","0.0-14.0","SS1619739642555","math_question","","","","","","","","","","","","{""Q0"":""11""}","[0]","11","",""
"","null","html-keyboard-response","42","1393057","0.0-15.0-0.0","SS1619739642555","","","null","","","","","","<p><img src= images/blank.png width =""600"" height = ""600"" style=""position:fixed;top:50%; left:50%; transform: translate(-50%, -50%); border:5px solid black"">","","","","","","","",""
"","8237.325000001816","sequential-stimulus-presentation-old","43","1401798","0.0-15.0-1.0","SS1619739642555","trial","","40","500","8737.325000001816","images/stimuli/spore_stims/simple_19_A_b.gif","images/stimuli/spore_stims/simple_15_A_a.gif","self_paced","","3","simple_dissimilar","images/stimuli/spore_stims/simple_15_A_a.gif","","","","",""
"","null","html-keyboard-response","44","1402883","0.0-15.0-0.1","SS1619739642555","","","null","","","","","","<p><img src= images/blank.png width =""600"" height = ""600"" style=""position:fixed;top:50%; left:50%; transform: translate(-50%, -50%); border:5px solid black"">","","","","","","","",""
"","8089.98000000068","sequential-stimulus-presentation-old","45","1411477","0.0-15.0-1.1","SS1619739642555","trial","","40","500","8589.98000000068","images/stimuli/spore_stims/simple_19_A_b.gif","images/stimuli/spore_stims/simple_15_A_a.gif","self_paced","","3","simple_dissimilar","images/stimuli/spore_stims/simple_15_A_a.gif","","","","",""
"","null","html-keyboard-response","46","1412744","0.0-15.0-0.2","SS1619739642555","","","null","","","","","","<p><img src= images/blank.png width =""600"" height = ""600"" style=""position:fixed;top:50%; left:50%; transform: translate(-50%, -50%); border:5px solid black"">","","","","","","","",""
"","587.2249999991618","sequential-stimulus-presentation-old","47","1413849","0.0-15.0-1.2","SS1619739642555","trial","","40","500","1087.2249999991618","images/stimuli/spore_stims/simple_19_A_b.gif","images/stimuli/spore_stims/simple_15_A_a.gif","self_paced","","3","simple_dissimilar","images/stimuli/spore_stims/simple_15_A_a.gif","","","","",""
"","null","html-keyboard-response","48","1415127","0.0-15.0-0.3","SS1619739642555","","","null","","","","","","<p><img src= images/blank.png width =""600"" height = ""600"" style=""position:fixed;top:50%; left:50%; transform: translate(-50%, -50%); border:5px solid black"">","","","","","","","",""
"","6124.584999997634","sequential-stimulus-presentation-old","49","1421755","0.0-15.0-1.3","SS1619739642555","trial","","40","500","6624.584999997634","images/stimuli/spore_stims/simple_19_A_b.gif","images/stimuli/spore_stims/simple_15_A_a.gif","self_paced","","3","simple_dissimilar","images/stimuli/spore_stims/simple_15_A_a.gif","","","","",""
"","null","html-keyboard-response","50","1422884","0.0-15.0-0.4","SS1619739642555","","","null","","","","","","<p><img src= images/blank.png width =""600"" height = ""600"" style=""position:fixed;top:50%; left:50%; transform: translate(-50%, -50%); border:5px solid black"">","","","","","","","",""
"","5904.675000001444","sequential-stimulus-presentation-old","51","1429294","0.0-15.0-1.4","SS1619739642555","trial","","40","500","6404.675000001444","images/stimuli/spore_stims/simple_19_A_b.gif","images/stimuli/spore_stims/simple_15_A_a.gif","self_paced","","3","simple_dissimilar","images/stimuli/spore_stims/simple_15_A_a.gif","","","","",""
"","3188.1500000017695","survey-multi-choice","52","1432485","0.0-16.0","SS1619739642555","math_question","","","","","","","","","","","","{""Q0"":""9""}","[0]","9","",""
"","null","html-keyboard-response","53","1433332","0.0-17.0-0.0","SS1619739642555","","","null","","","","","","<p><img src= images/blank.png width =""600"" height = ""600"" style=""position:fixed;top:50%; left:50%; transform: translate(-50%, -50%); border:5px solid black"">","","","","","","","",""
"","8672.739999998128","sequential-stimulus-presentation-old","54","1442509","0.0-17.0-1.0","SS1619739642555","trial","","40","500","9172.739999998128","images/stimuli/spore_stims/simple_06_A_a.gif","images/stimuli/spore_stims/simple_03_A_b.gif","self_paced","","4","simple_dissimilar","images/stimuli/spore_stims/simple_03_A_b.gif","","","","",""
"","null","html-keyboard-response","55","1443456","0.0-17.0-0.1","SS1619739642555","","","null","","","","","","<p><img src= images/blank.png width =""600"" height = ""600"" style=""position:fixed;top:50%; left:50%; transform: translate(-50%, -50%); border:5px solid black"">","","","","","","","",""
"","6073.590000000084","sequential-stimulus-presentation-old","56","1450041","0.0-17.0-1.1","SS1619739642555","trial","","40","500","6573.590000000084","images/stimuli/spore_stims/simple_06_A_a.gif","images/stimuli/spore_stims/simple_03_A_b.gif","self_paced","","4","simple_dissimilar","images/stimuli/spore_stims/simple_03_A_b.gif","","","","",""
"","null","html-keyboard-response","57","1451169","0.0-17.0-0.2","SS1619739642555","","","null","","","","","","<p><img src= images/blank.png width =""600"" height = ""600"" style=""position:fixed;top:50%; left:50%; transform: translate(-50%, -50%); border:5px solid black"">","","","","","","","",""
"","6347.289999997709","sequential-stimulus-presentation-old","58","1458032","0.0-17.0-1.2","SS1619739642555","trial","","40","500","6847.289999997709","images/stimuli/spore_stims/simple_06_A_a.gif","images/stimuli/spore_stims/simple_03_A_b.gif","self_paced","","4","simple_dissimilar","images/stimuli/spore_stims/simple_03_A_b.gif","","","","",""
"","null","html-keyboard-response","59","1459030","0.0-17.0-0.3","SS1619739642555","","","null","","","","","","<p><img src= images/blank.png width =""600"" height = ""600"" style=""position:fixed;top:50%; left:50%; transform: translate(-50%, -50%); border:5px solid black"">","","","","","","","",""
"","9203.94500000123","sequential-stimulus-presentation-old","60","1468746","0.0-17.0-1.3","SS1619739642555","trial","","40","500","9703.94500000123","images/stimuli/spore_stims/simple_06_A_a.gif","images/stimuli/spore_stims/simple_03_A_b.gif","self_paced","","4","simple_dissimilar","images/stimuli/spore_stims/simple_06_A_a.gif","","","","",""
"","3055.2200000020675","survey-multi-choice","61","1471803","0.0-18.0","SS1619739642555","math_question","","","","","","","","","","","","{""Q0"":""6""}","[0]","6","",""
"","null","html-keyboard-response","62","1472939","0.0-19.0-0.0","SS1619739642555","","","null","","","","","","<p><img src= images/blank.png width =""600"" height = ""600"" style=""position:fixed;top:50%; left:50%; transform: translate(-50%, -50%); border:5px solid black"">","","","","","","","",""
"","2171.3749999979045","sequential-stimulus-presentation-old","63","1475615","0.0-19.0-1.0","SS1619739642555","trial","","40","500","2671.3749999979045","images/stimuli/spore_stims/complex_20_A_a.gif","images/stimuli/spore_stims/complex_19_A_b.gif","forced_short","","5","complex_dissimilar","images/stimuli/spore_stims/complex_19_A_b.gif","","","","",""
"","null","html-keyboard-response","64","1476559","0.0-19.0-0.1","SS1619739642555","","","null","","","","","","<p><img src= images/blank.png width =""600"" height = ""600"" style=""position:fixed;top:50%; left:50%; transform: translate(-50%, -50%); border:5px solid black"">","","","","","","","",""
"","10217.740000000224","sequential-stimulus-presentation-old","65","1487281","0.0-19.0-1.1","SS1619739642555","trial","","40","500","10717.740000000224","images/stimuli/spore_stims/complex_20_A_a.gif","images/stimuli/spore_stims/complex_19_A_b.gif","forced_short","","5","complex_dissimilar","images/stimuli/spore_stims/complex_19_A_b.gif","","","","",""
"","null","html-keyboard-response","66","1488135","0.0-19.0-0.2","SS1619739642555","","","null","","","","","","<p><img src= images/blank.png width =""600"" height = ""600"" style=""position:fixed;top:50%; left:50%; transform: translate(-50%, -50%); border:5px solid black"">","","","","","","","",""
"","2908.599999998696","sequential-stimulus-presentation-old","67","1491549","0.0-19.0-1.2","SS1619739642555","trial","","40","500","3408.599999998696","images/stimuli/spore_stims/complex_20_A_a.gif","images/stimuli/spore_stims/complex_19_A_b.gif","forced_short","","5","complex_dissimilar","images/stimuli/spore_stims/complex_19_A_b.gif","","","","",""
"","null","html-keyboard-response","68","1492498","0.0-19.0-0.3","SS1619739642555","","","null","","","","","","<p><img src= images/blank.png width =""600"" height = ""600"" style=""position:fixed;top:50%; left:50%; transform: translate(-50%, -50%); border:5px solid black"">","","","","","","","",""
"","1927.8899999989662","sequential-stimulus-presentation-old","69","1494940","0.0-19.0-1.3","SS1619739642555","trial","","40","500","2427.8899999989662","images/stimuli/spore_stims/complex_20_A_a.gif","images/stimuli/spore_stims/complex_19_A_b.gif","forced_short","","5","complex_dissimilar","images/stimuli/spore_stims/complex_19_A_b.gif","","","","",""
"","null","html-keyboard-response","70","1496245","0.0-19.0-0.4","SS1619739642555","","","null","","","","","","<p><img src= images/blank.png width =""600"" height = ""600"" style=""position:fixed;top:50%; left:50%; transform: translate(-50%, -50%); border:5px solid black"">","","","","","","","",""
"","9052.69000000041","sequential-stimulus-presentation-old","71","1505801","0.0-19.0-1.4","SS1619739642555","trial","","40","500","9552.69000000041","images/stimuli/spore_stims/complex_20_A_a.gif","images/stimuli/spore_stims/complex_19_A_b.gif","forced_short","","5","complex_dissimilar","images/stimuli/spore_stims/complex_20_A_a.gif","","","","",""
"","null","html-keyboard-response","72","1506778","0.0-19.0-0.5","SS1619739642555","","","null","","","","","","<p><img src= images/blank.png width =""600"" height = ""600"" style=""position:fixed;top:50%; left:50%; transform: translate(-50%, -50%); border:5px solid black"">","","","","","","","",""
"","4986.165000002133","sequential-stimulus-presentation-old","73","1512277","0.0-19.0-1.5","SS1619739642555","trial","","40","500","5486.165000002133","images/stimuli/spore_stims/complex_20_A_a.gif","images/stimuli/spore_stims/complex_19_A_b.gif","forced_short","","5","complex_dissimilar","images/stimuli/spore_stims/complex_19_A_b.gif","","","","",""
"","3935.0649999978486","survey-multi-choice","74","1516214","0.0-20.0","SS1619739642555","math_question","","","","","","","","","","","","{""Q0"":""9""}","[0]","9","",""
"","null","html-keyboard-response","75","1517036","0.0-21.0-0.0","SS1619739642555","","","null","","","","","","<p><img src= images/blank.png width =""600"" height = ""600"" style=""position:fixed;top:50%; left:50%; transform: translate(-50%, -50%); border:5px solid black"">","","","","","","","",""
"","4073.0299999995623","sequential-stimulus-presentation-old","76","1521623","0.0-21.0-1.0","SS1619739642555","trial","","40","500","4573.029999999562","images/stimuli/spore_stims/complex_08_A_a.gif","images/stimuli/spore_stims/complex_11_A_b.gif","self_paced","","6","complex_dissimilar","images/stimuli/spore_stims/complex_11_A_b.gif","","","","",""
"","null","html-keyboard-response","77","1522801","0.0-21.0-0.1","SS1619739642555","","","null","","","","","","<p><img src= images/blank.png width =""600"" height = ""600"" style=""position:fixed;top:50%; left:50%; transform: translate(-50%, -50%); border:5px solid black"">","","","","","","","",""
"","4214.354999999981","sequential-stimulus-presentation-old","78","1527520","0.0-21.0-1.1","SS1619739642555","trial","","40","500","4714.354999999981","images/stimuli/spore_stims/complex_08_A_a.gif","images/stimuli/spore_stims/complex_11_A_b.gif","self_paced","","6","complex_dissimilar","images/stimuli/spore_stims/complex_11_A_b.gif","","","","",""
"","null","html-keyboard-response","79","1528361","0.0-21.0-0.2","SS1619739642555","","","null","","","","","","<p><img src= images/blank.png width =""600"" height = ""600"" style=""position:fixed;top:50%; left:50%; transform: translate(-50%, -50%); border:5px solid black"">","","","","","","","",""
"","4527.884999999544","sequential-stimulus-presentation-old","80","1533394","0.0-21.0-1.2","SS1619739642555","trial","","40","500","5027.884999999544","images/stimuli/spore_stims/complex_08_A_a.gif","images/stimuli/spore_stims/complex_11_A_b.gif","self_paced","","6","complex_dissimilar","images/stimuli/spore_stims/complex_08_A_a.gif","","","","",""
"","null","html-keyboard-response","81","1534634","0.0-21.0-0.3","SS1619739642555","","","null","","","","","","<p><img src= images/blank.png width =""600"" height = ""600"" style=""position:fixed;top:50%; left:50%; transform: translate(-50%, -50%); border:5px solid black"">","","","","","","","",""
"","4856.769999998389","sequential-stimulus-presentation-old","82","1539995","0.0-21.0-1.3","SS1619739642555","trial","","40","500","5356.769999998389","images/stimuli/spore_stims/complex_08_A_a.gif","images/stimuli/spore_stims/complex_11_A_b.gif","self_paced","","6","complex_dissimilar","images/stimuli/spore_stims/complex_08_A_a.gif","","","","",""
"","null","html-keyboard-response","83","1540813","0.0-21.0-0.4","SS1619739642555","","","null","","","","","","<p><img src= images/blank.png width =""600"" height = ""600"" style=""position:fixed;top:50%; left:50%; transform: translate(-50%, -50%); border:5px solid black"">","","","","","","","",""
"","5755.760000000009","sequential-stimulus-presentation-old","84","1547085","0.0-21.0-1.4","SS1619739642555","trial","","40","500","6255.760000000009","images/stimuli/spore_stims/complex_08_A_a.gif","images/stimuli/spore_stims/complex_11_A_b.gif","self_paced","","6","complex_dissimilar","images/stimuli/spore_stims/complex_11_A_b.gif","","","","",""
"","3256.1349999997765","survey-multi-choice","85","1550346","0.0-22.0","SS1619739642555","math_question","","","","","","","","","","","","{""Q0"":""3""}","[0]","3","",""
"","null","html-keyboard-response","86","1551269","0.0-23.0-0.0","SS1619739642555","","","null","","","","","","<p><img src= images/blank.png width =""600"" height = ""600"" style=""position:fixed;top:50%; left:50%; transform: translate(-50%, -50%); border:5px solid black"">","","","","","","","",""
"","876.6350000007078","sequential-stimulus-presentation-old","87","1567163","0.0-23.0-1.0","SS1619739642555","trial","","40","500","1376.6350000007078","images/stimuli/spore_stims/simple_18_A_b.gif","images/stimuli/spore_stims/simple_10_A_a.gif","forced_long","","7","simple_dissimilar","images/stimuli/spore_stims/simple_10_A_a.gif","","","","",""
"","null","html-keyboard-response","88","1568442","0.0-23.0-0.1","SS1619739642555","","","null","","","","","","<p><img src= images/blank.png width =""600"" height = ""600"" style=""position:fixed;top:50%; left:50%; transform: translate(-50%, -50%); border:5px solid black"">","","","","","","","",""
"","8566.455000000075","sequential-stimulus-presentation-old","89","1577512","0.0-23.0-1.1","SS1619739642555","trial","","40","500","9066.455000000075","images/stimuli/spore_stims/simple_18_A_b.gif","images/stimuli/spore_stims/simple_10_A_a.gif","forced_long","","7","simple_dissimilar","images/stimuli/spore_stims/simple_10_A_a.gif","","","","",""
"","null","html-keyboard-response","90","1578368","0.0-23.0-0.2","SS1619739642555","","","null","","","","","","<p><img src= images/blank.png width =""600"" height = ""600"" style=""position:fixed;top:50%; left:50%; transform: translate(-50%, -50%); border:5px solid black"">","","","","","","","",""
"","4760.9899999988265","sequential-stimulus-presentation-old","91","1583638","0.0-23.0-1.2","SS1619739642555","trial","","40","500","5260.9899999988265","images/stimuli/spore_stims/simple_18_A_b.gif","images/stimuli/spore_stims/simple_10_A_a.gif","forced_long","","7","simple_dissimilar","images/stimuli/spore_stims/simple_10_A_a.gif","","","","",""
"","null","html-keyboard-response","92","1584837","0.0-23.0-0.3","SS1619739642555","","","null","","","","","","<p><img src= images/blank.png width =""600"" height = ""600"" style=""position:fixed;top:50%; left:50%; transform: translate(-50%, -50%); border:5px solid black"">","","","","","","","",""
"","3273.1800000001676","sequential-stimulus-presentation-old","93","1588625","0.0-23.0-1.3","SS1619739642555","trial","","40","500","3773.1800000001676","images/stimuli/spore_stims/simple_18_A_b.gif","images/stimuli/spore_stims/simple_10_A_a.gif","forced_long","","7","simple_dissimilar","images/stimuli/spore_stims/simple_18_A_b.gif","","","","",""
"","null","html-keyboard-response","94","1589530","0.0-23.0-0.4","SS1619739642555","","","null","","","","","","<p><img src= images/blank.png width =""600"" height = ""600"" style=""position:fixed;top:50%; left:50%; transform: translate(-50%, -50%); border:5px solid black"">","","","","","","","",""
"","3985.9749999996275","sequential-stimulus-presentation-old","95","1594020","0.0-23.0-1.4","SS1619739642555","trial","","40","500","4485.9749999996275","images/stimuli/spore_stims/simple_18_A_b.gif","images/stimuli/spore_stims/simple_10_A_a.gif","forced_long","","7","simple_dissimilar","images/stimuli/spore_stims/simple_10_A_a.gif","","","","",""
"","null","html-keyboard-response","96","1594861","0.0-23.0-0.5","SS1619739642555","","","null","","","","","","<p><img src= images/blank.png width =""600"" height = ""600"" style=""position:fixed;top:50%; left:50%; transform: translate(-50%, -50%); border:5px solid black"">","","","","","","","",""
"","2210.0750000027474","sequential-stimulus-presentation-old","97","1597577","0.0-23.0-1.5","SS1619739642555","trial","","40","500","2710.0750000027474","images/stimuli/spore_stims/simple_18_A_b.gif","images/stimuli/spore_stims/simple_10_A_a.gif","forced_long","","7","simple_dissimilar","images/stimuli/spore_stims/simple_18_A_b.gif","","","","",""
"","3272.4699999997392","survey-multi-choice","98","1600852","0.0-24.0","SS1619739642555","math_question","","","","","","","","","","","","{""Q0"":""6""}","[0]","6","",""
"","null","html-keyboard-response","99","1601864","0.0-25.0-0.0","SS1619739642555","","","null","","","","","","<p><img src= images/blank.png width =""600"" height = ""600"" style=""position:fixed;top:50%; left:50%; transform: translate(-50%, -50%); border:5px solid black"">","","","","","","","",""
"","915.8150000004098","sequential-stimulus-presentation-old","100","1603285","0.0-25.0-1.0","SS1619739642555","trial","","40","500","1415.8150000004098","images/stimuli/spore_stims/simple_19_A_a.gif","images/stimuli/spore_stims/simple_17_A_b.gif","forced_short","","8","simple_dissimilar","images/stimuli/spore_stims/simple_17_A_b.gif","","","","",""
"","null","html-keyboard-response","101","1604116","0.0-25.0-0.1","SS1619739642555","","","null","","","","","","<p><img src= images/blank.png width =""600"" height = ""600"" style=""position:fixed;top:50%; left:50%; transform: translate(-50%, -50%); border:5px solid black"">","","","","","","","",""
"","734.8400000010151","sequential-stimulus-presentation-old","102","1605355","0.0-25.0-1.1","SS1619739642555","trial","","40","500","1234.8400000010151","images/stimuli/spore_stims/simple_19_A_a.gif","images/stimuli/spore_stims/simple_17_A_b.gif","forced_short","","8","simple_dissimilar","images/stimuli/spore_stims/simple_17_A_b.gif","","","","",""
"","null","html-keyboard-response","103","1606363","0.0-25.0-0.2","SS1619739642555","","","null","","","","","","<p><img src= images/blank.png width =""600"" height = ""600"" style=""position:fixed;top:50%; left:50%; transform: translate(-50%, -50%); border:5px solid black"">","","","","","","","",""
"","7101.334999999264","sequential-stimulus-presentation-old","104","1613968","0.0-25.0-1.2","SS1619739642555","trial","","40","500","7601.334999999264","images/stimuli/spore_stims/simple_19_A_a.gif","images/stimuli/spore_stims/simple_17_A_b.gif","forced_short","","8","simple_dissimilar","images/stimuli/spore_stims/simple_17_A_b.gif","","","","",""
"","null","html-keyboard-response","105","1614866","0.0-25.0-0.3","SS1619739642555","","","null","","","","","","<p><img src= images/blank.png width =""600"" height = ""600"" style=""position:fixed;top:50%; left:50%; transform: translate(-50%, -50%); border:5px solid black"">","","","","","","","",""
"","4845.414999999804","sequential-stimulus-presentation-old","106","1620216","0.0-25.0-1.3","SS1619739642555","trial","","40","500","5345.414999999804","images/stimuli/spore_stims/simple_19_A_a.gif","images/stimuli/spore_stims/simple_17_A_b.gif","forced_short","","8","simple_dissimilar","images/stimuli/spore_stims/simple_17_A_b.gif","","","","",""
"","2746.599999998696","survey-multi-choice","107","1622965","0.0-26.0","SS1619739642555","math_question","","","","","","","","","","","","{""Q0"":""9""}","[0]","9","",""
"","null","html-keyboard-response","108","1623840","0.0-27.0-0.0","SS1619739642555","","","null","","","","","","<p><img src= images/blank.png width =""600"" height = ""600"" style=""position:fixed;top:50%; left:50%; transform: translate(-50%, -50%); border:5px solid black"">","","","","","","","",""
"","834.5599999993574","sequential-stimulus-presentation-old","109","1639679","0.0-27.0-1.0","SS1619739642555","trial","","40","500","1334.5599999993574","images/stimuli/spore_stims/complex_03_A_a.gif","images/stimuli/spore_stims/complex_18_A_b.gif","forced_long","","9","complex_dissimilar","images/stimuli/spore_stims/complex_18_A_b.gif","","","","",""
"","null","html-keyboard-response","110","1640715","0.0-27.0-0.1","SS1619739642555","","","null","","","","","","<p><img src= images/blank.png width =""600"" height = ""600"" style=""position:fixed;top:50%; left:50%; transform: translate(-50%, -50%); border:5px solid black"">","","","","","","","",""
"","2386.404999997467","sequential-stimulus-presentation-old","111","1643606","0.0-27.0-1.1","SS1619739642555","trial","","40","500","2886.404999997467","images/stimuli/spore_stims/complex_03_A_a.gif","images/stimuli/spore_stims/complex_18_A_b.gif","forced_long","","9","complex_dissimilar","images/stimuli/spore_stims/complex_18_A_b.gif","","","","",""
"","null","html-keyboard-response","112","1644576","0.0-27.0-0.2","SS1619739642555","","","null","","","","","","<p><img src= images/blank.png width =""600"" height = ""600"" style=""position:fixed;top:50%; left:50%; transform: translate(-50%, -50%); border:5px solid black"">","","","","","","","",""
"","1599.7949999982957","sequential-stimulus-presentation-old","113","1646679","0.0-27.0-1.2","SS1619739642555","trial","","40","500","2099.7949999982957","images/stimuli/spore_stims/complex_03_A_a.gif","images/stimuli/spore_stims/complex_18_A_b.gif","forced_long","","9","complex_dissimilar","images/stimuli/spore_stims/complex_18_A_b.gif","","","","",""
"","null","html-keyboard-response","114","1647963","0.0-27.0-0.3","SS1619739642555","","","null","","","","","","<p><img src= images/blank.png width =""600"" height = ""600"" style=""position:fixed;top:50%; left:50%; transform: translate(-50%, -50%); border:5px solid black"">","","","","","","","",""
"","5231.540000000736","sequential-stimulus-presentation-old","115","1653710","0.0-27.0-1.3","SS1619739642555","trial","","40","500","5731.540000000736","images/stimuli/spore_stims/complex_03_A_a.gif","images/stimuli/spore_stims/complex_18_A_b.gif","forced_long","","9","complex_dissimilar","images/stimuli/spore_stims/complex_18_A_b.gif","","","","",""
"","null","html-keyboard-response","116","1654850","0.0-27.0-0.4","SS1619739642555","","","null","","","","","","<p><img src= images/blank.png width =""600"" height = ""600"" style=""position:fixed;top:50%; left:50%; transform: translate(-50%, -50%); border:5px solid black"">","","","","","","","",""
"","2076.2549999998882","sequential-stimulus-presentation-old","117","1657432","0.0-27.0-1.4","SS1619739642555","trial","","40","500","2576.2549999998882","images/stimuli/spore_stims/complex_03_A_a.gif","images/stimuli/spore_stims/complex_18_A_b.gif","forced_long","","9","complex_dissimilar","images/stimuli/spore_stims/complex_18_A_b.gif","","","","",""
"","null","html-keyboard-response","118","1658480","0.0-27.0-0.5","SS1619739642555","","","null","","","","","","<p><img src= images/blank.png width =""600"" height = ""600"" style=""position:fixed;top:50%; left:50%; transform: translate(-50%, -50%); border:5px solid black"">","","","","","","","",""
"","6165.87000000081","sequential-stimulus-presentation-old","119","1665153","0.0-27.0-1.5","SS1619739642555","trial","","40","500","6665.87000000081","images/stimuli/spore_stims/complex_03_A_a.gif","images/stimuli/spore_stims/complex_18_A_b.gif","forced_long","","9","complex_dissimilar","images/stimuli/spore_stims/complex_03_A_a.gif","","","","",""
"","3084.1899999978486","survey-multi-choice","120","1668239","0.0-28.0","SS1619739642555","math_question","","","","","","","","","","","","{""Q0"":""9""}","[0]","9","",""
"","null","html-keyboard-response","121","1669180","0.0-29.0-0.0","SS1619739642555","","","null","","","","","","<p><img src= images/blank.png width =""600"" height = ""600"" style=""position:fixed;top:50%; left:50%; transform: translate(-50%, -50%); border:5px solid black"">","","","","","","","",""
"","975.9500000001863","sequential-stimulus-presentation-old","122","1670661","0.0-29.0-1.0","SS1619739642555","trial","","40","500","1475.9500000001863","images/stimuli/spore_stims/simple_10_A_b.gif","images/stimuli/spore_stims/simple_04_A_a.gif","forced_short","","10","simple_dissimilar","images/stimuli/spore_stims/simple_04_A_a.gif","","","","",""
"","null","html-keyboard-response","123","1671481","0.0-29.0-0.1","SS1619739642555","","","null","","","","","","<p><img src= images/blank.png width =""600"" height = ""600"" style=""position:fixed;top:50%; left:50%; transform: translate(-50%, -50%); border:5px solid black"">","","","","","","","",""
"","4604.465000000317","sequential-stimulus-presentation-old","124","1676589","0.0-29.0-1.1","SS1619739642555","trial","","40","500","5104.465000000317","images/stimuli/spore_stims/simple_10_A_b.gif","images/stimuli/spore_stims/simple_04_A_a.gif","forced_short","","10","simple_dissimilar","images/stimuli/spore_stims/simple_04_A_a.gif","","","","",""
"","null","html-keyboard-response","125","1677551","0.0-29.0-0.2","SS1619739642555","","","null","","","","","","<p><img src= images/blank.png width =""600"" height = ""600"" style=""position:fixed;top:50%; left:50%; transform: translate(-50%, -50%); border:5px solid black"">","","","","","","","",""
"","2216.2099999987986","sequential-stimulus-presentation-old","126","1680273","0.0-29.0-1.2","SS1619739642555","trial","","40","500","2716.2099999987986","images/stimuli/spore_stims/simple_10_A_b.gif","images/stimuli/spore_stims/simple_04_A_a.gif","forced_short","","10","simple_dissimilar","images/stimuli/spore_stims/simple_10_A_b.gif","","","","",""
"","null","html-keyboard-response","127","1681268","0.0-29.0-0.3","SS1619739642555","","","null","","","","","","<p><img src= images/blank.png width =""600"" height = ""600"" style=""position:fixed;top:50%; left:50%; transform: translate(-50%, -50%); border:5px solid black"">","","","","","","","",""
"","2396.9550000000745","sequential-stimulus-presentation-old","128","1684169","0.0-29.0-1.3","SS1619739642555","trial","","40","500","2896.9550000000745","images/stimuli/spore_stims/simple_10_A_b.gif","images/stimuli/spore_stims/simple_04_A_a.gif","forced_short","","10","simple_dissimilar","images/stimuli/spore_stims/simple_04_A_a.gif","","","","",""
"","2827.359999999171","survey-multi-choice","129","1687000","0.0-30.0","SS1619739642555","math_question","","","","","","","","","","","","{""Q0"":""5""}","[0]","5","",""
"","null","html-keyboard-response","130","1688297","0.0-31.0-0.0","SS1619739642555","","","null","","","","","","<p><img src= images/blank.png width =""600"" height = ""600"" style=""position:fixed;top:50%; left:50%; transform: translate(-50%, -50%); border:5px solid black"">","","","","","","","",""
"","763.1849999995902","sequential-stimulus-presentation-old","131","1689564","0.0-31.0-1.0","SS1619739642555","trial","","40","500","1263.1849999995902","images/stimuli/spore_stims/complex_17_A_a.gif","images/stimuli/spore_stims/complex_13_A_b.gif","forced_short","","11","complex_dissimilar","images/stimuli/spore_stims/complex_13_A_b.gif","","","","",""
"","null","html-keyboard-response","132","1690464","0.0-31.0-0.1","SS1619739642555","","","null","","","","","","<p><img src= images/blank.png width =""600"" height = ""600"" style=""position:fixed;top:50%; left:50%; transform: translate(-50%, -50%); border:5px solid black"">","","","","","","","",""
"","9985.149999996647","sequential-stimulus-presentation-old","133","1700953","0.0-31.0-1.1","SS1619739642555","trial","","40","500","10485.149999996647","images/stimuli/spore_stims/complex_17_A_a.gif","images/stimuli/spore_stims/complex_13_A_b.gif","forced_short","","11","complex_dissimilar","images/stimuli/spore_stims/complex_13_A_b.gif","","","","",""
"","null","html-keyboard-response","134","1702007","0.0-31.0-0.2","SS1619739642555","","","null","","","","","","<p><img src= images/blank.png width =""600"" height = ""600"" style=""position:fixed;top:50%; left:50%; transform: translate(-50%, -50%); border:5px solid black"">","","","","","","","",""
"","2340.7700000025798","sequential-stimulus-presentation-old","135","1704852","0.0-31.0-1.2","SS1619739642555","trial","","40","500","2840.7700000025798","images/stimuli/spore_stims/complex_17_A_a.gif","images/stimuli/spore_stims/complex_13_A_b.gif","forced_short","","11","complex_dissimilar","images/stimuli/spore_stims/complex_13_A_b.gif","","","","",""
"","null","html-keyboard-response","136","1705672","0.0-31.0-0.3","SS1619739642555","","","null","","","","","","<p><img src= images/blank.png width =""600"" height = ""600"" style=""position:fixed;top:50%; left:50%; transform: translate(-50%, -50%); border:5px solid black"">","","","","","","","",""
"","6300.0449999999255","sequential-stimulus-presentation-old","137","1712477","0.0-31.0-1.3","SS1619739642555","trial","","40","500","6800.0449999999255","images/stimuli/spore_stims/complex_17_A_a.gif","images/stimuli/spore_stims/complex_13_A_b.gif","forced_short","","11","complex_dissimilar","images/stimuli/spore_stims/complex_17_A_a.gif","","","","",""
"","null","html-keyboard-response","138","1713596","0.0-31.0-0.4","SS1619739642555","","","null","","","","","","<p><img src= images/blank.png width =""600"" height = ""600"" style=""position:fixed;top:50%; left:50%; transform: translate(-50%, -50%); border:5px solid black"">","","","","","","","",""
"","1155.0449999996927","sequential-stimulus-presentation-old","139","1715257","0.0-31.0-1.4","SS1619739642555","trial","","40","500","1655.0449999996927","images/stimuli/spore_stims/complex_17_A_a.gif","images/stimuli/spore_stims/complex_13_A_b.gif","forced_short","","11","complex_dissimilar","images/stimuli/spore_stims/complex_17_A_a.gif","","","","",""
"[{""page_index"":0,""viewing_time"":5239.909999996657}]","5240.309999997495","instructions","140","1720500","0.0-32.0","SS1619739642555","instructions","","","","","","","","","","","","","","","",""
"","8125.935000000056","survey-likert","141","1728631","0.0-33.0","SS1619739642555","similarity_question","","","","","","","","","","","","{""Q0"":0}","[0]","","images/stimuli/spore_stims/complex_18_A_b.gif","images/stimuli/spore_stims/complex_03_A_a.gif"
"","8355.185000000289","survey-likert","142","1736994","0.0-34.0","SS1619739642555","similarity_question","","","","","","","","","","","","{""Q0"":1}","[0]","","images/stimuli/spore_stims/complex_11_A_b.gif","images/stimuli/spore_stims/complex_08_A_a.gif"
"","8507.650000003166","survey-likert","143","1745508","0.0-35.0","SS1619739642555","similarity_question","","","","","","","","","","","","{""Q0"":2}","[0]","","images/stimuli/spore_stims/complex_13_A_b.gif","images/stimuli/spore_stims/complex_17_A_a.gif"
"","5164.174999998184","survey-likert","144","1750682","0.0-36.0","SS1619739642555","similarity_question","","","","","","","","","","","","{""Q0"":1}","[0]","","images/stimuli/spore_stims/simple_17_A_b.gif","images/stimuli/spore_stims/simple_19_A_a.gif"
"","3362.869999997085","survey-likert","145","1754051","0.0-37.0","SS1619739642555","similarity_question","","","","","","","","","","","","{""Q0"":1}","[0]","","images/stimuli/spore_stims/simple_15_A_a.gif","images/stimuli/spore_stims/simple_19_A_b.gif"
"","7215.339999998687","survey-likert","146","1761276","0.0-38.0","SS1619739642555","similarity_question","","","","","","","","","","","","{""Q0"":2}","[0]","","images/stimuli/spore_stims/simple_18_A_b.gif","images/stimuli/spore_stims/simple_10_A_a.gif"
"","3073.9799999974202","survey-likert","147","1764359","0.0-39.0","SS1619739642555","similarity_question","","","","","","","","","","","","{""Q0"":0}","[0]","","images/stimuli/spore_stims/simple_04_A_a.gif","images/stimuli/spore_stims/simple_10_A_b.gif"
"","5626.589999999851","survey-likert","148","1769993","0.0-40.0","SS1619739642555","similarity_question","","","","","","","","","","","","{""Q0"":1}","[0]","","images/stimuli/spore_stims/simple_06_A_a.gif","images/stimuli/spore_stims/simple_03_A_b.gif"
"","6992.570000002161","survey-likert","149","1776995","0.0-41.0","SS1619739642555","similarity_question","","","","","","","","","","","","{""Q0"":1}","[0]","","images/stimuli/spore_stims/complex_20_A_a.gif","images/stimuli/spore_stims/complex_19_A_b.gif"
"","4646.0450000013225","survey-likert","150","1781647","0.0-42.0","SS1619739642555","similarity_question","","","","","","","","","","","","{""Q0"":4}","[0]","","images/stimuli/spore_stims/simple_02_A_a.gif","images/stimuli/spore_stims/simple_08_A_b.gif"
"","14977.240000000224","survey-likert","151","1796636","0.0-43.0","SS1619739642555","similarity_question","","","","","","","","","","","","{""Q0"":2}","[0]","","images/stimuli/spore_stims/complex_13_A_a.gif","images/stimuli/spore_stims/complex_16_A_b.gif"
"","6128.405000003288","survey-likert","152","1802772","0.0-44.0","SS1619739642555","similarity_question","","","","","","","","","","","","{""Q0"":1}","[0]","","images/stimuli/spore_stims/complex_18_A_a.gif","images/stimuli/spore_stims/complex_08_A_b.gif"
"[{""page_index"":0,""viewing_time"":5794.149999997811}]","5794.559999998426","instructions","153","1808571","0.0-45.0","SS1619739642555","instructions","","","","","","","","","","","","","","","",""
"","7158.095000002533","survey-likert","154","1815733","0.0-46.0","SS1619739642555","","","","","","","","","images/stimuli/spore_stims/complex_19_A_b.gif","","","","{""Q0"":4}","[0]","","",""
"","8452.440000000875","survey-likert","155","1824192","0.0-47.0","SS1619739642555","","","","","","","","","images/stimuli/spore_stims/complex_16_A_b.gif","","","","{""Q0"":4}","[0]","","",""
"","4423.259999999544","survey-likert","156","1828623","0.0-48.0","SS1619739642555","","","","","","","","","images/stimuli/spore_stims/complex_17_A_a.gif","","","","{""Q0"":3}","[0]","","",""
"","3864.604999998817","survey-likert","157","1832493","0.0-49.0","SS1619739642555","","","","","","","","","images/stimuli/spore_stims/simple_10_A_b.gif","","","","{""Q0"":1}","[0]","","",""
"","9380.374999996973","survey-likert","158","1841885","0.0-50.0","SS1619739642555","","","","","","","","","images/stimuli/spore_stims/complex_11_A_b.gif","","","","{""Q0"":2}","[0]","","",""
"","3249.739999999292","survey-likert","159","1845146","0.0-51.0","SS1619739642555","","","","","","","","","images/stimuli/spore_stims/simple_15_A_a.gif","","","","{""Q0"":0}","[0]","","",""
"","6142.910000002477","survey-likert","160","1851297","0.0-52.0","SS1619739642555","","","","","","","","","images/stimuli/spore_stims/complex_18_A_b.gif","","","","{""Q0"":5}","[0]","","",""
"","3527.435000000056","survey-likert","161","1854832","0.0-53.0","SS1619739642555","","","","","","","","","images/stimuli/spore_stims/simple_19_A_a.gif","","","","{""Q0"":1}","[0]","","",""
"","3032.165000000503","survey-likert","162","1857871","0.0-54.0","SS1619739642555","","","","","","","","","images/stimuli/spore_stims/simple_02_A_a.gif","","","","{""Q0"":0}","[0]","","",""
"","2508.1800000006333","survey-likert","163","1860387","0.0-55.0","SS1619739642555","","","","","","","","","images/stimuli/spore_stims/simple_10_A_a.gif","","","","{""Q0"":0}","[0]","","",""
"","5307.319999999832","survey-likert","164","1865705","0.0-56.0","SS1619739642555","","","","","","","","","images/stimuli/spore_stims/complex_08_A_b.gif","","","","{""Q0"":4}","[0]","","",""
"","4009.1849999988917","survey-likert","165","1869721","0.0-57.0","SS1619739642555","","","","","","","","","images/stimuli/spore_stims/simple_03_A_b.gif","","","","{""Q0"":0}","[0]","","",""
"[{""page_index"":0,""viewing_time"":2981.2300000013784}]","2981.5449999987613","instructions","166","1872709","0.0-58.0","SS1619739642555","instructions","","","","","","","","","","","","","","","",""
"","3168.819999998901","demog-age","167","1875885","0.0-59.0","SS1619739642555","","","","","","","","","","","","","{""age"":""21""}","","","",""
"","5787.3399999991525","demog-ethnic-US","168","1881677","0.0-60.0","SS1619739642555","","","","","","","","","","","","","{""ethnicity"":[""Hispanic or Latino""]}","[0]","","",""
"","29061.48999999999","demog-gender-and-education","169","1910746","0.0-61.0","SS1619739642555","","","","","","","","","","","","","{""gender"":""Male"",""education"":""Bachelor's Degree""}","[0,1]","","",""
"","10289.924999997253","survey-text","170","1921048","0.0-62.0","SS1619739642555","feedback","","","","","","","","","","","","{""Q0"":""Nothing""}","","","",""
"[{""page_index"":0,""viewing_time"":3875.89500000095}]","3876.5149999998976","instructions","171","1924928","0.0-63.0","SS1619739642555","instructions","","","","","","","","","","","","","","","",""
