"view_history","rt","trial_type","trial_index","time_elapsed","internal_node_id","subject","stimulus_type","trial_stimulus","key_press","minimum_viewing_duration","trial_looking_time","block_deviant","block_background","exposure_type","stimulus","block_number","block_type","stimulus_displayed","responses","question_order","math_correct_answer","stimulus_left","stimulus_right"
"[{""page_index"":0,""viewing_time"":10402.299999957904}]","10403.164999966975","instructions","0","10404","0.0-0.0","SS1619739862515","","","","","","","","","","","","","","","","",""
"[{""page_index"":0,""viewing_time"":13142.105000035372},{""page_index"":1,""viewing_time"":5071.584999968763}]","18214.054999989457","instructions","1","30621","0.0-1.0","SS1619739862515","instructions","","","","","","","","","","","","","","","",""
"","6321.364999981597","sequential-stimulus-presentation-old","2","37447","0.0-2.0","SS1619739862515","","","40","500","6821.364999981597","null","null","self_paced","","","","","","","","",""
"","4065.1400000206195","sequential-stimulus-presentation-old","3","42014","0.0-3.0","SS1619739862515","","","40","500","4565.1400000206195","null","null","self_paced","","","","","","","","",""
"[{""page_index"":0,""viewing_time"":21369.464999996126}]","21369.774999970105","instructions","4","63385","0.0-4.0","SS1619739862515","instructions","","","","","","","","","","","","","","","",""
"","544.3399999639951","sequential-stimulus-presentation-old","5","78932","0.0-5.0","SS1619739862515","","","40","500","1044.339999963995","null","null","forced_long","","","","","","","","",""
"","2573.355000000447","sequential-stimulus-presentation-old","6","82009","0.0-6.0","SS1619739862515","","","40","500","3073.355000000447","null","null","forced_long","","","","","","","","",""
"[{""page_index"":0,""viewing_time"":6088.155000004917}]","6088.349999976344","instructions","7","88098","0.0-7.0","SS1619739862515","instructions","","","","","","","","","","","","","","","",""
"[{""page_index"":0,""viewing_time"":67601.16000002017},{""page_index"":1,""viewing_time"":11683.124999981374},{""page_index"":2,""viewing_time"":6755.665000004228},{""page_index"":3,""viewing_time"":1145.9499999764375},{""page_index"":4,""viewing_time"":920.9050000063144}]","88106.96000000462","instructions","8","176206","0.0-8.0","SS1619739862515","instructions","","","","","","","","","","","","","","","",""
"","null","html-keyboard-response","9","177082","0.0-9.0-0.0","SS1619739862515","","","null","","","","","","<p><img src= images/blank.png width =""600"" height = ""600"" style=""position:fixed;top:50%; left:50%; transform: translate(-50%, -50%); border:5px solid black"">","","","","","","","",""
"","877.4700000067241","sequential-stimulus-presentation-old","10","192965","0.0-9.0-1.0","SS1619739862515","trial","","40","500","1377.4700000067241","images/stimuli/spore_stims/simple_11_A_a.gif","images/stimuli/spore_stims/simple_02_A_b.gif","forced_long","","0","simple_dissimilar","images/stimuli/spore_stims/simple_02_A_b.gif","","","","",""
"","null","html-keyboard-response","11","193896","0.0-9.0-0.1","SS1619739862515","","","null","","","","","","<p><img src= images/blank.png width =""600"" height = ""600"" style=""position:fixed;top:50%; left:50%; transform: translate(-50%, -50%); border:5px solid black"">","","","","","","","",""
"","7223.394999979064","sequential-stimulus-presentation-old","12","201622","0.0-9.0-1.1","SS1619739862515","trial","","40","500","7723.394999979064","images/stimuli/spore_stims/simple_11_A_a.gif","images/stimuli/spore_stims/simple_02_A_b.gif","forced_long","","0","simple_dissimilar","images/stimuli/spore_stims/simple_02_A_b.gif","","","","",""
"","null","html-keyboard-response","13","202427","0.0-9.0-0.2","SS1619739862515","","","null","","","","","","<p><img src= images/blank.png width =""600"" height = ""600"" style=""position:fixed;top:50%; left:50%; transform: translate(-50%, -50%); border:5px solid black"">","","","","","","","",""
"","1775.6100000115111","sequential-stimulus-presentation-old","14","204706","0.0-9.0-1.2","SS1619739862515","trial","","40","500","2275.610000011511","images/stimuli/spore_stims/simple_11_A_a.gif","images/stimuli/spore_stims/simple_02_A_b.gif","forced_long","","0","simple_dissimilar","images/stimuli/spore_stims/simple_02_A_b.gif","","","","",""
"","null","html-keyboard-response","15","205589","0.0-9.0-0.3","SS1619739862515","","","null","","","","","","<p><img src= images/blank.png width =""600"" height = ""600"" style=""position:fixed;top:50%; left:50%; transform: translate(-50%, -50%); border:5px solid black"">","","","","","","","",""
"","4195.7200000179","sequential-stimulus-presentation-old","16","210288","0.0-9.0-1.3","SS1619739862515","trial","","40","500","4695.7200000179","images/stimuli/spore_stims/simple_11_A_a.gif","images/stimuli/spore_stims/simple_02_A_b.gif","forced_long","","0","simple_dissimilar","images/stimuli/spore_stims/simple_11_A_a.gif","","","","",""
"","3077.58499996271","survey-multi-choice","17","213369","0.0-10.0","SS1619739862515","math_question","","","","","","","","","","","","{""Q0"":""10""}","[0]","10","",""
"","null","html-keyboard-response","18","214538","0.0-11.0-0.0","SS1619739862515","","","null","","","","","","<p><img src= images/blank.png width =""600"" height = ""600"" style=""position:fixed;top:50%; left:50%; transform: translate(-50%, -50%); border:5px solid black"">","","","","","","","",""
"","1127.0699999877252","sequential-stimulus-presentation-old","19","230673","0.0-11.0-1.0","SS1619739862515","trial","","40","500","1627.0699999877252","images/stimuli/spore_stims/simple_18_A_b.gif","images/stimuli/spore_stims/simple_08_A_a.gif","forced_long","","1","simple_dissimilar","images/stimuli/spore_stims/simple_08_A_a.gif","","","","",""
"","null","html-keyboard-response","20","231598","0.0-11.0-0.1","SS1619739862515","","","null","","","","","","<p><img src= images/blank.png width =""600"" height = ""600"" style=""position:fixed;top:50%; left:50%; transform: translate(-50%, -50%); border:5px solid black"">","","","","","","","",""
"","6355.449999973644","sequential-stimulus-presentation-old","21","238458","0.0-11.0-1.1","SS1619739862515","trial","","40","500","6855.449999973644","images/stimuli/spore_stims/simple_18_A_b.gif","images/stimuli/spore_stims/simple_08_A_a.gif","forced_long","","1","simple_dissimilar","images/stimuli/spore_stims/simple_08_A_a.gif","","","","",""
"","null","html-keyboard-response","22","239314","0.0-11.0-0.2","SS1619739862515","","","null","","","","","","<p><img src= images/blank.png width =""600"" height = ""600"" style=""position:fixed;top:50%; left:50%; transform: translate(-50%, -50%); border:5px solid black"">","","","","","","","",""
"","7110.404999984894","sequential-stimulus-presentation-old","23","246927","0.0-11.0-1.2","SS1619739862515","trial","","40","500","7610.404999984894","images/stimuli/spore_stims/simple_18_A_b.gif","images/stimuli/spore_stims/simple_08_A_a.gif","forced_long","","1","simple_dissimilar","images/stimuli/spore_stims/simple_08_A_a.gif","","","","",""
"","null","html-keyboard-response","24","247923","0.0-11.0-0.3","SS1619739862515","","","null","","","","","","<p><img src= images/blank.png width =""600"" height = ""600"" style=""position:fixed;top:50%; left:50%; transform: translate(-50%, -50%); border:5px solid black"">","","","","","","","",""
"","5171.289999969304","sequential-stimulus-presentation-old","25","253598","0.0-11.0-1.3","SS1619739862515","trial","","40","500","5671.289999969304","images/stimuli/spore_stims/simple_18_A_b.gif","images/stimuli/spore_stims/simple_08_A_a.gif","forced_long","","1","simple_dissimilar","images/stimuli/spore_stims/simple_08_A_a.gif","","","","",""
"","null","html-keyboard-response","26","254462","0.0-11.0-0.4","SS1619739862515","","","null","","","","","","<p><img src= images/blank.png width =""600"" height = ""600"" style=""position:fixed;top:50%; left:50%; transform: translate(-50%, -50%); border:5px solid black"">","","","","","","","",""
"","4280.715000000782","sequential-stimulus-presentation-old","27","259245","0.0-11.0-1.4","SS1619739862515","trial","","40","500","4780.715000000782","images/stimuli/spore_stims/simple_18_A_b.gif","images/stimuli/spore_stims/simple_08_A_a.gif","forced_long","","1","simple_dissimilar","images/stimuli/spore_stims/simple_08_A_a.gif","","","","",""
"","null","html-keyboard-response","28","260499","0.0-11.0-0.5","SS1619739862515","","","null","","","","","","<p><img src= images/blank.png width =""600"" height = ""600"" style=""position:fixed;top:50%; left:50%; transform: translate(-50%, -50%); border:5px solid black"">","","","","","","","",""
"","4941.019999969285","sequential-stimulus-presentation-old","29","265945","0.0-11.0-1.5","SS1619739862515","trial","","40","500","5441.019999969285","images/stimuli/spore_stims/simple_18_A_b.gif","images/stimuli/spore_stims/simple_08_A_a.gif","forced_long","","1","simple_dissimilar","images/stimuli/spore_stims/simple_08_A_a.gif","","","","",""
"","2784.704999998212","survey-multi-choice","30","268732","0.0-12.0","SS1619739862515","math_question","","","","","","","","","","","","{""Q0"":""10""}","[0]","10","",""
"","null","html-keyboard-response","31","269827","0.0-13.0-0.0","SS1619739862515","","","null","","","","","","<p><img src= images/blank.png width =""600"" height = ""600"" style=""position:fixed;top:50%; left:50%; transform: translate(-50%, -50%); border:5px solid black"">","","","","","","","",""
"","15407.894999952987","sequential-stimulus-presentation-old","32","285738","0.0-13.0-1.0","SS1619739862515","trial","","40","500","15907.894999952987","images/stimuli/spore_stims/complex_13_A_b.gif","images/stimuli/spore_stims/complex_08_A_a.gif","self_paced","","2","complex_dissimilar","images/stimuli/spore_stims/complex_08_A_a.gif","","","","",""
"","null","html-keyboard-response","33","286980","0.0-13.0-0.1","SS1619739862515","","","null","","","","","","<p><img src= images/blank.png width =""600"" height = ""600"" style=""position:fixed;top:50%; left:50%; transform: translate(-50%, -50%); border:5px solid black"">","","","","","","","",""
"","8603.370000026189","sequential-stimulus-presentation-old","34","296087","0.0-13.0-1.1","SS1619739862515","trial","","40","500","9103.370000026189","images/stimuli/spore_stims/complex_13_A_b.gif","images/stimuli/spore_stims/complex_08_A_a.gif","self_paced","","2","complex_dissimilar","images/stimuli/spore_stims/complex_08_A_a.gif","","","","",""
"","null","html-keyboard-response","35","297373","0.0-13.0-0.2","SS1619739862515","","","null","","","","","","<p><img src= images/blank.png width =""600"" height = ""600"" style=""position:fixed;top:50%; left:50%; transform: translate(-50%, -50%); border:5px solid black"">","","","","","","","",""
"","6449.795000022277","sequential-stimulus-presentation-old","36","304327","0.0-13.0-1.2","SS1619739862515","trial","","40","500","6949.795000022277","images/stimuli/spore_stims/complex_13_A_b.gif","images/stimuli/spore_stims/complex_08_A_a.gif","self_paced","","2","complex_dissimilar","images/stimuli/spore_stims/complex_08_A_a.gif","","","","",""
"","null","html-keyboard-response","37","305446","0.0-13.0-0.3","SS1619739862515","","","null","","","","","","<p><img src= images/blank.png width =""600"" height = ""600"" style=""position:fixed;top:50%; left:50%; transform: translate(-50%, -50%); border:5px solid black"">","","","","","","","",""
"","3503.915000008419","sequential-stimulus-presentation-old","38","309454","0.0-13.0-1.3","SS1619739862515","trial","","40","500","4003.915000008419","images/stimuli/spore_stims/complex_13_A_b.gif","images/stimuli/spore_stims/complex_08_A_a.gif","self_paced","","2","complex_dissimilar","images/stimuli/spore_stims/complex_08_A_a.gif","","","","",""
"","null","html-keyboard-response","39","310316","0.0-13.0-0.4","SS1619739862515","","","null","","","","","","<p><img src= images/blank.png width =""600"" height = ""600"" style=""position:fixed;top:50%; left:50%; transform: translate(-50%, -50%); border:5px solid black"">","","","","","","","",""
"","6100.52999999607","sequential-stimulus-presentation-old","40","316921","0.0-13.0-1.4","SS1619739862515","trial","","40","500","6600.52999999607","images/stimuli/spore_stims/complex_13_A_b.gif","images/stimuli/spore_stims/complex_08_A_a.gif","self_paced","","2","complex_dissimilar","images/stimuli/spore_stims/complex_08_A_a.gif","","","","",""
"","null","html-keyboard-response","41","317772","0.0-13.0-0.5","SS1619739862515","","","null","","","","","","<p><img src= images/blank.png width =""600"" height = ""600"" style=""position:fixed;top:50%; left:50%; transform: translate(-50%, -50%); border:5px solid black"">","","","","","","","",""
"","3948.8999999593943","sequential-stimulus-presentation-old","42","322224","0.0-13.0-1.5","SS1619739862515","trial","","40","500","4448.899999959394","images/stimuli/spore_stims/complex_13_A_b.gif","images/stimuli/spore_stims/complex_08_A_a.gif","self_paced","","2","complex_dissimilar","images/stimuli/spore_stims/complex_08_A_a.gif","","","","",""
"","3076.9600000348873","survey-multi-choice","43","325303","0.0-14.0","SS1619739862515","math_question","","","","","","","","","","","","{""Q0"":""12""}","[0]","12","",""
"","null","html-keyboard-response","44","326386","0.0-15.0-0.0","SS1619739862515","","","null","","","","","","<p><img src= images/blank.png width =""600"" height = ""600"" style=""position:fixed;top:50%; left:50%; transform: translate(-50%, -50%); border:5px solid black"">","","","","","","","",""
"","619.3150000181049","sequential-stimulus-presentation-old","45","342009","0.0-15.0-1.0","SS1619739862515","trial","","40","500","1119.315000018105","images/stimuli/spore_stims/complex_01_A_a.gif","images/stimuli/spore_stims/complex_10_A_b.gif","forced_long","","3","complex_dissimilar","images/stimuli/spore_stims/complex_10_A_b.gif","","","","",""
"","null","html-keyboard-response","46","343098","0.0-15.0-0.1","SS1619739862515","","","null","","","","","","<p><img src= images/blank.png width =""600"" height = ""600"" style=""position:fixed;top:50%; left:50%; transform: translate(-50%, -50%); border:5px solid black"">","","","","","","","",""
"","6272.694999992382","sequential-stimulus-presentation-old","47","349875","0.0-15.0-1.1","SS1619739862515","trial","","40","500","6772.694999992382","images/stimuli/spore_stims/complex_01_A_a.gif","images/stimuli/spore_stims/complex_10_A_b.gif","forced_long","","3","complex_dissimilar","images/stimuli/spore_stims/complex_01_A_a.gif","","","","",""
"","null","html-keyboard-response","48","351045","0.0-15.0-0.2","SS1619739862515","","","null","","","","","","<p><img src= images/blank.png width =""600"" height = ""600"" style=""position:fixed;top:50%; left:50%; transform: translate(-50%, -50%); border:5px solid black"">","","","","","","","",""
"","7079.655000008643","sequential-stimulus-presentation-old","49","358629","0.0-15.0-1.2","SS1619739862515","trial","","40","500","7579.655000008643","images/stimuli/spore_stims/complex_01_A_a.gif","images/stimuli/spore_stims/complex_10_A_b.gif","forced_long","","3","complex_dissimilar","images/stimuli/spore_stims/complex_10_A_b.gif","","","","",""
"","null","html-keyboard-response","50","359480","0.0-15.0-0.3","SS1619739862515","","","null","","","","","","<p><img src= images/blank.png width =""600"" height = ""600"" style=""position:fixed;top:50%; left:50%; transform: translate(-50%, -50%); border:5px solid black"">","","","","","","","",""
"","3627.3400000063702","sequential-stimulus-presentation-old","51","363611","0.0-15.0-1.3","SS1619739862515","trial","","40","500","4127.34000000637","images/stimuli/spore_stims/complex_01_A_a.gif","images/stimuli/spore_stims/complex_10_A_b.gif","forced_long","","3","complex_dissimilar","images/stimuli/spore_stims/complex_10_A_b.gif","","","","",""
"","null","html-keyboard-response","52","364455","0.0-15.0-0.4","SS1619739862515","","","null","","","","","","<p><img src= images/blank.png width =""600"" height = ""600"" style=""position:fixed;top:50%; left:50%; transform: translate(-50%, -50%); border:5px solid black"">","","","","","","","",""
"","3793.1100000278093","sequential-stimulus-presentation-old","53","368751","0.0-15.0-1.4","SS1619739862515","trial","","40","500","4293.110000027809","images/stimuli/spore_stims/complex_01_A_a.gif","images/stimuli/spore_stims/complex_10_A_b.gif","forced_long","","3","complex_dissimilar","images/stimuli/spore_stims/complex_10_A_b.gif","","","","",""
"","null","html-keyboard-response","54","370024","0.0-15.0-0.5","SS1619739862515","","","null","","","","","","<p><img src= images/blank.png width =""600"" height = ""600"" style=""position:fixed;top:50%; left:50%; transform: translate(-50%, -50%); border:5px solid black"">","","","","","","","",""
"","5787.390000012238","sequential-stimulus-presentation-old","55","376315","0.0-15.0-1.5","SS1619739862515","trial","","40","500","6287.390000012238","images/stimuli/spore_stims/complex_01_A_a.gif","images/stimuli/spore_stims/complex_10_A_b.gif","forced_long","","3","complex_dissimilar","images/stimuli/spore_stims/complex_10_A_b.gif","","","","",""
"","2960.8050000388175","survey-multi-choice","56","379278","0.0-16.0","SS1619739862515","math_question","","","","","","","","","","","","{""Q0"":""9""}","[0]","9","",""
"","null","html-keyboard-response","57","380304","0.0-17.0-0.0","SS1619739862515","","","null","","","","","","<p><img src= images/blank.png width =""600"" height = ""600"" style=""position:fixed;top:50%; left:50%; transform: translate(-50%, -50%); border:5px solid black"">","","","","","","","",""
"","2615.2749999891967","sequential-stimulus-presentation-old","58","383423","0.0-17.0-1.0","SS1619739862515","trial","","40","500","3115.2749999891967","images/stimuli/spore_stims/complex_07_A_b.gif","images/stimuli/spore_stims/complex_16_A_a.gif","forced_short","","4","complex_dissimilar","images/stimuli/spore_stims/complex_16_A_a.gif","","","","",""
"","null","html-keyboard-response","59","384511","0.0-17.0-0.1","SS1619739862515","","","null","","","","","","<p><img src= images/blank.png width =""600"" height = ""600"" style=""position:fixed;top:50%; left:50%; transform: translate(-50%, -50%); border:5px solid black"">","","","","","","","",""
"","4010.7999999891035","sequential-stimulus-presentation-old","60","389025","0.0-17.0-1.1","SS1619739862515","trial","","40","500","4510.7999999891035","images/stimuli/spore_stims/complex_07_A_b.gif","images/stimuli/spore_stims/complex_16_A_a.gif","forced_short","","4","complex_dissimilar","images/stimuli/spore_stims/complex_07_A_b.gif","","","","",""
"","null","html-keyboard-response","61","390090","0.0-17.0-0.2","SS1619739862515","","","null","","","","","","<p><img src= images/blank.png width =""600"" height = ""600"" style=""position:fixed;top:50%; left:50%; transform: translate(-50%, -50%); border:5px solid black"">","","","","","","","",""
"","6210.124999983236","sequential-stimulus-presentation-old","62","396805","0.0-17.0-1.2","SS1619739862515","trial","","40","500","6710.124999983236","images/stimuli/spore_stims/complex_07_A_b.gif","images/stimuli/spore_stims/complex_16_A_a.gif","forced_short","","4","complex_dissimilar","images/stimuli/spore_stims/complex_16_A_a.gif","","","","",""
"","null","html-keyboard-response","63","397625","0.0-17.0-0.3","SS1619739862515","","","null","","","","","","<p><img src= images/blank.png width =""600"" height = ""600"" style=""position:fixed;top:50%; left:50%; transform: translate(-50%, -50%); border:5px solid black"">","","","","","","","",""
"","1446.5450000134297","sequential-stimulus-presentation-old","64","399576","0.0-17.0-1.3","SS1619739862515","trial","","40","500","1946.5450000134297","images/stimuli/spore_stims/complex_07_A_b.gif","images/stimuli/spore_stims/complex_16_A_a.gif","forced_short","","4","complex_dissimilar","images/stimuli/spore_stims/complex_16_A_a.gif","","","","",""
"","null","html-keyboard-response","65","400588","0.0-17.0-0.4","SS1619739862515","","","null","","","","","","<p><img src= images/blank.png width =""600"" height = ""600"" style=""position:fixed;top:50%; left:50%; transform: translate(-50%, -50%); border:5px solid black"">","","","","","","","",""
"","3283.495000039693","sequential-stimulus-presentation-old","66","404376","0.0-17.0-1.4","SS1619739862515","trial","","40","500","3783.495000039693","images/stimuli/spore_stims/complex_07_A_b.gif","images/stimuli/spore_stims/complex_16_A_a.gif","forced_short","","4","complex_dissimilar","images/stimuli/spore_stims/complex_16_A_a.gif","","","","",""
"","null","html-keyboard-response","67","405196","0.0-17.0-0.5","SS1619739862515","","","null","","","","","","<p><img src= images/blank.png width =""600"" height = ""600"" style=""position:fixed;top:50%; left:50%; transform: translate(-50%, -50%); border:5px solid black"">","","","","","","","",""
"","3766.829999978654","sequential-stimulus-presentation-old","68","409467","0.0-17.0-1.5","SS1619739862515","trial","","40","500","4266.829999978654","images/stimuli/spore_stims/complex_07_A_b.gif","images/stimuli/spore_stims/complex_16_A_a.gif","forced_short","","4","complex_dissimilar","images/stimuli/spore_stims/complex_16_A_a.gif","","","","",""
"","3440.3150000143796","survey-multi-choice","69","412910","0.0-18.0","SS1619739862515","math_question","","","","","","","","","","","","{""Q0"":""17""}","[0]","17","",""
"","null","html-keyboard-response","70","413852","0.0-19.0-0.0","SS1619739862515","","","null","","","","","","<p><img src= images/blank.png width =""600"" height = ""600"" style=""position:fixed;top:50%; left:50%; transform: translate(-50%, -50%); border:5px solid black"">","","","","","","","",""
"","2851.9800000358373","sequential-stimulus-presentation-old","71","417208","0.0-19.0-1.0","SS1619739862515","trial","","40","500","3351.9800000358373","images/stimuli/spore_stims/complex_03_A_a.gif","images/stimuli/spore_stims/complex_14_A_b.gif","self_paced","","5","complex_dissimilar","images/stimuli/spore_stims/complex_14_A_b.gif","","","","",""
"","null","html-keyboard-response","72","418096","0.0-19.0-0.1","SS1619739862515","","","null","","","","","","<p><img src= images/blank.png width =""600"" height = ""600"" style=""position:fixed;top:50%; left:50%; transform: translate(-50%, -50%); border:5px solid black"">","","","","","","","",""
"","4000.6549999816343","sequential-stimulus-presentation-old","73","422600","0.0-19.0-1.1","SS1619739862515","trial","","40","500","4500.654999981634","images/stimuli/spore_stims/complex_03_A_a.gif","images/stimuli/spore_stims/complex_14_A_b.gif","self_paced","","5","complex_dissimilar","images/stimuli/spore_stims/complex_14_A_b.gif","","","","",""
"","null","html-keyboard-response","74","423572","0.0-19.0-0.2","SS1619739862515","","","null","","","","","","<p><img src= images/blank.png width =""600"" height = ""600"" style=""position:fixed;top:50%; left:50%; transform: translate(-50%, -50%); border:5px solid black"">","","","","","","","",""
"","839.6100000245497","sequential-stimulus-presentation-old","75","424916","0.0-19.0-1.2","SS1619739862515","trial","","40","500","1339.6100000245497","images/stimuli/spore_stims/complex_03_A_a.gif","images/stimuli/spore_stims/complex_14_A_b.gif","self_paced","","5","complex_dissimilar","images/stimuli/spore_stims/complex_14_A_b.gif","","","","",""
"","null","html-keyboard-response","76","425946","0.0-19.0-0.3","SS1619739862515","","","null","","","","","","<p><img src= images/blank.png width =""600"" height = ""600"" style=""position:fixed;top:50%; left:50%; transform: translate(-50%, -50%); border:5px solid black"">","","","","","","","",""
"","4554.690000019036","sequential-stimulus-presentation-old","77","431005","0.0-19.0-1.3","SS1619739862515","trial","","40","500","5054.690000019036","images/stimuli/spore_stims/complex_03_A_a.gif","images/stimuli/spore_stims/complex_14_A_b.gif","self_paced","","5","complex_dissimilar","images/stimuli/spore_stims/complex_14_A_b.gif","","","","",""
"","null","html-keyboard-response","78","432124","0.0-19.0-0.4","SS1619739862515","","","null","","","","","","<p><img src= images/blank.png width =""600"" height = ""600"" style=""position:fixed;top:50%; left:50%; transform: translate(-50%, -50%); border:5px solid black"">","","","","","","","",""
"","3216.324999986682","sequential-stimulus-presentation-old","79","435844","0.0-19.0-1.4","SS1619739862515","trial","","40","500","3716.324999986682","images/stimuli/spore_stims/complex_03_A_a.gif","images/stimuli/spore_stims/complex_14_A_b.gif","self_paced","","5","complex_dissimilar","images/stimuli/spore_stims/complex_14_A_b.gif","","","","",""
"","null","html-keyboard-response","80","436706","0.0-19.0-0.5","SS1619739862515","","","null","","","","","","<p><img src= images/blank.png width =""600"" height = ""600"" style=""position:fixed;top:50%; left:50%; transform: translate(-50%, -50%); border:5px solid black"">","","","","","","","",""
"","1360.1050000288524","sequential-stimulus-presentation-old","81","438570","0.0-19.0-1.5","SS1619739862515","trial","","40","500","1860.1050000288524","images/stimuli/spore_stims/complex_03_A_a.gif","images/stimuli/spore_stims/complex_14_A_b.gif","self_paced","","5","complex_dissimilar","images/stimuli/spore_stims/complex_14_A_b.gif","","","","",""
"","2847.19000000041","survey-multi-choice","82","441420","0.0-20.0","SS1619739862515","math_question","","","","","","","","","","","","{""Q0"":""5""}","[0]","5","",""
"","null","html-keyboard-response","83","442382","0.0-21.0-0.0","SS1619739862515","","","null","","","","","","<p><img src= images/blank.png width =""600"" height = ""600"" style=""position:fixed;top:50%; left:50%; transform: translate(-50%, -50%); border:5px solid black"">","","","","","","","",""
"","21673.80500002764","sequential-stimulus-presentation-old","84","464559","0.0-21.0-1.0","SS1619739862515","trial","","40","500","22173.80500002764","images/stimuli/spore_stims/simple_09_A_b.gif","images/stimuli/spore_stims/simple_19_A_a.gif","self_paced","","6","simple_dissimilar","images/stimuli/spore_stims/simple_19_A_a.gif","","","","",""
"","null","html-keyboard-response","85","465461","0.0-21.0-0.1","SS1619739862515","","","null","","","","","","<p><img src= images/blank.png width =""600"" height = ""600"" style=""position:fixed;top:50%; left:50%; transform: translate(-50%, -50%); border:5px solid black"">","","","","","","","",""
"","3393.355000007432","sequential-stimulus-presentation-old","86","469358","0.0-21.0-1.1","SS1619739862515","trial","","40","500","3893.355000007432","images/stimuli/spore_stims/simple_09_A_b.gif","images/stimuli/spore_stims/simple_19_A_a.gif","self_paced","","6","simple_dissimilar","images/stimuli/spore_stims/simple_19_A_a.gif","","","","",""
"","null","html-keyboard-response","87","470209","0.0-21.0-0.2","SS1619739862515","","","null","","","","","","<p><img src= images/blank.png width =""600"" height = ""600"" style=""position:fixed;top:50%; left:50%; transform: translate(-50%, -50%); border:5px solid black"">","","","","","","","",""
"","1527.8699999907985","sequential-stimulus-presentation-old","88","472242","0.0-21.0-1.2","SS1619739862515","trial","","40","500","2027.8699999907985","images/stimuli/spore_stims/simple_09_A_b.gif","images/stimuli/spore_stims/simple_19_A_a.gif","self_paced","","6","simple_dissimilar","images/stimuli/spore_stims/simple_19_A_a.gif","","","","",""
"","null","html-keyboard-response","89","473153","0.0-21.0-0.3","SS1619739862515","","","null","","","","","","<p><img src= images/blank.png width =""600"" height = ""600"" style=""position:fixed;top:50%; left:50%; transform: translate(-50%, -50%); border:5px solid black"">","","","","","","","",""
"","2708.420000039041","sequential-stimulus-presentation-old","90","476365","0.0-21.0-1.3","SS1619739862515","trial","","40","500","3208.420000039041","images/stimuli/spore_stims/simple_09_A_b.gif","images/stimuli/spore_stims/simple_19_A_a.gif","self_paced","","6","simple_dissimilar","images/stimuli/spore_stims/simple_19_A_a.gif","","","","",""
"","5901.0850000195205","survey-multi-choice","91","482269","0.0-22.0","SS1619739862515","math_question","","","","","","","","","","","","{""Q0"":""12""}","[0]","12","",""
"","null","html-keyboard-response","92","483154","0.0-23.0-0.0","SS1619739862515","","","null","","","","","","<p><img src= images/blank.png width =""600"" height = ""600"" style=""position:fixed;top:50%; left:50%; transform: translate(-50%, -50%); border:5px solid black"">","","","","","","","",""
"","1090.7200000365265","sequential-stimulus-presentation-old","93","499249","0.0-23.0-1.0","SS1619739862515","trial","","40","500","1590.7200000365265","images/stimuli/spore_stims/complex_13_A_a.gif","images/stimuli/spore_stims/complex_04_A_b.gif","forced_long","","7","complex_dissimilar","images/stimuli/spore_stims/complex_04_A_b.gif","","","","",""
"","null","html-keyboard-response","94","500548","0.0-23.0-0.1","SS1619739862515","","","null","","","","","","<p><img src= images/blank.png width =""600"" height = ""600"" style=""position:fixed;top:50%; left:50%; transform: translate(-50%, -50%); border:5px solid black"">","","","","","","","",""
"","7029.485000006389","sequential-stimulus-presentation-old","95","508081","0.0-23.0-1.1","SS1619739862515","trial","","40","500","7529.485000006389","images/stimuli/spore_stims/complex_13_A_a.gif","images/stimuli/spore_stims/complex_04_A_b.gif","forced_long","","7","complex_dissimilar","images/stimuli/spore_stims/complex_13_A_a.gif","","","","",""
"","null","html-keyboard-response","96","509044","0.0-23.0-0.2","SS1619739862515","","","null","","","","","","<p><img src= images/blank.png width =""600"" height = ""600"" style=""position:fixed;top:50%; left:50%; transform: translate(-50%, -50%); border:5px solid black"">","","","","","","","",""
"","2860.3000000002794","sequential-stimulus-presentation-old","97","512409","0.0-23.0-1.2","SS1619739862515","trial","","40","500","3360.3000000002794","images/stimuli/spore_stims/complex_13_A_a.gif","images/stimuli/spore_stims/complex_04_A_b.gif","forced_long","","7","complex_dissimilar","images/stimuli/spore_stims/complex_13_A_a.gif","","","","",""
"","null","html-keyboard-response","98","513402","0.0-23.0-0.3","SS1619739862515","","","null","","","","","","<p><img src= images/blank.png width =""600"" height = ""600"" style=""position:fixed;top:50%; left:50%; transform: translate(-50%, -50%); border:5px solid black"">","","","","","","","",""
"","4047.439999994822","sequential-stimulus-presentation-old","99","517954","0.0-23.0-1.3","SS1619739862515","trial","","40","500","4547.439999994822","images/stimuli/spore_stims/complex_13_A_a.gif","images/stimuli/spore_stims/complex_04_A_b.gif","forced_long","","7","complex_dissimilar","images/stimuli/spore_stims/complex_04_A_b.gif","","","","",""
"","2962.119999981951","survey-multi-choice","100","520918","0.0-24.0","SS1619739862515","math_question","","","","","","","","","","","","{""Q0"":""14""}","[0]","14","",""
"","null","html-keyboard-response","101","522091","0.0-25.0-0.0","SS1619739862515","","","null","","","","","","<p><img src= images/blank.png width =""600"" height = ""600"" style=""position:fixed;top:50%; left:50%; transform: translate(-50%, -50%); border:5px solid black"">","","","","","","","",""
"","1571.1649999720976","sequential-stimulus-presentation-old","102","524166","0.0-25.0-1.0","SS1619739862515","trial","","40","500","2071.1649999720976","images/stimuli/spore_stims/complex_04_A_a.gif","images/stimuli/spore_stims/complex_15_A_b.gif","forced_short","","8","complex_dissimilar","images/stimuli/spore_stims/complex_15_A_b.gif","","","","",""
"","null","html-keyboard-response","103","525321","0.0-25.0-0.1","SS1619739862515","","","null","","","","","","<p><img src= images/blank.png width =""600"" height = ""600"" style=""position:fixed;top:50%; left:50%; transform: translate(-50%, -50%); border:5px solid black"">","","","","","","","",""
"","5300.684999965597","sequential-stimulus-presentation-old","104","531127","0.0-25.0-1.1","SS1619739862515","trial","","40","500","5800.684999965597","images/stimuli/spore_stims/complex_04_A_a.gif","images/stimuli/spore_stims/complex_15_A_b.gif","forced_short","","8","complex_dissimilar","images/stimuli/spore_stims/complex_15_A_b.gif","","","","",""
"","null","html-keyboard-response","105","532277","0.0-25.0-0.2","SS1619739862515","","","null","","","","","","<p><img src= images/blank.png width =""600"" height = ""600"" style=""position:fixed;top:50%; left:50%; transform: translate(-50%, -50%); border:5px solid black"">","","","","","","","",""
"","2119.4200000027195","sequential-stimulus-presentation-old","106","534901","0.0-25.0-1.2","SS1619739862515","trial","","40","500","2619.4200000027195","images/stimuli/spore_stims/complex_04_A_a.gif","images/stimuli/spore_stims/complex_15_A_b.gif","forced_short","","8","complex_dissimilar","images/stimuli/spore_stims/complex_15_A_b.gif","","","","",""
"","null","html-keyboard-response","107","535773","0.0-25.0-0.3","SS1619739862515","","","null","","","","","","<p><img src= images/blank.png width =""600"" height = ""600"" style=""position:fixed;top:50%; left:50%; transform: translate(-50%, -50%); border:5px solid black"">","","","","","","","",""
"","3733.494999993127","sequential-stimulus-presentation-old","108","540010","0.0-25.0-1.3","SS1619739862515","trial","","40","500","4233.494999993127","images/stimuli/spore_stims/complex_04_A_a.gif","images/stimuli/spore_stims/complex_15_A_b.gif","forced_short","","8","complex_dissimilar","images/stimuli/spore_stims/complex_15_A_b.gif","","","","",""
"","null","html-keyboard-response","109","540902","0.0-25.0-0.4","SS1619739862515","","","null","","","","","","<p><img src= images/blank.png width =""600"" height = ""600"" style=""position:fixed;top:50%; left:50%; transform: translate(-50%, -50%); border:5px solid black"">","","","","","","","",""
"","3614.220000046771","sequential-stimulus-presentation-old","110","545021","0.0-25.0-1.4","SS1619739862515","trial","","40","500","4114.220000046771","images/stimuli/spore_stims/complex_04_A_a.gif","images/stimuli/spore_stims/complex_15_A_b.gif","forced_short","","8","complex_dissimilar","images/stimuli/spore_stims/complex_15_A_b.gif","","","","",""
"","null","html-keyboard-response","111","546238","0.0-25.0-0.5","SS1619739862515","","","null","","","","","","<p><img src= images/blank.png width =""600"" height = ""600"" style=""position:fixed;top:50%; left:50%; transform: translate(-50%, -50%); border:5px solid black"">","","","","","","","",""
"","3901.2999999686144","sequential-stimulus-presentation-old","112","550645","0.0-25.0-1.5","SS1619739862515","trial","","40","500","4401.299999968614","images/stimuli/spore_stims/complex_04_A_a.gif","images/stimuli/spore_stims/complex_15_A_b.gif","forced_short","","8","complex_dissimilar","images/stimuli/spore_stims/complex_04_A_a.gif","","","","",""
"","2542.0349999913014","survey-multi-choice","113","553190","0.0-26.0","SS1619739862515","math_question","","","","","","","","","","","","{""Q0"":""5""}","[0]","5","",""
"","null","html-keyboard-response","114","554097","0.0-27.0-0.0","SS1619739862515","","","null","","","","","","<p><img src= images/blank.png width =""600"" height = ""600"" style=""position:fixed;top:50%; left:50%; transform: translate(-50%, -50%); border:5px solid black"">","","","","","","","",""
"","1352.3150000255555","sequential-stimulus-presentation-old","115","555954","0.0-27.0-1.0","SS1619739862515","trial","","40","500","1852.3150000255555","images/stimuli/spore_stims/simple_13_A_a.gif","images/stimuli/spore_stims/simple_03_A_b.gif","forced_short","","9","simple_dissimilar","images/stimuli/spore_stims/simple_03_A_b.gif","","","","",""
"","null","html-keyboard-response","116","557033","0.0-27.0-0.1","SS1619739862515","","","null","","","","","","<p><img src= images/blank.png width =""600"" height = ""600"" style=""position:fixed;top:50%; left:50%; transform: translate(-50%, -50%); border:5px solid black"">","","","","","","","",""
"","6441.754999978002","sequential-stimulus-presentation-old","117","563979","0.0-27.0-1.1","SS1619739862515","trial","","40","500","6941.754999978002","images/stimuli/spore_stims/simple_13_A_a.gif","images/stimuli/spore_stims/simple_03_A_b.gif","forced_short","","9","simple_dissimilar","images/stimuli/spore_stims/simple_03_A_b.gif","","","","",""
"","null","html-keyboard-response","118","564982","0.0-27.0-0.2","SS1619739862515","","","null","","","","","","<p><img src= images/blank.png width =""600"" height = ""600"" style=""position:fixed;top:50%; left:50%; transform: translate(-50%, -50%); border:5px solid black"">","","","","","","","",""
"","5434.760000032838","sequential-stimulus-presentation-old","119","570921","0.0-27.0-1.2","SS1619739862515","trial","","40","500","5934.760000032838","images/stimuli/spore_stims/simple_13_A_a.gif","images/stimuli/spore_stims/simple_03_A_b.gif","forced_short","","9","simple_dissimilar","images/stimuli/spore_stims/simple_13_A_a.gif","","","","",""
"","null","html-keyboard-response","120","571756","0.0-27.0-0.3","SS1619739862515","","","null","","","","","","<p><img src= images/blank.png width =""600"" height = ""600"" style=""position:fixed;top:50%; left:50%; transform: translate(-50%, -50%); border:5px solid black"">","","","","","","","",""
"","4188.12499998603","sequential-stimulus-presentation-old","121","576450","0.0-27.0-1.3","SS1619739862515","trial","","40","500","4688.12499998603","images/stimuli/spore_stims/simple_13_A_a.gif","images/stimuli/spore_stims/simple_03_A_b.gif","forced_short","","9","simple_dissimilar","images/stimuli/spore_stims/simple_03_A_b.gif","","","","",""
"","null","html-keyboard-response","122","577619","0.0-27.0-0.4","SS1619739862515","","","null","","","","","","<p><img src= images/blank.png width =""600"" height = ""600"" style=""position:fixed;top:50%; left:50%; transform: translate(-50%, -50%); border:5px solid black"">","","","","","","","",""
"","2894.96499998495","sequential-stimulus-presentation-old","123","581018","0.0-27.0-1.4","SS1619739862515","trial","","40","500","3394.96499998495","images/stimuli/spore_stims/simple_13_A_a.gif","images/stimuli/spore_stims/simple_03_A_b.gif","forced_short","","9","simple_dissimilar","images/stimuli/spore_stims/simple_13_A_a.gif","","","","",""
"","3537.3099999851547","survey-multi-choice","124","584559","0.0-28.0","SS1619739862515","math_question","","","","","","","","","","","","{""Q0"":""14""}","[0]","14","",""
"","null","html-keyboard-response","125","585854","0.0-29.0-0.0","SS1619739862515","","","null","","","","","","<p><img src= images/blank.png width =""600"" height = ""600"" style=""position:fixed;top:50%; left:50%; transform: translate(-50%, -50%); border:5px solid black"">","","","","","","","",""
"","8150.220000010449","sequential-stimulus-presentation-old","126","594509","0.0-29.0-1.0","SS1619739862515","trial","","40","500","8650.22000001045","images/stimuli/spore_stims/simple_11_A_b.gif","images/stimuli/spore_stims/simple_09_A_a.gif","self_paced","","10","simple_dissimilar","images/stimuli/spore_stims/simple_09_A_a.gif","","","","",""
"","null","html-keyboard-response","127","595330","0.0-29.0-0.1","SS1619739862515","","","null","","","","","","<p><img src= images/blank.png width =""600"" height = ""600"" style=""position:fixed;top:50%; left:50%; transform: translate(-50%, -50%); border:5px solid black"">","","","","","","","",""
"","3895.4350000130944","sequential-stimulus-presentation-old","128","599731","0.0-29.0-1.1","SS1619739862515","trial","","40","500","4395.435000013094","images/stimuli/spore_stims/simple_11_A_b.gif","images/stimuli/spore_stims/simple_09_A_a.gif","self_paced","","10","simple_dissimilar","images/stimuli/spore_stims/simple_11_A_b.gif","","","","",""
"","null","html-keyboard-response","129","600625","0.0-29.0-0.2","SS1619739862515","","","null","","","","","","<p><img src= images/blank.png width =""600"" height = ""600"" style=""position:fixed;top:50%; left:50%; transform: translate(-50%, -50%); border:5px solid black"">","","","","","","","",""
"","1110.244999988936","sequential-stimulus-presentation-old","130","602240","0.0-29.0-1.2","SS1619739862515","trial","","40","500","1610.244999988936","images/stimuli/spore_stims/simple_11_A_b.gif","images/stimuli/spore_stims/simple_09_A_a.gif","self_paced","","10","simple_dissimilar","images/stimuli/spore_stims/simple_11_A_b.gif","","","","",""
"","null","html-keyboard-response","131","603397","0.0-29.0-0.3","SS1619739862515","","","null","","","","","","<p><img src= images/blank.png width =""600"" height = ""600"" style=""position:fixed;top:50%; left:50%; transform: translate(-50%, -50%); border:5px solid black"">","","","","","","","",""
"","5465.855000016745","sequential-stimulus-presentation-old","132","609368","0.0-29.0-1.3","SS1619739862515","trial","","40","500","5965.855000016745","images/stimuli/spore_stims/simple_11_A_b.gif","images/stimuli/spore_stims/simple_09_A_a.gif","self_paced","","10","simple_dissimilar","images/stimuli/spore_stims/simple_09_A_a.gif","","","","",""
"","null","html-keyboard-response","133","610604","0.0-29.0-0.4","SS1619739862515","","","null","","","","","","<p><img src= images/blank.png width =""600"" height = ""600"" style=""position:fixed;top:50%; left:50%; transform: translate(-50%, -50%); border:5px solid black"">","","","","","","","",""
"","1946.2550000171177","sequential-stimulus-presentation-old","134","613053","0.0-29.0-1.4","SS1619739862515","trial","","40","500","2446.2550000171177","images/stimuli/spore_stims/simple_11_A_b.gif","images/stimuli/spore_stims/simple_09_A_a.gif","self_paced","","10","simple_dissimilar","images/stimuli/spore_stims/simple_09_A_a.gif","","","","",""
"","4606.339999998454","survey-multi-choice","135","617662","0.0-30.0","SS1619739862515","math_question","","","","","","","","","","","","{""Q0"":""16""}","[0]","16","",""
"","null","html-keyboard-response","136","618782","0.0-31.0-0.0","SS1619739862515","","","null","","","","","","<p><img src= images/blank.png width =""600"" height = ""600"" style=""position:fixed;top:50%; left:50%; transform: translate(-50%, -50%); border:5px solid black"">","","","","","","","",""
"","1042.3749999608845","sequential-stimulus-presentation-old","137","620331","0.0-31.0-1.0","SS1619739862515","trial","","40","500","1542.3749999608845","images/stimuli/spore_stims/simple_17_A_a.gif","images/stimuli/spore_stims/simple_20_A_b.gif","forced_short","","11","simple_dissimilar","images/stimuli/spore_stims/simple_20_A_b.gif","","","","",""
"","null","html-keyboard-response","138","621356","0.0-31.0-0.1","SS1619739862515","","","null","","","","","","<p><img src= images/blank.png width =""600"" height = ""600"" style=""position:fixed;top:50%; left:50%; transform: translate(-50%, -50%); border:5px solid black"">","","","","","","","",""
"","3798.7949999514967","sequential-stimulus-presentation-old","139","625660","0.0-31.0-1.1","SS1619739862515","trial","","40","500","4298.794999951497","images/stimuli/spore_stims/simple_17_A_a.gif","images/stimuli/spore_stims/simple_20_A_b.gif","forced_short","","11","simple_dissimilar","images/stimuli/spore_stims/simple_20_A_b.gif","","","","",""
"","null","html-keyboard-response","140","626628","0.0-31.0-0.2","SS1619739862515","","","null","","","","","","<p><img src= images/blank.png width =""600"" height = ""600"" style=""position:fixed;top:50%; left:50%; transform: translate(-50%, -50%); border:5px solid black"">","","","","","","","",""
"","1242.1000000322238","sequential-stimulus-presentation-old","141","628375","0.0-31.0-1.2","SS1619739862515","trial","","40","500","1742.1000000322238","images/stimuli/spore_stims/simple_17_A_a.gif","images/stimuli/spore_stims/simple_20_A_b.gif","forced_short","","11","simple_dissimilar","images/stimuli/spore_stims/simple_20_A_b.gif","","","","",""
"","null","html-keyboard-response","142","629369","0.0-31.0-0.3","SS1619739862515","","","null","","","","","","<p><img src= images/blank.png width =""600"" height = ""600"" style=""position:fixed;top:50%; left:50%; transform: translate(-50%, -50%); border:5px solid black"">","","","","","","","",""
"","1217.754999990575","sequential-stimulus-presentation-old","143","631091","0.0-31.0-1.3","SS1619739862515","trial","","40","500","1717.754999990575","images/stimuli/spore_stims/simple_17_A_a.gif","images/stimuli/spore_stims/simple_20_A_b.gif","forced_short","","11","simple_dissimilar","images/stimuli/spore_stims/simple_20_A_b.gif","","","","",""
"","null","html-keyboard-response","144","632365","0.0-31.0-0.4","SS1619739862515","","","null","","","","","","<p><img src= images/blank.png width =""600"" height = ""600"" style=""position:fixed;top:50%; left:50%; transform: translate(-50%, -50%); border:5px solid black"">","","","","","","","",""
"","2972.6299999747425","sequential-stimulus-presentation-old","145","635843","0.0-31.0-1.4","SS1619739862515","trial","","40","500","3472.6299999747425","images/stimuli/spore_stims/simple_17_A_a.gif","images/stimuli/spore_stims/simple_20_A_b.gif","forced_short","","11","simple_dissimilar","images/stimuli/spore_stims/simple_20_A_b.gif","","","","",""
"[{""page_index"":0,""viewing_time"":5237.36500000814}]","5237.71499999566","instructions","146","641083","0.0-32.0","SS1619739862515","instructions","","","","","","","","","","","","","","","",""
"","10002.625000022817","survey-likert","147","651089","0.0-33.0","SS1619739862515","similarity_question","","","","","","","","","","","","{""Q0"":3}","[0]","","images/stimuli/spore_stims/complex_04_A_b.gif","images/stimuli/spore_stims/complex_13_A_a.gif"
"","5036.035000055563","survey-likert","148","656129","0.0-34.0","SS1619739862515","similarity_question","","","","","","","","","","","","{""Q0"":5}","[0]","","images/stimuli/spore_stims/simple_18_A_b.gif","images/stimuli/spore_stims/simple_08_A_a.gif"
"","2878.005000005942","survey-likert","149","659013","0.0-35.0","SS1619739862515","similarity_question","","","","","","","","","","","","{""Q0"":5}","[0]","","images/stimuli/spore_stims/simple_13_A_a.gif","images/stimuli/spore_stims/simple_03_A_b.gif"
"","4882.524999964517","survey-likert","150","663899","0.0-36.0","SS1619739862515","similarity_question","","","","","","","","","","","","{""Q0"":5}","[0]","","images/stimuli/spore_stims/complex_15_A_b.gif","images/stimuli/spore_stims/complex_04_A_a.gif"
"","3368.5050000203773","survey-likert","151","667273","0.0-37.0","SS1619739862515","similarity_question","","","","","","","","","","","","{""Q0"":5}","[0]","","images/stimuli/spore_stims/simple_19_A_a.gif","images/stimuli/spore_stims/simple_09_A_b.gif"
"","4088.134999969043","survey-likert","152","671365","0.0-38.0","SS1619739862515","similarity_question","","","","","","","","","","","","{""Q0"":3}","[0]","","images/stimuli/spore_stims/complex_16_A_a.gif","images/stimuli/spore_stims/complex_07_A_b.gif"
"","4850.310000008903","survey-likert","153","676219","0.0-39.0","SS1619739862515","similarity_question","","","","","","","","","","","","{""Q0"":2}","[0]","","images/stimuli/spore_stims/complex_13_A_b.gif","images/stimuli/spore_stims/complex_08_A_a.gif"
"","4166.084999975283","survey-likert","154","680389","0.0-40.0","SS1619739862515","similarity_question","","","","","","","","","","","","{""Q0"":3}","[0]","","images/stimuli/spore_stims/complex_01_A_a.gif","images/stimuli/spore_stims/complex_10_A_b.gif"
"","6543.339999974705","survey-likert","155","686937","0.0-41.0","SS1619739862515","similarity_question","","","","","","","","","","","","{""Q0"":3}","[0]","","images/stimuli/spore_stims/complex_03_A_a.gif","images/stimuli/spore_stims/complex_14_A_b.gif"
"","2346.2750000180677","survey-likert","156","689286","0.0-42.0","SS1619739862515","similarity_question","","","","","","","","","","","","{""Q0"":5}","[0]","","images/stimuli/spore_stims/simple_11_A_b.gif","images/stimuli/spore_stims/simple_09_A_a.gif"
"","2060.745000024326","survey-likert","157","691351","0.0-43.0","SS1619739862515","similarity_question","","","","","","","","","","","","{""Q0"":5}","[0]","","images/stimuli/spore_stims/simple_20_A_b.gif","images/stimuli/spore_stims/simple_17_A_a.gif"
"","1866.585000010673","survey-likert","158","693222","0.0-44.0","SS1619739862515","similarity_question","","","","","","","","","","","","{""Q0"":5}","[0]","","images/stimuli/spore_stims/simple_11_A_a.gif","images/stimuli/spore_stims/simple_02_A_b.gif"
"[{""page_index"":0,""viewing_time"":4479.690000007395}]","4480.039999994915","instructions","159","697704","0.0-45.0","SS1619739862515","instructions","","","","","","","","","","","","","","","",""
"","2745.249999978114","survey-likert","160","700453","0.0-46.0","SS1619739862515","","","","","","","","","images/stimuli/spore_stims/simple_13_A_a.gif","","","","{""Q0"":0}","[0]","","",""
"","1687.7949999761768","survey-likert","161","702148","0.0-47.0","SS1619739862515","","","","","","","","","images/stimuli/spore_stims/simple_08_A_a.gif","","","","{""Q0"":0}","[0]","","",""
"","1712.6350000035018","survey-likert","162","703867","0.0-48.0","SS1619739862515","","","","","","","","","images/stimuli/spore_stims/simple_11_A_a.gif","","","","{""Q0"":0}","[0]","","",""
"","2510.154999967199","survey-likert","163","706380","0.0-49.0","SS1619739862515","","","","","","","","","images/stimuli/spore_stims/complex_16_A_a.gif","","","","{""Q0"":6}","[0]","","",""
"","2649.405000032857","survey-likert","164","709035","0.0-50.0","SS1619739862515","","","","","","","","","images/stimuli/spore_stims/complex_04_A_b.gif","","","","{""Q0"":4}","[0]","","",""
"","3555.434999987483","survey-likert","165","712594","0.0-51.0","SS1619739862515","","","","","","","","","images/stimuli/spore_stims/complex_14_A_b.gif","","","","{""Q0"":4}","[0]","","",""
"","6062.335000024177","survey-likert","166","718660","0.0-52.0","SS1619739862515","","","","","","","","","images/stimuli/spore_stims/simple_09_A_a.gif","","","","{""Q0"":0}","[0]","","",""
"","2867.9099999717437","survey-likert","167","721532","0.0-53.0","SS1619739862515","","","","","","","","","images/stimuli/spore_stims/complex_15_A_b.gif","","","","{""Q0"":5}","[0]","","",""
"","1982.0500000496395","survey-likert","168","723518","0.0-54.0","SS1619739862515","","","","","","","","","images/stimuli/spore_stims/complex_10_A_b.gif","","","","{""Q0"":4}","[0]","","",""
"","2183.774999983143","survey-likert","169","725706","0.0-55.0","SS1619739862515","","","","","","","","","images/stimuli/spore_stims/complex_08_A_a.gif","","","","{""Q0"":4}","[0]","","",""
"","3509.769999946002","survey-likert","170","729220","0.0-56.0","SS1619739862515","","","","","","","","","images/stimuli/spore_stims/simple_19_A_a.gif","","","","{""Q0"":2}","[0]","","",""
"","1992.3900000285357","survey-likert","171","731217","0.0-57.0","SS1619739862515","","","","","","","","","images/stimuli/spore_stims/simple_17_A_a.gif","","","","{""Q0"":1}","[0]","","",""
"[{""page_index"":0,""viewing_time"":2381.439999968279}]","2381.8650000030175","instructions","172","733601","0.0-58.0","SS1619739862515","instructions","","","","","","","","","","","","","","","",""
"","2673.514999973122","demog-age","173","736282","0.0-59.0","SS1619739862515","","","","","","","","","","","","","{""age"":""19""}","","","",""
"","3227.3500000010245","demog-ethnic-US","174","739517","0.0-60.0","SS1619739862515","","","","","","","","","","","","","{""ethnicity"":[""Hispanic or Latino""]}","[0]","","",""
"","25025.17000003718","demog-gender-and-education","175","764547","0.0-61.0","SS1619739862515","","","","","","","","","","","","","{""gender"":""Male"",""education"":""Some high school""}","[0,1]","","",""
"","50054.82999997912","survey-text","176","814608","0.0-62.0","SS1619739862515","feedback","","","","","","","","","","","","{""Q0"":""i didnt find any problem, not laggy at all""}","","","",""
"[{""page_index"":0,""viewing_time"":2221.114999963902}]","2221.5549999964423","instructions","177","816833","0.0-63.0","SS1619739862515","instructions","","","","","","","","","","","","","","","",""
