"view_history","rt","trial_type","trial_index","time_elapsed","internal_node_id","subject","stimulus_type","trial_stimulus","key_press","minimum_viewing_duration","trial_looking_time","block_deviant","block_background","exposure_type","stimulus","block_number","block_type","stimulus_displayed","responses","question_order","math_correct_answer","stimulus_left","stimulus_right"
"[{""page_index"":0,""viewing_time"":2915.6400000001668}]","2916.3699999999153","instructions","0","2919","0.0-0.0","SS1619740055836","","","","","","","","","","","","","","","","",""
"[{""page_index"":0,""viewing_time"":20063.775000000074},{""page_index"":1,""viewing_time"":8071.929999999615}]","28135.999999999964","instructions","1","33060","0.0-1.0","SS1619740055836","instructions","","","","","","","","","","","","","","","",""
"","11148.555000000219","sequential-stimulus-presentation-old","2","44713","0.0-2.0","SS1619740055836","","","40","500","11648.555000000219","null","null","self_paced","","","","","","","","",""
"","6816.1049999998795","sequential-stimulus-presentation-old","3","52046","0.0-3.0","SS1619740055836","","","40","500","7316.1049999998795","null","null","self_paced","","","","","","","","",""
"[{""page_index"":0,""viewing_time"":25908.130000000252}]","25908.59000000001","instructions","4","77957","0.0-4.0","SS1619740055836","instructions","","","","","","","","","","","","","","","",""
"","1662.1049999998795","sequential-stimulus-presentation-old","5","94621","0.0-5.0","SS1619740055836","","","40","500","2162.1049999998795","null","null","forced_long","","","","","","","","",""
"","4923.490000000136","sequential-stimulus-presentation-old","6","100062","0.0-6.0","SS1619740055836","","","40","500","5423.490000000136","null","null","forced_long","","","","","","","","",""
"[{""page_index"":0,""viewing_time"":5803.389999999592}]","5803.694999999614","instructions","7","105867","0.0-7.0","SS1619740055836","instructions","","","","","","","","","","","","","","","",""
"[{""page_index"":0,""viewing_time"":14034.284999999727},{""page_index"":1,""viewing_time"":22799.73500000006},{""page_index"":2,""viewing_time"":7987.950000000186},{""page_index"":3,""viewing_time"":4802.3499999999185},{""page_index"":4,""viewing_time"":1220.9749999997439}]","50845.60499999998","instructions","8","156715","0.0-8.0","SS1619740055836","instructions","","","","","","","","","","","","","","","",""
"","null","html-keyboard-response","9","157944","0.0-9.0-0.0","SS1619740055836","","","null","","","","","","<p><img src= images/blank.png width =""600"" height = ""600"" style=""position:fixed;top:50%; left:50%; transform: translate(-50%, -50%); border:5px solid black"">","","","","","","","",""
"","3273.3799999996263","sequential-stimulus-presentation-old","10","161725","0.0-9.0-1.0","SS1619740055836","trial","","40","500","3773.3799999996263","images/stimuli/spore_stims/simple_11_A_b.gif","images/stimuli/spore_stims/simple_12_A_a.gif","forced_short","","0","simple_dissimilar","images/stimuli/spore_stims/simple_12_A_a.gif","","","","",""
"","null","html-keyboard-response","11","162726","0.0-9.0-0.1","SS1619740055836","","","null","","","","","","<p><img src= images/blank.png width =""600"" height = ""600"" style=""position:fixed;top:50%; left:50%; transform: translate(-50%, -50%); border:5px solid black"">","","","","","","","",""
"","5732.070000000007","sequential-stimulus-presentation-old","12","168965","0.0-9.0-1.1","SS1619740055836","trial","","40","500","6232.070000000007","images/stimuli/spore_stims/simple_11_A_b.gif","images/stimuli/spore_stims/simple_12_A_a.gif","forced_short","","0","simple_dissimilar","images/stimuli/spore_stims/simple_12_A_a.gif","","","","",""
"","null","html-keyboard-response","13","170065","0.0-9.0-0.2","SS1619740055836","","","null","","","","","","<p><img src= images/blank.png width =""600"" height = ""600"" style=""position:fixed;top:50%; left:50%; transform: translate(-50%, -50%); border:5px solid black"">","","","","","","","",""
"","7880.8300000000745","sequential-stimulus-presentation-old","14","178453","0.0-9.0-1.2","SS1619740055836","trial","","40","500","8380.830000000075","images/stimuli/spore_stims/simple_11_A_b.gif","images/stimuli/spore_stims/simple_12_A_a.gif","forced_short","","0","simple_dissimilar","images/stimuli/spore_stims/simple_12_A_a.gif","","","","",""
"","null","html-keyboard-response","15","179578","0.0-9.0-0.3","SS1619740055836","","","null","","","","","","<p><img src= images/blank.png width =""600"" height = ""600"" style=""position:fixed;top:50%; left:50%; transform: translate(-50%, -50%); border:5px solid black"">","","","","","","","",""
"","3672.6599999997416","sequential-stimulus-presentation-old","16","183756","0.0-9.0-1.3","SS1619740055836","trial","","40","500","4172.659999999742","images/stimuli/spore_stims/simple_11_A_b.gif","images/stimuli/spore_stims/simple_12_A_a.gif","forced_short","","0","simple_dissimilar","images/stimuli/spore_stims/simple_12_A_a.gif","","","","",""
"","4626.615000000136","survey-multi-choice","17","188386","0.0-10.0","SS1619740055836","math_question","","","","","","","","","","","","{""Q0"":""9""}","[0]","9","",""
"","null","html-keyboard-response","18","189647","0.0-11.0-0.0","SS1619740055836","","","null","","","","","","<p><img src= images/blank.png width =""600"" height = ""600"" style=""position:fixed;top:50%; left:50%; transform: translate(-50%, -50%); border:5px solid black"">","","","","","","","",""
"","1835.4550000003655","sequential-stimulus-presentation-old","19","191989","0.0-11.0-1.0","SS1619740055836","trial","","40","500","2335.4550000003655","images/stimuli/spore_stims/complex_13_A_a.gif","images/stimuli/spore_stims/complex_11_A_b.gif","forced_short","","1","complex_dissimilar","images/stimuli/spore_stims/complex_11_A_b.gif","","","","",""
"","null","html-keyboard-response","20","192822","0.0-11.0-0.1","SS1619740055836","","","null","","","","","","<p><img src= images/blank.png width =""600"" height = ""600"" style=""position:fixed;top:50%; left:50%; transform: translate(-50%, -50%); border:5px solid black"">","","","","","","","",""
"","6529.170000000246","sequential-stimulus-presentation-old","21","199860","0.0-11.0-1.1","SS1619740055836","trial","","40","500","7029.170000000246","images/stimuli/spore_stims/complex_13_A_a.gif","images/stimuli/spore_stims/complex_11_A_b.gif","forced_short","","1","complex_dissimilar","images/stimuli/spore_stims/complex_11_A_b.gif","","","","",""
"","null","html-keyboard-response","22","201064","0.0-11.0-0.2","SS1619740055836","","","null","","","","","","<p><img src= images/blank.png width =""600"" height = ""600"" style=""position:fixed;top:50%; left:50%; transform: translate(-50%, -50%); border:5px solid black"">","","","","","","","",""
"","3650.454999999958","sequential-stimulus-presentation-old","23","205220","0.0-11.0-1.2","SS1619740055836","trial","","40","500","4150.454999999958","images/stimuli/spore_stims/complex_13_A_a.gif","images/stimuli/spore_stims/complex_11_A_b.gif","forced_short","","1","complex_dissimilar","images/stimuli/spore_stims/complex_11_A_b.gif","","","","",""
"","null","html-keyboard-response","24","206051","0.0-11.0-0.3","SS1619740055836","","","null","","","","","","<p><img src= images/blank.png width =""600"" height = ""600"" style=""position:fixed;top:50%; left:50%; transform: translate(-50%, -50%); border:5px solid black"">","","","","","","","",""
"","7733.700000000215","sequential-stimulus-presentation-old","25","214292","0.0-11.0-1.3","SS1619740055836","trial","","40","500","8233.700000000215","images/stimuli/spore_stims/complex_13_A_a.gif","images/stimuli/spore_stims/complex_11_A_b.gif","forced_short","","1","complex_dissimilar","images/stimuli/spore_stims/complex_11_A_b.gif","","","","",""
"","2835.994999999908","survey-multi-choice","26","217131","0.0-12.0","SS1619740055836","math_question","","","","","","","","","","","","{""Q0"":""16""}","[0]","16","",""
"","null","html-keyboard-response","27","218211","0.0-13.0-0.0","SS1619740055836","","","null","","","","","","<p><img src= images/blank.png width =""600"" height = ""600"" style=""position:fixed;top:50%; left:50%; transform: translate(-50%, -50%); border:5px solid black"">","","","","","","","",""
"","140.95999999972992","sequential-stimulus-presentation-old","28","233364","0.0-13.0-1.0","SS1619740055836","trial","","40","500","640.9599999997299","images/stimuli/spore_stims/complex_03_A_b.gif","images/stimuli/spore_stims/complex_14_A_a.gif","forced_long","","2","complex_dissimilar","images/stimuli/spore_stims/complex_14_A_a.gif","","","","",""
"","null","html-keyboard-response","29","234288","0.0-13.0-0.1","SS1619740055836","","","null","","","","","","<p><img src= images/blank.png width =""600"" height = ""600"" style=""position:fixed;top:50%; left:50%; transform: translate(-50%, -50%); border:5px solid black"">","","","","","","","",""
"","7615.1949999998615","sequential-stimulus-presentation-old","30","242412","0.0-13.0-1.1","SS1619740055836","trial","","40","500","8115.1949999998615","images/stimuli/spore_stims/complex_03_A_b.gif","images/stimuli/spore_stims/complex_14_A_a.gif","forced_long","","2","complex_dissimilar","images/stimuli/spore_stims/complex_14_A_a.gif","","","","",""
"","null","html-keyboard-response","31","243544","0.0-13.0-0.2","SS1619740055836","","","null","","","","","","<p><img src= images/blank.png width =""600"" height = ""600"" style=""position:fixed;top:50%; left:50%; transform: translate(-50%, -50%); border:5px solid black"">","","","","","","","",""
"","6258.235000000248","sequential-stimulus-presentation-old","32","250308","0.0-13.0-1.2","SS1619740055836","trial","","40","500","6758.235000000248","images/stimuli/spore_stims/complex_03_A_b.gif","images/stimuli/spore_stims/complex_14_A_a.gif","forced_long","","2","complex_dissimilar","images/stimuli/spore_stims/complex_14_A_a.gif","","","","",""
"","null","html-keyboard-response","33","251521","0.0-13.0-0.3","SS1619740055836","","","null","","","","","","<p><img src= images/blank.png width =""600"" height = ""600"" style=""position:fixed;top:50%; left:50%; transform: translate(-50%, -50%); border:5px solid black"">","","","","","","","",""
"","19024.12499999994","sequential-stimulus-presentation-old","34","271061","0.0-13.0-1.3","SS1619740055836","trial","","40","500","19524.12499999994","images/stimuli/spore_stims/complex_03_A_b.gif","images/stimuli/spore_stims/complex_14_A_a.gif","forced_long","","2","complex_dissimilar","images/stimuli/spore_stims/complex_14_A_a.gif","","","","",""
"","4220.704999999725","survey-multi-choice","35","275285","0.0-14.0","SS1619740055836","math_question","","","","","","","","","","","","{""Q0"":""7""}","[0]","7","",""
"","null","html-keyboard-response","36","276107","0.0-15.0-0.0","SS1619740055836","","","null","","","","","","<p><img src= images/blank.png width =""600"" height = ""600"" style=""position:fixed;top:50%; left:50%; transform: translate(-50%, -50%); border:5px solid black"">","","","","","","","",""
"","22835.30999999994","sequential-stimulus-presentation-old","37","299460","0.0-15.0-1.0","SS1619740055836","trial","","40","500","23335.30999999994","images/stimuli/spore_stims/complex_06_A_a.gif","images/stimuli/spore_stims/complex_15_A_b.gif","self_paced","","3","complex_dissimilar","images/stimuli/spore_stims/complex_15_A_b.gif","","","","",""
"","null","html-keyboard-response","38","300470","0.0-15.0-0.1","SS1619740055836","","","null","","","","","","<p><img src= images/blank.png width =""600"" height = ""600"" style=""position:fixed;top:50%; left:50%; transform: translate(-50%, -50%); border:5px solid black"">","","","","","","","",""
"","14780.250000000233","sequential-stimulus-presentation-old","39","315756","0.0-15.0-1.1","SS1619740055836","trial","","40","500","15280.250000000233","images/stimuli/spore_stims/complex_06_A_a.gif","images/stimuli/spore_stims/complex_15_A_b.gif","self_paced","","3","complex_dissimilar","images/stimuli/spore_stims/complex_15_A_b.gif","","","","",""
"","null","html-keyboard-response","40","316879","0.0-15.0-0.2","SS1619740055836","","","null","","","","","","<p><img src= images/blank.png width =""600"" height = ""600"" style=""position:fixed;top:50%; left:50%; transform: translate(-50%, -50%); border:5px solid black"">","","","","","","","",""
"","11880.310000000056","sequential-stimulus-presentation-old","41","329275","0.0-15.0-1.2","SS1619740055836","trial","","40","500","12380.310000000056","images/stimuli/spore_stims/complex_06_A_a.gif","images/stimuli/spore_stims/complex_15_A_b.gif","self_paced","","3","complex_dissimilar","images/stimuli/spore_stims/complex_06_A_a.gif","","","","",""
"","null","html-keyboard-response","42","330500","0.0-15.0-0.3","SS1619740055836","","","null","","","","","","<p><img src= images/blank.png width =""600"" height = ""600"" style=""position:fixed;top:50%; left:50%; transform: translate(-50%, -50%); border:5px solid black"">","","","","","","","",""
"","10549.58499999973","sequential-stimulus-presentation-old","43","341556","0.0-15.0-1.3","SS1619740055836","trial","","40","500","11049.58499999973","images/stimuli/spore_stims/complex_06_A_a.gif","images/stimuli/spore_stims/complex_15_A_b.gif","self_paced","","3","complex_dissimilar","images/stimuli/spore_stims/complex_15_A_b.gif","","","","",""
"","null","html-keyboard-response","44","342842","0.0-15.0-0.4","SS1619740055836","","","null","","","","","","<p><img src= images/blank.png width =""600"" height = ""600"" style=""position:fixed;top:50%; left:50%; transform: translate(-50%, -50%); border:5px solid black"">","","","","","","","",""
"","7862.815000000002","sequential-stimulus-presentation-old","45","351211","0.0-15.0-1.4","SS1619740055836","trial","","40","500","8362.815000000002","images/stimuli/spore_stims/complex_06_A_a.gif","images/stimuli/spore_stims/complex_15_A_b.gif","self_paced","","3","complex_dissimilar","images/stimuli/spore_stims/complex_06_A_a.gif","","","","",""
"","4597.109999999695","survey-multi-choice","46","355812","0.0-16.0","SS1619740055836","math_question","","","","","","","","","","","","{""Q0"":""15""}","[0]","15","",""
"","null","html-keyboard-response","47","357056","0.0-17.0-0.0","SS1619740055836","","","null","","","","","","<p><img src= images/blank.png width =""600"" height = ""600"" style=""position:fixed;top:50%; left:50%; transform: translate(-50%, -50%); border:5px solid black"">","","","","","","","",""
"","2787.5949999997974","sequential-stimulus-presentation-old","48","360363","0.0-17.0-1.0","SS1619740055836","trial","","40","500","3287.5949999997974","images/stimuli/spore_stims/complex_18_A_a.gif","images/stimuli/spore_stims/complex_13_A_b.gif","forced_short","","4","complex_dissimilar","images/stimuli/spore_stims/complex_13_A_b.gif","","","","",""
"","null","html-keyboard-response","49","361656","0.0-17.0-0.1","SS1619740055836","","","null","","","","","","<p><img src= images/blank.png width =""600"" height = ""600"" style=""position:fixed;top:50%; left:50%; transform: translate(-50%, -50%); border:5px solid black"">","","","","","","","",""
"","34525.96499999985","sequential-stimulus-presentation-old","50","396699","0.0-17.0-1.1","SS1619740055836","trial","","40","500","35025.96499999985","images/stimuli/spore_stims/complex_18_A_a.gif","images/stimuli/spore_stims/complex_13_A_b.gif","forced_short","","4","complex_dissimilar","images/stimuli/spore_stims/complex_18_A_a.gif","","","","",""
"","null","html-keyboard-response","51","397953","0.0-17.0-0.2","SS1619740055836","","","null","","","","","","<p><img src= images/blank.png width =""600"" height = ""600"" style=""position:fixed;top:50%; left:50%; transform: translate(-50%, -50%); border:5px solid black"">","","","","","","","",""
"","6735.000000000116","sequential-stimulus-presentation-old","52","405195","0.0-17.0-1.2","SS1619740055836","trial","","40","500","7235.000000000116","images/stimuli/spore_stims/complex_18_A_a.gif","images/stimuli/spore_stims/complex_13_A_b.gif","forced_short","","4","complex_dissimilar","images/stimuli/spore_stims/complex_13_A_b.gif","","","","",""
"","null","html-keyboard-response","53","406492","0.0-17.0-0.3","SS1619740055836","","","null","","","","","","<p><img src= images/blank.png width =""600"" height = ""600"" style=""position:fixed;top:50%; left:50%; transform: translate(-50%, -50%); border:5px solid black"">","","","","","","","",""
"","14971.759999999893","sequential-stimulus-presentation-old","54","421971","0.0-17.0-1.3","SS1619740055836","trial","","40","500","15471.759999999893","images/stimuli/spore_stims/complex_18_A_a.gif","images/stimuli/spore_stims/complex_13_A_b.gif","forced_short","","4","complex_dissimilar","images/stimuli/spore_stims/complex_13_A_b.gif","","","","",""
"","null","html-keyboard-response","55","422838","0.0-17.0-0.4","SS1619740055836","","","null","","","","","","<p><img src= images/blank.png width =""600"" height = ""600"" style=""position:fixed;top:50%; left:50%; transform: translate(-50%, -50%); border:5px solid black"">","","","","","","","",""
"","8928.390000000014","sequential-stimulus-presentation-old","56","432283","0.0-17.0-1.4","SS1619740055836","trial","","40","500","9428.390000000014","images/stimuli/spore_stims/complex_18_A_a.gif","images/stimuli/spore_stims/complex_13_A_b.gif","forced_short","","4","complex_dissimilar","images/stimuli/spore_stims/complex_13_A_b.gif","","","","",""
"","null","html-keyboard-response","57","433429","0.0-17.0-0.5","SS1619740055836","","","null","","","","","","<p><img src= images/blank.png width =""600"" height = ""600"" style=""position:fixed;top:50%; left:50%; transform: translate(-50%, -50%); border:5px solid black"">","","","","","","","",""
"","5231.055000000226","sequential-stimulus-presentation-old","58","439178","0.0-17.0-1.5","SS1619740055836","trial","","40","500","5731.055000000226","images/stimuli/spore_stims/complex_18_A_a.gif","images/stimuli/spore_stims/complex_13_A_b.gif","forced_short","","4","complex_dissimilar","images/stimuli/spore_stims/complex_13_A_b.gif","","","","",""
"","3855.285000000091","survey-multi-choice","59","443038","0.0-18.0","SS1619740055836","math_question","","","","","","","","","","","","{""Q0"":""11""}","[0]","11","",""
"","null","html-keyboard-response","60","443934","0.0-19.0-0.0","SS1619740055836","","","null","","","","","","<p><img src= images/blank.png width =""600"" height = ""600"" style=""position:fixed;top:50%; left:50%; transform: translate(-50%, -50%); border:5px solid black"">","","","","","","","",""
"","5798.08500000037","sequential-stimulus-presentation-old","61","450238","0.0-19.0-1.0","SS1619740055836","trial","","40","500","6298.08500000037","images/stimuli/spore_stims/simple_06_A_a.gif","images/stimuli/spore_stims/simple_20_A_b.gif","self_paced","","5","simple_dissimilar","images/stimuli/spore_stims/simple_20_A_b.gif","","","","",""
"","null","html-keyboard-response","62","451345","0.0-19.0-0.1","SS1619740055836","","","null","","","","","","<p><img src= images/blank.png width =""600"" height = ""600"" style=""position:fixed;top:50%; left:50%; transform: translate(-50%, -50%); border:5px solid black"">","","","","","","","",""
"","23517.789999999863","sequential-stimulus-presentation-old","63","475371","0.0-19.0-1.1","SS1619740055836","trial","","40","500","24017.789999999863","images/stimuli/spore_stims/simple_06_A_a.gif","images/stimuli/spore_stims/simple_20_A_b.gif","self_paced","","5","simple_dissimilar","images/stimuli/spore_stims/simple_20_A_b.gif","","","","",""
"","null","html-keyboard-response","64","476277","0.0-19.0-0.2","SS1619740055836","","","null","","","","","","<p><img src= images/blank.png width =""600"" height = ""600"" style=""position:fixed;top:50%; left:50%; transform: translate(-50%, -50%); border:5px solid black"">","","","","","","","",""
"","8744.879999999772","sequential-stimulus-presentation-old","65","485530","0.0-19.0-1.2","SS1619740055836","trial","","40","500","9244.879999999772","images/stimuli/spore_stims/simple_06_A_a.gif","images/stimuli/spore_stims/simple_20_A_b.gif","self_paced","","5","simple_dissimilar","images/stimuli/spore_stims/simple_20_A_b.gif","","","","",""
"","null","html-keyboard-response","66","486649","0.0-19.0-0.3","SS1619740055836","","","null","","","","","","<p><img src= images/blank.png width =""600"" height = ""600"" style=""position:fixed;top:50%; left:50%; transform: translate(-50%, -50%); border:5px solid black"">","","","","","","","",""
"","1665.3149999997695","sequential-stimulus-presentation-old","67","488834","0.0-19.0-1.3","SS1619740055836","trial","","40","500","2165.3149999997695","images/stimuli/spore_stims/simple_06_A_a.gif","images/stimuli/spore_stims/simple_20_A_b.gif","self_paced","","5","simple_dissimilar","images/stimuli/spore_stims/simple_20_A_b.gif","","","","",""
"","null","html-keyboard-response","68","490007","0.0-19.0-0.4","SS1619740055836","","","null","","","","","","<p><img src= images/blank.png width =""600"" height = ""600"" style=""position:fixed;top:50%; left:50%; transform: translate(-50%, -50%); border:5px solid black"">","","","","","","","",""
"","6160.754999999888","sequential-stimulus-presentation-old","69","496674","0.0-19.0-1.4","SS1619740055836","trial","","40","500","6660.754999999888","images/stimuli/spore_stims/simple_06_A_a.gif","images/stimuli/spore_stims/simple_20_A_b.gif","self_paced","","5","simple_dissimilar","images/stimuli/spore_stims/simple_20_A_b.gif","","","","",""
"","null","html-keyboard-response","70","497854","0.0-19.0-0.5","SS1619740055836","","","null","","","","","","<p><img src= images/blank.png width =""600"" height = ""600"" style=""position:fixed;top:50%; left:50%; transform: translate(-50%, -50%); border:5px solid black"">","","","","","","","",""
"","11202.945000000007","sequential-stimulus-presentation-old","71","509563","0.0-19.0-1.5","SS1619740055836","trial","","40","500","11702.945000000007","images/stimuli/spore_stims/simple_06_A_a.gif","images/stimuli/spore_stims/simple_20_A_b.gif","self_paced","","5","simple_dissimilar","images/stimuli/spore_stims/simple_20_A_b.gif","","","","",""
"","3789.3499999999767","survey-multi-choice","72","513356","0.0-20.0","SS1619740055836","math_question","","","","","","","","","","","","{""Q0"":""10""}","[0]","10","",""
"","null","html-keyboard-response","73","514320","0.0-21.0-0.0","SS1619740055836","","","null","","","","","","<p><img src= images/blank.png width =""600"" height = ""600"" style=""position:fixed;top:50%; left:50%; transform: translate(-50%, -50%); border:5px solid black"">","","","","","","","",""
"","6227.100000000093","sequential-stimulus-presentation-old","74","535554","0.0-21.0-1.0","SS1619740055836","trial","","40","500","6727.100000000093","images/stimuli/spore_stims/complex_02_A_b.gif","images/stimuli/spore_stims/complex_20_A_a.gif","forced_long","","6","complex_dissimilar","images/stimuli/spore_stims/complex_20_A_a.gif","","","","",""
"","null","html-keyboard-response","75","536766","0.0-21.0-0.1","SS1619740055836","","","null","","","","","","<p><img src= images/blank.png width =""600"" height = ""600"" style=""position:fixed;top:50%; left:50%; transform: translate(-50%, -50%); border:5px solid black"">","","","","","","","",""
"","11379.550000000047","sequential-stimulus-presentation-old","76","548650","0.0-21.0-1.1","SS1619740055836","trial","","40","500","11879.550000000047","images/stimuli/spore_stims/complex_02_A_b.gif","images/stimuli/spore_stims/complex_20_A_a.gif","forced_long","","6","complex_dissimilar","images/stimuli/spore_stims/complex_02_A_b.gif","","","","",""
"","null","html-keyboard-response","77","549818","0.0-21.0-0.2","SS1619740055836","","","null","","","","","","<p><img src= images/blank.png width =""600"" height = ""600"" style=""position:fixed;top:50%; left:50%; transform: translate(-50%, -50%); border:5px solid black"">","","","","","","","",""
"","2907.899999999674","sequential-stimulus-presentation-old","78","553234","0.0-21.0-1.2","SS1619740055836","trial","","40","500","3407.899999999674","images/stimuli/spore_stims/complex_02_A_b.gif","images/stimuli/spore_stims/complex_20_A_a.gif","forced_long","","6","complex_dissimilar","images/stimuli/spore_stims/complex_02_A_b.gif","","","","",""
"","null","html-keyboard-response","79","554195","0.0-21.0-0.3","SS1619740055836","","","null","","","","","","<p><img src= images/blank.png width =""600"" height = ""600"" style=""position:fixed;top:50%; left:50%; transform: translate(-50%, -50%); border:5px solid black"">","","","","","","","",""
"","4838.91500000027","sequential-stimulus-presentation-old","80","559554","0.0-21.0-1.3","SS1619740055836","trial","","40","500","5338.91500000027","images/stimuli/spore_stims/complex_02_A_b.gif","images/stimuli/spore_stims/complex_20_A_a.gif","forced_long","","6","complex_dissimilar","images/stimuli/spore_stims/complex_20_A_a.gif","","","","",""
"","5079.439999999944","survey-multi-choice","81","564638","0.0-22.0","SS1619740055836","math_question","","","","","","","","","","","","{""Q0"":""9""}","[0]","9","",""
"","null","html-keyboard-response","82","565542","0.0-23.0-0.0","SS1619740055836","","","null","","","","","","<p><img src= images/blank.png width =""600"" height = ""600"" style=""position:fixed;top:50%; left:50%; transform: translate(-50%, -50%); border:5px solid black"">","","","","","","","",""
"","6614.054999999935","sequential-stimulus-presentation-old","83","587170","0.0-23.0-1.0","SS1619740055836","trial","","40","500","7114.054999999935","images/stimuli/spore_stims/simple_17_A_b.gif","images/stimuli/spore_stims/simple_13_A_a.gif","forced_long","","7","simple_dissimilar","images/stimuli/spore_stims/simple_13_A_a.gif","","","","",""
"","null","html-keyboard-response","84","588156","0.0-23.0-0.1","SS1619740055836","","","null","","","","","","<p><img src= images/blank.png width =""600"" height = ""600"" style=""position:fixed;top:50%; left:50%; transform: translate(-50%, -50%); border:5px solid black"">","","","","","","","",""
"","3417.61500000034","sequential-stimulus-presentation-old","85","592081","0.0-23.0-1.1","SS1619740055836","trial","","40","500","3917.61500000034","images/stimuli/spore_stims/simple_17_A_b.gif","images/stimuli/spore_stims/simple_13_A_a.gif","forced_long","","7","simple_dissimilar","images/stimuli/spore_stims/simple_13_A_a.gif","","","","",""
"","null","html-keyboard-response","86","593260","0.0-23.0-0.2","SS1619740055836","","","null","","","","","","<p><img src= images/blank.png width =""600"" height = ""600"" style=""position:fixed;top:50%; left:50%; transform: translate(-50%, -50%); border:5px solid black"">","","","","","","","",""
"","6680.835000000196","sequential-stimulus-presentation-old","87","600451","0.0-23.0-1.2","SS1619740055836","trial","","40","500","7180.835000000196","images/stimuli/spore_stims/simple_17_A_b.gif","images/stimuli/spore_stims/simple_13_A_a.gif","forced_long","","7","simple_dissimilar","images/stimuli/spore_stims/simple_13_A_a.gif","","","","",""
"","null","html-keyboard-response","88","601507","0.0-23.0-0.3","SS1619740055836","","","null","","","","","","<p><img src= images/blank.png width =""600"" height = ""600"" style=""position:fixed;top:50%; left:50%; transform: translate(-50%, -50%); border:5px solid black"">","","","","","","","",""
"","3392.6200000001118","sequential-stimulus-presentation-old","89","605418","0.0-23.0-1.3","SS1619740055836","trial","","40","500","3892.6200000001118","images/stimuli/spore_stims/simple_17_A_b.gif","images/stimuli/spore_stims/simple_13_A_a.gif","forced_long","","7","simple_dissimilar","images/stimuli/spore_stims/simple_13_A_a.gif","","","","",""
"","null","html-keyboard-response","90","606547","0.0-23.0-0.4","SS1619740055836","","","null","","","","","","<p><img src= images/blank.png width =""600"" height = ""600"" style=""position:fixed;top:50%; left:50%; transform: translate(-50%, -50%); border:5px solid black"">","","","","","","","",""
"","8806.889999999898","sequential-stimulus-presentation-old","91","615865","0.0-23.0-1.4","SS1619740055836","trial","","40","500","9306.889999999898","images/stimuli/spore_stims/simple_17_A_b.gif","images/stimuli/spore_stims/simple_13_A_a.gif","forced_long","","7","simple_dissimilar","images/stimuli/spore_stims/simple_17_A_b.gif","","","","",""
"","3270.555000000051","survey-multi-choice","92","619141","0.0-24.0","SS1619740055836","math_question","","","","","","","","","","","","{""Q0"":""10""}","[0]","10","",""
"","null","html-keyboard-response","93","620126","0.0-25.0-0.0","SS1619740055836","","","null","","","","","","<p><img src= images/blank.png width =""600"" height = ""600"" style=""position:fixed;top:50%; left:50%; transform: translate(-50%, -50%); border:5px solid black"">","","","","","","","",""
"","1701.015000000014","sequential-stimulus-presentation-old","94","636849","0.0-25.0-1.0","SS1619740055836","trial","","40","500","2201.015000000014","images/stimuli/spore_stims/simple_05_A_b.gif","images/stimuli/spore_stims/simple_17_A_a.gif","forced_long","","8","simple_dissimilar","images/stimuli/spore_stims/simple_17_A_a.gif","","","","",""
"","null","html-keyboard-response","95","637792","0.0-25.0-0.1","SS1619740055836","","","null","","","","","","<p><img src= images/blank.png width =""600"" height = ""600"" style=""position:fixed;top:50%; left:50%; transform: translate(-50%, -50%); border:5px solid black"">","","","","","","","",""
"","10182.109999999753","sequential-stimulus-presentation-old","96","648481","0.0-25.0-1.1","SS1619740055836","trial","","40","500","10682.109999999753","images/stimuli/spore_stims/simple_05_A_b.gif","images/stimuli/spore_stims/simple_17_A_a.gif","forced_long","","8","simple_dissimilar","images/stimuli/spore_stims/simple_17_A_a.gif","","","","",""
"","null","html-keyboard-response","97","649304","0.0-25.0-0.2","SS1619740055836","","","null","","","","","","<p><img src= images/blank.png width =""600"" height = ""600"" style=""position:fixed;top:50%; left:50%; transform: translate(-50%, -50%); border:5px solid black"">","","","","","","","",""
"","11654.5","sequential-stimulus-presentation-old","98","661466","0.0-25.0-1.2","SS1619740055836","trial","","40","500","12154.5","images/stimuli/spore_stims/simple_05_A_b.gif","images/stimuli/spore_stims/simple_17_A_a.gif","forced_long","","8","simple_dissimilar","images/stimuli/spore_stims/simple_17_A_a.gif","","","","",""
"","null","html-keyboard-response","99","662524","0.0-25.0-0.3","SS1619740055836","","","null","","","","","","<p><img src= images/blank.png width =""600"" height = ""600"" style=""position:fixed;top:50%; left:50%; transform: translate(-50%, -50%); border:5px solid black"">","","","","","","","",""
"","6427.935000000172","sequential-stimulus-presentation-old","100","669464","0.0-25.0-1.3","SS1619740055836","trial","","40","500","6927.935000000172","images/stimuli/spore_stims/simple_05_A_b.gif","images/stimuli/spore_stims/simple_17_A_a.gif","forced_long","","8","simple_dissimilar","images/stimuli/spore_stims/simple_05_A_b.gif","","","","",""
"","4089.8600000001024","survey-multi-choice","101","673559","0.0-26.0","SS1619740055836","math_question","","","","","","","","","","","","{""Q0"":""10""}","[0]","10","",""
"","null","html-keyboard-response","102","674845","0.0-27.0-0.0","SS1619740055836","","","null","","","","","","<p><img src= images/blank.png width =""600"" height = ""600"" style=""position:fixed;top:50%; left:50%; transform: translate(-50%, -50%); border:5px solid black"">","","","","","","","",""
"","3862.5999999998603","sequential-stimulus-presentation-old","103","679216","0.0-27.0-1.0","SS1619740055836","trial","","40","500","4362.59999999986","images/stimuli/spore_stims/complex_03_A_a.gif","images/stimuli/spore_stims/complex_17_A_b.gif","self_paced","","9","complex_dissimilar","images/stimuli/spore_stims/complex_17_A_b.gif","","","","",""
"","null","html-keyboard-response","104","680290","0.0-27.0-0.1","SS1619740055836","","","null","","","","","","<p><img src= images/blank.png width =""600"" height = ""600"" style=""position:fixed;top:50%; left:50%; transform: translate(-50%, -50%); border:5px solid black"">","","","","","","","",""
"","3591.1300000002375","sequential-stimulus-presentation-old","105","684400","0.0-27.0-1.1","SS1619740055836","trial","","40","500","4091.1300000002375","images/stimuli/spore_stims/complex_03_A_a.gif","images/stimuli/spore_stims/complex_17_A_b.gif","self_paced","","9","complex_dissimilar","images/stimuli/spore_stims/complex_17_A_b.gif","","","","",""
"","null","html-keyboard-response","106","685633","0.0-27.0-0.2","SS1619740055836","","","null","","","","","","<p><img src= images/blank.png width =""600"" height = ""600"" style=""position:fixed;top:50%; left:50%; transform: translate(-50%, -50%); border:5px solid black"">","","","","","","","",""
"","6403.285000000265","sequential-stimulus-presentation-old","107","692543","0.0-27.0-1.2","SS1619740055836","trial","","40","500","6903.285000000265","images/stimuli/spore_stims/complex_03_A_a.gif","images/stimuli/spore_stims/complex_17_A_b.gif","self_paced","","9","complex_dissimilar","images/stimuli/spore_stims/complex_03_A_a.gif","","","","",""
"","null","html-keyboard-response","108","693394","0.0-27.0-0.3","SS1619740055836","","","null","","","","","","<p><img src= images/blank.png width =""600"" height = ""600"" style=""position:fixed;top:50%; left:50%; transform: translate(-50%, -50%); border:5px solid black"">","","","","","","","",""
"","5757.899999999674","sequential-stimulus-presentation-old","109","699672","0.0-27.0-1.3","SS1619740055836","trial","","40","500","6257.899999999674","images/stimuli/spore_stims/complex_03_A_a.gif","images/stimuli/spore_stims/complex_17_A_b.gif","self_paced","","9","complex_dissimilar","images/stimuli/spore_stims/complex_17_A_b.gif","","","","",""
"","4431.625000000116","survey-multi-choice","110","704108","0.0-28.0","SS1619740055836","math_question","","","","","","","","","","","","{""Q0"":""15""}","[0]","15","",""
"","null","html-keyboard-response","111","705021","0.0-29.0-0.0","SS1619740055836","","","null","","","","","","<p><img src= images/blank.png width =""600"" height = ""600"" style=""position:fixed;top:50%; left:50%; transform: translate(-50%, -50%); border:5px solid black"">","","","","","","","",""
"","5282.789999999804","sequential-stimulus-presentation-old","112","710816","0.0-29.0-1.0","SS1619740055836","trial","","40","500","5782.789999999804","images/stimuli/spore_stims/simple_15_A_b.gif","images/stimuli/spore_stims/simple_11_A_a.gif","self_paced","","10","simple_dissimilar","images/stimuli/spore_stims/simple_11_A_a.gif","","","","",""
"","null","html-keyboard-response","113","711773","0.0-29.0-0.1","SS1619740055836","","","null","","","","","","<p><img src= images/blank.png width =""600"" height = ""600"" style=""position:fixed;top:50%; left:50%; transform: translate(-50%, -50%); border:5px solid black"">","","","","","","","",""
"","1488.1199999999953","sequential-stimulus-presentation-old","114","713783","0.0-29.0-1.1","SS1619740055836","trial","","40","500","1988.1199999999953","images/stimuli/spore_stims/simple_15_A_b.gif","images/stimuli/spore_stims/simple_11_A_a.gif","self_paced","","10","simple_dissimilar","images/stimuli/spore_stims/simple_11_A_a.gif","","","","",""
"","null","html-keyboard-response","115","714633","0.0-29.0-0.2","SS1619740055836","","","null","","","","","","<p><img src= images/blank.png width =""600"" height = ""600"" style=""position:fixed;top:50%; left:50%; transform: translate(-50%, -50%); border:5px solid black"">","","","","","","","",""
"","1515.9800000000978","sequential-stimulus-presentation-old","116","716672","0.0-29.0-1.2","SS1619740055836","trial","","40","500","2015.9800000000978","images/stimuli/spore_stims/simple_15_A_b.gif","images/stimuli/spore_stims/simple_11_A_a.gif","self_paced","","10","simple_dissimilar","images/stimuli/spore_stims/simple_11_A_a.gif","","","","",""
"","null","html-keyboard-response","117","717803","0.0-29.0-0.3","SS1619740055836","","","null","","","","","","<p><img src= images/blank.png width =""600"" height = ""600"" style=""position:fixed;top:50%; left:50%; transform: translate(-50%, -50%); border:5px solid black"">","","","","","","","",""
"","626.2350000002189","sequential-stimulus-presentation-old","118","718944","0.0-29.0-1.3","SS1619740055836","trial","","40","500","1126.2350000002189","images/stimuli/spore_stims/simple_15_A_b.gif","images/stimuli/spore_stims/simple_11_A_a.gif","self_paced","","10","simple_dissimilar","images/stimuli/spore_stims/simple_11_A_a.gif","","","","",""
"","null","html-keyboard-response","119","719857","0.0-29.0-0.4","SS1619740055836","","","null","","","","","","<p><img src= images/blank.png width =""600"" height = ""600"" style=""position:fixed;top:50%; left:50%; transform: translate(-50%, -50%); border:5px solid black"">","","","","","","","",""
"","1209.2700000003679","sequential-stimulus-presentation-old","120","721584","0.0-29.0-1.4","SS1619740055836","trial","","40","500","1709.2700000003679","images/stimuli/spore_stims/simple_15_A_b.gif","images/stimuli/spore_stims/simple_11_A_a.gif","self_paced","","10","simple_dissimilar","images/stimuli/spore_stims/simple_11_A_a.gif","","","","",""
"","4964.630000000005","survey-multi-choice","121","726553","0.0-30.0","SS1619740055836","math_question","","","","","","","","","","","","{""Q0"":""14""}","[0]","14","",""
"","null","html-keyboard-response","122","727488","0.0-31.0-0.0","SS1619740055836","","","null","","","","","","<p><img src= images/blank.png width =""600"" height = ""600"" style=""position:fixed;top:50%; left:50%; transform: translate(-50%, -50%); border:5px solid black"">","","","","","","","",""
"","1292.9650000000838","sequential-stimulus-presentation-old","123","729286","0.0-31.0-1.0","SS1619740055836","trial","","40","500","1792.9650000000838","images/stimuli/spore_stims/simple_01_A_a.gif","images/stimuli/spore_stims/simple_09_A_b.gif","forced_short","","11","simple_dissimilar","images/stimuli/spore_stims/simple_09_A_b.gif","","","","",""
"","null","html-keyboard-response","124","730180","0.0-31.0-0.1","SS1619740055836","","","null","","","","","","<p><img src= images/blank.png width =""600"" height = ""600"" style=""position:fixed;top:50%; left:50%; transform: translate(-50%, -50%); border:5px solid black"">","","","","","","","",""
"","1938.219999999972","sequential-stimulus-presentation-old","125","732623","0.0-31.0-1.1","SS1619740055836","trial","","40","500","2438.219999999972","images/stimuli/spore_stims/simple_01_A_a.gif","images/stimuli/spore_stims/simple_09_A_b.gif","forced_short","","11","simple_dissimilar","images/stimuli/spore_stims/simple_09_A_b.gif","","","","",""
"","null","html-keyboard-response","126","733633","0.0-31.0-0.2","SS1619740055836","","","null","","","","","","<p><img src= images/blank.png width =""600"" height = ""600"" style=""position:fixed;top:50%; left:50%; transform: translate(-50%, -50%); border:5px solid black"">","","","","","","","",""
"","1460.044999999809","sequential-stimulus-presentation-old","127","735607","0.0-31.0-1.2","SS1619740055836","trial","","40","500","1960.044999999809","images/stimuli/spore_stims/simple_01_A_a.gif","images/stimuli/spore_stims/simple_09_A_b.gif","forced_short","","11","simple_dissimilar","images/stimuli/spore_stims/simple_09_A_b.gif","","","","",""
"","null","html-keyboard-response","128","736649","0.0-31.0-0.3","SS1619740055836","","","null","","","","","","<p><img src= images/blank.png width =""600"" height = ""600"" style=""position:fixed;top:50%; left:50%; transform: translate(-50%, -50%); border:5px solid black"">","","","","","","","",""
"","536.5949999999721","sequential-stimulus-presentation-old","129","737695","0.0-31.0-1.3","SS1619740055836","trial","","40","500","1036.594999999972","images/stimuli/spore_stims/simple_01_A_a.gif","images/stimuli/spore_stims/simple_09_A_b.gif","forced_short","","11","simple_dissimilar","images/stimuli/spore_stims/simple_09_A_b.gif","","","","",""
"","null","html-keyboard-response","130","738960","0.0-31.0-0.4","SS1619740055836","","","null","","","","","","<p><img src= images/blank.png width =""600"" height = ""600"" style=""position:fixed;top:50%; left:50%; transform: translate(-50%, -50%); border:5px solid black"">","","","","","","","",""
"","5595.4400000000605","sequential-stimulus-presentation-old","131","745063","0.0-31.0-1.4","SS1619740055836","trial","","40","500","6095.4400000000605","images/stimuli/spore_stims/simple_01_A_a.gif","images/stimuli/spore_stims/simple_09_A_b.gif","forced_short","","11","simple_dissimilar","images/stimuli/spore_stims/simple_01_A_a.gif","","","","",""
"[{""page_index"":0,""viewing_time"":8112.890000000363}]","8113.690000000177","instructions","132","753182","0.0-32.0","SS1619740055836","instructions","","","","","","","","","","","","","","","",""
"","22162.724999999627","survey-likert","133","775350","0.0-33.0","SS1619740055836","similarity_question","","","","","","","","","","","","{""Q0"":2}","[0]","","images/stimuli/spore_stims/complex_13_A_a.gif","images/stimuli/spore_stims/complex_11_A_b.gif"
"","6880.660000000265","survey-likert","134","782236","0.0-34.0","SS1619740055836","similarity_question","","","","","","","","","","","","{""Q0"":1}","[0]","","images/stimuli/spore_stims/complex_17_A_b.gif","images/stimuli/spore_stims/complex_03_A_a.gif"
"","5205.034999999916","survey-likert","135","787445","0.0-35.0","SS1619740055836","similarity_question","","","","","","","","","","","","{""Q0"":4}","[0]","","images/stimuli/spore_stims/simple_09_A_b.gif","images/stimuli/spore_stims/simple_01_A_a.gif"
"","3746.520000000135","survey-likert","136","791197","0.0-36.0","SS1619740055836","similarity_question","","","","","","","","","","","","{""Q0"":0}","[0]","","images/stimuli/spore_stims/complex_03_A_b.gif","images/stimuli/spore_stims/complex_14_A_a.gif"
"","6979.8849999997765","survey-likert","137","798182","0.0-37.0","SS1619740055836","similarity_question","","","","","","","","","","","","{""Q0"":5}","[0]","","images/stimuli/spore_stims/simple_06_A_a.gif","images/stimuli/spore_stims/simple_20_A_b.gif"
"","8160.270000000368","survey-likert","138","806347","0.0-38.0","SS1619740055836","similarity_question","","","","","","","","","","","","{""Q0"":5}","[0]","","images/stimuli/spore_stims/simple_17_A_b.gif","images/stimuli/spore_stims/simple_13_A_a.gif"
"","10572.20000000007","survey-likert","139","816924","0.0-39.0","SS1619740055836","similarity_question","","","","","","","","","","","","{""Q0"":5}","[0]","","images/stimuli/spore_stims/simple_17_A_a.gif","images/stimuli/spore_stims/simple_05_A_b.gif"
"","11880.899999999674","survey-likert","140","828810","0.0-40.0","SS1619740055836","similarity_question","","","","","","","","","","","","{""Q0"":0}","[0]","","images/stimuli/spore_stims/complex_02_A_b.gif","images/stimuli/spore_stims/complex_20_A_a.gif"
"","3015.7100000001956","survey-likert","141","831830","0.0-41.0","SS1619740055836","similarity_question","","","","","","","","","","","","{""Q0"":3}","[0]","","images/stimuli/spore_stims/simple_11_A_b.gif","images/stimuli/spore_stims/simple_12_A_a.gif"
"","6639.999999999884","survey-likert","142","838475","0.0-42.0","SS1619740055836","similarity_question","","","","","","","","","","","","{""Q0"":3}","[0]","","images/stimuli/spore_stims/simple_11_A_a.gif","images/stimuli/spore_stims/simple_15_A_b.gif"
"","3723.86500000034","survey-likert","143","842204","0.0-43.0","SS1619740055836","similarity_question","","","","","","","","","","","","{""Q0"":4}","[0]","","images/stimuli/spore_stims/complex_06_A_a.gif","images/stimuli/spore_stims/complex_15_A_b.gif"
"","4608.879999999772","survey-likert","144","846818","0.0-44.0","SS1619740055836","similarity_question","","","","","","","","","","","","{""Q0"":1}","[0]","","images/stimuli/spore_stims/complex_18_A_a.gif","images/stimuli/spore_stims/complex_13_A_b.gif"
"[{""page_index"":0,""viewing_time"":5813.484999999637}]","5814.265000000014","instructions","145","852636","0.0-45.0","SS1619740055836","instructions","","","","","","","","","","","","","","","",""
"","8168.31500000041","survey-likert","146","860808","0.0-46.0","SS1619740055836","","","","","","","","","images/stimuli/spore_stims/simple_01_A_a.gif","","","","{""Q0"":1}","[0]","","",""
"","3361.25","survey-likert","147","864174","0.0-47.0","SS1619740055836","","","","","","","","","images/stimuli/spore_stims/simple_11_A_b.gif","","","","{""Q0"":2}","[0]","","",""
"","4982.914999999572","survey-likert","148","869161","0.0-48.0","SS1619740055836","","","","","","","","","images/stimuli/spore_stims/simple_17_A_a.gif","","","","{""Q0"":2}","[0]","","",""
"","4082.4250000000466","survey-likert","149","873248","0.0-49.0","SS1619740055836","","","","","","","","","images/stimuli/spore_stims/simple_15_A_b.gif","","","","{""Q0"":0}","[0]","","",""
"","3408.159999999916","survey-likert","150","876661","0.0-50.0","SS1619740055836","","","","","","","","","images/stimuli/spore_stims/complex_14_A_a.gif","","","","{""Q0"":6}","[0]","","",""
"","5410.140000000014","survey-likert","151","882076","0.0-51.0","SS1619740055836","","","","","","","","","images/stimuli/spore_stims/complex_11_A_b.gif","","","","{""Q0"":5}","[0]","","",""
"","3949.985000000219","survey-likert","152","886031","0.0-52.0","SS1619740055836","","","","","","","","","images/stimuli/spore_stims/complex_03_A_a.gif","","","","{""Q0"":6}","[0]","","",""
"","2660.155000000028","survey-likert","153","888695","0.0-53.0","SS1619740055836","","","","","","","","","images/stimuli/spore_stims/complex_15_A_b.gif","","","","{""Q0"":5}","[0]","","",""
"","2950.894999999902","survey-likert","154","891650","0.0-54.0","SS1619740055836","","","","","","","","","images/stimuli/spore_stims/simple_17_A_b.gif","","","","{""Q0"":2}","[0]","","",""
"","2879.9249999998137","survey-likert","155","894535","0.0-55.0","SS1619740055836","","","","","","","","","images/stimuli/spore_stims/complex_02_A_b.gif","","","","{""Q0"":5}","[0]","","",""
"","2846.804999999702","survey-likert","156","897386","0.0-56.0","SS1619740055836","","","","","","","","","images/stimuli/spore_stims/simple_06_A_a.gif","","","","{""Q0"":0}","[0]","","",""
"","2858.204999999958","survey-likert","157","900249","0.0-57.0","SS1619740055836","","","","","","","","","images/stimuli/spore_stims/complex_13_A_b.gif","","","","{""Q0"":4}","[0]","","",""
"[{""page_index"":0,""viewing_time"":3807.2849999997998}]","3807.774999999674","instructions","158","904060","0.0-58.0","SS1619740055836","instructions","","","","","","","","","","","","","","","",""
"","2341.269999999902","demog-age","159","906408","0.0-59.0","SS1619740055836","","","","","","","","","","","","","{""age"":""20""}","","","",""
"","15859.115000000107","demog-ethnic-US","160","922276","0.0-60.0","SS1619740055836","","","","","","","","","","","","","{""ethnicity"":[""White""]}","[0]","","",""
"","15444.775000000373","demog-gender-and-education","161","937726","0.0-61.0","SS1619740055836","","","","","","","","","","","","","{""gender"":""Male"",""education"":""Associate Degree/Technical certification""}","[0,1]","","",""
"","43570.185000000056","survey-text","162","981304","0.0-62.0","SS1619740055836","feedback","","","","","","","","","","","","{""Q0"":""all animations are fine""}","","","",""
"[{""page_index"":0,""viewing_time"":2418.050000000163}]","2418.4049999999115","instructions","163","983725","0.0-63.0","SS1619740055836","instructions","","","","","","","","","","","","","","","",""
