"view_history","rt","trial_type","trial_index","time_elapsed","internal_node_id","subject","stimulus_type","trial_stimulus","key_press","minimum_viewing_duration","trial_looking_time","block_deviant","block_background","exposure_type","stimulus","block_number","block_type","stimulus_displayed","responses","question_order","math_correct_answer","stimulus_left","stimulus_right"
"[{""page_index"":0,""viewing_time"":5877.619999999297}]","5878.09500000003","instructions","0","5879","0.0-0.0","SS1619740082158","","","","","","","","","","","","","","","","",""
"[{""page_index"":0,""viewing_time"":17343.254999999772},{""page_index"":1,""viewing_time"":10436.040000000503}]","27779.600000001665","instructions","1","35674","0.0-1.0","SS1619740082158","instructions","","","","","","","","","","","","","","","",""
"","13451.520000002347","sequential-stimulus-presentation-old","2","49629","0.0-2.0","SS1619740082158","","","40","500","13951.520000002347","null","null","self_paced","","","","","","","","",""
"","8304.275000002235","sequential-stimulus-presentation-old","3","58435","0.0-3.0","SS1619740082158","","","40","500","8804.275000002235","null","null","self_paced","","","","","","","","",""
"[{""page_index"":0,""viewing_time"":26352.17000000557}]","26352.43000000628","instructions","4","84788","0.0-4.0","SS1619740082158","instructions","","","","","","","","","","","","","","","",""
"","1190.5299999998533","sequential-stimulus-presentation-old","5","100981","0.0-5.0","SS1619740082158","","","40","500","1690.5299999998533","null","null","forced_long","","","","","","","","",""
"","1806.5649999989546","sequential-stimulus-presentation-old","6","103291","0.0-6.0","SS1619740082158","","","40","500","2306.5649999989546","null","null","forced_long","","","","","","","","",""
"[{""page_index"":0,""viewing_time"":5664.794999996957}]","5665.069999995467","instructions","7","108957","0.0-7.0","SS1619740082158","instructions","","","","","","","","","","","","","","","",""
"[{""page_index"":0,""viewing_time"":14940.324999995937},{""page_index"":1,""viewing_time"":10316.180000001623},{""page_index"":2,""viewing_time"":8093.6450000008335},{""page_index"":3,""viewing_time"":2410.2599999969243},{""page_index"":4,""viewing_time"":1595.7150000031106}]","37356.434999994235","instructions","8","146314","0.0-8.0","SS1619740082158","instructions","","","","","","","","","","","","","","","",""
"","null","html-keyboard-response","9","147307","0.0-9.0-0.0","SS1619740082158","","","null","","","","","","<p><img src= images/blank.png width =""600"" height = ""600"" style=""position:fixed;top:50%; left:50%; transform: translate(-50%, -50%); border:5px solid black"">","","","","","","","",""
"","1008.719999997993","sequential-stimulus-presentation-old","10","148819","0.0-9.0-1.0","SS1619740082158","trial","","40","500","1508.719999997993","images/stimuli/spore_stims/simple_16_A_a.gif","images/stimuli/spore_stims/simple_18_A_b.gif","forced_short","","0","simple_dissimilar","images/stimuli/spore_stims/simple_18_A_b.gif","","","","",""
"","null","html-keyboard-response","11","149769","0.0-9.0-0.1","SS1619740082158","","","null","","","","","","<p><img src= images/blank.png width =""600"" height = ""600"" style=""position:fixed;top:50%; left:50%; transform: translate(-50%, -50%); border:5px solid black"">","","","","","","","",""
"","42.789999999513384","sequential-stimulus-presentation-old","12","150315","0.0-9.0-1.1","SS1619740082158","trial","","40","500","542.7899999995134","images/stimuli/spore_stims/simple_16_A_a.gif","images/stimuli/spore_stims/simple_18_A_b.gif","forced_short","","0","simple_dissimilar","images/stimuli/spore_stims/simple_18_A_b.gif","","","","",""
"","null","html-keyboard-response","13","151259","0.0-9.0-0.2","SS1619740082158","","","null","","","","","","<p><img src= images/blank.png width =""600"" height = ""600"" style=""position:fixed;top:50%; left:50%; transform: translate(-50%, -50%); border:5px solid black"">","","","","","","","",""
"","23194.985000001907","sequential-stimulus-presentation-old","14","174956","0.0-9.0-1.2","SS1619740082158","trial","","40","500","23694.985000001907","images/stimuli/spore_stims/simple_16_A_a.gif","images/stimuli/spore_stims/simple_18_A_b.gif","forced_short","","0","simple_dissimilar","images/stimuli/spore_stims/simple_18_A_b.gif","","","","",""
"","null","html-keyboard-response","15","176231","0.0-9.0-0.3","SS1619740082158","","","null","","","","","","<p><img src= images/blank.png width =""600"" height = ""600"" style=""position:fixed;top:50%; left:50%; transform: translate(-50%, -50%); border:5px solid black"">","","","","","","","",""
"","27933.499999999185","sequential-stimulus-presentation-old","16","204668","0.0-9.0-1.3","SS1619740082158","trial","","40","500","28433.499999999185","images/stimuli/spore_stims/simple_16_A_a.gif","images/stimuli/spore_stims/simple_18_A_b.gif","forced_short","","0","simple_dissimilar","images/stimuli/spore_stims/simple_18_A_b.gif","","","","",""
"","null","html-keyboard-response","17","205868","0.0-9.0-0.4","SS1619740082158","","","null","","","","","","<p><img src= images/blank.png width =""600"" height = ""600"" style=""position:fixed;top:50%; left:50%; transform: translate(-50%, -50%); border:5px solid black"">","","","","","","","",""
"","1944.92000000173","sequential-stimulus-presentation-old","18","208322","0.0-9.0-1.4","SS1619740082158","trial","","40","500","2444.92000000173","images/stimuli/spore_stims/simple_16_A_a.gif","images/stimuli/spore_stims/simple_18_A_b.gif","forced_short","","0","simple_dissimilar","images/stimuli/spore_stims/simple_18_A_b.gif","","","","",""
"","null","html-keyboard-response","19","209277","0.0-9.0-0.5","SS1619740082158","","","null","","","","","","<p><img src= images/blank.png width =""600"" height = ""600"" style=""position:fixed;top:50%; left:50%; transform: translate(-50%, -50%); border:5px solid black"">","","","","","","","",""
"","2535.0499999985914","sequential-stimulus-presentation-old","20","212315","0.0-9.0-1.5","SS1619740082158","trial","","40","500","3035.0499999985914","images/stimuli/spore_stims/simple_16_A_a.gif","images/stimuli/spore_stims/simple_18_A_b.gif","forced_short","","0","simple_dissimilar","images/stimuli/spore_stims/simple_18_A_b.gif","","","","",""
"","4792.099999998754","survey-multi-choice","21","217108","0.0-10.0","SS1619740082158","math_question","","","","","","","","","","","","{""Q0"":""14""}","[0]","14","",""
"","null","html-keyboard-response","22","218350","0.0-11.0-0.0","SS1619740082158","","","null","","","","","","<p><img src= images/blank.png width =""600"" height = ""600"" style=""position:fixed;top:50%; left:50%; transform: translate(-50%, -50%); border:5px solid black"">","","","","","","","",""
"","1084.6200000014505","sequential-stimulus-presentation-old","23","219938","0.0-11.0-1.0","SS1619740082158","trial","","40","500","1584.6200000014505","images/stimuli/spore_stims/simple_05_A_b.gif","images/stimuli/spore_stims/simple_10_A_a.gif","forced_short","","1","simple_dissimilar","images/stimuli/spore_stims/simple_10_A_a.gif","","","","",""
"","null","html-keyboard-response","24","221240","0.0-11.0-0.1","SS1619740082158","","","null","","","","","","<p><img src= images/blank.png width =""600"" height = ""600"" style=""position:fixed;top:50%; left:50%; transform: translate(-50%, -50%); border:5px solid black"">","","","","","","","",""
"","14333.63499999541","sequential-stimulus-presentation-old","25","236077","0.0-11.0-1.1","SS1619740082158","trial","","40","500","14833.63499999541","images/stimuli/spore_stims/simple_05_A_b.gif","images/stimuli/spore_stims/simple_10_A_a.gif","forced_short","","1","simple_dissimilar","images/stimuli/spore_stims/simple_10_A_a.gif","","","","",""
"","null","html-keyboard-response","26","237164","0.0-11.0-0.2","SS1619740082158","","","null","","","","","","<p><img src= images/blank.png width =""600"" height = ""600"" style=""position:fixed;top:50%; left:50%; transform: translate(-50%, -50%); border:5px solid black"">","","","","","","","",""
"","8546.319999994012","sequential-stimulus-presentation-old","27","246212","0.0-11.0-1.2","SS1619740082158","trial","","40","500","9046.319999994012","images/stimuli/spore_stims/simple_05_A_b.gif","images/stimuli/spore_stims/simple_10_A_a.gif","forced_short","","1","simple_dissimilar","images/stimuli/spore_stims/simple_10_A_a.gif","","","","",""
"","null","html-keyboard-response","28","247421","0.0-11.0-0.3","SS1619740082158","","","null","","","","","","<p><img src= images/blank.png width =""600"" height = ""600"" style=""position:fixed;top:50%; left:50%; transform: translate(-50%, -50%); border:5px solid black"">","","","","","","","",""
"","4709.869999998773","sequential-stimulus-presentation-old","29","252635","0.0-11.0-1.3","SS1619740082158","trial","","40","500","5209.869999998773","images/stimuli/spore_stims/simple_05_A_b.gif","images/stimuli/spore_stims/simple_10_A_a.gif","forced_short","","1","simple_dissimilar","images/stimuli/spore_stims/simple_10_A_a.gif","","","","",""
"","3340.0450000044657","survey-multi-choice","30","255976","0.0-12.0","SS1619740082158","math_question","","","","","","","","","","","","{""Q0"":""5""}","[0]","5","",""
"","null","html-keyboard-response","31","256907","0.0-13.0-0.0","SS1619740082158","","","null","","","","","","<p><img src= images/blank.png width =""600"" height = ""600"" style=""position:fixed;top:50%; left:50%; transform: translate(-50%, -50%); border:5px solid black"">","","","","","","","",""
"","429.63500000041677","sequential-stimulus-presentation-old","32","272339","0.0-13.0-1.0","SS1619740082158","trial","","40","500","929.6350000004168","images/stimuli/spore_stims/simple_10_A_b.gif","images/stimuli/spore_stims/simple_13_A_a.gif","forced_long","","2","simple_dissimilar","images/stimuli/spore_stims/simple_13_A_a.gif","","","","",""
"","null","html-keyboard-response","33","273305","0.0-13.0-0.1","SS1619740082158","","","null","","","","","","<p><img src= images/blank.png width =""600"" height = ""600"" style=""position:fixed;top:50%; left:50%; transform: translate(-50%, -50%); border:5px solid black"">","","","","","","","",""
"","16619.834999997693","sequential-stimulus-presentation-old","34","290428","0.0-13.0-1.1","SS1619740082158","trial","","40","500","17119.834999997693","images/stimuli/spore_stims/simple_10_A_b.gif","images/stimuli/spore_stims/simple_13_A_a.gif","forced_long","","2","simple_dissimilar","images/stimuli/spore_stims/simple_13_A_a.gif","","","","",""
"","null","html-keyboard-response","35","291358","0.0-13.0-0.2","SS1619740082158","","","null","","","","","","<p><img src= images/blank.png width =""600"" height = ""600"" style=""position:fixed;top:50%; left:50%; transform: translate(-50%, -50%); border:5px solid black"">","","","","","","","",""
"","5215.270000000601","sequential-stimulus-presentation-old","36","297091","0.0-13.0-1.2","SS1619740082158","trial","","40","500","5715.270000000601","images/stimuli/spore_stims/simple_10_A_b.gif","images/stimuli/spore_stims/simple_13_A_a.gif","forced_long","","2","simple_dissimilar","images/stimuli/spore_stims/simple_13_A_a.gif","","","","",""
"","null","html-keyboard-response","37","298058","0.0-13.0-0.3","SS1619740082158","","","null","","","","","","<p><img src= images/blank.png width =""600"" height = ""600"" style=""position:fixed;top:50%; left:50%; transform: translate(-50%, -50%); border:5px solid black"">","","","","","","","",""
"","5644.729999999981","sequential-stimulus-presentation-old","38","304205","0.0-13.0-1.3","SS1619740082158","trial","","40","500","6144.729999999981","images/stimuli/spore_stims/simple_10_A_b.gif","images/stimuli/spore_stims/simple_13_A_a.gif","forced_long","","2","simple_dissimilar","images/stimuli/spore_stims/simple_13_A_a.gif","","","","",""
"","null","html-keyboard-response","39","305173","0.0-13.0-0.4","SS1619740082158","","","null","","","","","","<p><img src= images/blank.png width =""600"" height = ""600"" style=""position:fixed;top:50%; left:50%; transform: translate(-50%, -50%); border:5px solid black"">","","","","","","","",""
"","5638.565000001108","sequential-stimulus-presentation-old","40","311315","0.0-13.0-1.4","SS1619740082158","trial","","40","500","6138.565000001108","images/stimuli/spore_stims/simple_10_A_b.gif","images/stimuli/spore_stims/simple_13_A_a.gif","forced_long","","2","simple_dissimilar","images/stimuli/spore_stims/simple_13_A_a.gif","","","","",""
"","null","html-keyboard-response","41","312182","0.0-13.0-0.5","SS1619740082158","","","null","","","","","","<p><img src= images/blank.png width =""600"" height = ""600"" style=""position:fixed;top:50%; left:50%; transform: translate(-50%, -50%); border:5px solid black"">","","","","","","","",""
"","4036.8000000016764","sequential-stimulus-presentation-old","42","316733","0.0-13.0-1.5","SS1619740082158","trial","","40","500","4536.800000001676","images/stimuli/spore_stims/simple_10_A_b.gif","images/stimuli/spore_stims/simple_13_A_a.gif","forced_long","","2","simple_dissimilar","images/stimuli/spore_stims/simple_13_A_a.gif","","","","",""
"","7947.3999999972875","survey-multi-choice","43","324682","0.0-14.0","SS1619740082158","math_question","","","","","","","","","","","","{""Q0"":""11""}","[0]","11","",""
"","null","html-keyboard-response","44","325578","0.0-15.0-0.0","SS1619740082158","","","null","","","","","","<p><img src= images/blank.png width =""600"" height = ""600"" style=""position:fixed;top:50%; left:50%; transform: translate(-50%, -50%); border:5px solid black"">","","","","","","","",""
"","639.3549999993411","sequential-stimulus-presentation-old","45","341220","0.0-15.0-1.0","SS1619740082158","trial","","40","500","1139.354999999341","images/stimuli/spore_stims/complex_07_A_b.gif","images/stimuli/spore_stims/complex_08_A_a.gif","forced_long","","3","complex_dissimilar","images/stimuli/spore_stims/complex_08_A_a.gif","","","","",""
"","null","html-keyboard-response","46","342194","0.0-15.0-0.1","SS1619740082158","","","null","","","","","","<p><img src= images/blank.png width =""600"" height = ""600"" style=""position:fixed;top:50%; left:50%; transform: translate(-50%, -50%); border:5px solid black"">","","","","","","","",""
"","11394.545000002836","sequential-stimulus-presentation-old","47","354092","0.0-15.0-1.1","SS1619740082158","trial","","40","500","11894.545000002836","images/stimuli/spore_stims/complex_07_A_b.gif","images/stimuli/spore_stims/complex_08_A_a.gif","forced_long","","3","complex_dissimilar","images/stimuli/spore_stims/complex_08_A_a.gif","","","","",""
"","null","html-keyboard-response","48","354981","0.0-15.0-0.2","SS1619740082158","","","null","","","","","","<p><img src= images/blank.png width =""600"" height = ""600"" style=""position:fixed;top:50%; left:50%; transform: translate(-50%, -50%); border:5px solid black"">","","","","","","","",""
"","5542.770000000019","sequential-stimulus-presentation-old","49","361026","0.0-15.0-1.2","SS1619740082158","trial","","40","500","6042.770000000019","images/stimuli/spore_stims/complex_07_A_b.gif","images/stimuli/spore_stims/complex_08_A_a.gif","forced_long","","3","complex_dissimilar","images/stimuli/spore_stims/complex_08_A_a.gif","","","","",""
"","null","html-keyboard-response","50","362030","0.0-15.0-0.3","SS1619740082158","","","null","","","","","","<p><img src= images/blank.png width =""600"" height = ""600"" style=""position:fixed;top:50%; left:50%; transform: translate(-50%, -50%); border:5px solid black"">","","","","","","","",""
"","5815.094999998109","sequential-stimulus-presentation-old","51","368348","0.0-15.0-1.3","SS1619740082158","trial","","40","500","6315.094999998109","images/stimuli/spore_stims/complex_07_A_b.gif","images/stimuli/spore_stims/complex_08_A_a.gif","forced_long","","3","complex_dissimilar","images/stimuli/spore_stims/complex_08_A_a.gif","","","","",""
"","null","html-keyboard-response","52","369416","0.0-15.0-0.4","SS1619740082158","","","null","","","","","","<p><img src= images/blank.png width =""600"" height = ""600"" style=""position:fixed;top:50%; left:50%; transform: translate(-50%, -50%); border:5px solid black"">","","","","","","","",""
"","3499.0099999995437","sequential-stimulus-presentation-old","53","373418","0.0-15.0-1.4","SS1619740082158","trial","","40","500","3999.0099999995437","images/stimuli/spore_stims/complex_07_A_b.gif","images/stimuli/spore_stims/complex_08_A_a.gif","forced_long","","3","complex_dissimilar","images/stimuli/spore_stims/complex_08_A_a.gif","","","","",""
"","null","html-keyboard-response","54","374327","0.0-15.0-0.5","SS1619740082158","","","null","","","","","","<p><img src= images/blank.png width =""600"" height = ""600"" style=""position:fixed;top:50%; left:50%; transform: translate(-50%, -50%); border:5px solid black"">","","","","","","","",""
"","6990.344999998342","sequential-stimulus-presentation-old","55","381820","0.0-15.0-1.5","SS1619740082158","trial","","40","500","7490.344999998342","images/stimuli/spore_stims/complex_07_A_b.gif","images/stimuli/spore_stims/complex_08_A_a.gif","forced_long","","3","complex_dissimilar","images/stimuli/spore_stims/complex_07_A_b.gif","","","","",""
"","4576.124999999593","survey-multi-choice","56","386398","0.0-16.0","SS1619740082158","math_question","","","","","","","","","","","","{""Q0"":""11""}","[0]","11","",""
"","null","html-keyboard-response","57","387432","0.0-17.0-0.0","SS1619740082158","","","null","","","","","","<p><img src= images/blank.png width =""600"" height = ""600"" style=""position:fixed;top:50%; left:50%; transform: translate(-50%, -50%); border:5px solid black"">","","","","","","","",""
"","7151.920000003884","sequential-stimulus-presentation-old","58","409586","0.0-17.0-1.0","SS1619740082158","trial","","40","500","7651.920000003884","images/stimuli/spore_stims/simple_18_A_a.gif","images/stimuli/spore_stims/simple_20_A_b.gif","forced_long","","4","simple_dissimilar","images/stimuli/spore_stims/simple_20_A_b.gif","","","","",""
"","null","html-keyboard-response","59","410404","0.0-17.0-0.1","SS1619740082158","","","null","","","","","","<p><img src= images/blank.png width =""600"" height = ""600"" style=""position:fixed;top:50%; left:50%; transform: translate(-50%, -50%); border:5px solid black"">","","","","","","","",""
"","15495.790000000852","sequential-stimulus-presentation-old","60","426403","0.0-17.0-1.1","SS1619740082158","trial","","40","500","15995.790000000852","images/stimuli/spore_stims/simple_18_A_a.gif","images/stimuli/spore_stims/simple_20_A_b.gif","forced_long","","4","simple_dissimilar","images/stimuli/spore_stims/simple_20_A_b.gif","","","","",""
"","null","html-keyboard-response","61","427511","0.0-17.0-0.2","SS1619740082158","","","null","","","","","","<p><img src= images/blank.png width =""600"" height = ""600"" style=""position:fixed;top:50%; left:50%; transform: translate(-50%, -50%); border:5px solid black"">","","","","","","","",""
"","7859.400000001187","sequential-stimulus-presentation-old","62","435874","0.0-17.0-1.2","SS1619740082158","trial","","40","500","8359.400000001187","images/stimuli/spore_stims/simple_18_A_a.gif","images/stimuli/spore_stims/simple_20_A_b.gif","forced_long","","4","simple_dissimilar","images/stimuli/spore_stims/simple_18_A_a.gif","","","","",""
"","null","html-keyboard-response","63","436825","0.0-17.0-0.3","SS1619740082158","","","null","","","","","","<p><img src= images/blank.png width =""600"" height = ""600"" style=""position:fixed;top:50%; left:50%; transform: translate(-50%, -50%); border:5px solid black"">","","","","","","","",""
"","4795.335000002524","sequential-stimulus-presentation-old","64","442124","0.0-17.0-1.3","SS1619740082158","trial","","40","500","5295.335000002524","images/stimuli/spore_stims/simple_18_A_a.gif","images/stimuli/spore_stims/simple_20_A_b.gif","forced_long","","4","simple_dissimilar","images/stimuli/spore_stims/simple_20_A_b.gif","","","","",""
"","null","html-keyboard-response","65","443223","0.0-17.0-0.4","SS1619740082158","","","null","","","","","","<p><img src= images/blank.png width =""600"" height = ""600"" style=""position:fixed;top:50%; left:50%; transform: translate(-50%, -50%); border:5px solid black"">","","","","","","","",""
"","7540.189999999711","sequential-stimulus-presentation-old","66","451266","0.0-17.0-1.4","SS1619740082158","trial","","40","500","8040.189999999711","images/stimuli/spore_stims/simple_18_A_a.gif","images/stimuli/spore_stims/simple_20_A_b.gif","forced_long","","4","simple_dissimilar","images/stimuli/spore_stims/simple_18_A_a.gif","","","","",""
"","3220.754999994824","survey-multi-choice","67","454489","0.0-18.0","SS1619740082158","math_question","","","","","","","","","","","","{""Q0"":""5""}","[0]","5","",""
"","null","html-keyboard-response","68","455649","0.0-19.0-0.0","SS1619740082158","","","null","","","","","","<p><img src= images/blank.png width =""600"" height = ""600"" style=""position:fixed;top:50%; left:50%; transform: translate(-50%, -50%); border:5px solid black"">","","","","","","","",""
"","674.4699999981094","sequential-stimulus-presentation-old","69","456827","0.0-19.0-1.0","SS1619740082158","trial","","40","500","1174.4699999981094","images/stimuli/spore_stims/complex_02_A_a.gif","images/stimuli/spore_stims/complex_16_A_b.gif","forced_short","","5","complex_dissimilar","images/stimuli/spore_stims/complex_16_A_b.gif","","","","",""
"","null","html-keyboard-response","70","458016","0.0-19.0-0.1","SS1619740082158","","","null","","","","","","<p><img src= images/blank.png width =""600"" height = ""600"" style=""position:fixed;top:50%; left:50%; transform: translate(-50%, -50%); border:5px solid black"">","","","","","","","",""
"","5925.619999994524","sequential-stimulus-presentation-old","71","464444","0.0-19.0-1.1","SS1619740082158","trial","","40","500","6425.619999994524","images/stimuli/spore_stims/complex_02_A_a.gif","images/stimuli/spore_stims/complex_16_A_b.gif","forced_short","","5","complex_dissimilar","images/stimuli/spore_stims/complex_02_A_a.gif","","","","",""
"","null","html-keyboard-response","72","465727","0.0-19.0-0.2","SS1619740082158","","","null","","","","","","<p><img src= images/blank.png width =""600"" height = ""600"" style=""position:fixed;top:50%; left:50%; transform: translate(-50%, -50%); border:5px solid black"">","","","","","","","",""
"","7789.3199999962235","sequential-stimulus-presentation-old","73","474019","0.0-19.0-1.2","SS1619740082158","trial","","40","500","8289.319999996223","images/stimuli/spore_stims/complex_02_A_a.gif","images/stimuli/spore_stims/complex_16_A_b.gif","forced_short","","5","complex_dissimilar","images/stimuli/spore_stims/complex_02_A_a.gif","","","","",""
"","null","html-keyboard-response","74","475030","0.0-19.0-0.3","SS1619740082158","","","null","","","","","","<p><img src= images/blank.png width =""600"" height = ""600"" style=""position:fixed;top:50%; left:50%; transform: translate(-50%, -50%); border:5px solid black"">","","","","","","","",""
"","7263.725000004342","sequential-stimulus-presentation-old","75","482797","0.0-19.0-1.3","SS1619740082158","trial","","40","500","7763.725000004342","images/stimuli/spore_stims/complex_02_A_a.gif","images/stimuli/spore_stims/complex_16_A_b.gif","forced_short","","5","complex_dissimilar","images/stimuli/spore_stims/complex_16_A_b.gif","","","","",""
"","3479.3600000048173","survey-multi-choice","76","486278","0.0-20.0","SS1619740082158","math_question","","","","","","","","","","","","{""Q0"":""14""}","[0]","14","",""
"","null","html-keyboard-response","77","487493","0.0-21.0-0.0","SS1619740082158","","","null","","","","","","<p><img src= images/blank.png width =""600"" height = ""600"" style=""position:fixed;top:50%; left:50%; transform: translate(-50%, -50%); border:5px solid black"">","","","","","","","",""
"","579.1000000026543","sequential-stimulus-presentation-old","78","503075","0.0-21.0-1.0","SS1619740082158","trial","","40","500","1079.1000000026543","images/stimuli/spore_stims/complex_14_A_b.gif","images/stimuli/spore_stims/complex_19_A_a.gif","forced_long","","6","complex_dissimilar","images/stimuli/spore_stims/complex_19_A_a.gif","","","","",""
"","null","html-keyboard-response","79","504355","0.0-21.0-0.1","SS1619740082158","","","null","","","","","","<p><img src= images/blank.png width =""600"" height = ""600"" style=""position:fixed;top:50%; left:50%; transform: translate(-50%, -50%); border:5px solid black"">","","","","","","","",""
"","13369.695000001171","sequential-stimulus-presentation-old","80","518228","0.0-21.0-1.1","SS1619740082158","trial","","40","500","13869.695000001171","images/stimuli/spore_stims/complex_14_A_b.gif","images/stimuli/spore_stims/complex_19_A_a.gif","forced_long","","6","complex_dissimilar","images/stimuli/spore_stims/complex_14_A_b.gif","","","","",""
"","null","html-keyboard-response","81","519332","0.0-21.0-0.2","SS1619740082158","","","null","","","","","","<p><img src= images/blank.png width =""600"" height = ""600"" style=""position:fixed;top:50%; left:50%; transform: translate(-50%, -50%); border:5px solid black"">","","","","","","","",""
"","6823.185000001104","sequential-stimulus-presentation-old","82","526659","0.0-21.0-1.2","SS1619740082158","trial","","40","500","7323.185000001104","images/stimuli/spore_stims/complex_14_A_b.gif","images/stimuli/spore_stims/complex_19_A_a.gif","forced_long","","6","complex_dissimilar","images/stimuli/spore_stims/complex_19_A_a.gif","","","","",""
"","null","html-keyboard-response","83","527553","0.0-21.0-0.3","SS1619740082158","","","null","","","","","","<p><img src= images/blank.png width =""600"" height = ""600"" style=""position:fixed;top:50%; left:50%; transform: translate(-50%, -50%); border:5px solid black"">","","","","","","","",""
"","6524.765000001993","sequential-stimulus-presentation-old","84","534581","0.0-21.0-1.3","SS1619740082158","trial","","40","500","7024.765000001993","images/stimuli/spore_stims/complex_14_A_b.gif","images/stimuli/spore_stims/complex_19_A_a.gif","forced_long","","6","complex_dissimilar","images/stimuli/spore_stims/complex_14_A_b.gif","","","","",""
"","null","html-keyboard-response","85","535640","0.0-21.0-0.4","SS1619740082158","","","null","","","","","","<p><img src= images/blank.png width =""600"" height = ""600"" style=""position:fixed;top:50%; left:50%; transform: translate(-50%, -50%); border:5px solid black"">","","","","","","","",""
"","13366.00499999628","sequential-stimulus-presentation-old","86","549509","0.0-21.0-1.4","SS1619740082158","trial","","40","500","13866.00499999628","images/stimuli/spore_stims/complex_14_A_b.gif","images/stimuli/spore_stims/complex_19_A_a.gif","forced_long","","6","complex_dissimilar","images/stimuli/spore_stims/complex_19_A_a.gif","","","","",""
"","null","html-keyboard-response","87","550493","0.0-21.0-0.5","SS1619740082158","","","null","","","","","","<p><img src= images/blank.png width =""600"" height = ""600"" style=""position:fixed;top:50%; left:50%; transform: translate(-50%, -50%); border:5px solid black"">","","","","","","","",""
"","11695.78499999619","sequential-stimulus-presentation-old","88","562692","0.0-21.0-1.5","SS1619740082158","trial","","40","500","12195.78499999619","images/stimuli/spore_stims/complex_14_A_b.gif","images/stimuli/spore_stims/complex_19_A_a.gif","forced_long","","6","complex_dissimilar","images/stimuli/spore_stims/complex_19_A_a.gif","","","","",""
"","4949.93500000413","survey-multi-choice","89","567644","0.0-22.0","SS1619740082158","math_question","","","","","","","","","","","","{""Q0"":""13""}","[0]","13","",""
"","null","html-keyboard-response","90","568525","0.0-23.0-0.0","SS1619740082158","","","null","","","","","","<p><img src= images/blank.png width =""600"" height = ""600"" style=""position:fixed;top:50%; left:50%; transform: translate(-50%, -50%); border:5px solid black"">","","","","","","","",""
"","6617.560000005993","sequential-stimulus-presentation-old","91","575645","0.0-23.0-1.0","SS1619740082158","trial","","40","500","7117.560000005993","images/stimuli/spore_stims/simple_01_A_b.gif","images/stimuli/spore_stims/simple_19_A_a.gif","self_paced","","7","simple_dissimilar","images/stimuli/spore_stims/simple_19_A_a.gif","","","","",""
"","null","html-keyboard-response","92","576864","0.0-23.0-0.1","SS1619740082158","","","null","","","","","","<p><img src= images/blank.png width =""600"" height = ""600"" style=""position:fixed;top:50%; left:50%; transform: translate(-50%, -50%); border:5px solid black"">","","","","","","","",""
"","5091.899999999441","sequential-stimulus-presentation-old","93","582458","0.0-23.0-1.1","SS1619740082158","trial","","40","500","5591.899999999441","images/stimuli/spore_stims/simple_01_A_b.gif","images/stimuli/spore_stims/simple_19_A_a.gif","self_paced","","7","simple_dissimilar","images/stimuli/spore_stims/simple_01_A_b.gif","","","","",""
"","null","html-keyboard-response","94","583404","0.0-23.0-0.2","SS1619740082158","","","null","","","","","","<p><img src= images/blank.png width =""600"" height = ""600"" style=""position:fixed;top:50%; left:50%; transform: translate(-50%, -50%); border:5px solid black"">","","","","","","","",""
"","7543.969999998808","sequential-stimulus-presentation-old","95","591453","0.0-23.0-1.2","SS1619740082158","trial","","40","500","8043.969999998808","images/stimuli/spore_stims/simple_01_A_b.gif","images/stimuli/spore_stims/simple_19_A_a.gif","self_paced","","7","simple_dissimilar","images/stimuli/spore_stims/simple_19_A_a.gif","","","","",""
"","null","html-keyboard-response","96","592264","0.0-23.0-0.3","SS1619740082158","","","null","","","","","","<p><img src= images/blank.png width =""600"" height = ""600"" style=""position:fixed;top:50%; left:50%; transform: translate(-50%, -50%); border:5px solid black"">","","","","","","","",""
"","5867.435000000056","sequential-stimulus-presentation-old","97","598634","0.0-23.0-1.3","SS1619740082158","trial","","40","500","6367.435000000056","images/stimuli/spore_stims/simple_01_A_b.gif","images/stimuli/spore_stims/simple_19_A_a.gif","self_paced","","7","simple_dissimilar","images/stimuli/spore_stims/simple_19_A_a.gif","","","","",""
"","4314.030000001425","survey-multi-choice","98","602950","0.0-24.0","SS1619740082158","math_question","","","","","","","","","","","","{""Q0"":""9""}","[0]","9","",""
"","null","html-keyboard-response","99","604214","0.0-25.0-0.0","SS1619740082158","","","null","","","","","","<p><img src= images/blank.png width =""600"" height = ""600"" style=""position:fixed;top:50%; left:50%; transform: translate(-50%, -50%); border:5px solid black"">","","","","","","","",""
"","16255.575000002864","sequential-stimulus-presentation-old","100","620973","0.0-25.0-1.0","SS1619740082158","trial","","40","500","16755.575000002864","images/stimuli/spore_stims/complex_06_A_a.gif","images/stimuli/spore_stims/complex_09_A_b.gif","self_paced","","8","complex_dissimilar","images/stimuli/spore_stims/complex_09_A_b.gif","","","","",""
"","null","html-keyboard-response","101","622076","0.0-25.0-0.1","SS1619740082158","","","null","","","","","","<p><img src= images/blank.png width =""600"" height = ""600"" style=""position:fixed;top:50%; left:50%; transform: translate(-50%, -50%); border:5px solid black"">","","","","","","","",""
"","8038.949999994598","sequential-stimulus-presentation-old","102","630618","0.0-25.0-1.1","SS1619740082158","trial","","40","500","8538.949999994598","images/stimuli/spore_stims/complex_06_A_a.gif","images/stimuli/spore_stims/complex_09_A_b.gif","self_paced","","8","complex_dissimilar","images/stimuli/spore_stims/complex_06_A_a.gif","","","","",""
"","null","html-keyboard-response","103","631894","0.0-25.0-0.2","SS1619740082158","","","null","","","","","","<p><img src= images/blank.png width =""600"" height = ""600"" style=""position:fixed;top:50%; left:50%; transform: translate(-50%, -50%); border:5px solid black"">","","","","","","","",""
"","5046.529999999679","sequential-stimulus-presentation-old","104","637444","0.0-25.0-1.2","SS1619740082158","trial","","40","500","5546.529999999679","images/stimuli/spore_stims/complex_06_A_a.gif","images/stimuli/spore_stims/complex_09_A_b.gif","self_paced","","8","complex_dissimilar","images/stimuli/spore_stims/complex_09_A_b.gif","","","","",""
"","null","html-keyboard-response","105","638335","0.0-25.0-0.3","SS1619740082158","","","null","","","","","","<p><img src= images/blank.png width =""600"" height = ""600"" style=""position:fixed;top:50%; left:50%; transform: translate(-50%, -50%); border:5px solid black"">","","","","","","","",""
"","4916.075000000885","sequential-stimulus-presentation-old","106","643755","0.0-25.0-1.3","SS1619740082158","trial","","40","500","5416.075000000885","images/stimuli/spore_stims/complex_06_A_a.gif","images/stimuli/spore_stims/complex_09_A_b.gif","self_paced","","8","complex_dissimilar","images/stimuli/spore_stims/complex_09_A_b.gif","","","","",""
"","null","html-keyboard-response","107","644688","0.0-25.0-0.4","SS1619740082158","","","null","","","","","","<p><img src= images/blank.png width =""600"" height = ""600"" style=""position:fixed;top:50%; left:50%; transform: translate(-50%, -50%); border:5px solid black"">","","","","","","","",""
"","1010.9550000051968","sequential-stimulus-presentation-old","108","646202","0.0-25.0-1.4","SS1619740082158","trial","","40","500","1510.9550000051968","images/stimuli/spore_stims/complex_06_A_a.gif","images/stimuli/spore_stims/complex_09_A_b.gif","self_paced","","8","complex_dissimilar","images/stimuli/spore_stims/complex_09_A_b.gif","","","","",""
"","null","html-keyboard-response","109","647417","0.0-25.0-0.5","SS1619740082158","","","null","","","","","","<p><img src= images/blank.png width =""600"" height = ""600"" style=""position:fixed;top:50%; left:50%; transform: translate(-50%, -50%); border:5px solid black"">","","","","","","","",""
"","6237.329999996233","sequential-stimulus-presentation-old","110","654156","0.0-25.0-1.5","SS1619740082158","trial","","40","500","6737.329999996233","images/stimuli/spore_stims/complex_06_A_a.gif","images/stimuli/spore_stims/complex_09_A_b.gif","self_paced","","8","complex_dissimilar","images/stimuli/spore_stims/complex_09_A_b.gif","","","","",""
"","6373.77999999444","survey-multi-choice","111","660532","0.0-26.0","SS1619740082158","math_question","","","","","","","","","","","","{""Q0"":""16""}","[0]","16","",""
"","null","html-keyboard-response","112","661710","0.0-27.0-0.0","SS1619740082158","","","null","","","","","","<p><img src= images/blank.png width =""600"" height = ""600"" style=""position:fixed;top:50%; left:50%; transform: translate(-50%, -50%); border:5px solid black"">","","","","","","","",""
"","16653.489999996964","sequential-stimulus-presentation-old","113","678868","0.0-27.0-1.0","SS1619740082158","trial","","40","500","17153.489999996964","images/stimuli/spore_stims/complex_12_A_a.gif","images/stimuli/spore_stims/complex_15_A_b.gif","self_paced","","9","complex_dissimilar","images/stimuli/spore_stims/complex_15_A_b.gif","","","","",""
"","null","html-keyboard-response","114","679810","0.0-27.0-0.1","SS1619740082158","","","null","","","","","","<p><img src= images/blank.png width =""600"" height = ""600"" style=""position:fixed;top:50%; left:50%; transform: translate(-50%, -50%); border:5px solid black"">","","","","","","","",""
"","9368.790000000386","sequential-stimulus-presentation-old","115","689682","0.0-27.0-1.1","SS1619740082158","trial","","40","500","9868.790000000386","images/stimuli/spore_stims/complex_12_A_a.gif","images/stimuli/spore_stims/complex_15_A_b.gif","self_paced","","9","complex_dissimilar","images/stimuli/spore_stims/complex_15_A_b.gif","","","","",""
"","null","html-keyboard-response","116","690811","0.0-27.0-0.2","SS1619740082158","","","null","","","","","","<p><img src= images/blank.png width =""600"" height = ""600"" style=""position:fixed;top:50%; left:50%; transform: translate(-50%, -50%); border:5px solid black"">","","","","","","","",""
"","18178.460000002757","sequential-stimulus-presentation-old","117","709493","0.0-27.0-1.2","SS1619740082158","trial","","40","500","18678.460000002757","images/stimuli/spore_stims/complex_12_A_a.gif","images/stimuli/spore_stims/complex_15_A_b.gif","self_paced","","9","complex_dissimilar","images/stimuli/spore_stims/complex_12_A_a.gif","","","","",""
"","null","html-keyboard-response","118","710314","0.0-27.0-0.3","SS1619740082158","","","null","","","","","","<p><img src= images/blank.png width =""600"" height = ""600"" style=""position:fixed;top:50%; left:50%; transform: translate(-50%, -50%); border:5px solid black"">","","","","","","","",""
"","7577.030000000494","sequential-stimulus-presentation-old","119","718394","0.0-27.0-1.3","SS1619740082158","trial","","40","500","8077.030000000494","images/stimuli/spore_stims/complex_12_A_a.gif","images/stimuli/spore_stims/complex_15_A_b.gif","self_paced","","9","complex_dissimilar","images/stimuli/spore_stims/complex_12_A_a.gif","","","","",""
"","4959.674999998184","survey-multi-choice","120","723356","0.0-28.0","SS1619740082158","math_question","","","","","","","","","","","","{""Q0"":""8""}","[0]","8","",""
"","null","html-keyboard-response","121","724483","0.0-29.0-0.0","SS1619740082158","","","null","","","","","","<p><img src= images/blank.png width =""600"" height = ""600"" style=""position:fixed;top:50%; left:50%; transform: translate(-50%, -50%); border:5px solid black"">","","","","","","","",""
"","4024.5100000029197","sequential-stimulus-presentation-old","122","729010","0.0-29.0-1.0","SS1619740082158","trial","","40","500","4524.51000000292","images/stimuli/spore_stims/complex_03_A_b.gif","images/stimuli/spore_stims/complex_05_A_a.gif","forced_short","","10","complex_dissimilar","images/stimuli/spore_stims/complex_05_A_a.gif","","","","",""
"","null","html-keyboard-response","123","729867","0.0-29.0-0.1","SS1619740082158","","","null","","","","","","<p><img src= images/blank.png width =""600"" height = ""600"" style=""position:fixed;top:50%; left:50%; transform: translate(-50%, -50%); border:5px solid black"">","","","","","","","",""
"","2617.935000002035","sequential-stimulus-presentation-old","124","732988","0.0-29.0-1.1","SS1619740082158","trial","","40","500","3117.935000002035","images/stimuli/spore_stims/complex_03_A_b.gif","images/stimuli/spore_stims/complex_05_A_a.gif","forced_short","","10","complex_dissimilar","images/stimuli/spore_stims/complex_05_A_a.gif","","","","",""
"","null","html-keyboard-response","125","734196","0.0-29.0-0.2","SS1619740082158","","","null","","","","","","<p><img src= images/blank.png width =""600"" height = ""600"" style=""position:fixed;top:50%; left:50%; transform: translate(-50%, -50%); border:5px solid black"">","","","","","","","",""
"","3151.079999996","sequential-stimulus-presentation-old","126","737850","0.0-29.0-1.2","SS1619740082158","trial","","40","500","3651.079999996","images/stimuli/spore_stims/complex_03_A_b.gif","images/stimuli/spore_stims/complex_05_A_a.gif","forced_short","","10","complex_dissimilar","images/stimuli/spore_stims/complex_03_A_b.gif","","","","",""
"","null","html-keyboard-response","127","738950","0.0-29.0-0.3","SS1619740082158","","","null","","","","","","<p><img src= images/blank.png width =""600"" height = ""600"" style=""position:fixed;top:50%; left:50%; transform: translate(-50%, -50%); border:5px solid black"">","","","","","","","",""
"","3885.875","sequential-stimulus-presentation-old","128","743340","0.0-29.0-1.3","SS1619740082158","trial","","40","500","4385.875","images/stimuli/spore_stims/complex_03_A_b.gif","images/stimuli/spore_stims/complex_05_A_a.gif","forced_short","","10","complex_dissimilar","images/stimuli/spore_stims/complex_05_A_a.gif","","","","",""
"","null","html-keyboard-response","129","744453","0.0-29.0-0.4","SS1619740082158","","","null","","","","","","<p><img src= images/blank.png width =""600"" height = ""600"" style=""position:fixed;top:50%; left:50%; transform: translate(-50%, -50%); border:5px solid black"">","","","","","","","",""
"","2533.694999998319","sequential-stimulus-presentation-old","130","747491","0.0-29.0-1.4","SS1619740082158","trial","","40","500","3033.694999998319","images/stimuli/spore_stims/complex_03_A_b.gif","images/stimuli/spore_stims/complex_05_A_a.gif","forced_short","","10","complex_dissimilar","images/stimuli/spore_stims/complex_03_A_b.gif","","","","",""
"","3158.3200000021607","survey-multi-choice","131","750652","0.0-30.0","SS1619740082158","math_question","","","","","","","","","","","","{""Q0"":""6""}","[0]","6","",""
"","null","html-keyboard-response","132","751503","0.0-31.0-0.0","SS1619740082158","","","null","","","","","","<p><img src= images/blank.png width =""600"" height = ""600"" style=""position:fixed;top:50%; left:50%; transform: translate(-50%, -50%); border:5px solid black"">","","","","","","","",""
"","6709.429999995395","sequential-stimulus-presentation-old","133","758716","0.0-31.0-1.0","SS1619740082158","trial","","40","500","7209.429999995395","images/stimuli/spore_stims/simple_09_A_b.gif","images/stimuli/spore_stims/simple_07_A_a.gif","self_paced","","11","simple_dissimilar","images/stimuli/spore_stims/simple_07_A_a.gif","","","","",""
"","null","html-keyboard-response","134","759695","0.0-31.0-0.1","SS1619740082158","","","null","","","","","","<p><img src= images/blank.png width =""600"" height = ""600"" style=""position:fixed;top:50%; left:50%; transform: translate(-50%, -50%); border:5px solid black"">","","","","","","","",""
"","4539.8649999988265","sequential-stimulus-presentation-old","135","764739","0.0-31.0-1.1","SS1619740082158","trial","","40","500","5039.8649999988265","images/stimuli/spore_stims/simple_09_A_b.gif","images/stimuli/spore_stims/simple_07_A_a.gif","self_paced","","11","simple_dissimilar","images/stimuli/spore_stims/simple_07_A_a.gif","","","","",""
"","null","html-keyboard-response","136","765559","0.0-31.0-0.2","SS1619740082158","","","null","","","","","","<p><img src= images/blank.png width =""600"" height = ""600"" style=""position:fixed;top:50%; left:50%; transform: translate(-50%, -50%); border:5px solid black"">","","","","","","","",""
"","5438.280000002123","sequential-stimulus-presentation-old","137","771502","0.0-31.0-1.2","SS1619740082158","trial","","40","500","5938.280000002123","images/stimuli/spore_stims/simple_09_A_b.gif","images/stimuli/spore_stims/simple_07_A_a.gif","self_paced","","11","simple_dissimilar","images/stimuli/spore_stims/simple_09_A_b.gif","","","","",""
"","null","html-keyboard-response","138","772361","0.0-31.0-0.3","SS1619740082158","","","null","","","","","","<p><img src= images/blank.png width =""600"" height = ""600"" style=""position:fixed;top:50%; left:50%; transform: translate(-50%, -50%); border:5px solid black"">","","","","","","","",""
"","13149.629999999888","sequential-stimulus-presentation-old","139","786013","0.0-31.0-1.3","SS1619740082158","trial","","40","500","13649.629999999888","images/stimuli/spore_stims/simple_09_A_b.gif","images/stimuli/spore_stims/simple_07_A_a.gif","self_paced","","11","simple_dissimilar","images/stimuli/spore_stims/simple_07_A_a.gif","","","","",""
"","null","html-keyboard-response","140","786823","0.0-31.0-0.4","SS1619740082158","","","null","","","","","","<p><img src= images/blank.png width =""600"" height = ""600"" style=""position:fixed;top:50%; left:50%; transform: translate(-50%, -50%); border:5px solid black"">","","","","","","","",""
"","4492.775000006077","sequential-stimulus-presentation-old","141","791819","0.0-31.0-1.4","SS1619740082158","trial","","40","500","4992.775000006077","images/stimuli/spore_stims/simple_09_A_b.gif","images/stimuli/spore_stims/simple_07_A_a.gif","self_paced","","11","simple_dissimilar","images/stimuli/spore_stims/simple_07_A_a.gif","","","","",""
"","null","html-keyboard-response","142","792985","0.0-31.0-0.5","SS1619740082158","","","null","","","","","","<p><img src= images/blank.png width =""600"" height = ""600"" style=""position:fixed;top:50%; left:50%; transform: translate(-50%, -50%); border:5px solid black"">","","","","","","","",""
"","4875.855000005686","sequential-stimulus-presentation-old","143","798364","0.0-31.0-1.5","SS1619740082158","trial","","40","500","5375.855000005686","images/stimuli/spore_stims/simple_09_A_b.gif","images/stimuli/spore_stims/simple_07_A_a.gif","self_paced","","11","simple_dissimilar","images/stimuli/spore_stims/simple_09_A_b.gif","","","","",""
"[{""page_index"":0,""viewing_time"":8362.010000004317}]","8362.254999999888","instructions","144","806728","0.0-32.0","SS1619740082158","instructions","","","","","","","","","","","","","","","",""
"","11883.060000000056","survey-likert","145","818614","0.0-33.0","SS1619740082158","similarity_question","","","","","","","","","","","","{""Q0"":2}","[0]","","images/stimuli/spore_stims/complex_06_A_a.gif","images/stimuli/spore_stims/complex_09_A_b.gif"
"","4272.290000000852","survey-likert","146","822890","0.0-34.0","SS1619740082158","similarity_question","","","","","","","","","","","","{""Q0"":3}","[0]","","images/stimuli/spore_stims/simple_18_A_b.gif","images/stimuli/spore_stims/simple_16_A_a.gif"
"","6547.100000003353","survey-likert","147","829440","0.0-35.0","SS1619740082158","similarity_question","","","","","","","","","","","","{""Q0"":6}","[0]","","images/stimuli/spore_stims/simple_13_A_a.gif","images/stimuli/spore_stims/simple_10_A_b.gif"
"","4750.394999995595","survey-likert","148","834194","0.0-36.0","SS1619740082158","similarity_question","","","","","","","","","","","","{""Q0"":4}","[0]","","images/stimuli/spore_stims/complex_19_A_a.gif","images/stimuli/spore_stims/complex_14_A_b.gif"
"","3991.2150000017136","survey-likert","149","838188","0.0-37.0","SS1619740082158","similarity_question","","","","","","","","","","","","{""Q0"":1}","[0]","","images/stimuli/spore_stims/complex_15_A_b.gif","images/stimuli/spore_stims/complex_12_A_a.gif"
"","2641.0749999994878","survey-likert","150","840832","0.0-38.0","SS1619740082158","similarity_question","","","","","","","","","","","","{""Q0"":5}","[0]","","images/stimuli/spore_stims/simple_19_A_a.gif","images/stimuli/spore_stims/simple_01_A_b.gif"
"","2375.720000003581","survey-likert","151","843211","0.0-39.0","SS1619740082158","similarity_question","","","","","","","","","","","","{""Q0"":5}","[0]","","images/stimuli/spore_stims/simple_18_A_a.gif","images/stimuli/spore_stims/simple_20_A_b.gif"
"","3051.935000003199","survey-likert","152","846266","0.0-40.0","SS1619740082158","similarity_question","","","","","","","","","","","","{""Q0"":6}","[0]","","images/stimuli/spore_stims/simple_10_A_a.gif","images/stimuli/spore_stims/simple_05_A_b.gif"
"","3432.740000003716","survey-likert","153","849702","0.0-41.0","SS1619740082158","similarity_question","","","","","","","","","","","","{""Q0"":4}","[0]","","images/stimuli/spore_stims/simple_07_A_a.gif","images/stimuli/spore_stims/simple_09_A_b.gif"
"","3298.8750000003492","survey-likert","154","853004","0.0-42.0","SS1619740082158","similarity_question","","","","","","","","","","","","{""Q0"":1}","[0]","","images/stimuli/spore_stims/complex_03_A_b.gif","images/stimuli/spore_stims/complex_05_A_a.gif"
"","5851.174999996205","survey-likert","155","858858","0.0-43.0","SS1619740082158","similarity_question","","","","","","","","","","","","{""Q0"":3}","[0]","","images/stimuli/spore_stims/complex_07_A_b.gif","images/stimuli/spore_stims/complex_08_A_a.gif"
"","2938.170000001206","survey-likert","156","861801","0.0-44.0","SS1619740082158","similarity_question","","","","","","","","","","","","{""Q0"":1}","[0]","","images/stimuli/spore_stims/complex_16_A_b.gif","images/stimuli/spore_stims/complex_02_A_a.gif"
"[{""page_index"":0,""viewing_time"":6924.66499999864}]","6924.9049999999115","instructions","157","868728","0.0-45.0","SS1619740082158","instructions","","","","","","","","","","","","","","","",""
"","3563.09499999776","survey-likert","158","872294","0.0-46.0","SS1619740082158","","","","","","","","","images/stimuli/spore_stims/simple_01_A_b.gif","","","","{""Q0"":0}","[0]","","",""
"","3281.620000001625","survey-likert","159","875579","0.0-47.0","SS1619740082158","","","","","","","","","images/stimuli/spore_stims/complex_19_A_a.gif","","","","{""Q0"":5}","[0]","","",""
"","2236.5199999986216","survey-likert","160","877818","0.0-48.0","SS1619740082158","","","","","","","","","images/stimuli/spore_stims/complex_02_A_a.gif","","","","{""Q0"":4}","[0]","","",""
"","2918.949999999255","survey-likert","161","880741","0.0-49.0","SS1619740082158","","","","","","","","","images/stimuli/spore_stims/complex_07_A_b.gif","","","","{""Q0"":6}","[0]","","",""
"","2437.4650000027614","survey-likert","162","883181","0.0-50.0","SS1619740082158","","","","","","","","","images/stimuli/spore_stims/simple_10_A_a.gif","","","","{""Q0"":0}","[0]","","",""
"","2260.2299999997485","survey-likert","163","885444","0.0-51.0","SS1619740082158","","","","","","","","","images/stimuli/spore_stims/simple_18_A_b.gif","","","","{""Q0"":0}","[0]","","",""
"","3751.505000000121","survey-likert","164","889199","0.0-52.0","SS1619740082158","","","","","","","","","images/stimuli/spore_stims/complex_09_A_b.gif","","","","{""Q0"":5}","[0]","","",""
"","2294.179999997141","survey-likert","165","891496","0.0-53.0","SS1619740082158","","","","","","","","","images/stimuli/spore_stims/simple_18_A_a.gif","","","","{""Q0"":1}","[0]","","",""
"","4337.695000001928","survey-likert","166","895836","0.0-54.0","SS1619740082158","","","","","","","","","images/stimuli/spore_stims/complex_03_A_b.gif","","","","{""Q0"":3}","[0]","","",""
"","2184.674999996787","survey-likert","167","898023","0.0-55.0","SS1619740082158","","","","","","","","","images/stimuli/spore_stims/simple_07_A_a.gif","","","","{""Q0"":0}","[0]","","",""
"","2620.9950000047684","survey-likert","168","900648","0.0-56.0","SS1619740082158","","","","","","","","","images/stimuli/spore_stims/complex_15_A_b.gif","","","","{""Q0"":6}","[0]","","",""
"","2658.465000000433","survey-likert","169","903309","0.0-57.0","SS1619740082158","","","","","","","","","images/stimuli/spore_stims/simple_10_A_b.gif","","","","{""Q0"":0}","[0]","","",""
"[{""page_index"":0,""viewing_time"":3687.5499999950407}]","3687.8899999937275","instructions","170","907000","0.0-58.0","SS1619740082158","instructions","","","","","","","","","","","","","","","",""
"","3952.095000000554","demog-age","171","910956","0.0-59.0","SS1619740082158","","","","","","","","","","","","","{""age"":""20""}","","","",""
"","4767.214999999851","demog-ethnic-US","172","915729","0.0-60.0","SS1619740082158","","","","","","","","","","","","","{""ethnicity"":[""White""]}","[0]","","",""
"","9286.964999999385","demog-gender-and-education","173","925020","0.0-61.0","SS1619740082158","","","","","","","","","","","","","{""gender"":""Male"",""education"":""Associate Degree/Technical certification""}","[0,1]","","",""
"","15805.764999997336","survey-text","174","940830","0.0-62.0","SS1619740082158","feedback","","","","","","","","","","","","{""Q0"":""no problem""}","","","",""
"[{""page_index"":0,""viewing_time"":3128.35500000068}]","3128.5250000001397","instructions","175","943961","0.0-63.0","SS1619740082158","instructions","","","","","","","","","","","","","","","",""
