"view_history","rt","trial_type","trial_index","time_elapsed","internal_node_id","subject","stimulus_type","trial_stimulus","key_press","minimum_viewing_duration","trial_looking_time","block_deviant","block_background","exposure_type","stimulus","block_number","block_type","stimulus_displayed","responses","question_order","math_correct_answer","stimulus_left","stimulus_right"
"[{""page_index"":0,""viewing_time"":28707.51500001643}]","28709.93000001181","instructions","0","28714","0.0-0.0","SS1619740022277","","","","","","","","","","","","","","","","",""
"[{""page_index"":0,""viewing_time"":404564.944999991},{""page_index"":1,""viewing_time"":7547.505000024103}]","412112.72999993525","instructions","1","442992","0.0-1.0","SS1619740022277","instructions","","","","","","","","","","","","","","","",""
"","20358.795000007376","sequential-stimulus-presentation-old","2","463862","0.0-2.0","SS1619740022277","","","40","500","20858.795000007376","null","null","self_paced","","","","","","","","",""
"","2305.3950000321493","sequential-stimulus-presentation-old","3","466677","0.0-3.0","SS1619740022277","","","40","500","2805.3950000321493","null","null","self_paced","","","","","","","","",""
"[{""page_index"":0,""viewing_time"":5170.099999988452}]","5170.70000001695","instructions","4","471850","0.0-4.0","SS1619740022277","instructions","","","","","","","","","","","","","","","",""
"","42240.325000020675","sequential-stimulus-presentation-old","5","529117","0.0-5.0","SS1619740022277","","","40","500","42740.325000020675","null","null","forced_long","","","","","","","","",""
"","730.8349999366328","sequential-stimulus-presentation-old","6","530355","0.0-6.0","SS1619740022277","","","40","500","1230.8349999366328","null","null","forced_long","","","","","","","","",""
"[{""page_index"":0,""viewing_time"":3918.2299999520183}]","3918.849999899976","instructions","7","534276","0.0-7.0","SS1619740022277","instructions","","","","","","","","","","","","","","","",""
"[{""page_index"":0,""viewing_time"":1666.5999999968335},{""page_index"":1,""viewing_time"":1249.8299999861047},{""page_index"":2,""viewing_time"":1030.170000041835},{""page_index"":3,""viewing_time"":2780.8299999451265},{""page_index"":4,""viewing_time"":1410.6200000969693}]","8138.610000023618","instructions","8","542417","0.0-8.0","SS1619740022277","instructions","","","","","","","","","","","","","","","",""
"","null","html-keyboard-response","9","543600","0.0-9.0-0.0","SS1619740022277","","","null","","","","","","<p><img src= images/blank.png width =""600"" height = ""600"" style=""position:fixed;top:50%; left:50%; transform: translate(-50%, -50%); border:5px solid black"">","","","","","","","",""
"","2124.085000017658","sequential-stimulus-presentation-old","10","560735","0.0-9.0-1.0","SS1619740022277","trial","","40","500","2624.085000017658","images/stimuli/spore_stims/simple_12_A_b.gif","images/stimuli/spore_stims/simple_17_A_a.gif","forced_long","","0","simple_dissimilar","images/stimuli/spore_stims/simple_17_A_a.gif","","","","",""
"","null","html-keyboard-response","11","561759","0.0-9.0-0.1","SS1619740022277","","","null","","","","","","<p><img src= images/blank.png width =""600"" height = ""600"" style=""position:fixed;top:50%; left:50%; transform: translate(-50%, -50%); border:5px solid black"">","","","","","","","",""
"","25363.265000050887","sequential-stimulus-presentation-old","12","587638","0.0-9.0-1.1","SS1619740022277","trial","","40","500","25863.265000050887","images/stimuli/spore_stims/simple_12_A_b.gif","images/stimuli/spore_stims/simple_17_A_a.gif","forced_long","","0","simple_dissimilar","images/stimuli/spore_stims/simple_17_A_a.gif","","","","",""
"","null","html-keyboard-response","13","588896","0.0-9.0-0.2","SS1619740022277","","","null","","","","","","<p><img src= images/blank.png width =""600"" height = ""600"" style=""position:fixed;top:50%; left:50%; transform: translate(-50%, -50%); border:5px solid black"">","","","","","","","",""
"","1611.17499996908","sequential-stimulus-presentation-old","14","591014","0.0-9.0-1.2","SS1619740022277","trial","","40","500","2111.17499996908","images/stimuli/spore_stims/simple_12_A_b.gif","images/stimuli/spore_stims/simple_17_A_a.gif","forced_long","","0","simple_dissimilar","images/stimuli/spore_stims/simple_17_A_a.gif","","","","",""
"","null","html-keyboard-response","15","591882","0.0-9.0-0.3","SS1619740022277","","","null","","","","","","<p><img src= images/blank.png width =""600"" height = ""600"" style=""position:fixed;top:50%; left:50%; transform: translate(-50%, -50%); border:5px solid black"">","","","","","","","",""
"","407.2550000855699","sequential-stimulus-presentation-old","16","592797","0.0-9.0-1.3","SS1619740022277","trial","","40","500","907.2550000855699","images/stimuli/spore_stims/simple_12_A_b.gif","images/stimuli/spore_stims/simple_17_A_a.gif","forced_long","","0","simple_dissimilar","images/stimuli/spore_stims/simple_17_A_a.gif","","","","",""
"","null","html-keyboard-response","17","594061","0.0-9.0-0.4","SS1619740022277","","","null","","","","","","<p><img src= images/blank.png width =""600"" height = ""600"" style=""position:fixed;top:50%; left:50%; transform: translate(-50%, -50%); border:5px solid black"">","","","","","","","",""
"","159.20499991625547","sequential-stimulus-presentation-old","18","594730","0.0-9.0-1.4","SS1619740022277","trial","","40","500","659.2049999162555","images/stimuli/spore_stims/simple_12_A_b.gif","images/stimuli/spore_stims/simple_17_A_a.gif","forced_long","","0","simple_dissimilar","images/stimuli/spore_stims/simple_17_A_a.gif","","","","",""
"","5278.109999955632","survey-multi-choice","19","600012","0.0-10.0","SS1619740022277","math_question","","","","","","","","","","","","{""Q0"":""4""}","[0]","4","",""
"","null","html-keyboard-response","20","601118","0.0-11.0-0.0","SS1619740022277","","","null","","","","","","<p><img src= images/blank.png width =""600"" height = ""600"" style=""position:fixed;top:50%; left:50%; transform: translate(-50%, -50%); border:5px solid black"">","","","","","","","",""
"","177574.50500002597","sequential-stimulus-presentation-old","21","794460","0.0-11.0-1.0","SS1619740022277","trial","","40","500","178074.50500002597","images/stimuli/spore_stims/simple_14_A_b.gif","images/stimuli/spore_stims/simple_12_A_a.gif","forced_long","","1","simple_dissimilar","images/stimuli/spore_stims/simple_12_A_a.gif","","","","",""
"","null","html-keyboard-response","22","795356","0.0-11.0-0.1","SS1619740022277","","","null","","","","","","<p><img src= images/blank.png width =""600"" height = ""600"" style=""position:fixed;top:50%; left:50%; transform: translate(-50%, -50%); border:5px solid black"">","","","","","","","",""
"","249.22500003594905","sequential-stimulus-presentation-old","23","796115","0.0-11.0-1.1","SS1619740022277","trial","","40","500","749.225000035949","images/stimuli/spore_stims/simple_14_A_b.gif","images/stimuli/spore_stims/simple_12_A_a.gif","forced_long","","1","simple_dissimilar","images/stimuli/spore_stims/simple_14_A_b.gif","","","","",""
"","null","html-keyboard-response","24","796919","0.0-11.0-0.2","SS1619740022277","","","null","","","","","","<p><img src= images/blank.png width =""600"" height = ""600"" style=""position:fixed;top:50%; left:50%; transform: translate(-50%, -50%); border:5px solid black"">","","","","","","","",""
"","355.915000080131","sequential-stimulus-presentation-old","25","797779","0.0-11.0-1.2","SS1619740022277","trial","","40","500","855.915000080131","images/stimuli/spore_stims/simple_14_A_b.gif","images/stimuli/spore_stims/simple_12_A_a.gif","forced_long","","1","simple_dissimilar","images/stimuli/spore_stims/simple_14_A_b.gif","","","","",""
"","null","html-keyboard-response","26","798668","0.0-11.0-0.3","SS1619740022277","","","null","","","","","","<p><img src= images/blank.png width =""600"" height = ""600"" style=""position:fixed;top:50%; left:50%; transform: translate(-50%, -50%); border:5px solid black"">","","","","","","","",""
"","45.095000066794455","sequential-stimulus-presentation-old","27","799218","0.0-11.0-1.3","SS1619740022277","trial","","40","500","545.0950000667945","images/stimuli/spore_stims/simple_14_A_b.gif","images/stimuli/spore_stims/simple_12_A_a.gif","forced_long","","1","simple_dissimilar","images/stimuli/spore_stims/simple_12_A_a.gif","","","","",""
"","3832.924999995157","survey-multi-choice","28","803053","0.0-12.0","SS1619740022277","math_question","","","","","","","","","","","","{""Q0"":""3""}","[0]","3","",""
"","null","html-keyboard-response","29","804198","0.0-13.0-0.0","SS1619740022277","","","null","","","","","","<p><img src= images/blank.png width =""600"" height = ""600"" style=""position:fixed;top:50%; left:50%; transform: translate(-50%, -50%); border:5px solid black"">","","","","","","","",""
"","786.9950000895187","sequential-stimulus-presentation-old","30","819992","0.0-13.0-1.0","SS1619740022277","trial","","40","500","1286.9950000895187","images/stimuli/spore_stims/complex_11_A_a.gif","images/stimuli/spore_stims/complex_19_A_b.gif","forced_long","","2","complex_dissimilar","images/stimuli/spore_stims/complex_19_A_b.gif","","","","",""
"","null","html-keyboard-response","31","821174","0.0-13.0-0.1","SS1619740022277","","","null","","","","","","<p><img src= images/blank.png width =""600"" height = ""600"" style=""position:fixed;top:50%; left:50%; transform: translate(-50%, -50%); border:5px solid black"">","","","","","","","",""
"","283.8050000136718","sequential-stimulus-presentation-old","32","821962","0.0-13.0-1.1","SS1619740022277","trial","","40","500","783.8050000136718","images/stimuli/spore_stims/complex_11_A_a.gif","images/stimuli/spore_stims/complex_19_A_b.gif","forced_long","","2","complex_dissimilar","images/stimuli/spore_stims/complex_19_A_b.gif","","","","",""
"","null","html-keyboard-response","33","822834","0.0-13.0-0.2","SS1619740022277","","","null","","","","","","<p><img src= images/blank.png width =""600"" height = ""600"" style=""position:fixed;top:50%; left:50%; transform: translate(-50%, -50%); border:5px solid black"">","","","","","","","",""
"","169.7900000726804","sequential-stimulus-presentation-old","34","823507","0.0-13.0-1.2","SS1619740022277","trial","","40","500","669.7900000726804","images/stimuli/spore_stims/complex_11_A_a.gif","images/stimuli/spore_stims/complex_19_A_b.gif","forced_long","","2","complex_dissimilar","images/stimuli/spore_stims/complex_11_A_a.gif","","","","",""
"","null","html-keyboard-response","35","824482","0.0-13.0-0.3","SS1619740022277","","","null","","","","","","<p><img src= images/blank.png width =""600"" height = ""600"" style=""position:fixed;top:50%; left:50%; transform: translate(-50%, -50%); border:5px solid black"">","","","","","","","",""
"","307.3500000173226","sequential-stimulus-presentation-old","36","825292","0.0-13.0-1.3","SS1619740022277","trial","","40","500","807.3500000173226","images/stimuli/spore_stims/complex_11_A_a.gif","images/stimuli/spore_stims/complex_19_A_b.gif","forced_long","","2","complex_dissimilar","images/stimuli/spore_stims/complex_19_A_b.gif","","","","",""
"","null","html-keyboard-response","37","826210","0.0-13.0-0.4","SS1619740022277","","","null","","","","","","<p><img src= images/blank.png width =""600"" height = ""600"" style=""position:fixed;top:50%; left:50%; transform: translate(-50%, -50%); border:5px solid black"">","","","","","","","",""
"","14.880000031553209","sequential-stimulus-presentation-old","38","826737","0.0-13.0-1.4","SS1619740022277","trial","","40","500","514.8800000315532","images/stimuli/spore_stims/complex_11_A_a.gif","images/stimuli/spore_stims/complex_19_A_b.gif","forced_long","","2","complex_dissimilar","images/stimuli/spore_stims/complex_11_A_a.gif","","","","",""
"","null","html-keyboard-response","39","827921","0.0-13.0-0.5","SS1619740022277","","","null","","","","","","<p><img src= images/blank.png width =""600"" height = ""600"" style=""position:fixed;top:50%; left:50%; transform: translate(-50%, -50%); border:5px solid black"">","","","","","","","",""
"","792.259999900125","sequential-stimulus-presentation-old","40","829216","0.0-13.0-1.5","SS1619740022277","trial","","40","500","1292.259999900125","images/stimuli/spore_stims/complex_11_A_a.gif","images/stimuli/spore_stims/complex_19_A_b.gif","forced_long","","2","complex_dissimilar","images/stimuli/spore_stims/complex_19_A_b.gif","","","","",""
"","6370.600000023842","survey-multi-choice","41","835590","0.0-14.0","SS1619740022277","math_question","","","","","","","","","","","","{""Q0"":""15""}","[0]","15","",""
"","null","html-keyboard-response","42","836825","0.0-15.0-0.0","SS1619740022277","","","null","","","","","","<p><img src= images/blank.png width =""600"" height = ""600"" style=""position:fixed;top:50%; left:50%; transform: translate(-50%, -50%); border:5px solid black"">","","","","","","","",""
"","435.825000051409","sequential-stimulus-presentation-old","43","837766","0.0-15.0-1.0","SS1619740022277","trial","","40","500","935.825000051409","images/stimuli/spore_stims/complex_19_A_a.gif","images/stimuli/spore_stims/complex_16_A_b.gif","forced_short","","3","complex_dissimilar","images/stimuli/spore_stims/complex_16_A_b.gif","","","","",""
"","null","html-keyboard-response","44","838616","0.0-15.0-0.1","SS1619740022277","","","null","","","","","","<p><img src= images/blank.png width =""600"" height = ""600"" style=""position:fixed;top:50%; left:50%; transform: translate(-50%, -50%); border:5px solid black"">","","","","","","","",""
"","470.32999992370605","sequential-stimulus-presentation-old","45","839599","0.0-15.0-1.1","SS1619740022277","trial","","40","500","970.329999923706","images/stimuli/spore_stims/complex_19_A_a.gif","images/stimuli/spore_stims/complex_16_A_b.gif","forced_short","","3","complex_dissimilar","images/stimuli/spore_stims/complex_16_A_b.gif","","","","",""
"","null","html-keyboard-response","46","840898","0.0-15.0-0.2","SS1619740022277","","","null","","","","","","<p><img src= images/blank.png width =""600"" height = ""600"" style=""position:fixed;top:50%; left:50%; transform: translate(-50%, -50%); border:5px solid black"">","","","","","","","",""
"","398.38499994948506","sequential-stimulus-presentation-old","47","841800","0.0-15.0-1.2","SS1619740022277","trial","","40","500","898.3849999494851","images/stimuli/spore_stims/complex_19_A_a.gif","images/stimuli/spore_stims/complex_16_A_b.gif","forced_short","","3","complex_dissimilar","images/stimuli/spore_stims/complex_16_A_b.gif","","","","",""
"","null","html-keyboard-response","48","843074","0.0-15.0-0.3","SS1619740022277","","","null","","","","","","<p><img src= images/blank.png width =""600"" height = ""600"" style=""position:fixed;top:50%; left:50%; transform: translate(-50%, -50%); border:5px solid black"">","","","","","","","",""
"","341.7050000280142","sequential-stimulus-presentation-old","49","843920","0.0-15.0-1.3","SS1619740022277","trial","","40","500","841.7050000280142","images/stimuli/spore_stims/complex_19_A_a.gif","images/stimuli/spore_stims/complex_16_A_b.gif","forced_short","","3","complex_dissimilar","images/stimuli/spore_stims/complex_16_A_b.gif","","","","",""
"","2939.0300000086427","survey-multi-choice","50","846861","0.0-16.0","SS1619740022277","math_question","","","","","","","","","","","","{""Q0"":""4""}","[0]","4","",""
"","null","html-keyboard-response","51","848106","0.0-17.0-0.0","SS1619740022277","","","null","","","","","","<p><img src= images/blank.png width =""600"" height = ""600"" style=""position:fixed;top:50%; left:50%; transform: translate(-50%, -50%); border:5px solid black"">","","","","","","","",""
"","4571.989999967627","sequential-stimulus-presentation-old","52","853190","0.0-17.0-1.0","SS1619740022277","trial","","40","500","5071.989999967627","images/stimuli/spore_stims/complex_05_A_a.gif","images/stimuli/spore_stims/complex_13_A_b.gif","self_paced","","4","complex_dissimilar","images/stimuli/spore_stims/complex_13_A_b.gif","","","","",""
"","null","html-keyboard-response","53","854068","0.0-17.0-0.1","SS1619740022277","","","null","","","","","","<p><img src= images/blank.png width =""600"" height = ""600"" style=""position:fixed;top:50%; left:50%; transform: translate(-50%, -50%); border:5px solid black"">","","","","","","","",""
"","367.24000005051494","sequential-stimulus-presentation-old","54","854939","0.0-17.0-1.1","SS1619740022277","trial","","40","500","867.2400000505149","images/stimuli/spore_stims/complex_05_A_a.gif","images/stimuli/spore_stims/complex_13_A_b.gif","self_paced","","4","complex_dissimilar","images/stimuli/spore_stims/complex_05_A_a.gif","","","","",""
"","null","html-keyboard-response","55","856213","0.0-17.0-0.2","SS1619740022277","","","null","","","","","","<p><img src= images/blank.png width =""600"" height = ""600"" style=""position:fixed;top:50%; left:50%; transform: translate(-50%, -50%); border:5px solid black"">","","","","","","","",""
"","220.2149999793619","sequential-stimulus-presentation-old","56","856946","0.0-17.0-1.2","SS1619740022277","trial","","40","500","720.2149999793619","images/stimuli/spore_stims/complex_05_A_a.gif","images/stimuli/spore_stims/complex_13_A_b.gif","self_paced","","4","complex_dissimilar","images/stimuli/spore_stims/complex_05_A_a.gif","","","","",""
"","null","html-keyboard-response","57","858171","0.0-17.0-0.3","SS1619740022277","","","null","","","","","","<p><img src= images/blank.png width =""600"" height = ""600"" style=""position:fixed;top:50%; left:50%; transform: translate(-50%, -50%); border:5px solid black"">","","","","","","","",""
"","439.4699999829754","sequential-stimulus-presentation-old","58","859121","0.0-17.0-1.3","SS1619740022277","trial","","40","500","939.4699999829754","images/stimuli/spore_stims/complex_05_A_a.gif","images/stimuli/spore_stims/complex_13_A_b.gif","self_paced","","4","complex_dissimilar","images/stimuli/spore_stims/complex_13_A_b.gif","","","","",""
"","7043.97500003688","survey-multi-choice","59","866168","0.0-18.0","SS1619740022277","math_question","","","","","","","","","","","","{""Q0"":""14""}","[0]","14","",""
"","null","html-keyboard-response","60","867379","0.0-19.0-0.0","SS1619740022277","","","null","","","","","","<p><img src= images/blank.png width =""600"" height = ""600"" style=""position:fixed;top:50%; left:50%; transform: translate(-50%, -50%); border:5px solid black"">","","","","","","","",""
"","4568.459999980405","sequential-stimulus-presentation-old","61","872453","0.0-19.0-1.0","SS1619740022277","trial","","40","500","5068.459999980405","images/stimuli/spore_stims/complex_15_A_b.gif","images/stimuli/spore_stims/complex_08_A_a.gif","forced_short","","5","complex_dissimilar","images/stimuli/spore_stims/complex_08_A_a.gif","","","","",""
"","null","html-keyboard-response","62","873598","0.0-19.0-0.1","SS1619740022277","","","null","","","","","","<p><img src= images/blank.png width =""600"" height = ""600"" style=""position:fixed;top:50%; left:50%; transform: translate(-50%, -50%); border:5px solid black"">","","","","","","","",""
"","194.9350000359118","sequential-stimulus-presentation-old","63","874300","0.0-19.0-1.1","SS1619740022277","trial","","40","500","694.9350000359118","images/stimuli/spore_stims/complex_15_A_b.gif","images/stimuli/spore_stims/complex_08_A_a.gif","forced_short","","5","complex_dissimilar","images/stimuli/spore_stims/complex_08_A_a.gif","","","","",""
"","null","html-keyboard-response","64","875449","0.0-19.0-0.2","SS1619740022277","","","null","","","","","","<p><img src= images/blank.png width =""600"" height = ""600"" style=""position:fixed;top:50%; left:50%; transform: translate(-50%, -50%); border:5px solid black"">","","","","","","","",""
"","336.38500003144145","sequential-stimulus-presentation-old","65","876291","0.0-19.0-1.2","SS1619740022277","trial","","40","500","836.3850000314415","images/stimuli/spore_stims/complex_15_A_b.gif","images/stimuli/spore_stims/complex_08_A_a.gif","forced_short","","5","complex_dissimilar","images/stimuli/spore_stims/complex_15_A_b.gif","","","","",""
"","null","html-keyboard-response","66","877595","0.0-19.0-0.3","SS1619740022277","","","null","","","","","","<p><img src= images/blank.png width =""600"" height = ""600"" style=""position:fixed;top:50%; left:50%; transform: translate(-50%, -50%); border:5px solid black"">","","","","","","","",""
"","173.85500005912036","sequential-stimulus-presentation-old","67","878273","0.0-19.0-1.3","SS1619740022277","trial","","40","500","673.8550000591204","images/stimuli/spore_stims/complex_15_A_b.gif","images/stimuli/spore_stims/complex_08_A_a.gif","forced_short","","5","complex_dissimilar","images/stimuli/spore_stims/complex_08_A_a.gif","","","","",""
"","2812.2150000417605","survey-multi-choice","68","881089","0.0-20.0","SS1619740022277","math_question","","","","","","","","","","","","{""Q0"":""10""}","[0]","10","",""
"","null","html-keyboard-response","69","881911","0.0-21.0-0.0","SS1619740022277","","","null","","","","","","<p><img src= images/blank.png width =""600"" height = ""600"" style=""position:fixed;top:50%; left:50%; transform: translate(-50%, -50%); border:5px solid black"">","","","","","","","",""
"","746.2799999630079","sequential-stimulus-presentation-old","70","883171","0.0-21.0-1.0","SS1619740022277","trial","","40","500","1246.2799999630079","images/stimuli/spore_stims/simple_18_A_b.gif","images/stimuli/spore_stims/simple_14_A_a.gif","self_paced","","6","simple_dissimilar","images/stimuli/spore_stims/simple_14_A_a.gif","","","","",""
"","null","html-keyboard-response","71","884060","0.0-21.0-0.1","SS1619740022277","","","null","","","","","","<p><img src= images/blank.png width =""600"" height = ""600"" style=""position:fixed;top:50%; left:50%; transform: translate(-50%, -50%); border:5px solid black"">","","","","","","","",""
"","271.8549999408424","sequential-stimulus-presentation-old","72","884838","0.0-21.0-1.1","SS1619740022277","trial","","40","500","771.8549999408424","images/stimuli/spore_stims/simple_18_A_b.gif","images/stimuli/spore_stims/simple_14_A_a.gif","self_paced","","6","simple_dissimilar","images/stimuli/spore_stims/simple_14_A_a.gif","","","","",""
"","null","html-keyboard-response","73","885817","0.0-21.0-0.2","SS1619740022277","","","null","","","","","","<p><img src= images/blank.png width =""600"" height = ""600"" style=""position:fixed;top:50%; left:50%; transform: translate(-50%, -50%); border:5px solid black"">","","","","","","","",""
"","110.395000083372","sequential-stimulus-presentation-old","74","886431","0.0-21.0-1.2","SS1619740022277","trial","","40","500","610.395000083372","images/stimuli/spore_stims/simple_18_A_b.gif","images/stimuli/spore_stims/simple_14_A_a.gif","self_paced","","6","simple_dissimilar","images/stimuli/spore_stims/simple_18_A_b.gif","","","","",""
"","null","html-keyboard-response","75","887575","0.0-21.0-0.3","SS1619740022277","","","null","","","","","","<p><img src= images/blank.png width =""600"" height = ""600"" style=""position:fixed;top:50%; left:50%; transform: translate(-50%, -50%); border:5px solid black"">","","","","","","","",""
"","111.05000006500632","sequential-stimulus-presentation-old","76","888189","0.0-21.0-1.3","SS1619740022277","trial","","40","500","611.0500000650063","images/stimuli/spore_stims/simple_18_A_b.gif","images/stimuli/spore_stims/simple_14_A_a.gif","self_paced","","6","simple_dissimilar","images/stimuli/spore_stims/simple_14_A_a.gif","","","","",""
"","null","html-keyboard-response","77","889224","0.0-21.0-0.4","SS1619740022277","","","null","","","","","","<p><img src= images/blank.png width =""600"" height = ""600"" style=""position:fixed;top:50%; left:50%; transform: translate(-50%, -50%); border:5px solid black"">","","","","","","","",""
"","157.78500004671514","sequential-stimulus-presentation-old","78","889890","0.0-21.0-1.4","SS1619740022277","trial","","40","500","657.7850000467151","images/stimuli/spore_stims/simple_18_A_b.gif","images/stimuli/spore_stims/simple_14_A_a.gif","self_paced","","6","simple_dissimilar","images/stimuli/spore_stims/simple_18_A_b.gif","","","","",""
"","2835.025000036694","survey-multi-choice","79","892730","0.0-22.0","SS1619740022277","math_question","","","","","","","","","","","","{""Q0"":""4""}","[0]","4","",""
"","null","html-keyboard-response","80","893721","0.0-23.0-0.0","SS1619740022277","","","null","","","","","","<p><img src= images/blank.png width =""600"" height = ""600"" style=""position:fixed;top:50%; left:50%; transform: translate(-50%, -50%); border:5px solid black"">","","","","","","","",""
"","54.739999934099615","sequential-stimulus-presentation-old","81","894284","0.0-23.0-1.0","SS1619740022277","trial","","40","500","554.7399999340996","images/stimuli/spore_stims/simple_09_A_b.gif","images/stimuli/spore_stims/simple_13_A_a.gif","forced_short","","7","simple_dissimilar","images/stimuli/spore_stims/simple_13_A_a.gif","","","","",""
"","null","html-keyboard-response","82","895103","0.0-23.0-0.1","SS1619740022277","","","null","","","","","","<p><img src= images/blank.png width =""600"" height = ""600"" style=""position:fixed;top:50%; left:50%; transform: translate(-50%, -50%); border:5px solid black"">","","","","","","","",""
"","117.14999994728714","sequential-stimulus-presentation-old","83","895736","0.0-23.0-1.1","SS1619740022277","trial","","40","500","617.1499999472871","images/stimuli/spore_stims/simple_09_A_b.gif","images/stimuli/spore_stims/simple_13_A_a.gif","forced_short","","7","simple_dissimilar","images/stimuli/spore_stims/simple_13_A_a.gif","","","","",""
"","null","html-keyboard-response","84","896995","0.0-23.0-0.2","SS1619740022277","","","null","","","","","","<p><img src= images/blank.png width =""600"" height = ""600"" style=""position:fixed;top:50%; left:50%; transform: translate(-50%, -50%); border:5px solid black"">","","","","","","","",""
"","54.539999924600124","sequential-stimulus-presentation-old","85","897559","0.0-23.0-1.2","SS1619740022277","trial","","40","500","554.5399999246001","images/stimuli/spore_stims/simple_09_A_b.gif","images/stimuli/spore_stims/simple_13_A_a.gif","forced_short","","7","simple_dissimilar","images/stimuli/spore_stims/simple_13_A_a.gif","","","","",""
"","null","html-keyboard-response","86","898817","0.0-23.0-0.3","SS1619740022277","","","null","","","","","","<p><img src= images/blank.png width =""600"" height = ""600"" style=""position:fixed;top:50%; left:50%; transform: translate(-50%, -50%); border:5px solid black"">","","","","","","","",""
"","368.17000003065914","sequential-stimulus-presentation-old","87","899689","0.0-23.0-1.3","SS1619740022277","trial","","40","500","868.1700000306591","images/stimuli/spore_stims/simple_09_A_b.gif","images/stimuli/spore_stims/simple_13_A_a.gif","forced_short","","7","simple_dissimilar","images/stimuli/spore_stims/simple_13_A_a.gif","","","","",""
"","null","html-keyboard-response","88","900617","0.0-23.0-0.4","SS1619740022277","","","null","","","","","","<p><img src= images/blank.png width =""600"" height = ""600"" style=""position:fixed;top:50%; left:50%; transform: translate(-50%, -50%); border:5px solid black"">","","","","","","","",""
"","182.0150000276044","sequential-stimulus-presentation-old","89","901311","0.0-23.0-1.4","SS1619740022277","trial","","40","500","682.0150000276044","images/stimuli/spore_stims/simple_09_A_b.gif","images/stimuli/spore_stims/simple_13_A_a.gif","forced_short","","7","simple_dissimilar","images/stimuli/spore_stims/simple_13_A_a.gif","","","","",""
"","3572.5450000027195","survey-multi-choice","90","904888","0.0-24.0","SS1619740022277","math_question","","","","","","","","","","","","{""Q0"":""3""}","[0]","3","",""
"","null","html-keyboard-response","91","905956","0.0-25.0-0.0","SS1619740022277","","","null","","","","","","<p><img src= images/blank.png width =""600"" height = ""600"" style=""position:fixed;top:50%; left:50%; transform: translate(-50%, -50%); border:5px solid black"">","","","","","","","",""
"","193.27499996870756","sequential-stimulus-presentation-old","92","906656","0.0-25.0-1.0","SS1619740022277","trial","","40","500","693.2749999687076","images/stimuli/spore_stims/simple_20_A_b.gif","images/stimuli/spore_stims/simple_09_A_a.gif","self_paced","","8","simple_dissimilar","images/stimuli/spore_stims/simple_09_A_a.gif","","","","",""
"","null","html-keyboard-response","93","907894","0.0-25.0-0.1","SS1619740022277","","","null","","","","","","<p><img src= images/blank.png width =""600"" height = ""600"" style=""position:fixed;top:50%; left:50%; transform: translate(-50%, -50%); border:5px solid black"">","","","","","","","",""
"","136.82000001426786","sequential-stimulus-presentation-old","94","908542","0.0-25.0-1.1","SS1619740022277","trial","","40","500","636.8200000142679","images/stimuli/spore_stims/simple_20_A_b.gif","images/stimuli/spore_stims/simple_09_A_a.gif","self_paced","","8","simple_dissimilar","images/stimuli/spore_stims/simple_09_A_a.gif","","","","",""
"","null","html-keyboard-response","95","909655","0.0-25.0-0.2","SS1619740022277","","","null","","","","","","<p><img src= images/blank.png width =""600"" height = ""600"" style=""position:fixed;top:50%; left:50%; transform: translate(-50%, -50%); border:5px solid black"">","","","","","","","",""
"","132.37999996636063","sequential-stimulus-presentation-old","96","910299","0.0-25.0-1.2","SS1619740022277","trial","","40","500","632.3799999663606","images/stimuli/spore_stims/simple_20_A_b.gif","images/stimuli/spore_stims/simple_09_A_a.gif","self_paced","","8","simple_dissimilar","images/stimuli/spore_stims/simple_09_A_a.gif","","","","",""
"","null","html-keyboard-response","97","911587","0.0-25.0-0.3","SS1619740022277","","","null","","","","","","<p><img src= images/blank.png width =""600"" height = ""600"" style=""position:fixed;top:50%; left:50%; transform: translate(-50%, -50%); border:5px solid black"">","","","","","","","",""
"","191.80999998934567","sequential-stimulus-presentation-old","98","912283","0.0-25.0-1.3","SS1619740022277","trial","","40","500","691.8099999893457","images/stimuli/spore_stims/simple_20_A_b.gif","images/stimuli/spore_stims/simple_09_A_a.gif","self_paced","","8","simple_dissimilar","images/stimuli/spore_stims/simple_09_A_a.gif","","","","",""
"","null","html-keyboard-response","99","913157","0.0-25.0-0.4","SS1619740022277","","","null","","","","","","<p><img src= images/blank.png width =""600"" height = ""600"" style=""position:fixed;top:50%; left:50%; transform: translate(-50%, -50%); border:5px solid black"">","","","","","","","",""
"","256.7650000564754","sequential-stimulus-presentation-old","100","913927","0.0-25.0-1.4","SS1619740022277","trial","","40","500","756.7650000564754","images/stimuli/spore_stims/simple_20_A_b.gif","images/stimuli/spore_stims/simple_09_A_a.gif","self_paced","","8","simple_dissimilar","images/stimuli/spore_stims/simple_20_A_b.gif","","","","",""
"","null","html-keyboard-response","101","915007","0.0-25.0-0.5","SS1619740022277","","","null","","","","","","<p><img src= images/blank.png width =""600"" height = ""600"" style=""position:fixed;top:50%; left:50%; transform: translate(-50%, -50%); border:5px solid black"">","","","","","","","",""
"","180.52500009071082","sequential-stimulus-presentation-old","102","915693","0.0-25.0-1.5","SS1619740022277","trial","","40","500","680.5250000907108","images/stimuli/spore_stims/simple_20_A_b.gif","images/stimuli/spore_stims/simple_09_A_a.gif","self_paced","","8","simple_dissimilar","images/stimuli/spore_stims/simple_20_A_b.gif","","","","",""
"","5195.035000098869","survey-multi-choice","103","920892","0.0-26.0","SS1619740022277","math_question","","","","","","","","","","","","{""Q0"":""11""}","[0]","11","",""
"","null","html-keyboard-response","104","922151","0.0-27.0-0.0","SS1619740022277","","","null","","","","","","<p><img src= images/blank.png width =""600"" height = ""600"" style=""position:fixed;top:50%; left:50%; transform: translate(-50%, -50%); border:5px solid black"">","","","","","","","",""
"","10321.72000000719","sequential-stimulus-presentation-old","105","933208","0.0-27.0-1.0","SS1619740022277","trial","","40","500","10821.72000000719","images/stimuli/spore_stims/complex_15_A_a.gif","images/stimuli/spore_stims/complex_07_A_b.gif","self_paced","","9","complex_dissimilar","images/stimuli/spore_stims/complex_07_A_b.gif","","","","",""
"","null","html-keyboard-response","106","934266","0.0-27.0-0.1","SS1619740022277","","","null","","","","","","<p><img src= images/blank.png width =""600"" height = ""600"" style=""position:fixed;top:50%; left:50%; transform: translate(-50%, -50%); border:5px solid black"">","","","","","","","",""
"","240.35000009462237","sequential-stimulus-presentation-old","107","935023","0.0-27.0-1.1","SS1619740022277","trial","","40","500","740.3500000946224","images/stimuli/spore_stims/complex_15_A_a.gif","images/stimuli/spore_stims/complex_07_A_b.gif","self_paced","","9","complex_dissimilar","images/stimuli/spore_stims/complex_07_A_b.gif","","","","",""
"","null","html-keyboard-response","108","935902","0.0-27.0-0.2","SS1619740022277","","","null","","","","","","<p><img src= images/blank.png width =""600"" height = ""600"" style=""position:fixed;top:50%; left:50%; transform: translate(-50%, -50%); border:5px solid black"">","","","","","","","",""
"","312.474999926053","sequential-stimulus-presentation-old","109","936724","0.0-27.0-1.2","SS1619740022277","trial","","40","500","812.474999926053","images/stimuli/spore_stims/complex_15_A_a.gif","images/stimuli/spore_stims/complex_07_A_b.gif","self_paced","","9","complex_dissimilar","images/stimuli/spore_stims/complex_07_A_b.gif","","","","",""
"","null","html-keyboard-response","110","937857","0.0-27.0-0.3","SS1619740022277","","","null","","","","","","<p><img src= images/blank.png width =""600"" height = ""600"" style=""position:fixed;top:50%; left:50%; transform: translate(-50%, -50%); border:5px solid black"">","","","","","","","",""
"","297.7199999149889","sequential-stimulus-presentation-old","111","938667","0.0-27.0-1.3","SS1619740022277","trial","","40","500","797.7199999149889","images/stimuli/spore_stims/complex_15_A_a.gif","images/stimuli/spore_stims/complex_07_A_b.gif","self_paced","","9","complex_dissimilar","images/stimuli/spore_stims/complex_07_A_b.gif","","","","",""
"","null","html-keyboard-response","112","939943","0.0-27.0-0.4","SS1619740022277","","","null","","","","","","<p><img src= images/blank.png width =""600"" height = ""600"" style=""position:fixed;top:50%; left:50%; transform: translate(-50%, -50%); border:5px solid black"">","","","","","","","",""
"","163.95499999634922","sequential-stimulus-presentation-old","113","940613","0.0-27.0-1.4","SS1619740022277","trial","","40","500","663.9549999963492","images/stimuli/spore_stims/complex_15_A_a.gif","images/stimuli/spore_stims/complex_07_A_b.gif","self_paced","","9","complex_dissimilar","images/stimuli/spore_stims/complex_07_A_b.gif","","","","",""
"","5099.044999922626","survey-multi-choice","114","945715","0.0-28.0","SS1619740022277","math_question","","","","","","","","","","","","{""Q0"":""14""}","[0]","14","",""
"","null","html-keyboard-response","115","946826","0.0-29.0-0.0","SS1619740022277","","","null","","","","","","<p><img src= images/blank.png width =""600"" height = ""600"" style=""position:fixed;top:50%; left:50%; transform: translate(-50%, -50%); border:5px solid black"">","","","","","","","",""
"","139.10499995108694","sequential-stimulus-presentation-old","116","947475","0.0-29.0-1.0","SS1619740022277","trial","","40","500","639.1049999510869","images/stimuli/spore_stims/simple_04_A_b.gif","images/stimuli/spore_stims/simple_03_A_a.gif","forced_short","","10","simple_dissimilar","images/stimuli/spore_stims/simple_03_A_a.gif","","","","",""
"","null","html-keyboard-response","117","948701","0.0-29.0-0.1","SS1619740022277","","","null","","","","","","<p><img src= images/blank.png width =""600"" height = ""600"" style=""position:fixed;top:50%; left:50%; transform: translate(-50%, -50%); border:5px solid black"">","","","","","","","",""
"","102.39000001456589","sequential-stimulus-presentation-old","118","949311","0.0-29.0-1.1","SS1619740022277","trial","","40","500","602.3900000145659","images/stimuli/spore_stims/simple_04_A_b.gif","images/stimuli/spore_stims/simple_03_A_a.gif","forced_short","","10","simple_dissimilar","images/stimuli/spore_stims/simple_03_A_a.gif","","","","",""
"","null","html-keyboard-response","119","950146","0.0-29.0-0.2","SS1619740022277","","","null","","","","","","<p><img src= images/blank.png width =""600"" height = ""600"" style=""position:fixed;top:50%; left:50%; transform: translate(-50%, -50%); border:5px solid black"">","","","","","","","",""
"","212.2199999867007","sequential-stimulus-presentation-old","120","950867","0.0-29.0-1.2","SS1619740022277","trial","","40","500","712.2199999867007","images/stimuli/spore_stims/simple_04_A_b.gif","images/stimuli/spore_stims/simple_03_A_a.gif","forced_short","","10","simple_dissimilar","images/stimuli/spore_stims/simple_03_A_a.gif","","","","",""
"","null","html-keyboard-response","121","952038","0.0-29.0-0.3","SS1619740022277","","","null","","","","","","<p><img src= images/blank.png width =""600"" height = ""600"" style=""position:fixed;top:50%; left:50%; transform: translate(-50%, -50%); border:5px solid black"">","","","","","","","",""
"","336.5649998886511","sequential-stimulus-presentation-old","122","952884","0.0-29.0-1.3","SS1619740022277","trial","","40","500","836.5649998886511","images/stimuli/spore_stims/simple_04_A_b.gif","images/stimuli/spore_stims/simple_03_A_a.gif","forced_short","","10","simple_dissimilar","images/stimuli/spore_stims/simple_03_A_a.gif","","","","",""
"","null","html-keyboard-response","123","954149","0.0-29.0-0.4","SS1619740022277","","","null","","","","","","<p><img src= images/blank.png width =""600"" height = ""600"" style=""position:fixed;top:50%; left:50%; transform: translate(-50%, -50%); border:5px solid black"">","","","","","","","",""
"","16.210000030696392","sequential-stimulus-presentation-old","124","954673","0.0-29.0-1.4","SS1619740022277","trial","","40","500","516.2100000306964","images/stimuli/spore_stims/simple_04_A_b.gif","images/stimuli/spore_stims/simple_03_A_a.gif","forced_short","","10","simple_dissimilar","images/stimuli/spore_stims/simple_03_A_a.gif","","","","",""
"","3709.430000046268","survey-multi-choice","125","958387","0.0-30.0","SS1619740022277","math_question","","","","","","","","","","","","{""Q0"":""14""}","[0]","14","",""
"","null","html-keyboard-response","126","959678","0.0-31.0-0.0","SS1619740022277","","","null","","","","","","<p><img src= images/blank.png width =""600"" height = ""600"" style=""position:fixed;top:50%; left:50%; transform: translate(-50%, -50%); border:5px solid black"">","","","","","","","",""
"","1755.7050000177696","sequential-stimulus-presentation-old","127","976441","0.0-31.0-1.0","SS1619740022277","trial","","40","500","2255.7050000177696","images/stimuli/spore_stims/complex_17_A_a.gif","images/stimuli/spore_stims/complex_05_A_b.gif","forced_long","","11","complex_dissimilar","images/stimuli/spore_stims/complex_05_A_b.gif","","","","",""
"","null","html-keyboard-response","128","977739","0.0-31.0-0.1","SS1619740022277","","","null","","","","","","<p><img src= images/blank.png width =""600"" height = ""600"" style=""position:fixed;top:50%; left:50%; transform: translate(-50%, -50%); border:5px solid black"">","","","","","","","",""
"","91.87000000383705","sequential-stimulus-presentation-old","129","978352","0.0-31.0-1.1","SS1619740022277","trial","","40","500","591.870000003837","images/stimuli/spore_stims/complex_17_A_a.gif","images/stimuli/spore_stims/complex_05_A_b.gif","forced_long","","11","complex_dissimilar","images/stimuli/spore_stims/complex_05_A_b.gif","","","","",""
"","null","html-keyboard-response","130","979531","0.0-31.0-0.2","SS1619740022277","","","null","","","","","","<p><img src= images/blank.png width =""600"" height = ""600"" style=""position:fixed;top:50%; left:50%; transform: translate(-50%, -50%); border:5px solid black"">","","","","","","","",""
"","35.89499997906387","sequential-stimulus-presentation-old","131","980078","0.0-31.0-1.2","SS1619740022277","trial","","40","500","535.8949999790639","images/stimuli/spore_stims/complex_17_A_a.gif","images/stimuli/spore_stims/complex_05_A_b.gif","forced_long","","11","complex_dissimilar","images/stimuli/spore_stims/complex_05_A_b.gif","","","","",""
"","null","html-keyboard-response","132","980942","0.0-31.0-0.3","SS1619740022277","","","null","","","","","","<p><img src= images/blank.png width =""600"" height = ""600"" style=""position:fixed;top:50%; left:50%; transform: translate(-50%, -50%); border:5px solid black"">","","","","","","","",""
"","136.4799999864772","sequential-stimulus-presentation-old","133","981589","0.0-31.0-1.3","SS1619740022277","trial","","40","500","636.4799999864772","images/stimuli/spore_stims/complex_17_A_a.gif","images/stimuli/spore_stims/complex_05_A_b.gif","forced_long","","11","complex_dissimilar","images/stimuli/spore_stims/complex_05_A_b.gif","","","","",""
"[{""page_index"":0,""viewing_time"":3256.5450000111014}]","3256.7249999847263","instructions","134","984852","0.0-32.0","SS1619740022277","instructions","","","","","","","","","","","","","","","",""
"","7381.944999913685","survey-likert","135","992237","0.0-33.0","SS1619740022277","similarity_question","","","","","","","","","","","","{""Q0"":0}","[0]","","images/stimuli/spore_stims/complex_19_A_b.gif","images/stimuli/spore_stims/complex_11_A_a.gif"
"","4545.039999997243","survey-likert","136","996786","0.0-34.0","SS1619740022277","similarity_question","","","","","","","","","","","","{""Q0"":5}","[0]","","images/stimuli/spore_stims/simple_12_A_a.gif","images/stimuli/spore_stims/simple_14_A_b.gif"
"","4373.535000020638","survey-likert","137","1001165","0.0-35.0","SS1619740022277","similarity_question","","","","","","","","","","","","{""Q0"":4}","[0]","","images/stimuli/spore_stims/simple_17_A_a.gif","images/stimuli/spore_stims/simple_12_A_b.gif"
"","5102.049999986775","survey-likert","138","1006273","0.0-36.0","SS1619740022277","similarity_question","","","","","","","","","","","","{""Q0"":6}","[0]","","images/stimuli/spore_stims/simple_09_A_b.gif","images/stimuli/spore_stims/simple_13_A_a.gif"
"","6738.039999967441","survey-likert","139","1013021","0.0-37.0","SS1619740022277","similarity_question","","","","","","","","","","","","{""Q0"":1}","[0]","","images/stimuli/spore_stims/complex_15_A_b.gif","images/stimuli/spore_stims/complex_08_A_a.gif"
"","2945.5099999904633","survey-likert","140","1015971","0.0-38.0","SS1619740022277","similarity_question","","","","","","","","","","","","{""Q0"":1}","[0]","","images/stimuli/spore_stims/complex_05_A_a.gif","images/stimuli/spore_stims/complex_13_A_b.gif"
"","3717.240000027232","survey-likert","141","1019693","0.0-39.0","SS1619740022277","similarity_question","","","","","","","","","","","","{""Q0"":6}","[0]","","images/stimuli/spore_stims/simple_09_A_a.gif","images/stimuli/spore_stims/simple_20_A_b.gif"
"","3261.479999986477","survey-likert","142","1022959","0.0-40.0","SS1619740022277","similarity_question","","","","","","","","","","","","{""Q0"":4}","[0]","","images/stimuli/spore_stims/simple_04_A_b.gif","images/stimuli/spore_stims/simple_03_A_a.gif"
"","3961.074999999255","survey-likert","143","1026925","0.0-41.0","SS1619740022277","similarity_question","","","","","","","","","","","","{""Q0"":5}","[0]","","images/stimuli/spore_stims/complex_19_A_a.gif","images/stimuli/spore_stims/complex_16_A_b.gif"
"","4467.230000067502","survey-likert","144","1031397","0.0-42.0","SS1619740022277","similarity_question","","","","","","","","","","","","{""Q0"":1}","[0]","","images/stimuli/spore_stims/simple_18_A_b.gif","images/stimuli/spore_stims/simple_14_A_a.gif"
"","2737.5750000355765","survey-likert","145","1034139","0.0-43.0","SS1619740022277","similarity_question","","","","","","","","","","","","{""Q0"":5}","[0]","","images/stimuli/spore_stims/complex_05_A_b.gif","images/stimuli/spore_stims/complex_17_A_a.gif"
"","2884.6599999815226","survey-likert","146","1037029","0.0-44.0","SS1619740022277","similarity_question","","","","","","","","","","","","{""Q0"":4}","[0]","","images/stimuli/spore_stims/complex_07_A_b.gif","images/stimuli/spore_stims/complex_15_A_a.gif"
"[{""page_index"":0,""viewing_time"":1330.0749999471009}]","1330.394999939017","instructions","147","1038362","0.0-45.0","SS1619740022277","instructions","","","","","","","","","","","","","","","",""
"","4799.855000106618","survey-likert","148","1043167","0.0-46.0","SS1619740022277","","","","","","","","","images/stimuli/spore_stims/simple_03_A_a.gif","","","","{""Q0"":4}","[0]","","",""
"","3887.1900000376627","survey-likert","149","1047059","0.0-47.0","SS1619740022277","","","","","","","","","images/stimuli/spore_stims/simple_17_A_a.gif","","","","{""Q0"":2}","[0]","","",""
"","3066.7250000406057","survey-likert","150","1050131","0.0-48.0","SS1619740022277","","","","","","","","","images/stimuli/spore_stims/complex_19_A_a.gif","","","","{""Q0"":6}","[0]","","",""
"","2847.3050000611693","survey-likert","151","1052983","0.0-49.0","SS1619740022277","","","","","","","","","images/stimuli/spore_stims/simple_14_A_b.gif","","","","{""Q0"":1}","[0]","","",""
"","2562.5700000673532","survey-likert","152","1055550","0.0-50.0","SS1619740022277","","","","","","","","","images/stimuli/spore_stims/simple_18_A_b.gif","","","","{""Q0"":1}","[0]","","",""
"","5343.069999944419","survey-likert","153","1060897","0.0-51.0","SS1619740022277","","","","","","","","","images/stimuli/spore_stims/complex_13_A_b.gif","","","","{""Q0"":5}","[0]","","",""
"","3820.6200000131503","survey-likert","154","1064723","0.0-52.0","SS1619740022277","","","","","","","","","images/stimuli/spore_stims/complex_08_A_a.gif","","","","{""Q0"":4}","[0]","","",""
"","4459.7000000067055","survey-likert","155","1069189","0.0-53.0","SS1619740022277","","","","","","","","","images/stimuli/spore_stims/complex_15_A_a.gif","","","","{""Q0"":5}","[0]","","",""
"","4372.604999924079","survey-likert","156","1073566","0.0-54.0","SS1619740022277","","","","","","","","","images/stimuli/spore_stims/complex_19_A_b.gif","","","","{""Q0"":6}","[0]","","",""
"","4474.949999945238","survey-likert","157","1078045","0.0-55.0","SS1619740022277","","","","","","","","","images/stimuli/spore_stims/simple_20_A_b.gif","","","","{""Q0"":4}","[0]","","",""
"","3503.290000022389","survey-likert","158","1081554","0.0-56.0","SS1619740022277","","","","","","","","","images/stimuli/spore_stims/complex_17_A_a.gif","","","","{""Q0"":5}","[0]","","",""
"","5338.349999976344","survey-likert","159","1086896","0.0-57.0","SS1619740022277","","","","","","","","","images/stimuli/spore_stims/simple_09_A_b.gif","","","","{""Q0"":2}","[0]","","",""
"[{""page_index"":0,""viewing_time"":1279.2450000997633}]","1279.5300000580028","instructions","160","1088180","0.0-58.0","SS1619740022277","instructions","","","","","","","","","","","","","","","",""
"","2013.2849999936298","demog-age","161","1090199","0.0-59.0","SS1619740022277","","","","","","","","","","","","","{""age"":""22""}","","","",""
"","2320.685000042431","demog-ethnic-US","162","1092527","0.0-60.0","SS1619740022277","","","","","","","","","","","","","{""ethnicity"":[""Hispanic or Latino""]}","[0]","","",""
"","6811.860000016168","demog-gender-and-education","163","1099345","0.0-61.0","SS1619740022277","","","","","","","","","","","","","{""gender"":""Female"",""education"":""Bachelor's Degree""}","[0,1]","","",""
"","16200.90000005439","survey-text","164","1115550","0.0-62.0","SS1619740022277","feedback","","","","","","","","","","","","{""Q0"":""no. Really good animations""}","","","",""
"[{""page_index"":0,""viewing_time"":796.5250000124797}]","796.7700000153854","instructions","165","1116350","0.0-63.0","SS1619740022277","instructions","","","","","","","","","","","","","","","",""
