"view_history","rt","trial_type","trial_index","time_elapsed","internal_node_id","subject","stimulus_type","trial_stimulus","key_press","minimum_viewing_duration","trial_looking_time","block_deviant","block_background","exposure_type","stimulus","block_number","block_type","stimulus_displayed","responses","question_order","math_correct_answer","stimulus_left","stimulus_right"
"[{""page_index"":0,""viewing_time"":9902.164999999513}]","9903.249999999389","instructions","0","9905","0.0-0.0","SS1619739243666","","","","","","","","","","","","","","","","",""
"[{""page_index"":0,""viewing_time"":16028.414999998859},{""page_index"":1,""viewing_time"":5532.375000000684}]","21561.249999998836","instructions","1","33470","0.0-1.0","SS1619739243666","instructions","","","","","","","","","","","","","","","",""
"","7243.039999999382","sequential-stimulus-presentation-old","2","41219","0.0-2.0","SS1619739243666","","","40","500","7743.039999999382","null","null","self_paced","","","","","","","","",""
"","4015.9550000007584","sequential-stimulus-presentation-old","3","45738","0.0-3.0","SS1619739243666","","","40","500","4515.955000000758","null","null","self_paced","","","","","","","","",""
"[{""page_index"":0,""viewing_time"":25981.82999999881}]","25982.28999999992","instructions","4","71721","0.0-4.0","SS1619739243666","instructions","","","","","","","","","","","","","","","",""
"","3006.12000000001","sequential-stimulus-presentation-old","5","89731","0.0-5.0","SS1619739243666","","","40","500","3506.12000000001","null","null","forced_long","","","","","","","","",""
"","4157.750000000306","sequential-stimulus-presentation-old","6","94392","0.0-6.0","SS1619739243666","","","40","500","4657.750000000306","null","null","forced_long","","","","","","","","",""
"[{""page_index"":0,""viewing_time"":3472.8350000004866}]","3473.374999999578","instructions","7","97866","0.0-7.0","SS1619739243666","instructions","","","","","","","","","","","","","","","",""
"[{""page_index"":0,""viewing_time"":13045.544999999038},{""page_index"":1,""viewing_time"":23217.955000000075},{""page_index"":2,""viewing_time"":7971.2949999993725},{""page_index"":3,""viewing_time"":1673.545000001468},{""page_index"":4,""viewing_time"":1664.3749999984866}]","47573.20999999867","instructions","8","145441","0.0-8.0","SS1619739243666","instructions","","","","","","","","","","","","","","","",""
"","null","html-keyboard-response","9","146400","0.0-9.0-0.0","SS1619739243666","","","null","","","","","","<p><img src= images/blank.png width =""600"" height = ""600"" style=""position:fixed;top:50%; left:50%; transform: translate(-50%, -50%); border:5px solid black"">","","","","","","","",""
"","741.9150000005029","sequential-stimulus-presentation-old","10","162154","0.0-9.0-1.0","SS1619739243666","trial","","40","500","1241.915000000503","images/stimuli/spore_stims/complex_18_A_b.gif","images/stimuli/spore_stims/complex_15_A_a.gif","forced_long","","0","complex_dissimilar","images/stimuli/spore_stims/complex_15_A_a.gif","","","","",""
"","null","html-keyboard-response","11","163072","0.0-9.0-0.1","SS1619739243666","","","null","","","","","","<p><img src= images/blank.png width =""600"" height = ""600"" style=""position:fixed;top:50%; left:50%; transform: translate(-50%, -50%); border:5px solid black"">","","","","","","","",""
"","2180.58500000005","sequential-stimulus-presentation-old","12","165760","0.0-9.0-1.1","SS1619739243666","trial","","40","500","2680.58500000005","images/stimuli/spore_stims/complex_18_A_b.gif","images/stimuli/spore_stims/complex_15_A_a.gif","forced_long","","0","complex_dissimilar","images/stimuli/spore_stims/complex_15_A_a.gif","","","","",""
"","null","html-keyboard-response","13","166945","0.0-9.0-0.2","SS1619739243666","","","null","","","","","","<p><img src= images/blank.png width =""600"" height = ""600"" style=""position:fixed;top:50%; left:50%; transform: translate(-50%, -50%); border:5px solid black"">","","","","","","","",""
"","2766.0800000012387","sequential-stimulus-presentation-old","14","170218","0.0-9.0-1.2","SS1619739243666","trial","","40","500","3266.0800000012387","images/stimuli/spore_stims/complex_18_A_b.gif","images/stimuli/spore_stims/complex_15_A_a.gif","forced_long","","0","complex_dissimilar","images/stimuli/spore_stims/complex_15_A_a.gif","","","","",""
"","null","html-keyboard-response","15","171345","0.0-9.0-0.3","SS1619739243666","","","null","","","","","","<p><img src= images/blank.png width =""600"" height = ""600"" style=""position:fixed;top:50%; left:50%; transform: translate(-50%, -50%); border:5px solid black"">","","","","","","","",""
"","4186.7949999996345","sequential-stimulus-presentation-old","16","176039","0.0-9.0-1.3","SS1619739243666","trial","","40","500","4686.7949999996345","images/stimuli/spore_stims/complex_18_A_b.gif","images/stimuli/spore_stims/complex_15_A_a.gif","forced_long","","0","complex_dissimilar","images/stimuli/spore_stims/complex_15_A_a.gif","","","","",""
"","null","html-keyboard-response","17","176961","0.0-9.0-0.4","SS1619739243666","","","null","","","","","","<p><img src= images/blank.png width =""600"" height = ""600"" style=""position:fixed;top:50%; left:50%; transform: translate(-50%, -50%); border:5px solid black"">","","","","","","","",""
"","6386.580000000307","sequential-stimulus-presentation-old","18","183854","0.0-9.0-1.4","SS1619739243666","trial","","40","500","6886.580000000307","images/stimuli/spore_stims/complex_18_A_b.gif","images/stimuli/spore_stims/complex_15_A_a.gif","forced_long","","0","complex_dissimilar","images/stimuli/spore_stims/complex_18_A_b.gif","","","","",""
"","null","html-keyboard-response","19","184920","0.0-9.0-0.5","SS1619739243666","","","null","","","","","","<p><img src= images/blank.png width =""600"" height = ""600"" style=""position:fixed;top:50%; left:50%; transform: translate(-50%, -50%); border:5px solid black"">","","","","","","","",""
"","3193.0850000008068","sequential-stimulus-presentation-old","20","188621","0.0-9.0-1.5","SS1619739243666","trial","","40","500","3693.0850000008068","images/stimuli/spore_stims/complex_18_A_b.gif","images/stimuli/spore_stims/complex_15_A_a.gif","forced_long","","0","complex_dissimilar","images/stimuli/spore_stims/complex_15_A_a.gif","","","","",""
"","6994.000000000611","survey-multi-choice","21","195618","0.0-10.0","SS1619739243666","math_question","","","","","","","","","","","","{""Q0"":""13""}","[0]","13","",""
"","null","html-keyboard-response","22","196536","0.0-11.0-0.0","SS1619739243666","","","null","","","","","","<p><img src= images/blank.png width =""600"" height = ""600"" style=""position:fixed;top:50%; left:50%; transform: translate(-50%, -50%); border:5px solid black"">","","","","","","","",""
"","950.0000000006985","sequential-stimulus-presentation-old","23","212490","0.0-11.0-1.0","SS1619739243666","trial","","40","500","1450.0000000006985","images/stimuli/spore_stims/complex_14_A_a.gif","images/stimuli/spore_stims/complex_08_A_b.gif","forced_long","","1","complex_dissimilar","images/stimuli/spore_stims/complex_08_A_b.gif","","","","",""
"","null","html-keyboard-response","24","213752","0.0-11.0-0.1","SS1619739243666","","","null","","","","","","<p><img src= images/blank.png width =""600"" height = ""600"" style=""position:fixed;top:50%; left:50%; transform: translate(-50%, -50%); border:5px solid black"">","","","","","","","",""
"","892.2899999997462","sequential-stimulus-presentation-old","25","215150","0.0-11.0-1.1","SS1619739243666","trial","","40","500","1392.2899999997462","images/stimuli/spore_stims/complex_14_A_a.gif","images/stimuli/spore_stims/complex_08_A_b.gif","forced_long","","1","complex_dissimilar","images/stimuli/spore_stims/complex_08_A_b.gif","","","","",""
"","null","html-keyboard-response","26","216228","0.0-11.0-0.2","SS1619739243666","","","null","","","","","","<p><img src= images/blank.png width =""600"" height = ""600"" style=""position:fixed;top:50%; left:50%; transform: translate(-50%, -50%); border:5px solid black"">","","","","","","","",""
"","2027.4599999993225","sequential-stimulus-presentation-old","27","218760","0.0-11.0-1.2","SS1619739243666","trial","","40","500","2527.4599999993225","images/stimuli/spore_stims/complex_14_A_a.gif","images/stimuli/spore_stims/complex_08_A_b.gif","forced_long","","1","complex_dissimilar","images/stimuli/spore_stims/complex_08_A_b.gif","","","","",""
"","null","html-keyboard-response","28","219769","0.0-11.0-0.3","SS1619739243666","","","null","","","","","","<p><img src= images/blank.png width =""600"" height = ""600"" style=""position:fixed;top:50%; left:50%; transform: translate(-50%, -50%); border:5px solid black"">","","","","","","","",""
"","2124.0799999995797","sequential-stimulus-presentation-old","29","222399","0.0-11.0-1.3","SS1619739243666","trial","","40","500","2624.0799999995797","images/stimuli/spore_stims/complex_14_A_a.gif","images/stimuli/spore_stims/complex_08_A_b.gif","forced_long","","1","complex_dissimilar","images/stimuli/spore_stims/complex_08_A_b.gif","","","","",""
"","null","html-keyboard-response","30","223341","0.0-11.0-0.4","SS1619739243666","","","null","","","","","","<p><img src= images/blank.png width =""600"" height = ""600"" style=""position:fixed;top:50%; left:50%; transform: translate(-50%, -50%); border:5px solid black"">","","","","","","","",""
"","2424.7950000007986","sequential-stimulus-presentation-old","31","226270","0.0-11.0-1.4","SS1619739243666","trial","","40","500","2924.7950000007986","images/stimuli/spore_stims/complex_14_A_a.gif","images/stimuli/spore_stims/complex_08_A_b.gif","forced_long","","1","complex_dissimilar","images/stimuli/spore_stims/complex_08_A_b.gif","","","","",""
"","null","html-keyboard-response","32","227253","0.0-11.0-0.5","SS1619739243666","","","null","","","","","","<p><img src= images/blank.png width =""600"" height = ""600"" style=""position:fixed;top:50%; left:50%; transform: translate(-50%, -50%); border:5px solid black"">","","","","","","","",""
"","2077.045000000013","sequential-stimulus-presentation-old","33","229834","0.0-11.0-1.5","SS1619739243666","trial","","40","500","2577.045000000013","images/stimuli/spore_stims/complex_14_A_a.gif","images/stimuli/spore_stims/complex_08_A_b.gif","forced_long","","1","complex_dissimilar","images/stimuli/spore_stims/complex_08_A_b.gif","","","","",""
"","4290.209999999206","survey-multi-choice","34","234126","0.0-12.0","SS1619739243666","math_question","","","","","","","","","","","","{""Q0"":""14""}","[0]","14","",""
"","null","html-keyboard-response","35","235196","0.0-13.0-0.0","SS1619739243666","","","null","","","","","","<p><img src= images/blank.png width =""600"" height = ""600"" style=""position:fixed;top:50%; left:50%; transform: translate(-50%, -50%); border:5px solid black"">","","","","","","","",""
"","12350.41499999896","sequential-stimulus-presentation-old","36","248050","0.0-13.0-1.0","SS1619739243666","trial","","40","500","12850.41499999896","images/stimuli/spore_stims/complex_01_A_b.gif","images/stimuli/spore_stims/complex_04_A_a.gif","self_paced","","2","complex_dissimilar","images/stimuli/spore_stims/complex_04_A_a.gif","","","","",""
"","null","html-keyboard-response","37","248986","0.0-13.0-0.1","SS1619739243666","","","null","","","","","","<p><img src= images/blank.png width =""600"" height = ""600"" style=""position:fixed;top:50%; left:50%; transform: translate(-50%, -50%); border:5px solid black"">","","","","","","","",""
"","3068.9149999998335","sequential-stimulus-presentation-old","38","252559","0.0-13.0-1.1","SS1619739243666","trial","","40","500","3568.9149999998335","images/stimuli/spore_stims/complex_01_A_b.gif","images/stimuli/spore_stims/complex_04_A_a.gif","self_paced","","2","complex_dissimilar","images/stimuli/spore_stims/complex_01_A_b.gif","","","","",""
"","null","html-keyboard-response","39","253431","0.0-13.0-0.2","SS1619739243666","","","null","","","","","","<p><img src= images/blank.png width =""600"" height = ""600"" style=""position:fixed;top:50%; left:50%; transform: translate(-50%, -50%); border:5px solid black"">","","","","","","","",""
"","8175.0449999999255","sequential-stimulus-presentation-old","40","262113","0.0-13.0-1.2","SS1619739243666","trial","","40","500","8675.044999999925","images/stimuli/spore_stims/complex_01_A_b.gif","images/stimuli/spore_stims/complex_04_A_a.gif","self_paced","","2","complex_dissimilar","images/stimuli/spore_stims/complex_01_A_b.gif","","","","",""
"","null","html-keyboard-response","41","263036","0.0-13.0-0.3","SS1619739243666","","","null","","","","","","<p><img src= images/blank.png width =""600"" height = ""600"" style=""position:fixed;top:50%; left:50%; transform: translate(-50%, -50%); border:5px solid black"">","","","","","","","",""
"","3692.1249999995925","sequential-stimulus-presentation-old","42","267238","0.0-13.0-1.3","SS1619739243666","trial","","40","500","4192.124999999593","images/stimuli/spore_stims/complex_01_A_b.gif","images/stimuli/spore_stims/complex_04_A_a.gif","self_paced","","2","complex_dissimilar","images/stimuli/spore_stims/complex_04_A_a.gif","","","","",""
"","null","html-keyboard-response","43","268279","0.0-13.0-0.4","SS1619739243666","","","null","","","","","","<p><img src= images/blank.png width =""600"" height = ""600"" style=""position:fixed;top:50%; left:50%; transform: translate(-50%, -50%); border:5px solid black"">","","","","","","","",""
"","2633.0850000012433","sequential-stimulus-presentation-old","44","271419","0.0-13.0-1.4","SS1619739243666","trial","","40","500","3133.0850000012433","images/stimuli/spore_stims/complex_01_A_b.gif","images/stimuli/spore_stims/complex_04_A_a.gif","self_paced","","2","complex_dissimilar","images/stimuli/spore_stims/complex_04_A_a.gif","","","","",""
"","3164.1249999993597","survey-multi-choice","45","274585","0.0-14.0","SS1619739243666","math_question","","","","","","","","","","","","{""Q0"":""6""}","[0]","6","",""
"","null","html-keyboard-response","46","275618","0.0-15.0-0.0","SS1619739243666","","","null","","","","","","<p><img src= images/blank.png width =""600"" height = ""600"" style=""position:fixed;top:50%; left:50%; transform: translate(-50%, -50%); border:5px solid black"">","","","","","","","",""
"","2876.2449999994715","sequential-stimulus-presentation-old","47","279001","0.0-15.0-1.0","SS1619739243666","trial","","40","500","3376.2449999994715","images/stimuli/spore_stims/simple_17_A_b.gif","images/stimuli/spore_stims/simple_12_A_a.gif","forced_short","","3","simple_dissimilar","images/stimuli/spore_stims/simple_12_A_a.gif","","","","",""
"","null","html-keyboard-response","48","280128","0.0-15.0-0.1","SS1619739243666","","","null","","","","","","<p><img src= images/blank.png width =""600"" height = ""600"" style=""position:fixed;top:50%; left:50%; transform: translate(-50%, -50%); border:5px solid black"">","","","","","","","",""
"","3077.8749999990105","sequential-stimulus-presentation-old","49","283711","0.0-15.0-1.1","SS1619739243666","trial","","40","500","3577.8749999990105","images/stimuli/spore_stims/simple_17_A_b.gif","images/stimuli/spore_stims/simple_12_A_a.gif","forced_short","","3","simple_dissimilar","images/stimuli/spore_stims/simple_12_A_a.gif","","","","",""
"","null","html-keyboard-response","50","284778","0.0-15.0-0.2","SS1619739243666","","","null","","","","","","<p><img src= images/blank.png width =""600"" height = ""600"" style=""position:fixed;top:50%; left:50%; transform: translate(-50%, -50%); border:5px solid black"">","","","","","","","",""
"","1299.3749999986612","sequential-stimulus-presentation-old","51","286587","0.0-15.0-1.2","SS1619739243666","trial","","40","500","1799.3749999986612","images/stimuli/spore_stims/simple_17_A_b.gif","images/stimuli/spore_stims/simple_12_A_a.gif","forced_short","","3","simple_dissimilar","images/stimuli/spore_stims/simple_12_A_a.gif","","","","",""
"","null","html-keyboard-response","52","287644","0.0-15.0-0.3","SS1619739243666","","","null","","","","","","<p><img src= images/blank.png width =""600"" height = ""600"" style=""position:fixed;top:50%; left:50%; transform: translate(-50%, -50%); border:5px solid black"">","","","","","","","",""
"","2960.125000001397","sequential-stimulus-presentation-old","53","291109","0.0-15.0-1.3","SS1619739243666","trial","","40","500","3460.125000001397","images/stimuli/spore_stims/simple_17_A_b.gif","images/stimuli/spore_stims/simple_12_A_a.gif","forced_short","","3","simple_dissimilar","images/stimuli/spore_stims/simple_17_A_b.gif","","","","",""
"","null","html-keyboard-response","54","292279","0.0-15.0-0.4","SS1619739243666","","","null","","","","","","<p><img src= images/blank.png width =""600"" height = ""600"" style=""position:fixed;top:50%; left:50%; transform: translate(-50%, -50%); border:5px solid black"">","","","","","","","",""
"","2597.6649999993388","sequential-stimulus-presentation-old","55","295384","0.0-15.0-1.4","SS1619739243666","trial","","40","500","3097.6649999993388","images/stimuli/spore_stims/simple_17_A_b.gif","images/stimuli/spore_stims/simple_12_A_a.gif","forced_short","","3","simple_dissimilar","images/stimuli/spore_stims/simple_12_A_a.gif","","","","",""
"","5280.789999998873","survey-multi-choice","56","300667","0.0-16.0","SS1619739243666","math_question","","","","","","","","","","","","{""Q0"":""12""}","[0]","12","",""
"","null","html-keyboard-response","57","301855","0.0-17.0-0.0","SS1619739243666","","","null","","","","","","<p><img src= images/blank.png width =""600"" height = ""600"" style=""position:fixed;top:50%; left:50%; transform: translate(-50%, -50%); border:5px solid black"">","","","","","","","",""
"","6094.039999999979","sequential-stimulus-presentation-old","58","308454","0.0-17.0-1.0","SS1619739243666","trial","","40","500","6594.039999999979","images/stimuli/spore_stims/complex_17_A_a.gif","images/stimuli/spore_stims/complex_14_A_b.gif","self_paced","","4","complex_dissimilar","images/stimuli/spore_stims/complex_14_A_b.gif","","","","",""
"","null","html-keyboard-response","59","309458","0.0-17.0-0.1","SS1619739243666","","","null","","","","","","<p><img src= images/blank.png width =""600"" height = ""600"" style=""position:fixed;top:50%; left:50%; transform: translate(-50%, -50%); border:5px solid black"">","","","","","","","",""
"","5033.755000000412","sequential-stimulus-presentation-old","60","314995","0.0-17.0-1.1","SS1619739243666","trial","","40","500","5533.755000000412","images/stimuli/spore_stims/complex_17_A_a.gif","images/stimuli/spore_stims/complex_14_A_b.gif","self_paced","","4","complex_dissimilar","images/stimuli/spore_stims/complex_14_A_b.gif","","","","",""
"","null","html-keyboard-response","61","315986","0.0-17.0-0.2","SS1619739243666","","","null","","","","","","<p><img src= images/blank.png width =""600"" height = ""600"" style=""position:fixed;top:50%; left:50%; transform: translate(-50%, -50%); border:5px solid black"">","","","","","","","",""
"","6786.249999999185","sequential-stimulus-presentation-old","62","323277","0.0-17.0-1.2","SS1619739243666","trial","","40","500","7286.249999999185","images/stimuli/spore_stims/complex_17_A_a.gif","images/stimuli/spore_stims/complex_14_A_b.gif","self_paced","","4","complex_dissimilar","images/stimuli/spore_stims/complex_17_A_a.gif","","","","",""
"","null","html-keyboard-response","63","324146","0.0-17.0-0.3","SS1619739243666","","","null","","","","","","<p><img src= images/blank.png width =""600"" height = ""600"" style=""position:fixed;top:50%; left:50%; transform: translate(-50%, -50%); border:5px solid black"">","","","","","","","",""
"","3775.1250000001164","sequential-stimulus-presentation-old","64","328428","0.0-17.0-1.3","SS1619739243666","trial","","40","500","4275.125000000116","images/stimuli/spore_stims/complex_17_A_a.gif","images/stimuli/spore_stims/complex_14_A_b.gif","self_paced","","4","complex_dissimilar","images/stimuli/spore_stims/complex_14_A_b.gif","","","","",""
"","null","html-keyboard-response","65","329479","0.0-17.0-0.4","SS1619739243666","","","null","","","","","","<p><img src= images/blank.png width =""600"" height = ""600"" style=""position:fixed;top:50%; left:50%; transform: translate(-50%, -50%); border:5px solid black"">","","","","","","","",""
"","2822.2549999991315","sequential-stimulus-presentation-old","66","332808","0.0-17.0-1.4","SS1619739243666","trial","","40","500","3322.2549999991315","images/stimuli/spore_stims/complex_17_A_a.gif","images/stimuli/spore_stims/complex_14_A_b.gif","self_paced","","4","complex_dissimilar","images/stimuli/spore_stims/complex_14_A_b.gif","","","","",""
"","null","html-keyboard-response","67","333712","0.0-17.0-0.5","SS1619739243666","","","null","","","","","","<p><img src= images/blank.png width =""600"" height = ""600"" style=""position:fixed;top:50%; left:50%; transform: translate(-50%, -50%); border:5px solid black"">","","","","","","","",""
"","2127.664999999921","sequential-stimulus-presentation-old","68","336343","0.0-17.0-1.5","SS1619739243666","trial","","40","500","2627.664999999921","images/stimuli/spore_stims/complex_17_A_a.gif","images/stimuli/spore_stims/complex_14_A_b.gif","self_paced","","4","complex_dissimilar","images/stimuli/spore_stims/complex_14_A_b.gif","","","","",""
"","4458.164999999979","survey-multi-choice","69","340804","0.0-18.0","SS1619739243666","math_question","","","","","","","","","","","","{""Q0"":""13""}","[0]","13","",""
"","null","html-keyboard-response","70","341713","0.0-19.0-0.0","SS1619739243666","","","null","","","","","","<p><img src= images/blank.png width =""600"" height = ""600"" style=""position:fixed;top:50%; left:50%; transform: translate(-50%, -50%); border:5px solid black"">","","","","","","","",""
"","5610.875000000291","sequential-stimulus-presentation-old","71","347827","0.0-19.0-1.0","SS1619739243666","trial","","40","500","6110.875000000291","images/stimuli/spore_stims/simple_05_A_b.gif","images/stimuli/spore_stims/simple_20_A_a.gif","forced_short","","5","simple_dissimilar","images/stimuli/spore_stims/simple_20_A_a.gif","","","","",""
"","null","html-keyboard-response","72","348990","0.0-19.0-0.1","SS1619739243666","","","null","","","","","","<p><img src= images/blank.png width =""600"" height = ""600"" style=""position:fixed;top:50%; left:50%; transform: translate(-50%, -50%); border:5px solid black"">","","","","","","","",""
"","3206.7499999993597","sequential-stimulus-presentation-old","73","352702","0.0-19.0-1.1","SS1619739243666","trial","","40","500","3706.7499999993597","images/stimuli/spore_stims/simple_05_A_b.gif","images/stimuli/spore_stims/simple_20_A_a.gif","forced_short","","5","simple_dissimilar","images/stimuli/spore_stims/simple_20_A_a.gif","","","","",""
"","null","html-keyboard-response","74","353828","0.0-19.0-0.2","SS1619739243666","","","null","","","","","","<p><img src= images/blank.png width =""600"" height = ""600"" style=""position:fixed;top:50%; left:50%; transform: translate(-50%, -50%); border:5px solid black"">","","","","","","","",""
"","2611.205000001064","sequential-stimulus-presentation-old","75","356950","0.0-19.0-1.2","SS1619739243666","trial","","40","500","3111.205000001064","images/stimuli/spore_stims/simple_05_A_b.gif","images/stimuli/spore_stims/simple_20_A_a.gif","forced_short","","5","simple_dissimilar","images/stimuli/spore_stims/simple_20_A_a.gif","","","","",""
"","null","html-keyboard-response","76","358146","0.0-19.0-0.3","SS1619739243666","","","null","","","","","","<p><img src= images/blank.png width =""600"" height = ""600"" style=""position:fixed;top:50%; left:50%; transform: translate(-50%, -50%); border:5px solid black"">","","","","","","","",""
"","1559.5400000002119","sequential-stimulus-presentation-old","77","360211","0.0-19.0-1.3","SS1619739243666","trial","","40","500","2059.540000000212","images/stimuli/spore_stims/simple_05_A_b.gif","images/stimuli/spore_stims/simple_20_A_a.gif","forced_short","","5","simple_dissimilar","images/stimuli/spore_stims/simple_20_A_a.gif","","","","",""
"","null","html-keyboard-response","78","361479","0.0-19.0-0.4","SS1619739243666","","","null","","","","","","<p><img src= images/blank.png width =""600"" height = ""600"" style=""position:fixed;top:50%; left:50%; transform: translate(-50%, -50%); border:5px solid black"">","","","","","","","",""
"","6066.124999999418","sequential-stimulus-presentation-old","79","368050","0.0-19.0-1.4","SS1619739243666","trial","","40","500","6566.124999999418","images/stimuli/spore_stims/simple_05_A_b.gif","images/stimuli/spore_stims/simple_20_A_a.gif","forced_short","","5","simple_dissimilar","images/stimuli/spore_stims/simple_05_A_b.gif","","","","",""
"","null","html-keyboard-response","80","369083","0.0-19.0-0.5","SS1619739243666","","","null","","","","","","<p><img src= images/blank.png width =""600"" height = ""600"" style=""position:fixed;top:50%; left:50%; transform: translate(-50%, -50%); border:5px solid black"">","","","","","","","",""
"","3094.2050000012387","sequential-stimulus-presentation-old","81","372685","0.0-19.0-1.5","SS1619739243666","trial","","40","500","3594.2050000012387","images/stimuli/spore_stims/simple_05_A_b.gif","images/stimuli/spore_stims/simple_20_A_a.gif","forced_short","","5","simple_dissimilar","images/stimuli/spore_stims/simple_05_A_b.gif","","","","",""
"","2992.7500000012806","survey-multi-choice","82","375682","0.0-20.0","SS1619739243666","math_question","","","","","","","","","","","","{""Q0"":""11""}","[0]","11","",""
"","null","html-keyboard-response","83","376908","0.0-21.0-0.0","SS1619739243666","","","null","","","","","","<p><img src= images/blank.png width =""600"" height = ""600"" style=""position:fixed;top:50%; left:50%; transform: translate(-50%, -50%); border:5px solid black"">","","","","","","","",""
"","3420.88000000146","sequential-stimulus-presentation-old","84","380834","0.0-21.0-1.0","SS1619739243666","trial","","40","500","3920.88000000146","images/stimuli/spore_stims/simple_13_A_b.gif","images/stimuli/spore_stims/simple_03_A_a.gif","self_paced","","6","simple_dissimilar","images/stimuli/spore_stims/simple_03_A_a.gif","","","","",""
"","null","html-keyboard-response","85","381804","0.0-21.0-0.1","SS1619739243666","","","null","","","","","","<p><img src= images/blank.png width =""600"" height = ""600"" style=""position:fixed;top:50%; left:50%; transform: translate(-50%, -50%); border:5px solid black"">","","","","","","","",""
"","1347.2500000006985","sequential-stimulus-presentation-old","86","383660","0.0-21.0-1.1","SS1619739243666","trial","","40","500","1847.2500000006985","images/stimuli/spore_stims/simple_13_A_b.gif","images/stimuli/spore_stims/simple_03_A_a.gif","self_paced","","6","simple_dissimilar","images/stimuli/spore_stims/simple_03_A_a.gif","","","","",""
"","null","html-keyboard-response","87","384853","0.0-21.0-0.2","SS1619739243666","","","null","","","","","","<p><img src= images/blank.png width =""600"" height = ""600"" style=""position:fixed;top:50%; left:50%; transform: translate(-50%, -50%); border:5px solid black"">","","","","","","","",""
"","2971.455000000773","sequential-stimulus-presentation-old","88","388328","0.0-21.0-1.2","SS1619739243666","trial","","40","500","3471.455000000773","images/stimuli/spore_stims/simple_13_A_b.gif","images/stimuli/spore_stims/simple_03_A_a.gif","self_paced","","6","simple_dissimilar","images/stimuli/spore_stims/simple_13_A_b.gif","","","","",""
"","null","html-keyboard-response","89","389581","0.0-21.0-0.3","SS1619739243666","","","null","","","","","","<p><img src= images/blank.png width =""600"" height = ""600"" style=""position:fixed;top:50%; left:50%; transform: translate(-50%, -50%); border:5px solid black"">","","","","","","","",""
"","2347.710000000021","sequential-stimulus-presentation-old","90","392435","0.0-21.0-1.3","SS1619739243666","trial","","40","500","2847.710000000021","images/stimuli/spore_stims/simple_13_A_b.gif","images/stimuli/spore_stims/simple_03_A_a.gif","self_paced","","6","simple_dissimilar","images/stimuli/spore_stims/simple_03_A_a.gif","","","","",""
"","null","html-keyboard-response","91","393362","0.0-21.0-0.4","SS1619739243666","","","null","","","","","","<p><img src= images/blank.png width =""600"" height = ""600"" style=""position:fixed;top:50%; left:50%; transform: translate(-50%, -50%); border:5px solid black"">","","","","","","","",""
"","5144.000000000233","sequential-stimulus-presentation-old","92","399013","0.0-21.0-1.4","SS1619739243666","trial","","40","500","5644.000000000233","images/stimuli/spore_stims/simple_13_A_b.gif","images/stimuli/spore_stims/simple_03_A_a.gif","self_paced","","6","simple_dissimilar","images/stimuli/spore_stims/simple_13_A_b.gif","","","","",""
"","3083.7950000004494","survey-multi-choice","93","402100","0.0-22.0","SS1619739243666","math_question","","","","","","","","","","","","{""Q0"":""5""}","[0]","5","",""
"","null","html-keyboard-response","94","403399","0.0-23.0-0.0","SS1619739243666","","","null","","","","","","<p><img src= images/blank.png width =""600"" height = ""600"" style=""position:fixed;top:50%; left:50%; transform: translate(-50%, -50%); border:5px solid black"">","","","","","","","",""
"","3372.6649999989895","sequential-stimulus-presentation-old","95","421780","0.0-23.0-1.0","SS1619739243666","trial","","40","500","3872.6649999989895","images/stimuli/spore_stims/simple_16_A_a.gif","images/stimuli/spore_stims/simple_19_A_b.gif","forced_long","","7","simple_dissimilar","images/stimuli/spore_stims/simple_19_A_b.gif","","","","",""
"","null","html-keyboard-response","96","422978","0.0-23.0-0.1","SS1619739243666","","","null","","","","","","<p><img src= images/blank.png width =""600"" height = ""600"" style=""position:fixed;top:50%; left:50%; transform: translate(-50%, -50%); border:5px solid black"">","","","","","","","",""
"","2465.835000000836","sequential-stimulus-presentation-old","97","425950","0.0-23.0-1.1","SS1619739243666","trial","","40","500","2965.835000000836","images/stimuli/spore_stims/simple_16_A_a.gif","images/stimuli/spore_stims/simple_19_A_b.gif","forced_long","","7","simple_dissimilar","images/stimuli/spore_stims/simple_16_A_a.gif","","","","",""
"","null","html-keyboard-response","98","426839","0.0-23.0-0.2","SS1619739243666","","","null","","","","","","<p><img src= images/blank.png width =""600"" height = ""600"" style=""position:fixed;top:50%; left:50%; transform: translate(-50%, -50%); border:5px solid black"">","","","","","","","",""
"","2721.994999999879","sequential-stimulus-presentation-old","99","430069","0.0-23.0-1.2","SS1619739243666","trial","","40","500","3221.994999999879","images/stimuli/spore_stims/simple_16_A_a.gif","images/stimuli/spore_stims/simple_19_A_b.gif","forced_long","","7","simple_dissimilar","images/stimuli/spore_stims/simple_19_A_b.gif","","","","",""
"","null","html-keyboard-response","100","431308","0.0-23.0-0.3","SS1619739243666","","","null","","","","","","<p><img src= images/blank.png width =""600"" height = ""600"" style=""position:fixed;top:50%; left:50%; transform: translate(-50%, -50%); border:5px solid black"">","","","","","","","",""
"","14138.879999998608","sequential-stimulus-presentation-old","101","445954","0.0-23.0-1.3","SS1619739243666","trial","","40","500","14638.879999998608","images/stimuli/spore_stims/simple_16_A_a.gif","images/stimuli/spore_stims/simple_19_A_b.gif","forced_long","","7","simple_dissimilar","images/stimuli/spore_stims/simple_19_A_b.gif","","","","",""
"","6033.750000000524","survey-multi-choice","102","451991","0.0-24.0","SS1619739243666","math_question","","","","","","","","","","","","{""Q0"":""12""}","[0]","12","",""
"","null","html-keyboard-response","103","453020","0.0-25.0-0.0","SS1619739243666","","","null","","","","","","<p><img src= images/blank.png width =""600"" height = ""600"" style=""position:fixed;top:50%; left:50%; transform: translate(-50%, -50%); border:5px solid black"">","","","","","","","",""
"","5843.375000000349","sequential-stimulus-presentation-old","104","473872","0.0-25.0-1.0","SS1619739243666","trial","","40","500","6343.375000000349","images/stimuli/spore_stims/simple_06_A_b.gif","images/stimuli/spore_stims/simple_18_A_a.gif","forced_long","","8","simple_dissimilar","images/stimuli/spore_stims/simple_18_A_a.gif","","","","",""
"","null","html-keyboard-response","105","475004","0.0-25.0-0.1","SS1619739243666","","","null","","","","","","<p><img src= images/blank.png width =""600"" height = ""600"" style=""position:fixed;top:50%; left:50%; transform: translate(-50%, -50%); border:5px solid black"">","","","","","","","",""
"","4253.8350000013015","sequential-stimulus-presentation-old","106","479768","0.0-25.0-1.1","SS1619739243666","trial","","40","500","4753.8350000013015","images/stimuli/spore_stims/simple_06_A_b.gif","images/stimuli/spore_stims/simple_18_A_a.gif","forced_long","","8","simple_dissimilar","images/stimuli/spore_stims/simple_18_A_a.gif","","","","",""
"","null","html-keyboard-response","107","481044","0.0-25.0-0.2","SS1619739243666","","","null","","","","","","<p><img src= images/blank.png width =""600"" height = ""600"" style=""position:fixed;top:50%; left:50%; transform: translate(-50%, -50%); border:5px solid black"">","","","","","","","",""
"","4992.250000001106","sequential-stimulus-presentation-old","108","486546","0.0-25.0-1.2","SS1619739243666","trial","","40","500","5492.250000001106","images/stimuli/spore_stims/simple_06_A_b.gif","images/stimuli/spore_stims/simple_18_A_a.gif","forced_long","","8","simple_dissimilar","images/stimuli/spore_stims/simple_18_A_a.gif","","","","",""
"","null","html-keyboard-response","109","487805","0.0-25.0-0.3","SS1619739243666","","","null","","","","","","<p><img src= images/blank.png width =""600"" height = ""600"" style=""position:fixed;top:50%; left:50%; transform: translate(-50%, -50%); border:5px solid black"">","","","","","","","",""
"","6990.289999999746","sequential-stimulus-presentation-old","110","495302","0.0-25.0-1.3","SS1619739243666","trial","","40","500","7490.289999999746","images/stimuli/spore_stims/simple_06_A_b.gif","images/stimuli/spore_stims/simple_18_A_a.gif","forced_long","","8","simple_dissimilar","images/stimuli/spore_stims/simple_06_A_b.gif","","","","",""
"","null","html-keyboard-response","111","496595","0.0-25.0-0.4","SS1619739243666","","","null","","","","","","<p><img src= images/blank.png width =""600"" height = ""600"" style=""position:fixed;top:50%; left:50%; transform: translate(-50%, -50%); border:5px solid black"">","","","","","","","",""
"","823.000000000291","sequential-stimulus-presentation-old","112","497923","0.0-25.0-1.4","SS1619739243666","trial","","40","500","1323.000000000291","images/stimuli/spore_stims/simple_06_A_b.gif","images/stimuli/spore_stims/simple_18_A_a.gif","forced_long","","8","simple_dissimilar","images/stimuli/spore_stims/simple_18_A_a.gif","","","","",""
"","null","html-keyboard-response","113","499004","0.0-25.0-0.5","SS1619739243666","","","null","","","","","","<p><img src= images/blank.png width =""600"" height = ""600"" style=""position:fixed;top:50%; left:50%; transform: translate(-50%, -50%); border:5px solid black"">","","","","","","","",""
"","2440.124999999185","sequential-stimulus-presentation-old","114","501952","0.0-25.0-1.5","SS1619739243666","trial","","40","500","2940.124999999185","images/stimuli/spore_stims/simple_06_A_b.gif","images/stimuli/spore_stims/simple_18_A_a.gif","forced_long","","8","simple_dissimilar","images/stimuli/spore_stims/simple_06_A_b.gif","","","","",""
"","6647.414999999455","survey-multi-choice","115","508602","0.0-26.0","SS1619739243666","math_question","","","","","","","","","","","","{""Q0"":""7""}","[0]","7","",""
"","null","html-keyboard-response","116","509678","0.0-27.0-0.0","SS1619739243666","","","null","","","","","","<p><img src= images/blank.png width =""600"" height = ""600"" style=""position:fixed;top:50%; left:50%; transform: translate(-50%, -50%); border:5px solid black"">","","","","","","","",""
"","2909.3749999992433","sequential-stimulus-presentation-old","117","513095","0.0-27.0-1.0","SS1619739243666","trial","","40","500","3409.3749999992433","images/stimuli/spore_stims/complex_05_A_b.gif","images/stimuli/spore_stims/complex_09_A_a.gif","forced_short","","9","complex_dissimilar","images/stimuli/spore_stims/complex_09_A_a.gif","","","","",""
"","null","html-keyboard-response","118","514231","0.0-27.0-0.1","SS1619739243666","","","null","","","","","","<p><img src= images/blank.png width =""600"" height = ""600"" style=""position:fixed;top:50%; left:50%; transform: translate(-50%, -50%); border:5px solid black"">","","","","","","","",""
"","5023.040000000037","sequential-stimulus-presentation-old","119","519759","0.0-27.0-1.1","SS1619739243666","trial","","40","500","5523.040000000037","images/stimuli/spore_stims/complex_05_A_b.gif","images/stimuli/spore_stims/complex_09_A_a.gif","forced_short","","9","complex_dissimilar","images/stimuli/spore_stims/complex_09_A_a.gif","","","","",""
"","null","html-keyboard-response","120","520812","0.0-27.0-0.2","SS1619739243666","","","null","","","","","","<p><img src= images/blank.png width =""600"" height = ""600"" style=""position:fixed;top:50%; left:50%; transform: translate(-50%, -50%); border:5px solid black"">","","","","","","","",""
"","4693.585000000894","sequential-stimulus-presentation-old","121","526012","0.0-27.0-1.2","SS1619739243666","trial","","40","500","5193.585000000894","images/stimuli/spore_stims/complex_05_A_b.gif","images/stimuli/spore_stims/complex_09_A_a.gif","forced_short","","9","complex_dissimilar","images/stimuli/spore_stims/complex_09_A_a.gif","","","","",""
"","null","html-keyboard-response","122","526887","0.0-27.0-0.3","SS1619739243666","","","null","","","","","","<p><img src= images/blank.png width =""600"" height = ""600"" style=""position:fixed;top:50%; left:50%; transform: translate(-50%, -50%); border:5px solid black"">","","","","","","","",""
"","3418.6699999991106","sequential-stimulus-presentation-old","123","530815","0.0-27.0-1.3","SS1619739243666","trial","","40","500","3918.6699999991106","images/stimuli/spore_stims/complex_05_A_b.gif","images/stimuli/spore_stims/complex_09_A_a.gif","forced_short","","9","complex_dissimilar","images/stimuli/spore_stims/complex_09_A_a.gif","","","","",""
"","null","html-keyboard-response","124","532012","0.0-27.0-0.4","SS1619739243666","","","null","","","","","","<p><img src= images/blank.png width =""600"" height = ""600"" style=""position:fixed;top:50%; left:50%; transform: translate(-50%, -50%); border:5px solid black"">","","","","","","","",""
"","4744.920000000973","sequential-stimulus-presentation-old","125","537263","0.0-27.0-1.4","SS1619739243666","trial","","40","500","5244.920000000973","images/stimuli/spore_stims/complex_05_A_b.gif","images/stimuli/spore_stims/complex_09_A_a.gif","forced_short","","9","complex_dissimilar","images/stimuli/spore_stims/complex_09_A_a.gif","","","","",""
"","null","html-keyboard-response","126","538189","0.0-27.0-0.5","SS1619739243666","","","null","","","","","","<p><img src= images/blank.png width =""600"" height = ""600"" style=""position:fixed;top:50%; left:50%; transform: translate(-50%, -50%); border:5px solid black"">","","","","","","","",""
"","2817.3800000004703","sequential-stimulus-presentation-old","127","541512","0.0-27.0-1.5","SS1619739243666","trial","","40","500","3317.3800000004703","images/stimuli/spore_stims/complex_05_A_b.gif","images/stimuli/spore_stims/complex_09_A_a.gif","forced_short","","9","complex_dissimilar","images/stimuli/spore_stims/complex_09_A_a.gif","","","","",""
"","4119.790000000736","survey-multi-choice","128","545636","0.0-28.0","SS1619739243666","math_question","","","","","","","","","","","","{""Q0"":""11""}","[0]","11","",""
"","null","html-keyboard-response","129","546472","0.0-29.0-0.0","SS1619739243666","","","null","","","","","","<p><img src= images/blank.png width =""600"" height = ""600"" style=""position:fixed;top:50%; left:50%; transform: translate(-50%, -50%); border:5px solid black"">","","","","","","","",""
"","4260.25499999919","sequential-stimulus-presentation-old","130","551239","0.0-29.0-1.0","SS1619739243666","trial","","40","500","4760.25499999919","images/stimuli/spore_stims/simple_10_A_b.gif","images/stimuli/spore_stims/simple_06_A_a.gif","self_paced","","10","simple_dissimilar","images/stimuli/spore_stims/simple_06_A_a.gif","","","","",""
"","null","html-keyboard-response","131","552322","0.0-29.0-0.1","SS1619739243666","","","null","","","","","","<p><img src= images/blank.png width =""600"" height = ""600"" style=""position:fixed;top:50%; left:50%; transform: translate(-50%, -50%); border:5px solid black"">","","","","","","","",""
"","9240.914999998407","sequential-stimulus-presentation-old","132","562070","0.0-29.0-1.1","SS1619739243666","trial","","40","500","9740.914999998407","images/stimuli/spore_stims/simple_10_A_b.gif","images/stimuli/spore_stims/simple_06_A_a.gif","self_paced","","10","simple_dissimilar","images/stimuli/spore_stims/simple_10_A_b.gif","","","","",""
"","null","html-keyboard-response","133","563370","0.0-29.0-0.2","SS1619739243666","","","null","","","","","","<p><img src= images/blank.png width =""600"" height = ""600"" style=""position:fixed;top:50%; left:50%; transform: translate(-50%, -50%); border:5px solid black"">","","","","","","","",""
"","4874.959999999264","sequential-stimulus-presentation-old","134","568754","0.0-29.0-1.2","SS1619739243666","trial","","40","500","5374.959999999264","images/stimuli/spore_stims/simple_10_A_b.gif","images/stimuli/spore_stims/simple_06_A_a.gif","self_paced","","10","simple_dissimilar","images/stimuli/spore_stims/simple_06_A_a.gif","","","","",""
"","null","html-keyboard-response","135","569842","0.0-29.0-0.3","SS1619739243666","","","null","","","","","","<p><img src= images/blank.png width =""600"" height = ""600"" style=""position:fixed;top:50%; left:50%; transform: translate(-50%, -50%); border:5px solid black"">","","","","","","","",""
"","8754.044999999693","sequential-stimulus-presentation-old","136","579104","0.0-29.0-1.3","SS1619739243666","trial","","40","500","9254.044999999693","images/stimuli/spore_stims/simple_10_A_b.gif","images/stimuli/spore_stims/simple_06_A_a.gif","self_paced","","10","simple_dissimilar","images/stimuli/spore_stims/simple_06_A_a.gif","","","","",""
"","null","html-keyboard-response","137","580195","0.0-29.0-0.4","SS1619739243666","","","null","","","","","","<p><img src= images/blank.png width =""600"" height = ""600"" style=""position:fixed;top:50%; left:50%; transform: translate(-50%, -50%); border:5px solid black"">","","","","","","","",""
"","3674.7099999992643","sequential-stimulus-presentation-old","138","584378","0.0-29.0-1.4","SS1619739243666","trial","","40","500","4174.709999999264","images/stimuli/spore_stims/simple_10_A_b.gif","images/stimuli/spore_stims/simple_06_A_a.gif","self_paced","","10","simple_dissimilar","images/stimuli/spore_stims/simple_10_A_b.gif","","","","",""
"","null","html-keyboard-response","139","585543","0.0-29.0-0.5","SS1619739243666","","","null","","","","","","<p><img src= images/blank.png width =""600"" height = ""600"" style=""position:fixed;top:50%; left:50%; transform: translate(-50%, -50%); border:5px solid black"">","","","","","","","",""
"","4040.795000000857","sequential-stimulus-presentation-old","140","590091","0.0-29.0-1.5","SS1619739243666","trial","","40","500","4540.795000000857","images/stimuli/spore_stims/simple_10_A_b.gif","images/stimuli/spore_stims/simple_06_A_a.gif","self_paced","","10","simple_dissimilar","images/stimuli/spore_stims/simple_06_A_a.gif","","","","",""
"","5164.960000000079","survey-multi-choice","141","595259","0.0-30.0","SS1619739243666","math_question","","","","","","","","","","","","{""Q0"":""13""}","[0]","13","",""
"","null","html-keyboard-response","142","596263","0.0-31.0-0.0","SS1619739243666","","","null","","","","","","<p><img src= images/blank.png width =""600"" height = ""600"" style=""position:fixed;top:50%; left:50%; transform: translate(-50%, -50%); border:5px solid black"">","","","","","","","",""
"","1734.7099999987986","sequential-stimulus-presentation-old","143","598505","0.0-31.0-1.0","SS1619739243666","trial","","40","500","2234.7099999987986","images/stimuli/spore_stims/complex_16_A_a.gif","images/stimuli/spore_stims/complex_19_A_b.gif","forced_short","","11","complex_dissimilar","images/stimuli/spore_stims/complex_19_A_b.gif","","","","",""
"","null","html-keyboard-response","144","599644","0.0-31.0-0.1","SS1619739243666","","","null","","","","","","<p><img src= images/blank.png width =""600"" height = ""600"" style=""position:fixed;top:50%; left:50%; transform: translate(-50%, -50%); border:5px solid black"">","","","","","","","",""
"","3290.9999999993015","sequential-stimulus-presentation-old","145","603440","0.0-31.0-1.1","SS1619739243666","trial","","40","500","3790.9999999993015","images/stimuli/spore_stims/complex_16_A_a.gif","images/stimuli/spore_stims/complex_19_A_b.gif","forced_short","","11","complex_dissimilar","images/stimuli/spore_stims/complex_19_A_b.gif","","","","",""
"","null","html-keyboard-response","146","604722","0.0-31.0-0.2","SS1619739243666","","","null","","","","","","<p><img src= images/blank.png width =""600"" height = ""600"" style=""position:fixed;top:50%; left:50%; transform: translate(-50%, -50%); border:5px solid black"">","","","","","","","",""
"","5825.664999998524","sequential-stimulus-presentation-old","147","611054","0.0-31.0-1.2","SS1619739243666","trial","","40","500","6325.664999998524","images/stimuli/spore_stims/complex_16_A_a.gif","images/stimuli/spore_stims/complex_19_A_b.gif","forced_short","","11","complex_dissimilar","images/stimuli/spore_stims/complex_16_A_a.gif","","","","",""
"","null","html-keyboard-response","148","612159","0.0-31.0-0.3","SS1619739243666","","","null","","","","","","<p><img src= images/blank.png width =""600"" height = ""600"" style=""position:fixed;top:50%; left:50%; transform: translate(-50%, -50%); border:5px solid black"">","","","","","","","",""
"","3349.000000000233","sequential-stimulus-presentation-old","149","616018","0.0-31.0-1.3","SS1619739243666","trial","","40","500","3849.000000000233","images/stimuli/spore_stims/complex_16_A_a.gif","images/stimuli/spore_stims/complex_19_A_b.gif","forced_short","","11","complex_dissimilar","images/stimuli/spore_stims/complex_19_A_b.gif","","","","",""
"","null","html-keyboard-response","150","617234","0.0-31.0-0.4","SS1619739243666","","","null","","","","","","<p><img src= images/blank.png width =""600"" height = ""600"" style=""position:fixed;top:50%; left:50%; transform: translate(-50%, -50%); border:5px solid black"">","","","","","","","",""
"","3180.6250000009313","sequential-stimulus-presentation-old","151","620926","0.0-31.0-1.4","SS1619739243666","trial","","40","500","3680.6250000009313","images/stimuli/spore_stims/complex_16_A_a.gif","images/stimuli/spore_stims/complex_19_A_b.gif","forced_short","","11","complex_dissimilar","images/stimuli/spore_stims/complex_19_A_b.gif","","","","",""
"[{""page_index"":0,""viewing_time"":5415.670000000275}]","5416.294999999111","instructions","152","626346","0.0-32.0","SS1619739243666","instructions","","","","","","","","","","","","","","","",""
"","17272.455000000307","survey-likert","153","643627","0.0-33.0","SS1619739243666","similarity_question","","","","","","","","","","","","{""Q0"":1}","[0]","","images/stimuli/spore_stims/simple_06_A_b.gif","images/stimuli/spore_stims/simple_18_A_a.gif"
"","10178.204999998328","survey-likert","154","653811","0.0-34.0","SS1619739243666","similarity_question","","","","","","","","","","","","{""Q0"":0}","[0]","","images/stimuli/spore_stims/complex_14_A_b.gif","images/stimuli/spore_stims/complex_17_A_a.gif"
"","14639.044999999925","survey-likert","155","668456","0.0-35.0","SS1619739243666","similarity_question","","","","","","","","","","","","{""Q0"":2}","[0]","","images/stimuli/spore_stims/complex_04_A_a.gif","images/stimuli/spore_stims/complex_01_A_b.gif"
"","10152.369999999763","survey-likert","156","678613","0.0-36.0","SS1619739243666","similarity_question","","","","","","","","","","","","{""Q0"":1}","[0]","","images/stimuli/spore_stims/simple_17_A_b.gif","images/stimuli/spore_stims/simple_12_A_a.gif"
"","20897.419999999343","survey-likert","157","699516","0.0-37.0","SS1619739243666","similarity_question","","","","","","","","","","","","{""Q0"":1}","[0]","","images/stimuli/spore_stims/simple_03_A_a.gif","images/stimuli/spore_stims/simple_13_A_b.gif"
"","11582.795000000275","survey-likert","158","711103","0.0-38.0","SS1619739243666","similarity_question","","","","","","","","","","","","{""Q0"":2}","[0]","","images/stimuli/spore_stims/complex_05_A_b.gif","images/stimuli/spore_stims/complex_09_A_a.gif"
"","9260.54500000109","survey-likert","159","720369","0.0-39.0","SS1619739243666","similarity_question","","","","","","","","","","","","{""Q0"":1}","[0]","","images/stimuli/spore_stims/simple_16_A_a.gif","images/stimuli/spore_stims/simple_19_A_b.gif"
"","9194.629999999888","survey-likert","160","729568","0.0-40.0","SS1619739243666","similarity_question","","","","","","","","","","","","{""Q0"":2}","[0]","","images/stimuli/spore_stims/complex_16_A_a.gif","images/stimuli/spore_stims/complex_19_A_b.gif"
"","7901.545000000624","survey-likert","161","737475","0.0-41.0","SS1619739243666","similarity_question","","","","","","","","","","","","{""Q0"":2}","[0]","","images/stimuli/spore_stims/simple_05_A_b.gif","images/stimuli/spore_stims/simple_20_A_a.gif"
"","7878.249999999767","survey-likert","162","745359","0.0-42.0","SS1619739243666","similarity_question","","","","","","","","","","","","{""Q0"":1}","[0]","","images/stimuli/spore_stims/simple_06_A_a.gif","images/stimuli/spore_stims/simple_10_A_b.gif"
"","10491.755000000936","survey-likert","163","755856","0.0-43.0","SS1619739243666","similarity_question","","","","","","","","","","","","{""Q0"":1}","[0]","","images/stimuli/spore_stims/complex_15_A_a.gif","images/stimuli/spore_stims/complex_18_A_b.gif"
"","8509.749999999302","survey-likert","164","764371","0.0-44.0","SS1619739243666","similarity_question","","","","","","","","","","","","{""Q0"":0}","[0]","","images/stimuli/spore_stims/complex_14_A_a.gif","images/stimuli/spore_stims/complex_08_A_b.gif"
"[{""page_index"":0,""viewing_time"":5204.670000000973}]","5205.1300000002375","instructions","165","769579","0.0-45.0","SS1619739243666","instructions","","","","","","","","","","","","","","","",""
"","3806.7950000005076","survey-likert","166","773391","0.0-46.0","SS1619739243666","","","","","","","","","images/stimuli/spore_stims/complex_18_A_b.gif","","","","{""Q0"":5}","[0]","","",""
"","4456.414999998757","survey-likert","167","777853","0.0-47.0","SS1619739243666","","","","","","","","","images/stimuli/spore_stims/complex_16_A_a.gif","","","","{""Q0"":4}","[0]","","",""
"","5043.625000000233","survey-likert","168","782902","0.0-48.0","SS1619739243666","","","","","","","","","images/stimuli/spore_stims/complex_09_A_a.gif","","","","{""Q0"":4}","[0]","","",""
"","6091.705000000773","survey-likert","169","788999","0.0-49.0","SS1619739243666","","","","","","","","","images/stimuli/spore_stims/simple_05_A_b.gif","","","","{""Q0"":0}","[0]","","",""
"","14393.584999999846","survey-likert","170","803399","0.0-50.0","SS1619739243666","","","","","","","","","images/stimuli/spore_stims/simple_13_A_b.gif","","","","{""Q0"":0}","[0]","","",""
"","2072.795000000042","survey-likert","171","805478","0.0-51.0","SS1619739243666","","","","","","","","","images/stimuli/spore_stims/simple_18_A_a.gif","","","","{""Q0"":1}","[0]","","",""
"","2679.420000000391","survey-likert","172","808163","0.0-52.0","SS1619739243666","","","","","","","","","images/stimuli/spore_stims/complex_08_A_b.gif","","","","{""Q0"":4}","[0]","","",""
"","6038.2900000003865","survey-likert","173","814209","0.0-53.0","SS1619739243666","","","","","","","","","images/stimuli/spore_stims/complex_14_A_b.gif","","","","{""Q0"":4}","[0]","","",""
"","4731.794999999693","survey-likert","174","818948","0.0-54.0","SS1619739243666","","","","","","","","","images/stimuli/spore_stims/simple_16_A_a.gif","","","","{""Q0"":1}","[0]","","",""
"","4267.9600000010105","survey-likert","175","823223","0.0-55.0","SS1619739243666","","","","","","","","","images/stimuli/spore_stims/complex_01_A_b.gif","","","","{""Q0"":5}","[0]","","",""
"","2970.9149999998044","survey-likert","176","826201","0.0-56.0","SS1619739243666","","","","","","","","","images/stimuli/spore_stims/simple_10_A_b.gif","","","","{""Q0"":0}","[0]","","",""
"","2374.2099999999627","survey-likert","177","828583","0.0-57.0","SS1619739243666","","","","","","","","","images/stimuli/spore_stims/simple_17_A_b.gif","","","","{""Q0"":1}","[0]","","",""
"[{""page_index"":0,""viewing_time"":2407.9600000004284}]","2408.789999999455","instructions","178","830996","0.0-58.0","SS1619739243666","instructions","","","","","","","","","","","","","","","",""
"","3221.7550000004703","demog-age","179","834226","0.0-59.0","SS1619739243666","","","","","","","","","","","","","{""age"":""21""}","","","",""
"","10176.084999999148","demog-ethnic-US","180","844409","0.0-60.0","SS1619739243666","","","","","","","","","","","","","{""ethnicity"":[""White""]}","[0]","","",""
"","15650.290000001434","demog-gender-and-education","181","860067","0.0-61.0","SS1619739243666","","","","","","","","","","","","","{""gender"":""Male"",""education"":""High school diploma""}","[0,1]","","",""
"","9998.335000000196","survey-text","182","870074","0.0-62.0","SS1619739243666","feedback","","","","","","","","","","","","{""Q0"":""No""}","","","",""
"[{""page_index"":0,""viewing_time"":2566.790000000852}]","2567.5449999999255","instructions","183","872645","0.0-63.0","SS1619739243666","instructions","","","","","","","","","","","","","","","",""
