"view_history","rt","trial_type","trial_index","time_elapsed","internal_node_id","subject","stimulus_type","trial_stimulus","key_press","minimum_viewing_duration","trial_looking_time","block_deviant","block_background","exposure_type","stimulus","block_number","block_type","stimulus_displayed","responses","question_order","math_correct_answer","stimulus_left","stimulus_right"
"[{""page_index"":0,""viewing_time"":64524.16999998968}]","64526.15499999956","instructions","0","64535","0.0-0.0","SS1619739860700","","","","","","","","","","","","","","","","",""
"[{""page_index"":0,""viewing_time"":17466.180000003078},{""page_index"":1,""viewing_time"":6699.659999998403}]","24166.270000001532","instructions","1","90717","0.0-1.0","SS1619739860700","instructions","","","","","","","","","","","","","","","",""
"","11574.050000010175","sequential-stimulus-presentation-old","2","102803","0.0-2.0","SS1619739860700","","","40","500","12074.050000010175","null","null","self_paced","","","","","","","","",""
"","5101.630000004661","sequential-stimulus-presentation-old","3","108411","0.0-3.0","SS1619739860700","","","40","500","5601.630000004661","null","null","self_paced","","","","","","","","",""
"[{""page_index"":0,""viewing_time"":21204.744999995455}]","21205.294999992475","instructions","4","129617","0.0-4.0","SS1619739860700","instructions","","","","","","","","","","","","","","","",""
"","1274.2199999920558","sequential-stimulus-presentation-old","5","145902","0.0-5.0","SS1619739860700","","","40","500","1774.2199999920558","null","null","forced_long","","","","","","","","",""
"","5282.444999989821","sequential-stimulus-presentation-old","6","151700","0.0-6.0","SS1619739860700","","","40","500","5782.444999989821","null","null","forced_long","","","","","","","","",""
"[{""page_index"":0,""viewing_time"":5081.380000003264}]","5082.194999995409","instructions","7","156783","0.0-7.0","SS1619739860700","instructions","","","","","","","","","","","","","","","",""
"[{""page_index"":0,""viewing_time"":34744.50500000967},{""page_index"":1,""viewing_time"":18608.01999999967},{""page_index"":2,""viewing_time"":10952.959999995073},{""page_index"":3,""viewing_time"":4197.469999999157},{""page_index"":4,""viewing_time"":2182.1950000012293}]","70685.63500000164","instructions","8","227474","0.0-8.0","SS1619739860700","instructions","","","","","","","","","","","","","","","",""
"","null","html-keyboard-response","9","228436","0.0-9.0-0.0","SS1619739860700","","","null","","","","","","<p><img src= images/blank.png width =""600"" height = ""600"" style=""position:fixed;top:50%; left:50%; transform: translate(-50%, -50%); border:5px solid black"">","","","","","","","",""
"","1810.299999997369","sequential-stimulus-presentation-old","10","245261","0.0-9.0-1.0","SS1619739860700","trial","","40","500","2310.299999997369","images/stimuli/spore_stims/complex_06_A_a.gif","images/stimuli/spore_stims/complex_08_A_b.gif","forced_long","","0","complex_dissimilar","images/stimuli/spore_stims/complex_08_A_b.gif","","","","",""
"","null","html-keyboard-response","11","246342","0.0-9.0-0.1","SS1619739860700","","","null","","","","","","<p><img src= images/blank.png width =""600"" height = ""600"" style=""position:fixed;top:50%; left:50%; transform: translate(-50%, -50%); border:5px solid black"">","","","","","","","",""
"","20241.39500000456","sequential-stimulus-presentation-old","12","267100","0.0-9.0-1.1","SS1619739860700","trial","","40","500","20741.39500000456","images/stimuli/spore_stims/complex_06_A_a.gif","images/stimuli/spore_stims/complex_08_A_b.gif","forced_long","","0","complex_dissimilar","images/stimuli/spore_stims/complex_08_A_b.gif","","","","",""
"","null","html-keyboard-response","13","268150","0.0-9.0-0.2","SS1619739860700","","","null","","","","","","<p><img src= images/blank.png width =""600"" height = ""600"" style=""position:fixed;top:50%; left:50%; transform: translate(-50%, -50%); border:5px solid black"">","","","","","","","",""
"","3612.0450000016717","sequential-stimulus-presentation-old","14","272281","0.0-9.0-1.2","SS1619739860700","trial","","40","500","4112.045000001672","images/stimuli/spore_stims/complex_06_A_a.gif","images/stimuli/spore_stims/complex_08_A_b.gif","forced_long","","0","complex_dissimilar","images/stimuli/spore_stims/complex_08_A_b.gif","","","","",""
"","null","html-keyboard-response","15","273107","0.0-9.0-0.3","SS1619739860700","","","null","","","","","","<p><img src= images/blank.png width =""600"" height = ""600"" style=""position:fixed;top:50%; left:50%; transform: translate(-50%, -50%); border:5px solid black"">","","","","","","","",""
"","5778.180000008433","sequential-stimulus-presentation-old","16","279398","0.0-9.0-1.3","SS1619739860700","trial","","40","500","6278.180000008433","images/stimuli/spore_stims/complex_06_A_a.gif","images/stimuli/spore_stims/complex_08_A_b.gif","forced_long","","0","complex_dissimilar","images/stimuli/spore_stims/complex_06_A_a.gif","","","","",""
"","null","html-keyboard-response","17","280374","0.0-9.0-0.4","SS1619739860700","","","null","","","","","","<p><img src= images/blank.png width =""600"" height = ""600"" style=""position:fixed;top:50%; left:50%; transform: translate(-50%, -50%); border:5px solid black"">","","","","","","","",""
"","3311.650000003283","sequential-stimulus-presentation-old","18","284200","0.0-9.0-1.4","SS1619739860700","trial","","40","500","3811.650000003283","images/stimuli/spore_stims/complex_06_A_a.gif","images/stimuli/spore_stims/complex_08_A_b.gif","forced_long","","0","complex_dissimilar","images/stimuli/spore_stims/complex_08_A_b.gif","","","","",""
"","null","html-keyboard-response","19","285024","0.0-9.0-0.5","SS1619739860700","","","null","","","","","","<p><img src= images/blank.png width =""600"" height = ""600"" style=""position:fixed;top:50%; left:50%; transform: translate(-50%, -50%); border:5px solid black"">","","","","","","","",""
"","4120.065000010072","sequential-stimulus-presentation-old","20","289661","0.0-9.0-1.5","SS1619739860700","trial","","40","500","4620.065000010072","images/stimuli/spore_stims/complex_06_A_a.gif","images/stimuli/spore_stims/complex_08_A_b.gif","forced_long","","0","complex_dissimilar","images/stimuli/spore_stims/complex_08_A_b.gif","","","","",""
"","4556.460000007064","survey-multi-choice","21","294224","0.0-10.0","SS1619739860700","math_question","","","","","","","","","","","","{""Q0"":""6""}","[0]","6","",""
"","null","html-keyboard-response","22","295490","0.0-11.0-0.0","SS1619739860700","","","null","","","","","","<p><img src= images/blank.png width =""600"" height = ""600"" style=""position:fixed;top:50%; left:50%; transform: translate(-50%, -50%); border:5px solid black"">","","","","","","","",""
"","1873.1899999984307","sequential-stimulus-presentation-old","23","297884","0.0-11.0-1.0","SS1619739860700","trial","","40","500","2373.1899999984307","images/stimuli/spore_stims/simple_12_A_b.gif","images/stimuli/spore_stims/simple_16_A_a.gif","forced_short","","1","simple_dissimilar","images/stimuli/spore_stims/simple_16_A_a.gif","","","","",""
"","null","html-keyboard-response","24","298867","0.0-11.0-0.1","SS1619739860700","","","null","","","","","","<p><img src= images/blank.png width =""600"" height = ""600"" style=""position:fixed;top:50%; left:50%; transform: translate(-50%, -50%); border:5px solid black"">","","","","","","","",""
"","9043.415000007371","sequential-stimulus-presentation-old","25","308422","0.0-11.0-1.1","SS1619739860700","trial","","40","500","9543.415000007371","images/stimuli/spore_stims/simple_12_A_b.gif","images/stimuli/spore_stims/simple_16_A_a.gif","forced_short","","1","simple_dissimilar","images/stimuli/spore_stims/simple_12_A_b.gif","","","","",""
"","null","html-keyboard-response","26","309609","0.0-11.0-0.2","SS1619739860700","","","null","","","","","","<p><img src= images/blank.png width =""600"" height = ""600"" style=""position:fixed;top:50%; left:50%; transform: translate(-50%, -50%); border:5px solid black"">","","","","","","","",""
"","3105.454999997164","sequential-stimulus-presentation-old","27","313232","0.0-11.0-1.2","SS1619739860700","trial","","40","500","3605.454999997164","images/stimuli/spore_stims/simple_12_A_b.gif","images/stimuli/spore_stims/simple_16_A_a.gif","forced_short","","1","simple_dissimilar","images/stimuli/spore_stims/simple_12_A_b.gif","","","","",""
"","null","html-keyboard-response","28","314216","0.0-11.0-0.3","SS1619739860700","","","null","","","","","","<p><img src= images/blank.png width =""600"" height = ""600"" style=""position:fixed;top:50%; left:50%; transform: translate(-50%, -50%); border:5px solid black"">","","","","","","","",""
"","3818.5900000098627","sequential-stimulus-presentation-old","29","318557","0.0-11.0-1.3","SS1619739860700","trial","","40","500","4318.590000009863","images/stimuli/spore_stims/simple_12_A_b.gif","images/stimuli/spore_stims/simple_16_A_a.gif","forced_short","","1","simple_dissimilar","images/stimuli/spore_stims/simple_16_A_a.gif","","","","",""
"","null","html-keyboard-response","30","319722","0.0-11.0-0.4","SS1619739860700","","","null","","","","","","<p><img src= images/blank.png width =""600"" height = ""600"" style=""position:fixed;top:50%; left:50%; transform: translate(-50%, -50%); border:5px solid black"">","","","","","","","",""
"","3533.0400000093505","sequential-stimulus-presentation-old","31","323771","0.0-11.0-1.4","SS1619739860700","trial","","40","500","4033.0400000093505","images/stimuli/spore_stims/simple_12_A_b.gif","images/stimuli/spore_stims/simple_16_A_a.gif","forced_short","","1","simple_dissimilar","images/stimuli/spore_stims/simple_16_A_a.gif","","","","",""
"","3866.8049999978393","survey-multi-choice","32","327640","0.0-12.0","SS1619739860700","math_question","","","","","","","","","","","","{""Q0"":""5""}","[0]","5","",""
"","null","html-keyboard-response","33","328651","0.0-13.0-0.0","SS1619739860700","","","null","","","","","","<p><img src= images/blank.png width =""600"" height = ""600"" style=""position:fixed;top:50%; left:50%; transform: translate(-50%, -50%); border:5px solid black"">","","","","","","","",""
"","7288.87499999837","sequential-stimulus-presentation-old","34","336457","0.0-13.0-1.0","SS1619739860700","trial","","40","500","7788.87499999837","images/stimuli/spore_stims/simple_15_A_b.gif","images/stimuli/spore_stims/simple_19_A_a.gif","self_paced","","2","simple_dissimilar","images/stimuli/spore_stims/simple_19_A_a.gif","","","","",""
"","null","html-keyboard-response","35","337727","0.0-13.0-0.1","SS1619739860700","","","null","","","","","","<p><img src= images/blank.png width =""600"" height = ""600"" style=""position:fixed;top:50%; left:50%; transform: translate(-50%, -50%); border:5px solid black"">","","","","","","","",""
"","3142.164999997476","sequential-stimulus-presentation-old","36","341388","0.0-13.0-1.1","SS1619739860700","trial","","40","500","3642.164999997476","images/stimuli/spore_stims/simple_15_A_b.gif","images/stimuli/spore_stims/simple_19_A_a.gif","self_paced","","2","simple_dissimilar","images/stimuli/spore_stims/simple_19_A_a.gif","","","","",""
"","null","html-keyboard-response","37","342305","0.0-13.0-0.2","SS1619739860700","","","null","","","","","","<p><img src= images/blank.png width =""600"" height = ""600"" style=""position:fixed;top:50%; left:50%; transform: translate(-50%, -50%); border:5px solid black"">","","","","","","","",""
"","2177.4599999916973","sequential-stimulus-presentation-old","38","345005","0.0-13.0-1.2","SS1619739860700","trial","","40","500","2677.4599999916973","images/stimuli/spore_stims/simple_15_A_b.gif","images/stimuli/spore_stims/simple_19_A_a.gif","self_paced","","2","simple_dissimilar","images/stimuli/spore_stims/simple_19_A_a.gif","","","","",""
"","null","html-keyboard-response","39","346087","0.0-13.0-0.3","SS1619739860700","","","null","","","","","","<p><img src= images/blank.png width =""600"" height = ""600"" style=""position:fixed;top:50%; left:50%; transform: translate(-50%, -50%); border:5px solid black"">","","","","","","","",""
"","2599.4449999998324","sequential-stimulus-presentation-old","40","349200","0.0-13.0-1.3","SS1619739860700","trial","","40","500","3099.4449999998324","images/stimuli/spore_stims/simple_15_A_b.gif","images/stimuli/spore_stims/simple_19_A_a.gif","self_paced","","2","simple_dissimilar","images/stimuli/spore_stims/simple_15_A_b.gif","","","","",""
"","null","html-keyboard-response","41","350242","0.0-13.0-0.4","SS1619739860700","","","null","","","","","","<p><img src= images/blank.png width =""600"" height = ""600"" style=""position:fixed;top:50%; left:50%; transform: translate(-50%, -50%); border:5px solid black"">","","","","","","","",""
"","2038.5850000020582","sequential-stimulus-presentation-old","42","352786","0.0-13.0-1.4","SS1619739860700","trial","","40","500","2538.585000002058","images/stimuli/spore_stims/simple_15_A_b.gif","images/stimuli/spore_stims/simple_19_A_a.gif","self_paced","","2","simple_dissimilar","images/stimuli/spore_stims/simple_15_A_b.gif","","","","",""
"","3469.2550000036135","survey-multi-choice","43","356259","0.0-14.0","SS1619739860700","math_question","","","","","","","","","","","","{""Q0"":""8""}","[0]","8","",""
"","null","html-keyboard-response","44","357098","0.0-15.0-0.0","SS1619739860700","","","null","","","","","","<p><img src= images/blank.png width =""600"" height = ""600"" style=""position:fixed;top:50%; left:50%; transform: translate(-50%, -50%); border:5px solid black"">","","","","","","","",""
"","4110.624999986612","sequential-stimulus-presentation-old","45","376234","0.0-15.0-1.0","SS1619739860700","trial","","40","500","4610.624999986612","images/stimuli/spore_stims/simple_02_A_a.gif","images/stimuli/spore_stims/simple_14_A_b.gif","forced_long","","3","simple_dissimilar","images/stimuli/spore_stims/simple_14_A_b.gif","","","","",""
"","null","html-keyboard-response","46","377419","0.0-15.0-0.1","SS1619739860700","","","null","","","","","","<p><img src= images/blank.png width =""600"" height = ""600"" style=""position:fixed;top:50%; left:50%; transform: translate(-50%, -50%); border:5px solid black"">","","","","","","","",""
"","1761.2300000037067","sequential-stimulus-presentation-old","47","379700","0.0-15.0-1.1","SS1619739860700","trial","","40","500","2261.2300000037067","images/stimuli/spore_stims/simple_02_A_a.gif","images/stimuli/spore_stims/simple_14_A_b.gif","forced_long","","3","simple_dissimilar","images/stimuli/spore_stims/simple_14_A_b.gif","","","","",""
"","null","html-keyboard-response","48","380656","0.0-15.0-0.2","SS1619739860700","","","null","","","","","","<p><img src= images/blank.png width =""600"" height = ""600"" style=""position:fixed;top:50%; left:50%; transform: translate(-50%, -50%); border:5px solid black"">","","","","","","","",""
"","3316.630000001169","sequential-stimulus-presentation-old","49","384489","0.0-15.0-1.2","SS1619739860700","trial","","40","500","3816.630000001169","images/stimuli/spore_stims/simple_02_A_a.gif","images/stimuli/spore_stims/simple_14_A_b.gif","forced_long","","3","simple_dissimilar","images/stimuli/spore_stims/simple_14_A_b.gif","","","","",""
"","null","html-keyboard-response","50","385599","0.0-15.0-0.3","SS1619739860700","","","null","","","","","","<p><img src= images/blank.png width =""600"" height = ""600"" style=""position:fixed;top:50%; left:50%; transform: translate(-50%, -50%); border:5px solid black"">","","","","","","","",""
"","4771.804999996675","sequential-stimulus-presentation-old","51","390886","0.0-15.0-1.3","SS1619739860700","trial","","40","500","5271.804999996675","images/stimuli/spore_stims/simple_02_A_a.gif","images/stimuli/spore_stims/simple_14_A_b.gif","forced_long","","3","simple_dissimilar","images/stimuli/spore_stims/simple_02_A_a.gif","","","","",""
"","null","html-keyboard-response","52","392002","0.0-15.0-0.4","SS1619739860700","","","null","","","","","","<p><img src= images/blank.png width =""600"" height = ""600"" style=""position:fixed;top:50%; left:50%; transform: translate(-50%, -50%); border:5px solid black"">","","","","","","","",""
"","2887.314999999944","sequential-stimulus-presentation-old","53","395398","0.0-15.0-1.4","SS1619739860700","trial","","40","500","3387.314999999944","images/stimuli/spore_stims/simple_02_A_a.gif","images/stimuli/spore_stims/simple_14_A_b.gif","forced_long","","3","simple_dissimilar","images/stimuli/spore_stims/simple_14_A_b.gif","","","","",""
"","4013.554999997723","survey-multi-choice","54","399415","0.0-16.0","SS1619739860700","math_question","","","","","","","","","","","","{""Q0"":""11""}","[0]","11","",""
"","null","html-keyboard-response","55","400577","0.0-17.0-0.0","SS1619739860700","","","null","","","","","","<p><img src= images/blank.png width =""600"" height = ""600"" style=""position:fixed;top:50%; left:50%; transform: translate(-50%, -50%); border:5px solid black"">","","","","","","","",""
"","8816.554999997607","sequential-stimulus-presentation-old","56","409913","0.0-17.0-1.0","SS1619739860700","trial","","40","500","9316.554999997607","images/stimuli/spore_stims/simple_03_A_a.gif","images/stimuli/spore_stims/simple_08_A_b.gif","self_paced","","4","simple_dissimilar","images/stimuli/spore_stims/simple_08_A_b.gif","","","","",""
"","null","html-keyboard-response","57","410767","0.0-17.0-0.1","SS1619739860700","","","null","","","","","","<p><img src= images/blank.png width =""600"" height = ""600"" style=""position:fixed;top:50%; left:50%; transform: translate(-50%, -50%); border:5px solid black"">","","","","","","","",""
"","3378.290000007837","sequential-stimulus-presentation-old","58","414659","0.0-17.0-1.1","SS1619739860700","trial","","40","500","3878.290000007837","images/stimuli/spore_stims/simple_03_A_a.gif","images/stimuli/spore_stims/simple_08_A_b.gif","self_paced","","4","simple_dissimilar","images/stimuli/spore_stims/simple_08_A_b.gif","","","","",""
"","null","html-keyboard-response","59","415700","0.0-17.0-0.2","SS1619739860700","","","null","","","","","","<p><img src= images/blank.png width =""600"" height = ""600"" style=""position:fixed;top:50%; left:50%; transform: translate(-50%, -50%); border:5px solid black"">","","","","","","","",""
"","3918.9250000054017","sequential-stimulus-presentation-old","60","420133","0.0-17.0-1.2","SS1619739860700","trial","","40","500","4418.925000005402","images/stimuli/spore_stims/simple_03_A_a.gif","images/stimuli/spore_stims/simple_08_A_b.gif","self_paced","","4","simple_dissimilar","images/stimuli/spore_stims/simple_08_A_b.gif","","","","",""
"","null","html-keyboard-response","61","421083","0.0-17.0-0.3","SS1619739860700","","","null","","","","","","<p><img src= images/blank.png width =""600"" height = ""600"" style=""position:fixed;top:50%; left:50%; transform: translate(-50%, -50%); border:5px solid black"">","","","","","","","",""
"","6814.5799999911105","sequential-stimulus-presentation-old","62","428416","0.0-17.0-1.3","SS1619739860700","trial","","40","500","7314.5799999911105","images/stimuli/spore_stims/simple_03_A_a.gif","images/stimuli/spore_stims/simple_08_A_b.gif","self_paced","","4","simple_dissimilar","images/stimuli/spore_stims/simple_03_A_a.gif","","","","",""
"","null","html-keyboard-response","63","429547","0.0-17.0-0.4","SS1619739860700","","","null","","","","","","<p><img src= images/blank.png width =""600"" height = ""600"" style=""position:fixed;top:50%; left:50%; transform: translate(-50%, -50%); border:5px solid black"">","","","","","","","",""
"","3288.87499999837","sequential-stimulus-presentation-old","64","433344","0.0-17.0-1.4","SS1619739860700","trial","","40","500","3788.87499999837","images/stimuli/spore_stims/simple_03_A_a.gif","images/stimuli/spore_stims/simple_08_A_b.gif","self_paced","","4","simple_dissimilar","images/stimuli/spore_stims/simple_08_A_b.gif","","","","",""
"","null","html-keyboard-response","65","434404","0.0-17.0-0.5","SS1619739860700","","","null","","","","","","<p><img src= images/blank.png width =""600"" height = ""600"" style=""position:fixed;top:50%; left:50%; transform: translate(-50%, -50%); border:5px solid black"">","","","","","","","",""
"","3238.099999987753","sequential-stimulus-presentation-old","66","438154","0.0-17.0-1.5","SS1619739860700","trial","","40","500","3738.099999987753","images/stimuli/spore_stims/simple_03_A_a.gif","images/stimuli/spore_stims/simple_08_A_b.gif","self_paced","","4","simple_dissimilar","images/stimuli/spore_stims/simple_03_A_a.gif","","","","",""
"","7148.58500000264","survey-multi-choice","67","445307","0.0-18.0","SS1619739860700","math_question","","","","","","","","","","","","{""Q0"":""12""}","[0]","12","",""
"","null","html-keyboard-response","68","446230","0.0-19.0-0.0","SS1619739860700","","","null","","","","","","<p><img src= images/blank.png width =""600"" height = ""600"" style=""position:fixed;top:50%; left:50%; transform: translate(-50%, -50%); border:5px solid black"">","","","","","","","",""
"","1399.455000006128","sequential-stimulus-presentation-old","69","448141","0.0-19.0-1.0","SS1619739860700","trial","","40","500","1899.455000006128","images/stimuli/spore_stims/complex_05_A_b.gif","images/stimuli/spore_stims/complex_15_A_a.gif","forced_short","","5","complex_dissimilar","images/stimuli/spore_stims/complex_15_A_a.gif","","","","",""
"","null","html-keyboard-response","70","449161","0.0-19.0-0.1","SS1619739860700","","","null","","","","","","<p><img src= images/blank.png width =""600"" height = ""600"" style=""position:fixed;top:50%; left:50%; transform: translate(-50%, -50%); border:5px solid black"">","","","","","","","",""
"","8304.720000000088","sequential-stimulus-presentation-old","71","457985","0.0-19.0-1.1","SS1619739860700","trial","","40","500","8804.720000000088","images/stimuli/spore_stims/complex_05_A_b.gif","images/stimuli/spore_stims/complex_15_A_a.gif","forced_short","","5","complex_dissimilar","images/stimuli/spore_stims/complex_05_A_b.gif","","","","",""
"","null","html-keyboard-response","72","459077","0.0-19.0-0.2","SS1619739860700","","","null","","","","","","<p><img src= images/blank.png width =""600"" height = ""600"" style=""position:fixed;top:50%; left:50%; transform: translate(-50%, -50%); border:5px solid black"">","","","","","","","",""
"","6581.420000002254","sequential-stimulus-presentation-old","73","466181","0.0-19.0-1.2","SS1619739860700","trial","","40","500","7081.420000002254","images/stimuli/spore_stims/complex_05_A_b.gif","images/stimuli/spore_stims/complex_15_A_a.gif","forced_short","","5","complex_dissimilar","images/stimuli/spore_stims/complex_15_A_a.gif","","","","",""
"","null","html-keyboard-response","74","467103","0.0-19.0-0.3","SS1619739860700","","","null","","","","","","<p><img src= images/blank.png width =""600"" height = ""600"" style=""position:fixed;top:50%; left:50%; transform: translate(-50%, -50%); border:5px solid black"">","","","","","","","",""
"","1122.8100000007544","sequential-stimulus-presentation-old","75","468735","0.0-19.0-1.3","SS1619739860700","trial","","40","500","1622.8100000007544","images/stimuli/spore_stims/complex_05_A_b.gif","images/stimuli/spore_stims/complex_15_A_a.gif","forced_short","","5","complex_dissimilar","images/stimuli/spore_stims/complex_15_A_a.gif","","","","",""
"","null","html-keyboard-response","76","469876","0.0-19.0-0.4","SS1619739860700","","","null","","","","","","<p><img src= images/blank.png width =""600"" height = ""600"" style=""position:fixed;top:50%; left:50%; transform: translate(-50%, -50%); border:5px solid black"">","","","","","","","",""
"","1808.644999997341","sequential-stimulus-presentation-old","77","472202","0.0-19.0-1.4","SS1619739860700","trial","","40","500","2308.644999997341","images/stimuli/spore_stims/complex_05_A_b.gif","images/stimuli/spore_stims/complex_15_A_a.gif","forced_short","","5","complex_dissimilar","images/stimuli/spore_stims/complex_05_A_b.gif","","","","",""
"","null","html-keyboard-response","78","473450","0.0-19.0-0.5","SS1619739860700","","","null","","","","","","<p><img src= images/blank.png width =""600"" height = ""600"" style=""position:fixed;top:50%; left:50%; transform: translate(-50%, -50%); border:5px solid black"">","","","","","","","",""
"","1419.2000000039116","sequential-stimulus-presentation-old","79","475387","0.0-19.0-1.5","SS1619739860700","trial","","40","500","1919.2000000039116","images/stimuli/spore_stims/complex_05_A_b.gif","images/stimuli/spore_stims/complex_15_A_a.gif","forced_short","","5","complex_dissimilar","images/stimuli/spore_stims/complex_15_A_a.gif","","","","",""
"","3697.969999993802","survey-multi-choice","80","479089","0.0-20.0","SS1619739860700","math_question","","","","","","","","","","","","{""Q0"":""13""}","[0]","13","",""
"","null","html-keyboard-response","81","480333","0.0-21.0-0.0","SS1619739860700","","","null","","","","","","<p><img src= images/blank.png width =""600"" height = ""600"" style=""position:fixed;top:50%; left:50%; transform: translate(-50%, -50%); border:5px solid black"">","","","","","","","",""
"","5422.205000009853","sequential-stimulus-presentation-old","82","500785","0.0-21.0-1.0","SS1619739860700","trial","","40","500","5922.205000009853","images/stimuli/spore_stims/simple_10_A_b.gif","images/stimuli/spore_stims/simple_05_A_a.gif","forced_long","","6","simple_dissimilar","images/stimuli/spore_stims/simple_05_A_a.gif","","","","",""
"","null","html-keyboard-response","83","501719","0.0-21.0-0.1","SS1619739860700","","","null","","","","","","<p><img src= images/blank.png width =""600"" height = ""600"" style=""position:fixed;top:50%; left:50%; transform: translate(-50%, -50%); border:5px solid black"">","","","","","","","",""
"","14181.85999999696","sequential-stimulus-presentation-old","84","516412","0.0-21.0-1.1","SS1619739860700","trial","","40","500","14681.85999999696","images/stimuli/spore_stims/simple_10_A_b.gif","images/stimuli/spore_stims/simple_05_A_a.gif","forced_long","","6","simple_dissimilar","images/stimuli/spore_stims/simple_05_A_a.gif","","","","",""
"","null","html-keyboard-response","85","517644","0.0-21.0-0.2","SS1619739860700","","","null","","","","","","<p><img src= images/blank.png width =""600"" height = ""600"" style=""position:fixed;top:50%; left:50%; transform: translate(-50%, -50%); border:5px solid black"">","","","","","","","",""
"","3225.4200000024866","sequential-stimulus-presentation-old","86","521389","0.0-21.0-1.2","SS1619739860700","trial","","40","500","3725.4200000024866","images/stimuli/spore_stims/simple_10_A_b.gif","images/stimuli/spore_stims/simple_05_A_a.gif","forced_long","","6","simple_dissimilar","images/stimuli/spore_stims/simple_05_A_a.gif","","","","",""
"","null","html-keyboard-response","87","522571","0.0-21.0-0.3","SS1619739860700","","","null","","","","","","<p><img src= images/blank.png width =""600"" height = ""600"" style=""position:fixed;top:50%; left:50%; transform: translate(-50%, -50%); border:5px solid black"">","","","","","","","",""
"","2077.885000006063","sequential-stimulus-presentation-old","88","525172","0.0-21.0-1.3","SS1619739860700","trial","","40","500","2577.885000006063","images/stimuli/spore_stims/simple_10_A_b.gif","images/stimuli/spore_stims/simple_05_A_a.gif","forced_long","","6","simple_dissimilar","images/stimuli/spore_stims/simple_05_A_a.gif","","","","",""
"","null","html-keyboard-response","89","526309","0.0-21.0-0.4","SS1619739860700","","","null","","","","","","<p><img src= images/blank.png width =""600"" height = ""600"" style=""position:fixed;top:50%; left:50%; transform: translate(-50%, -50%); border:5px solid black"">","","","","","","","",""
"","6020.28500000597","sequential-stimulus-presentation-old","90","532854","0.0-21.0-1.4","SS1619739860700","trial","","40","500","6520.28500000597","images/stimuli/spore_stims/simple_10_A_b.gif","images/stimuli/spore_stims/simple_05_A_a.gif","forced_long","","6","simple_dissimilar","images/stimuli/spore_stims/simple_10_A_b.gif","","","","",""
"","4008.8599999871803","survey-multi-choice","91","536868","0.0-22.0","SS1619739860700","math_question","","","","","","","","","","","","{""Q0"":""12""}","[0]","12","",""
"","null","html-keyboard-response","92","538037","0.0-23.0-0.0","SS1619739860700","","","null","","","","","","<p><img src= images/blank.png width =""600"" height = ""600"" style=""position:fixed;top:50%; left:50%; transform: translate(-50%, -50%); border:5px solid black"">","","","","","","","",""
"","13712.230000004638","sequential-stimulus-presentation-old","93","552285","0.0-23.0-1.0","SS1619739860700","trial","","40","500","14212.230000004638","images/stimuli/spore_stims/complex_19_A_b.gif","images/stimuli/spore_stims/complex_10_A_a.gif","forced_short","","7","complex_dissimilar","images/stimuli/spore_stims/complex_10_A_a.gif","","","","",""
"","null","html-keyboard-response","94","553363","0.0-23.0-0.1","SS1619739860700","","","null","","","","","","<p><img src= images/blank.png width =""600"" height = ""600"" style=""position:fixed;top:50%; left:50%; transform: translate(-50%, -50%); border:5px solid black"">","","","","","","","",""
"","3296.694999997271","sequential-stimulus-presentation-old","95","557171","0.0-23.0-1.1","SS1619739860700","trial","","40","500","3796.694999997271","images/stimuli/spore_stims/complex_19_A_b.gif","images/stimuli/spore_stims/complex_10_A_a.gif","forced_short","","7","complex_dissimilar","images/stimuli/spore_stims/complex_10_A_a.gif","","","","",""
"","null","html-keyboard-response","96","558215","0.0-23.0-0.2","SS1619739860700","","","null","","","","","","<p><img src= images/blank.png width =""600"" height = ""600"" style=""position:fixed;top:50%; left:50%; transform: translate(-50%, -50%); border:5px solid black"">","","","","","","","",""
"","2523.459999996703","sequential-stimulus-presentation-old","97","561255","0.0-23.0-1.2","SS1619739860700","trial","","40","500","3023.459999996703","images/stimuli/spore_stims/complex_19_A_b.gif","images/stimuli/spore_stims/complex_10_A_a.gif","forced_short","","7","complex_dissimilar","images/stimuli/spore_stims/complex_10_A_a.gif","","","","",""
"","null","html-keyboard-response","98","562133","0.0-23.0-0.3","SS1619739860700","","","null","","","","","","<p><img src= images/blank.png width =""600"" height = ""600"" style=""position:fixed;top:50%; left:50%; transform: translate(-50%, -50%); border:5px solid black"">","","","","","","","",""
"","1926.4249999978347","sequential-stimulus-presentation-old","99","564571","0.0-23.0-1.3","SS1619739860700","trial","","40","500","2426.4249999978347","images/stimuli/spore_stims/complex_19_A_b.gif","images/stimuli/spore_stims/complex_10_A_a.gif","forced_short","","7","complex_dissimilar","images/stimuli/spore_stims/complex_10_A_a.gif","","","","",""
"","null","html-keyboard-response","100","565851","0.0-23.0-0.4","SS1619739860700","","","null","","","","","","<p><img src= images/blank.png width =""600"" height = ""600"" style=""position:fixed;top:50%; left:50%; transform: translate(-50%, -50%); border:5px solid black"">","","","","","","","",""
"","3412.274999995134","sequential-stimulus-presentation-old","101","569782","0.0-23.0-1.4","SS1619739860700","trial","","40","500","3912.274999995134","images/stimuli/spore_stims/complex_19_A_b.gif","images/stimuli/spore_stims/complex_10_A_a.gif","forced_short","","7","complex_dissimilar","images/stimuli/spore_stims/complex_19_A_b.gif","","","","",""
"","3230.0749999994878","survey-multi-choice","102","573017","0.0-24.0","SS1619739860700","math_question","","","","","","","","","","","","{""Q0"":""5""}","[0]","5","",""
"","null","html-keyboard-response","103","574185","0.0-25.0-0.0","SS1619739860700","","","null","","","","","","<p><img src= images/blank.png width =""600"" height = ""600"" style=""position:fixed;top:50%; left:50%; transform: translate(-50%, -50%); border:5px solid black"">","","","","","","","",""
"","28769.18000000296","sequential-stimulus-presentation-old","104","603467","0.0-25.0-1.0","SS1619739860700","trial","","40","500","29269.18000000296","images/stimuli/spore_stims/complex_15_A_b.gif","images/stimuli/spore_stims/complex_03_A_a.gif","self_paced","","8","complex_dissimilar","images/stimuli/spore_stims/complex_03_A_a.gif","","","","",""
"","null","html-keyboard-response","105","604472","0.0-25.0-0.1","SS1619739860700","","","null","","","","","","<p><img src= images/blank.png width =""600"" height = ""600"" style=""position:fixed;top:50%; left:50%; transform: translate(-50%, -50%); border:5px solid black"">","","","","","","","",""
"","2854.3900000076974","sequential-stimulus-presentation-old","106","607839","0.0-25.0-1.1","SS1619739860700","trial","","40","500","3354.3900000076974","images/stimuli/spore_stims/complex_15_A_b.gif","images/stimuli/spore_stims/complex_03_A_a.gif","self_paced","","8","complex_dissimilar","images/stimuli/spore_stims/complex_03_A_a.gif","","","","",""
"","null","html-keyboard-response","107","608798","0.0-25.0-0.2","SS1619739860700","","","null","","","","","","<p><img src= images/blank.png width =""600"" height = ""600"" style=""position:fixed;top:50%; left:50%; transform: translate(-50%, -50%); border:5px solid black"">","","","","","","","",""
"","2267.0300000027055","sequential-stimulus-presentation-old","108","611580","0.0-25.0-1.2","SS1619739860700","trial","","40","500","2767.0300000027055","images/stimuli/spore_stims/complex_15_A_b.gif","images/stimuli/spore_stims/complex_03_A_a.gif","self_paced","","8","complex_dissimilar","images/stimuli/spore_stims/complex_03_A_a.gif","","","","",""
"","null","html-keyboard-response","109","612637","0.0-25.0-0.3","SS1619739860700","","","null","","","","","","<p><img src= images/blank.png width =""600"" height = ""600"" style=""position:fixed;top:50%; left:50%; transform: translate(-50%, -50%); border:5px solid black"">","","","","","","","",""
"","3481.755000000703","sequential-stimulus-presentation-old","110","616644","0.0-25.0-1.3","SS1619739860700","trial","","40","500","3981.755000000703","images/stimuli/spore_stims/complex_15_A_b.gif","images/stimuli/spore_stims/complex_03_A_a.gif","self_paced","","8","complex_dissimilar","images/stimuli/spore_stims/complex_15_A_b.gif","","","","",""
"","null","html-keyboard-response","111","617753","0.0-25.0-0.4","SS1619739860700","","","null","","","","","","<p><img src= images/blank.png width =""600"" height = ""600"" style=""position:fixed;top:50%; left:50%; transform: translate(-50%, -50%); border:5px solid black"">","","","","","","","",""
"","2836.090000011609","sequential-stimulus-presentation-old","112","621109","0.0-25.0-1.4","SS1619739860700","trial","","40","500","3336.090000011609","images/stimuli/spore_stims/complex_15_A_b.gif","images/stimuli/spore_stims/complex_03_A_a.gif","self_paced","","8","complex_dissimilar","images/stimuli/spore_stims/complex_15_A_b.gif","","","","",""
"","null","html-keyboard-response","113","622283","0.0-25.0-0.5","SS1619739860700","","","null","","","","","","<p><img src= images/blank.png width =""600"" height = ""600"" style=""position:fixed;top:50%; left:50%; transform: translate(-50%, -50%); border:5px solid black"">","","","","","","","",""
"","2664.3049999984214","sequential-stimulus-presentation-old","114","625466","0.0-25.0-1.5","SS1619739860700","trial","","40","500","3164.3049999984214","images/stimuli/spore_stims/complex_15_A_b.gif","images/stimuli/spore_stims/complex_03_A_a.gif","self_paced","","8","complex_dissimilar","images/stimuli/spore_stims/complex_03_A_a.gif","","","","",""
"","3133.385000008275","survey-multi-choice","115","628607","0.0-26.0","SS1619739860700","math_question","","","","","","","","","","","","{""Q0"":""7""}","[0]","7","",""
"","null","html-keyboard-response","116","629719","0.0-27.0-0.0","SS1619739860700","","","null","","","","","","<p><img src= images/blank.png width =""600"" height = ""600"" style=""position:fixed;top:50%; left:50%; transform: translate(-50%, -50%); border:5px solid black"">","","","","","","","",""
"","17403.960000010557","sequential-stimulus-presentation-old","117","647636","0.0-27.0-1.0","SS1619739860700","trial","","40","500","17903.960000010557","images/stimuli/spore_stims/complex_07_A_b.gif","images/stimuli/spore_stims/complex_13_A_a.gif","self_paced","","9","complex_dissimilar","images/stimuli/spore_stims/complex_13_A_a.gif","","","","",""
"","null","html-keyboard-response","118","648792","0.0-27.0-0.1","SS1619739860700","","","null","","","","","","<p><img src= images/blank.png width =""600"" height = ""600"" style=""position:fixed;top:50%; left:50%; transform: translate(-50%, -50%); border:5px solid black"">","","","","","","","",""
"","8736.415000006673","sequential-stimulus-presentation-old","119","658053","0.0-27.0-1.1","SS1619739860700","trial","","40","500","9236.415000006673","images/stimuli/spore_stims/complex_07_A_b.gif","images/stimuli/spore_stims/complex_13_A_a.gif","self_paced","","9","complex_dissimilar","images/stimuli/spore_stims/complex_13_A_a.gif","","","","",""
"","null","html-keyboard-response","120","659043","0.0-27.0-0.2","SS1619739860700","","","null","","","","","","<p><img src= images/blank.png width =""600"" height = ""600"" style=""position:fixed;top:50%; left:50%; transform: translate(-50%, -50%); border:5px solid black"">","","","","","","","",""
"","1883.0000000016298","sequential-stimulus-presentation-old","121","661445","0.0-27.0-1.2","SS1619739860700","trial","","40","500","2383.00000000163","images/stimuli/spore_stims/complex_07_A_b.gif","images/stimuli/spore_stims/complex_13_A_a.gif","self_paced","","9","complex_dissimilar","images/stimuli/spore_stims/complex_13_A_a.gif","","","","",""
"","null","html-keyboard-response","122","662523","0.0-27.0-0.3","SS1619739860700","","","null","","","","","","<p><img src= images/blank.png width =""600"" height = ""600"" style=""position:fixed;top:50%; left:50%; transform: translate(-50%, -50%); border:5px solid black"">","","","","","","","",""
"","2573.1850000011036","sequential-stimulus-presentation-old","123","665618","0.0-27.0-1.3","SS1619739860700","trial","","40","500","3073.1850000011036","images/stimuli/spore_stims/complex_07_A_b.gif","images/stimuli/spore_stims/complex_13_A_a.gif","self_paced","","9","complex_dissimilar","images/stimuli/spore_stims/complex_07_A_b.gif","","","","",""
"","null","html-keyboard-response","124","666462","0.0-27.0-0.4","SS1619739860700","","","null","","","","","","<p><img src= images/blank.png width =""600"" height = ""600"" style=""position:fixed;top:50%; left:50%; transform: translate(-50%, -50%); border:5px solid black"">","","","","","","","",""
"","1387.3549999989336","sequential-stimulus-presentation-old","125","668361","0.0-27.0-1.4","SS1619739860700","trial","","40","500","1887.3549999989336","images/stimuli/spore_stims/complex_07_A_b.gif","images/stimuli/spore_stims/complex_13_A_a.gif","self_paced","","9","complex_dissimilar","images/stimuli/spore_stims/complex_07_A_b.gif","","","","",""
"","null","html-keyboard-response","126","669244","0.0-27.0-0.5","SS1619739860700","","","null","","","","","","<p><img src= images/blank.png width =""600"" height = ""600"" style=""position:fixed;top:50%; left:50%; transform: translate(-50%, -50%); border:5px solid black"">","","","","","","","",""
"","1731.6900000005262","sequential-stimulus-presentation-old","127","671489","0.0-27.0-1.5","SS1619739860700","trial","","40","500","2231.690000000526","images/stimuli/spore_stims/complex_07_A_b.gif","images/stimuli/spore_stims/complex_13_A_a.gif","self_paced","","9","complex_dissimilar","images/stimuli/spore_stims/complex_13_A_a.gif","","","","",""
"","3371.899999998277","survey-multi-choice","128","674866","0.0-28.0","SS1619739860700","math_question","","","","","","","","","","","","{""Q0"":""15""}","[0]","15","",""
"","null","html-keyboard-response","129","675808","0.0-29.0-0.0","SS1619739860700","","","null","","","","","","<p><img src= images/blank.png width =""600"" height = ""600"" style=""position:fixed;top:50%; left:50%; transform: translate(-50%, -50%); border:5px solid black"">","","","","","","","",""
"","1516.5449999913108","sequential-stimulus-presentation-old","130","677845","0.0-29.0-1.0","SS1619739860700","trial","","40","500","2016.5449999913108","images/stimuli/spore_stims/simple_06_A_b.gif","images/stimuli/spore_stims/simple_13_A_a.gif","forced_short","","10","simple_dissimilar","images/stimuli/spore_stims/simple_13_A_a.gif","","","","",""
"","null","html-keyboard-response","131","678860","0.0-29.0-0.1","SS1619739860700","","","null","","","","","","<p><img src= images/blank.png width =""600"" height = ""600"" style=""position:fixed;top:50%; left:50%; transform: translate(-50%, -50%); border:5px solid black"">","","","","","","","",""
"","3156.4999999973224","sequential-stimulus-presentation-old","132","682545","0.0-29.0-1.1","SS1619739860700","trial","","40","500","3656.4999999973224","images/stimuli/spore_stims/simple_06_A_b.gif","images/stimuli/spore_stims/simple_13_A_a.gif","forced_short","","10","simple_dissimilar","images/stimuli/spore_stims/simple_13_A_a.gif","","","","",""
"","null","html-keyboard-response","133","683540","0.0-29.0-0.2","SS1619739860700","","","null","","","","","","<p><img src= images/blank.png width =""600"" height = ""600"" style=""position:fixed;top:50%; left:50%; transform: translate(-50%, -50%); border:5px solid black"">","","","","","","","",""
"","1545.174999992014","sequential-stimulus-presentation-old","134","685601","0.0-29.0-1.2","SS1619739860700","trial","","40","500","2045.174999992014","images/stimuli/spore_stims/simple_06_A_b.gif","images/stimuli/spore_stims/simple_13_A_a.gif","forced_short","","10","simple_dissimilar","images/stimuli/spore_stims/simple_13_A_a.gif","","","","",""
"","null","html-keyboard-response","135","686493","0.0-29.0-0.3","SS1619739860700","","","null","","","","","","<p><img src= images/blank.png width =""600"" height = ""600"" style=""position:fixed;top:50%; left:50%; transform: translate(-50%, -50%); border:5px solid black"">","","","","","","","",""
"","1297.6650000055088","sequential-stimulus-presentation-old","136","688302","0.0-29.0-1.3","SS1619739860700","trial","","40","500","1797.6650000055088","images/stimuli/spore_stims/simple_06_A_b.gif","images/stimuli/spore_stims/simple_13_A_a.gif","forced_short","","10","simple_dissimilar","images/stimuli/spore_stims/simple_13_A_a.gif","","","","",""
"","null","html-keyboard-response","137","689182","0.0-29.0-0.4","SS1619739860700","","","null","","","","","","<p><img src= images/blank.png width =""600"" height = ""600"" style=""position:fixed;top:50%; left:50%; transform: translate(-50%, -50%); border:5px solid black"">","","","","","","","",""
"","2362.9450000007637","sequential-stimulus-presentation-old","138","692066","0.0-29.0-1.4","SS1619739860700","trial","","40","500","2862.9450000007637","images/stimuli/spore_stims/simple_06_A_b.gif","images/stimuli/spore_stims/simple_13_A_a.gif","forced_short","","10","simple_dissimilar","images/stimuli/spore_stims/simple_06_A_b.gif","","","","",""
"","null","html-keyboard-response","139","692943","0.0-29.0-0.5","SS1619739860700","","","null","","","","","","<p><img src= images/blank.png width =""600"" height = ""600"" style=""position:fixed;top:50%; left:50%; transform: translate(-50%, -50%); border:5px solid black"">","","","","","","","",""
"","3613.5100000101374","sequential-stimulus-presentation-old","140","697087","0.0-29.0-1.5","SS1619739860700","trial","","40","500","4113.510000010137","images/stimuli/spore_stims/simple_06_A_b.gif","images/stimuli/spore_stims/simple_13_A_a.gif","forced_short","","10","simple_dissimilar","images/stimuli/spore_stims/simple_06_A_b.gif","","","","",""
"","3766.640000001644","survey-multi-choice","141","700860","0.0-30.0","SS1619739860700","math_question","","","","","","","","","","","","{""Q0"":""9""}","[0]","9","",""
"","null","html-keyboard-response","142","701857","0.0-31.0-0.0","SS1619739860700","","","null","","","","","","<p><img src= images/blank.png width =""600"" height = ""600"" style=""position:fixed;top:50%; left:50%; transform: translate(-50%, -50%); border:5px solid black"">","","","","","","","",""
"","2718.365000007907","sequential-stimulus-presentation-old","143","719605","0.0-31.0-1.0","SS1619739860700","trial","","40","500","3218.365000007907","images/stimuli/spore_stims/complex_16_A_a.gif","images/stimuli/spore_stims/complex_14_A_b.gif","forced_long","","11","complex_dissimilar","images/stimuli/spore_stims/complex_14_A_b.gif","","","","",""
"","null","html-keyboard-response","144","720435","0.0-31.0-0.1","SS1619739860700","","","null","","","","","","<p><img src= images/blank.png width =""600"" height = ""600"" style=""position:fixed;top:50%; left:50%; transform: translate(-50%, -50%); border:5px solid black"">","","","","","","","",""
"","100177.29999999574","sequential-stimulus-presentation-old","145","821119","0.0-31.0-1.1","SS1619739860700","trial","","40","500","100677.29999999574","images/stimuli/spore_stims/complex_16_A_a.gif","images/stimuli/spore_stims/complex_14_A_b.gif","forced_long","","11","complex_dissimilar","images/stimuli/spore_stims/complex_14_A_b.gif","","","","",""
"","null","html-keyboard-response","146","822273","0.0-31.0-0.2","SS1619739860700","","","null","","","","","","<p><img src= images/blank.png width =""600"" height = ""600"" style=""position:fixed;top:50%; left:50%; transform: translate(-50%, -50%); border:5px solid black"">","","","","","","","",""
"","2908.7350000045262","sequential-stimulus-presentation-old","147","825707","0.0-31.0-1.2","SS1619739860700","trial","","40","500","3408.7350000045262","images/stimuli/spore_stims/complex_16_A_a.gif","images/stimuli/spore_stims/complex_14_A_b.gif","forced_long","","11","complex_dissimilar","images/stimuli/spore_stims/complex_16_A_a.gif","","","","",""
"","null","html-keyboard-response","148","826764","0.0-31.0-0.3","SS1619739860700","","","null","","","","","","<p><img src= images/blank.png width =""600"" height = ""600"" style=""position:fixed;top:50%; left:50%; transform: translate(-50%, -50%); border:5px solid black"">","","","","","","","",""
"","1610.4049999994459","sequential-stimulus-presentation-old","149","828902","0.0-31.0-1.3","SS1619739860700","trial","","40","500","2110.404999999446","images/stimuli/spore_stims/complex_16_A_a.gif","images/stimuli/spore_stims/complex_14_A_b.gif","forced_long","","11","complex_dissimilar","images/stimuli/spore_stims/complex_14_A_b.gif","","","","",""
"","null","html-keyboard-response","150","829892","0.0-31.0-0.4","SS1619739860700","","","null","","","","","","<p><img src= images/blank.png width =""600"" height = ""600"" style=""position:fixed;top:50%; left:50%; transform: translate(-50%, -50%); border:5px solid black"">","","","","","","","",""
"","2846.290000001318","sequential-stimulus-presentation-old","151","833250","0.0-31.0-1.4","SS1619739860700","trial","","40","500","3346.290000001318","images/stimuli/spore_stims/complex_16_A_a.gif","images/stimuli/spore_stims/complex_14_A_b.gif","forced_long","","11","complex_dissimilar","images/stimuli/spore_stims/complex_14_A_b.gif","","","","",""
"","null","html-keyboard-response","152","834481","0.0-31.0-0.5","SS1619739860700","","","null","","","","","","<p><img src= images/blank.png width =""600"" height = ""600"" style=""position:fixed;top:50%; left:50%; transform: translate(-50%, -50%); border:5px solid black"">","","","","","","","",""
"","2211.104999994859","sequential-stimulus-presentation-old","153","837215","0.0-31.0-1.5","SS1619739860700","trial","","40","500","2711.104999994859","images/stimuli/spore_stims/complex_16_A_a.gif","images/stimuli/spore_stims/complex_14_A_b.gif","forced_long","","11","complex_dissimilar","images/stimuli/spore_stims/complex_14_A_b.gif","","","","",""
"[{""page_index"":0,""viewing_time"":25477.029999994556}]","25477.7150000009","instructions","154","862697","0.0-32.0","SS1619739860700","instructions","","","","","","","","","","","","","","","",""
"","6959.375000005821","survey-likert","155","869670","0.0-33.0","SS1619739860700","similarity_question","","","","","","","","","","","","{""Q0"":4}","[0]","","images/stimuli/spore_stims/simple_13_A_a.gif","images/stimuli/spore_stims/simple_06_A_b.gif"
"","7937.200000000303","survey-likert","156","877631","0.0-34.0","SS1619739860700","similarity_question","","","","","","","","","","","","{""Q0"":2}","[0]","","images/stimuli/spore_stims/complex_08_A_b.gif","images/stimuli/spore_stims/complex_06_A_a.gif"
"","5172.080000003916","survey-likert","157","882820","0.0-35.0","SS1619739860700","similarity_question","","","","","","","","","","","","{""Q0"":5}","[0]","","images/stimuli/spore_stims/simple_10_A_b.gif","images/stimuli/spore_stims/simple_05_A_a.gif"
"","9517.550000004121","survey-likert","158","892358","0.0-36.0","SS1619739860700","similarity_question","","","","","","","","","","","","{""Q0"":1}","[0]","","images/stimuli/spore_stims/complex_07_A_b.gif","images/stimuli/spore_stims/complex_13_A_a.gif"
"","3994.429999991553","survey-likert","159","896371","0.0-37.0","SS1619739860700","similarity_question","","","","","","","","","","","","{""Q0"":0}","[0]","","images/stimuli/spore_stims/complex_15_A_b.gif","images/stimuli/spore_stims/complex_03_A_a.gif"
"","4045.545000000857","survey-likert","160","900435","0.0-38.0","SS1619739860700","similarity_question","","","","","","","","","","","","{""Q0"":4}","[0]","","images/stimuli/spore_stims/complex_10_A_a.gif","images/stimuli/spore_stims/complex_19_A_b.gif"
"","3839.4699999917066","survey-likert","161","904293","0.0-39.0","SS1619739860700","similarity_question","","","","","","","","","","","","{""Q0"":1}","[0]","","images/stimuli/spore_stims/complex_05_A_b.gif","images/stimuli/spore_stims/complex_15_A_a.gif"
"","4927.880000002915","survey-likert","162","909242","0.0-40.0","SS1619739860700","similarity_question","","","","","","","","","","","","{""Q0"":2}","[0]","","images/stimuli/spore_stims/simple_19_A_a.gif","images/stimuli/spore_stims/simple_15_A_b.gif"
"","3466.64499999315","survey-likert","163","912728","0.0-41.0","SS1619739860700","similarity_question","","","","","","","","","","","","{""Q0"":2}","[0]","","images/stimuli/spore_stims/simple_02_A_a.gif","images/stimuli/spore_stims/simple_14_A_b.gif"
"","4494.730000005802","survey-likert","164","917245","0.0-42.0","SS1619739860700","similarity_question","","","","","","","","","","","","{""Q0"":2}","[0]","","images/stimuli/spore_stims/simple_12_A_b.gif","images/stimuli/spore_stims/simple_16_A_a.gif"
"","6446.850000007544","survey-likert","165","923716","0.0-43.0","SS1619739860700","similarity_question","","","","","","","","","","","","{""Q0"":1}","[0]","","images/stimuli/spore_stims/complex_14_A_b.gif","images/stimuli/spore_stims/complex_16_A_a.gif"
"","5260.51500000176","survey-likert","166","928996","0.0-44.0","SS1619739860700","similarity_question","","","","","","","","","","","","{""Q0"":4}","[0]","","images/stimuli/spore_stims/simple_03_A_a.gif","images/stimuli/spore_stims/simple_08_A_b.gif"
"[{""page_index"":0,""viewing_time"":7400.594999999157}]","7401.115000000573","instructions","167","936416","0.0-45.0","SS1619739860700","instructions","","","","","","","","","","","","","","","",""
"","5972.985000000335","survey-likert","168","942401","0.0-46.0","SS1619739860700","","","","","","","","","images/stimuli/spore_stims/simple_12_A_b.gif","","","","{""Q0"":2}","[0]","","",""
"","3379.675000003772","survey-likert","169","945802","0.0-47.0","SS1619739860700","","","","","","","","","images/stimuli/spore_stims/simple_05_A_a.gif","","","","{""Q0"":0}","[0]","","",""
"","3556.609999999637","survey-likert","170","949376","0.0-48.0","SS1619739860700","","","","","","","","","images/stimuli/spore_stims/complex_10_A_a.gif","","","","{""Q0"":5}","[0]","","",""
"","3262.7550000033807","survey-likert","171","952659","0.0-49.0","SS1619739860700","","","","","","","","","images/stimuli/spore_stims/simple_03_A_a.gif","","","","{""Q0"":1}","[0]","","",""
"","2893.164999986766","survey-likert","172","955574","0.0-50.0","SS1619739860700","","","","","","","","","images/stimuli/spore_stims/simple_02_A_a.gif","","","","{""Q0"":1}","[0]","","",""
"","3178.1950000004144","survey-likert","173","958774","0.0-51.0","SS1619739860700","","","","","","","","","images/stimuli/spore_stims/complex_16_A_a.gif","","","","{""Q0"":6}","[0]","","",""
"","2950.4699999961304","survey-likert","174","961744","0.0-52.0","SS1619739860700","","","","","","","","","images/stimuli/spore_stims/complex_07_A_b.gif","","","","{""Q0"":6}","[0]","","",""
"","3827.820000005886","survey-likert","175","965593","0.0-53.0","SS1619739860700","","","","","","","","","images/stimuli/spore_stims/complex_03_A_a.gif","","","","{""Q0"":5}","[0]","","",""
"","5283.279999988736","survey-likert","176","970895","0.0-54.0","SS1619739860700","","","","","","","","","images/stimuli/spore_stims/simple_15_A_b.gif","","","","{""Q0"":0}","[0]","","",""
"","3425.8450000052107","survey-likert","177","974342","0.0-55.0","SS1619739860700","","","","","","","","","images/stimuli/spore_stims/complex_08_A_b.gif","","","","{""Q0"":5}","[0]","","",""
"","4060.2149999904213","survey-likert","178","978425","0.0-56.0","SS1619739860700","","","","","","","","","images/stimuli/spore_stims/complex_15_A_a.gif","","","","{""Q0"":6}","[0]","","",""
"","3607.835000002524","survey-likert","179","982055","0.0-57.0","SS1619739860700","","","","","","","","","images/stimuli/spore_stims/simple_06_A_b.gif","","","","{""Q0"":1}","[0]","","",""
"[{""page_index"":0,""viewing_time"":3182.730000000447}]","3183.340000003227","instructions","180","985257","0.0-58.0","SS1619739860700","instructions","","","","","","","","","","","","","","","",""
"","2776.224999994156","demog-age","181","988047","0.0-59.0","SS1619739860700","","","","","","","","","","","","","{""age"":""22""}","","","",""
"","5036.824999988312","demog-ethnic-US","182","993099","0.0-60.0","SS1619739860700","","","","","","","","","","","","","{""ethnicity"":[""White""]}","[0]","","",""
"","13162.274999995134","demog-gender-and-education","183","1006283","0.0-61.0","SS1619739860700","","","","","","","","","","","","","{""gender"":""Female"",""education"":""Bachelor's Degree""}","[0,1]","","",""
"","10052.385000002687","survey-text","184","1016358","0.0-62.0","SS1619739860700","feedback","","","","","","","","","","","","{""Q0"":""No :)""}","","","",""
"[{""page_index"":0,""viewing_time"":2611.7450000019744}]","2612.1100000018487","instructions","185","1018977","0.0-63.0","SS1619739860700","instructions","","","","","","","","","","","","","","","",""
