"view_history","rt","trial_type","trial_index","time_elapsed","internal_node_id","subject","stimulus_type","trial_stimulus","key_press","minimum_viewing_duration","trial_looking_time","block_deviant","block_background","exposure_type","stimulus","block_number","block_type","stimulus_displayed","responses","question_order","math_correct_answer","stimulus_left","stimulus_right"
"[{""page_index"":0,""viewing_time"":1466.9700000085868}]","1467.2049999935552","instructions","0","1468","0.0-0.0","SS1619740104294","","","","","","","","","","","","","","","","",""
"[{""page_index"":0,""viewing_time"":12006.88000000082},{""page_index"":1,""viewing_time"":5673.699999984819}]","17680.74500001967","instructions","1","21150","0.0-1.0","SS1619740104294","instructions","","","","","","","","","","","","","","","",""
"","4829.145000025164","sequential-stimulus-presentation-old","2","26482","0.0-2.0","SS1619740104294","","","40","500","5329.145000025164","null","null","self_paced","","","","","","","","",""
"","5621.845000016037","sequential-stimulus-presentation-old","3","32605","0.0-3.0","SS1619740104294","","","40","500","6121.845000016037","null","null","self_paced","","","","","","","","",""
"[{""page_index"":0,""viewing_time"":11350.59500002535}]","11350.710000027902","instructions","4","43956","0.0-4.0","SS1619740104294","instructions","","","","","","","","","","","","","","","",""
"","362.4249999993481","sequential-stimulus-presentation-old","5","59320","0.0-5.0","SS1619740104294","","","40","500","862.4249999993481","null","null","forced_long","","","","","","","","",""
"","1570.5550000420772","sequential-stimulus-presentation-old","6","61393","0.0-6.0","SS1619740104294","","","40","500","2070.555000042077","null","null","forced_long","","","","","","","","",""
"[{""page_index"":0,""viewing_time"":2338.289999985136}]","2338.380000030156","instructions","7","63732","0.0-7.0","SS1619740104294","instructions","","","","","","","","","","","","","","","",""
"[{""page_index"":0,""viewing_time"":9484.325000026729},{""page_index"":1,""viewing_time"":13512.040000001434},{""page_index"":2,""viewing_time"":5885.925000009593},{""page_index"":3,""viewing_time"":1185.0700000068173},{""page_index"":4,""viewing_time"":1805.9499999508262}]","31873.405000020284","instructions","8","95606","0.0-8.0","SS1619740104294","instructions","","","","","","","","","","","","","","","",""
"","null","html-keyboard-response","9","96831","0.0-9.0-0.0","SS1619740104294","","","null","","","","","","<p><img src= images/blank.png width =""600"" height = ""600"" style=""position:fixed;top:50%; left:50%; transform: translate(-50%, -50%); border:5px solid black"">","","","","","","","",""
"","3090.6649999669753","sequential-stimulus-presentation-old","10","100424","0.0-9.0-1.0","SS1619740104294","trial","","40","500","3590.6649999669753","images/stimuli/spore_stims/complex_12_A_a.gif","images/stimuli/spore_stims/complex_09_A_b.gif","forced_short","","0","complex_dissimilar","images/stimuli/spore_stims/complex_09_A_b.gif","","","","",""
"","null","html-keyboard-response","11","101354","0.0-9.0-0.1","SS1619740104294","","","null","","","","","","<p><img src= images/blank.png width =""600"" height = ""600"" style=""position:fixed;top:50%; left:50%; transform: translate(-50%, -50%); border:5px solid black"">","","","","","","","",""
"","13830.614999984391","sequential-stimulus-presentation-old","12","115687","0.0-9.0-1.1","SS1619740104294","trial","","40","500","14330.614999984391","images/stimuli/spore_stims/complex_12_A_a.gif","images/stimuli/spore_stims/complex_09_A_b.gif","forced_short","","0","complex_dissimilar","images/stimuli/spore_stims/complex_09_A_b.gif","","","","",""
"","null","html-keyboard-response","13","116860","0.0-9.0-0.2","SS1619740104294","","","null","","","","","","<p><img src= images/blank.png width =""600"" height = ""600"" style=""position:fixed;top:50%; left:50%; transform: translate(-50%, -50%); border:5px solid black"">","","","","","","","",""
"","5924.579999991693","sequential-stimulus-presentation-old","14","123287","0.0-9.0-1.2","SS1619740104294","trial","","40","500","6424.579999991693","images/stimuli/spore_stims/complex_12_A_a.gif","images/stimuli/spore_stims/complex_09_A_b.gif","forced_short","","0","complex_dissimilar","images/stimuli/spore_stims/complex_12_A_a.gif","","","","",""
"","null","html-keyboard-response","15","124302","0.0-9.0-0.3","SS1619740104294","","","null","","","","","","<p><img src= images/blank.png width =""600"" height = ""600"" style=""position:fixed;top:50%; left:50%; transform: translate(-50%, -50%); border:5px solid black"">","","","","","","","",""
"","6003.639999951702","sequential-stimulus-presentation-old","16","130808","0.0-9.0-1.3","SS1619740104294","trial","","40","500","6503.639999951702","images/stimuli/spore_stims/complex_12_A_a.gif","images/stimuli/spore_stims/complex_09_A_b.gif","forced_short","","0","complex_dissimilar","images/stimuli/spore_stims/complex_12_A_a.gif","","","","",""
"","3593.304999987595","survey-multi-choice","17","134403","0.0-10.0","SS1619740104294","math_question","","","","","","","","","","","","{""Q0"":""10""}","[0]","10","",""
"","null","html-keyboard-response","18","135299","0.0-11.0-0.0","SS1619740104294","","","null","","","","","","<p><img src= images/blank.png width =""600"" height = ""600"" style=""position:fixed;top:50%; left:50%; transform: translate(-50%, -50%); border:5px solid black"">","","","","","","","",""
"","3148.425000021234","sequential-stimulus-presentation-old","19","138951","0.0-11.0-1.0","SS1619740104294","trial","","40","500","3648.425000021234","images/stimuli/spore_stims/complex_02_A_a.gif","images/stimuli/spore_stims/complex_20_A_b.gif","self_paced","","1","complex_dissimilar","images/stimuli/spore_stims/complex_20_A_b.gif","","","","",""
"","null","html-keyboard-response","20","140114","0.0-11.0-0.1","SS1619740104294","","","null","","","","","","<p><img src= images/blank.png width =""600"" height = ""600"" style=""position:fixed;top:50%; left:50%; transform: translate(-50%, -50%); border:5px solid black"">","","","","","","","",""
"","4120.735000004061","sequential-stimulus-presentation-old","21","144738","0.0-11.0-1.1","SS1619740104294","trial","","40","500","4620.735000004061","images/stimuli/spore_stims/complex_02_A_a.gif","images/stimuli/spore_stims/complex_20_A_b.gif","self_paced","","1","complex_dissimilar","images/stimuli/spore_stims/complex_20_A_b.gif","","","","",""
"","null","html-keyboard-response","22","145823","0.0-11.0-0.2","SS1619740104294","","","null","","","","","","<p><img src= images/blank.png width =""600"" height = ""600"" style=""position:fixed;top:50%; left:50%; transform: translate(-50%, -50%); border:5px solid black"">","","","","","","","",""
"","4850.559999991674","sequential-stimulus-presentation-old","23","151177","0.0-11.0-1.2","SS1619740104294","trial","","40","500","5350.559999991674","images/stimuli/spore_stims/complex_02_A_a.gif","images/stimuli/spore_stims/complex_20_A_b.gif","self_paced","","1","complex_dissimilar","images/stimuli/spore_stims/complex_20_A_b.gif","","","","",""
"","null","html-keyboard-response","24","152415","0.0-11.0-0.3","SS1619740104294","","","null","","","","","","<p><img src= images/blank.png width =""600"" height = ""600"" style=""position:fixed;top:50%; left:50%; transform: translate(-50%, -50%); border:5px solid black"">","","","","","","","",""
"","5725.70499998983","sequential-stimulus-presentation-old","25","158644","0.0-11.0-1.3","SS1619740104294","trial","","40","500","6225.70499998983","images/stimuli/spore_stims/complex_02_A_a.gif","images/stimuli/spore_stims/complex_20_A_b.gif","self_paced","","1","complex_dissimilar","images/stimuli/spore_stims/complex_20_A_b.gif","","","","",""
"","null","html-keyboard-response","26","159863","0.0-11.0-0.4","SS1619740104294","","","null","","","","","","<p><img src= images/blank.png width =""600"" height = ""600"" style=""position:fixed;top:50%; left:50%; transform: translate(-50%, -50%); border:5px solid black"">","","","","","","","",""
"","1590.6950000207871","sequential-stimulus-presentation-old","27","161957","0.0-11.0-1.4","SS1619740104294","trial","","40","500","2090.695000020787","images/stimuli/spore_stims/complex_02_A_a.gif","images/stimuli/spore_stims/complex_20_A_b.gif","self_paced","","1","complex_dissimilar","images/stimuli/spore_stims/complex_20_A_b.gif","","","","",""
"","3375.590000010561","survey-multi-choice","28","165334","0.0-12.0","SS1619740104294","math_question","","","","","","","","","","","","{""Q0"":""10""}","[0]","10","",""
"","null","html-keyboard-response","29","166246","0.0-13.0-0.0","SS1619740104294","","","null","","","","","","<p><img src= images/blank.png width =""600"" height = ""600"" style=""position:fixed;top:50%; left:50%; transform: translate(-50%, -50%); border:5px solid black"">","","","","","","","",""
"","4872.1049999585375","sequential-stimulus-presentation-old","30","171621","0.0-13.0-1.0","SS1619740104294","trial","","40","500","5372.1049999585375","images/stimuli/spore_stims/simple_03_A_b.gif","images/stimuli/spore_stims/simple_02_A_a.gif","self_paced","","2","simple_dissimilar","images/stimuli/spore_stims/simple_02_A_a.gif","","","","",""
"","null","html-keyboard-response","31","172509","0.0-13.0-0.1","SS1619740104294","","","null","","","","","","<p><img src= images/blank.png width =""600"" height = ""600"" style=""position:fixed;top:50%; left:50%; transform: translate(-50%, -50%); border:5px solid black"">","","","","","","","",""
"","3032.6599999680184","sequential-stimulus-presentation-old","32","176045","0.0-13.0-1.1","SS1619740104294","trial","","40","500","3532.6599999680184","images/stimuli/spore_stims/simple_03_A_b.gif","images/stimuli/spore_stims/simple_02_A_a.gif","self_paced","","2","simple_dissimilar","images/stimuli/spore_stims/simple_02_A_a.gif","","","","",""
"","null","html-keyboard-response","33","176877","0.0-13.0-0.2","SS1619740104294","","","null","","","","","","<p><img src= images/blank.png width =""600"" height = ""600"" style=""position:fixed;top:50%; left:50%; transform: translate(-50%, -50%); border:5px solid black"">","","","","","","","",""
"","1851.6250000102445","sequential-stimulus-presentation-old","34","179232","0.0-13.0-1.2","SS1619740104294","trial","","40","500","2351.6250000102445","images/stimuli/spore_stims/simple_03_A_b.gif","images/stimuli/spore_stims/simple_02_A_a.gif","self_paced","","2","simple_dissimilar","images/stimuli/spore_stims/simple_02_A_a.gif","","","","",""
"","null","html-keyboard-response","35","180395","0.0-13.0-0.3","SS1619740104294","","","null","","","","","","<p><img src= images/blank.png width =""600"" height = ""600"" style=""position:fixed;top:50%; left:50%; transform: translate(-50%, -50%); border:5px solid black"">","","","","","","","",""
"","4030.5950000183657","sequential-stimulus-presentation-old","36","184928","0.0-13.0-1.3","SS1619740104294","trial","","40","500","4530.595000018366","images/stimuli/spore_stims/simple_03_A_b.gif","images/stimuli/spore_stims/simple_02_A_a.gif","self_paced","","2","simple_dissimilar","images/stimuli/spore_stims/simple_03_A_b.gif","","","","",""
"","null","html-keyboard-response","37","185857","0.0-13.0-0.4","SS1619740104294","","","null","","","","","","<p><img src= images/blank.png width =""600"" height = ""600"" style=""position:fixed;top:50%; left:50%; transform: translate(-50%, -50%); border:5px solid black"">","","","","","","","",""
"","4569.480000005569","sequential-stimulus-presentation-old","38","190929","0.0-13.0-1.4","SS1619740104294","trial","","40","500","5069.480000005569","images/stimuli/spore_stims/simple_03_A_b.gif","images/stimuli/spore_stims/simple_02_A_a.gif","self_paced","","2","simple_dissimilar","images/stimuli/spore_stims/simple_02_A_a.gif","","","","",""
"","null","html-keyboard-response","39","192222","0.0-13.0-0.5","SS1619740104294","","","null","","","","","","<p><img src= images/blank.png width =""600"" height = ""600"" style=""position:fixed;top:50%; left:50%; transform: translate(-50%, -50%); border:5px solid black"">","","","","","","","",""
"","4310.954999993555","sequential-stimulus-presentation-old","40","197035","0.0-13.0-1.5","SS1619740104294","trial","","40","500","4810.954999993555","images/stimuli/spore_stims/simple_03_A_b.gif","images/stimuli/spore_stims/simple_02_A_a.gif","self_paced","","2","simple_dissimilar","images/stimuli/spore_stims/simple_03_A_b.gif","","","","",""
"","3323.259999975562","survey-multi-choice","41","200361","0.0-14.0","SS1619740104294","math_question","","","","","","","","","","","","{""Q0"":""15""}","[0]","15","",""
"","null","html-keyboard-response","42","201524","0.0-15.0-0.0","SS1619740104294","","","null","","","","","","<p><img src= images/blank.png width =""600"" height = ""600"" style=""position:fixed;top:50%; left:50%; transform: translate(-50%, -50%); border:5px solid black"">","","","","","","","",""
"","5304.319999995641","sequential-stimulus-presentation-old","43","221832","0.0-15.0-1.0","SS1619740104294","trial","","40","500","5804.319999995641","images/stimuli/spore_stims/simple_18_A_b.gif","images/stimuli/spore_stims/simple_07_A_a.gif","forced_long","","3","simple_dissimilar","images/stimuli/spore_stims/simple_07_A_a.gif","","","","",""
"","null","html-keyboard-response","44","222808","0.0-15.0-0.1","SS1619740104294","","","null","","","","","","<p><img src= images/blank.png width =""600"" height = ""600"" style=""position:fixed;top:50%; left:50%; transform: translate(-50%, -50%); border:5px solid black"">","","","","","","","",""
"","2821.735000004992","sequential-stimulus-presentation-old","45","226133","0.0-15.0-1.1","SS1619740104294","trial","","40","500","3321.735000004992","images/stimuli/spore_stims/simple_18_A_b.gif","images/stimuli/spore_stims/simple_07_A_a.gif","forced_long","","3","simple_dissimilar","images/stimuli/spore_stims/simple_07_A_a.gif","","","","",""
"","null","html-keyboard-response","46","226997","0.0-15.0-0.2","SS1619740104294","","","null","","","","","","<p><img src= images/blank.png width =""600"" height = ""600"" style=""position:fixed;top:50%; left:50%; transform: translate(-50%, -50%); border:5px solid black"">","","","","","","","",""
"","1204.280000005383","sequential-stimulus-presentation-old","47","228704","0.0-15.0-1.2","SS1619740104294","trial","","40","500","1704.280000005383","images/stimuli/spore_stims/simple_18_A_b.gif","images/stimuli/spore_stims/simple_07_A_a.gif","forced_long","","3","simple_dissimilar","images/stimuli/spore_stims/simple_07_A_a.gif","","","","",""
"","null","html-keyboard-response","48","229795","0.0-15.0-0.3","SS1619740104294","","","null","","","","","","<p><img src= images/blank.png width =""600"" height = ""600"" style=""position:fixed;top:50%; left:50%; transform: translate(-50%, -50%); border:5px solid black"">","","","","","","","",""
"","760.7049999642186","sequential-stimulus-presentation-old","49","231059","0.0-15.0-1.3","SS1619740104294","trial","","40","500","1260.7049999642186","images/stimuli/spore_stims/simple_18_A_b.gif","images/stimuli/spore_stims/simple_07_A_a.gif","forced_long","","3","simple_dissimilar","images/stimuli/spore_stims/simple_07_A_a.gif","","","","",""
"","null","html-keyboard-response","50","232086","0.0-15.0-0.4","SS1619740104294","","","null","","","","","","<p><img src= images/blank.png width =""600"" height = ""600"" style=""position:fixed;top:50%; left:50%; transform: translate(-50%, -50%); border:5px solid black"">","","","","","","","",""
"","456.26499998616055","sequential-stimulus-presentation-old","51","233046","0.0-15.0-1.4","SS1619740104294","trial","","40","500","956.2649999861605","images/stimuli/spore_stims/simple_18_A_b.gif","images/stimuli/spore_stims/simple_07_A_a.gif","forced_long","","3","simple_dissimilar","images/stimuli/spore_stims/simple_07_A_a.gif","","","","",""
"","null","html-keyboard-response","52","234035","0.0-15.0-0.5","SS1619740104294","","","null","","","","","","<p><img src= images/blank.png width =""600"" height = ""600"" style=""position:fixed;top:50%; left:50%; transform: translate(-50%, -50%); border:5px solid black"">","","","","","","","",""
"","2777.925000002142","sequential-stimulus-presentation-old","53","237317","0.0-15.0-1.5","SS1619740104294","trial","","40","500","3277.925000002142","images/stimuli/spore_stims/simple_18_A_b.gif","images/stimuli/spore_stims/simple_07_A_a.gif","forced_long","","3","simple_dissimilar","images/stimuli/spore_stims/simple_18_A_b.gif","","","","",""
"","4158.609999984037","survey-multi-choice","54","241478","0.0-16.0","SS1619740104294","math_question","","","","","","","","","","","","{""Q0"":""9""}","[0]","9","",""
"","null","html-keyboard-response","55","242332","0.0-17.0-0.0","SS1619740104294","","","null","","","","","","<p><img src= images/blank.png width =""600"" height = ""600"" style=""position:fixed;top:50%; left:50%; transform: translate(-50%, -50%); border:5px solid black"">","","","","","","","",""
"","4628.215000033379","sequential-stimulus-presentation-old","56","247465","0.0-17.0-1.0","SS1619740104294","trial","","40","500","5128.215000033379","images/stimuli/spore_stims/simple_15_A_b.gif","images/stimuli/spore_stims/simple_05_A_a.gif","forced_short","","4","simple_dissimilar","images/stimuli/spore_stims/simple_05_A_a.gif","","","","",""
"","null","html-keyboard-response","57","248454","0.0-17.0-0.1","SS1619740104294","","","null","","","","","","<p><img src= images/blank.png width =""600"" height = ""600"" style=""position:fixed;top:50%; left:50%; transform: translate(-50%, -50%); border:5px solid black"">","","","","","","","",""
"","2624.6200000168756","sequential-stimulus-presentation-old","58","251582","0.0-17.0-1.1","SS1619740104294","trial","","40","500","3124.6200000168756","images/stimuli/spore_stims/simple_15_A_b.gif","images/stimuli/spore_stims/simple_05_A_a.gif","forced_short","","4","simple_dissimilar","images/stimuli/spore_stims/simple_05_A_a.gif","","","","",""
"","null","html-keyboard-response","59","252689","0.0-17.0-0.2","SS1619740104294","","","null","","","","","","<p><img src= images/blank.png width =""600"" height = ""600"" style=""position:fixed;top:50%; left:50%; transform: translate(-50%, -50%); border:5px solid black"">","","","","","","","",""
"","908.8800000026822","sequential-stimulus-presentation-old","60","254102","0.0-17.0-1.2","SS1619740104294","trial","","40","500","1408.8800000026822","images/stimuli/spore_stims/simple_15_A_b.gif","images/stimuli/spore_stims/simple_05_A_a.gif","forced_short","","4","simple_dissimilar","images/stimuli/spore_stims/simple_05_A_a.gif","","","","",""
"","null","html-keyboard-response","61","255263","0.0-17.0-0.3","SS1619740104294","","","null","","","","","","<p><img src= images/blank.png width =""600"" height = ""600"" style=""position:fixed;top:50%; left:50%; transform: translate(-50%, -50%); border:5px solid black"">","","","","","","","",""
"","1287.815000046976","sequential-stimulus-presentation-old","62","257054","0.0-17.0-1.3","SS1619740104294","trial","","40","500","1787.815000046976","images/stimuli/spore_stims/simple_15_A_b.gif","images/stimuli/spore_stims/simple_05_A_a.gif","forced_short","","4","simple_dissimilar","images/stimuli/spore_stims/simple_05_A_a.gif","","","","",""
"","null","html-keyboard-response","63","258262","0.0-17.0-0.4","SS1619740104294","","","null","","","","","","<p><img src= images/blank.png width =""600"" height = ""600"" style=""position:fixed;top:50%; left:50%; transform: translate(-50%, -50%); border:5px solid black"">","","","","","","","",""
"","1216.614999982994","sequential-stimulus-presentation-old","64","259982","0.0-17.0-1.4","SS1619740104294","trial","","40","500","1716.614999982994","images/stimuli/spore_stims/simple_15_A_b.gif","images/stimuli/spore_stims/simple_05_A_a.gif","forced_short","","4","simple_dissimilar","images/stimuli/spore_stims/simple_05_A_a.gif","","","","",""
"","3326.2699999613687","survey-multi-choice","65","263310","0.0-18.0","SS1619740104294","math_question","","","","","","","","","","","","{""Q0"":""7""}","[0]","7","",""
"","null","html-keyboard-response","66","264363","0.0-19.0-0.0","SS1619740104294","","","null","","","","","","<p><img src= images/blank.png width =""600"" height = ""600"" style=""position:fixed;top:50%; left:50%; transform: translate(-50%, -50%); border:5px solid black"">","","","","","","","",""
"","4081.8449999787845","sequential-stimulus-presentation-old","67","268949","0.0-19.0-1.0","SS1619740104294","trial","","40","500","4581.8449999787845","images/stimuli/spore_stims/complex_08_A_a.gif","images/stimuli/spore_stims/complex_15_A_b.gif","forced_short","","5","complex_dissimilar","images/stimuli/spore_stims/complex_15_A_b.gif","","","","",""
"","null","html-keyboard-response","68","270162","0.0-19.0-0.1","SS1619740104294","","","null","","","","","","<p><img src= images/blank.png width =""600"" height = ""600"" style=""position:fixed;top:50%; left:50%; transform: translate(-50%, -50%); border:5px solid black"">","","","","","","","",""
"","1552.1549999830313","sequential-stimulus-presentation-old","69","272218","0.0-19.0-1.1","SS1619740104294","trial","","40","500","2052.1549999830313","images/stimuli/spore_stims/complex_08_A_a.gif","images/stimuli/spore_stims/complex_15_A_b.gif","forced_short","","5","complex_dissimilar","images/stimuli/spore_stims/complex_15_A_b.gif","","","","",""
"","null","html-keyboard-response","70","273176","0.0-19.0-0.2","SS1619740104294","","","null","","","","","","<p><img src= images/blank.png width =""600"" height = ""600"" style=""position:fixed;top:50%; left:50%; transform: translate(-50%, -50%); border:5px solid black"">","","","","","","","",""
"","1413.74500002712","sequential-stimulus-presentation-old","71","275094","0.0-19.0-1.2","SS1619740104294","trial","","40","500","1913.74500002712","images/stimuli/spore_stims/complex_08_A_a.gif","images/stimuli/spore_stims/complex_15_A_b.gif","forced_short","","5","complex_dissimilar","images/stimuli/spore_stims/complex_15_A_b.gif","","","","",""
"","null","html-keyboard-response","72","275920","0.0-19.0-0.3","SS1619740104294","","","null","","","","","","<p><img src= images/blank.png width =""600"" height = ""600"" style=""position:fixed;top:50%; left:50%; transform: translate(-50%, -50%); border:5px solid black"">","","","","","","","",""
"","2537.6500000129454","sequential-stimulus-presentation-old","73","278963","0.0-19.0-1.3","SS1619740104294","trial","","40","500","3037.6500000129454","images/stimuli/spore_stims/complex_08_A_a.gif","images/stimuli/spore_stims/complex_15_A_b.gif","forced_short","","5","complex_dissimilar","images/stimuli/spore_stims/complex_08_A_a.gif","","","","",""
"","4631.785000034142","survey-multi-choice","74","283597","0.0-20.0","SS1619740104294","math_question","","","","","","","","","","","","{""Q0"":""11""}","[0]","11","",""
"","null","html-keyboard-response","75","284740","0.0-21.0-0.0","SS1619740104294","","","null","","","","","","<p><img src= images/blank.png width =""600"" height = ""600"" style=""position:fixed;top:50%; left:50%; transform: translate(-50%, -50%); border:5px solid black"">","","","","","","","",""
"","4049.2949999752454","sequential-stimulus-presentation-old","76","303793","0.0-21.0-1.0","SS1619740104294","trial","","40","500","4549.294999975245","images/stimuli/spore_stims/simple_17_A_b.gif","images/stimuli/spore_stims/simple_01_A_a.gif","forced_long","","6","simple_dissimilar","images/stimuli/spore_stims/simple_01_A_a.gif","","","","",""
"","null","html-keyboard-response","77","304680","0.0-21.0-0.1","SS1619740104294","","","null","","","","","","<p><img src= images/blank.png width =""600"" height = ""600"" style=""position:fixed;top:50%; left:50%; transform: translate(-50%, -50%); border:5px solid black"">","","","","","","","",""
"","2958.9750000159256","sequential-stimulus-presentation-old","78","308144","0.0-21.0-1.1","SS1619740104294","trial","","40","500","3458.9750000159256","images/stimuli/spore_stims/simple_17_A_b.gif","images/stimuli/spore_stims/simple_01_A_a.gif","forced_long","","6","simple_dissimilar","images/stimuli/spore_stims/simple_01_A_a.gif","","","","",""
"","null","html-keyboard-response","79","309037","0.0-21.0-0.2","SS1619740104294","","","null","","","","","","<p><img src= images/blank.png width =""600"" height = ""600"" style=""position:fixed;top:50%; left:50%; transform: translate(-50%, -50%); border:5px solid black"">","","","","","","","",""
"","1422.8049999801442","sequential-stimulus-presentation-old","80","310964","0.0-21.0-1.2","SS1619740104294","trial","","40","500","1922.8049999801442","images/stimuli/spore_stims/simple_17_A_b.gif","images/stimuli/spore_stims/simple_01_A_a.gif","forced_long","","6","simple_dissimilar","images/stimuli/spore_stims/simple_01_A_a.gif","","","","",""
"","null","html-keyboard-response","81","311877","0.0-21.0-0.3","SS1619740104294","","","null","","","","","","<p><img src= images/blank.png width =""600"" height = ""600"" style=""position:fixed;top:50%; left:50%; transform: translate(-50%, -50%); border:5px solid black"">","","","","","","","",""
"","2523.6750000040047","sequential-stimulus-presentation-old","82","314905","0.0-21.0-1.3","SS1619740104294","trial","","40","500","3023.6750000040047","images/stimuli/spore_stims/simple_17_A_b.gif","images/stimuli/spore_stims/simple_01_A_a.gif","forced_long","","6","simple_dissimilar","images/stimuli/spore_stims/simple_17_A_b.gif","","","","",""
"","3323.8850000198","survey-multi-choice","83","318232","0.0-22.0","SS1619740104294","math_question","","","","","","","","","","","","{""Q0"":""12""}","[0]","12","",""
"","null","html-keyboard-response","84","319374","0.0-23.0-0.0","SS1619740104294","","","null","","","","","","<p><img src= images/blank.png width =""600"" height = ""600"" style=""position:fixed;top:50%; left:50%; transform: translate(-50%, -50%); border:5px solid black"">","","","","","","","",""
"","9370.955000049435","sequential-stimulus-presentation-old","85","343750","0.0-23.0-1.0","SS1619740104294","trial","","40","500","9870.955000049435","images/stimuli/spore_stims/complex_13_A_b.gif","images/stimuli/spore_stims/complex_11_A_a.gif","forced_long","","7","complex_dissimilar","images/stimuli/spore_stims/complex_11_A_a.gif","","","","",""
"","null","html-keyboard-response","86","345015","0.0-23.0-0.1","SS1619740104294","","","null","","","","","","<p><img src= images/blank.png width =""600"" height = ""600"" style=""position:fixed;top:50%; left:50%; transform: translate(-50%, -50%); border:5px solid black"">","","","","","","","",""
"","731.9450000068173","sequential-stimulus-presentation-old","87","346251","0.0-23.0-1.1","SS1619740104294","trial","","40","500","1231.9450000068173","images/stimuli/spore_stims/complex_13_A_b.gif","images/stimuli/spore_stims/complex_11_A_a.gif","forced_long","","7","complex_dissimilar","images/stimuli/spore_stims/complex_11_A_a.gif","","","","",""
"","null","html-keyboard-response","88","347390","0.0-23.0-0.2","SS1619740104294","","","null","","","","","","<p><img src= images/blank.png width =""600"" height = ""600"" style=""position:fixed;top:50%; left:50%; transform: translate(-50%, -50%); border:5px solid black"">","","","","","","","",""
"","2103.6699999822304","sequential-stimulus-presentation-old","89","349997","0.0-23.0-1.2","SS1619740104294","trial","","40","500","2603.6699999822304","images/stimuli/spore_stims/complex_13_A_b.gif","images/stimuli/spore_stims/complex_11_A_a.gif","forced_long","","7","complex_dissimilar","images/stimuli/spore_stims/complex_11_A_a.gif","","","","",""
"","null","html-keyboard-response","90","351057","0.0-23.0-0.3","SS1619740104294","","","null","","","","","","<p><img src= images/blank.png width =""600"" height = ""600"" style=""position:fixed;top:50%; left:50%; transform: translate(-50%, -50%); border:5px solid black"">","","","","","","","",""
"","1803.3200000063516","sequential-stimulus-presentation-old","91","353365","0.0-23.0-1.3","SS1619740104294","trial","","40","500","2303.3200000063516","images/stimuli/spore_stims/complex_13_A_b.gif","images/stimuli/spore_stims/complex_11_A_a.gif","forced_long","","7","complex_dissimilar","images/stimuli/spore_stims/complex_11_A_a.gif","","","","",""
"","null","html-keyboard-response","92","354292","0.0-23.0-0.4","SS1619740104294","","","null","","","","","","<p><img src= images/blank.png width =""600"" height = ""600"" style=""position:fixed;top:50%; left:50%; transform: translate(-50%, -50%); border:5px solid black"">","","","","","","","",""
"","896.4350000023842","sequential-stimulus-presentation-old","93","355693","0.0-23.0-1.4","SS1619740104294","trial","","40","500","1396.4350000023842","images/stimuli/spore_stims/complex_13_A_b.gif","images/stimuli/spore_stims/complex_11_A_a.gif","forced_long","","7","complex_dissimilar","images/stimuli/spore_stims/complex_11_A_a.gif","","","","",""
"","null","html-keyboard-response","94","356814","0.0-23.0-0.5","SS1619740104294","","","null","","","","","","<p><img src= images/blank.png width =""600"" height = ""600"" style=""position:fixed;top:50%; left:50%; transform: translate(-50%, -50%); border:5px solid black"">","","","","","","","",""
"","682.1449999697506","sequential-stimulus-presentation-old","95","358001","0.0-23.0-1.5","SS1619740104294","trial","","40","500","1182.1449999697506","images/stimuli/spore_stims/complex_13_A_b.gif","images/stimuli/spore_stims/complex_11_A_a.gif","forced_long","","7","complex_dissimilar","images/stimuli/spore_stims/complex_11_A_a.gif","","","","",""
"","3756.4300000085495","survey-multi-choice","96","361760","0.0-24.0","SS1619740104294","math_question","","","","","","","","","","","","{""Q0"":""5""}","[0]","5","",""
"","null","html-keyboard-response","97","362662","0.0-25.0-0.0","SS1619740104294","","","null","","","","","","<p><img src= images/blank.png width =""600"" height = ""600"" style=""position:fixed;top:50%; left:50%; transform: translate(-50%, -50%); border:5px solid black"">","","","","","","","",""
"","3710.9049999853596","sequential-stimulus-presentation-old","98","381377","0.0-25.0-1.0","SS1619740104294","trial","","40","500","4210.90499998536","images/stimuli/spore_stims/complex_10_A_a.gif","images/stimuli/spore_stims/complex_05_A_b.gif","forced_long","","8","complex_dissimilar","images/stimuli/spore_stims/complex_05_A_b.gif","","","","",""
"","null","html-keyboard-response","99","382495","0.0-25.0-0.1","SS1619740104294","","","null","","","","","","<p><img src= images/blank.png width =""600"" height = ""600"" style=""position:fixed;top:50%; left:50%; transform: translate(-50%, -50%); border:5px solid black"">","","","","","","","",""
"","2993.160000012722","sequential-stimulus-presentation-old","100","385993","0.0-25.0-1.1","SS1619740104294","trial","","40","500","3493.160000012722","images/stimuli/spore_stims/complex_10_A_a.gif","images/stimuli/spore_stims/complex_05_A_b.gif","forced_long","","8","complex_dissimilar","images/stimuli/spore_stims/complex_10_A_a.gif","","","","",""
"","null","html-keyboard-response","101","387072","0.0-25.0-0.2","SS1619740104294","","","null","","","","","","<p><img src= images/blank.png width =""600"" height = ""600"" style=""position:fixed;top:50%; left:50%; transform: translate(-50%, -50%); border:5px solid black"">","","","","","","","",""
"","4500.99999998929","sequential-stimulus-presentation-old","102","392078","0.0-25.0-1.2","SS1619740104294","trial","","40","500","5000.99999998929","images/stimuli/spore_stims/complex_10_A_a.gif","images/stimuli/spore_stims/complex_05_A_b.gif","forced_long","","8","complex_dissimilar","images/stimuli/spore_stims/complex_05_A_b.gif","","","","",""
"","null","html-keyboard-response","103","392885","0.0-25.0-0.3","SS1619740104294","","","null","","","","","","<p><img src= images/blank.png width =""600"" height = ""600"" style=""position:fixed;top:50%; left:50%; transform: translate(-50%, -50%); border:5px solid black"">","","","","","","","",""
"","2871.050000016112","sequential-stimulus-presentation-old","104","396261","0.0-25.0-1.3","SS1619740104294","trial","","40","500","3371.050000016112","images/stimuli/spore_stims/complex_10_A_a.gif","images/stimuli/spore_stims/complex_05_A_b.gif","forced_long","","8","complex_dissimilar","images/stimuli/spore_stims/complex_05_A_b.gif","","","","",""
"","4619.609999994282","survey-multi-choice","105","400885","0.0-26.0","SS1619740104294","math_question","","","","","","","","","","","","{""Q0"":""13""}","[0]","13","",""
"","null","html-keyboard-response","106","402013","0.0-27.0-0.0","SS1619740104294","","","null","","","","","","<p><img src= images/blank.png width =""600"" height = ""600"" style=""position:fixed;top:50%; left:50%; transform: translate(-50%, -50%); border:5px solid black"">","","","","","","","",""
"","3904.2999999946915","sequential-stimulus-presentation-old","107","406422","0.0-27.0-1.0","SS1619740104294","trial","","40","500","4404.2999999946915","images/stimuli/spore_stims/complex_08_A_b.gif","images/stimuli/spore_stims/complex_13_A_a.gif","self_paced","","9","complex_dissimilar","images/stimuli/spore_stims/complex_13_A_a.gif","","","","",""
"","null","html-keyboard-response","108","407431","0.0-27.0-0.1","SS1619740104294","","","null","","","","","","<p><img src= images/blank.png width =""600"" height = ""600"" style=""position:fixed;top:50%; left:50%; transform: translate(-50%, -50%); border:5px solid black"">","","","","","","","",""
"","772.7449999656528","sequential-stimulus-presentation-old","109","408709","0.0-27.0-1.1","SS1619740104294","trial","","40","500","1272.7449999656528","images/stimuli/spore_stims/complex_08_A_b.gif","images/stimuli/spore_stims/complex_13_A_a.gif","self_paced","","9","complex_dissimilar","images/stimuli/spore_stims/complex_08_A_b.gif","","","","",""
"","null","html-keyboard-response","110","409891","0.0-27.0-0.2","SS1619740104294","","","null","","","","","","<p><img src= images/blank.png width =""600"" height = ""600"" style=""position:fixed;top:50%; left:50%; transform: translate(-50%, -50%); border:5px solid black"">","","","","","","","",""
"","476.42500000074506","sequential-stimulus-presentation-old","111","410873","0.0-27.0-1.2","SS1619740104294","trial","","40","500","976.4250000007451","images/stimuli/spore_stims/complex_08_A_b.gif","images/stimuli/spore_stims/complex_13_A_a.gif","self_paced","","9","complex_dissimilar","images/stimuli/spore_stims/complex_08_A_b.gif","","","","",""
"","null","html-keyboard-response","112","411737","0.0-27.0-0.3","SS1619740104294","","","null","","","","","","<p><img src= images/blank.png width =""600"" height = ""600"" style=""position:fixed;top:50%; left:50%; transform: translate(-50%, -50%); border:5px solid black"">","","","","","","","",""
"","2904.399999999441","sequential-stimulus-presentation-old","113","415146","0.0-27.0-1.3","SS1619740104294","trial","","40","500","3404.399999999441","images/stimuli/spore_stims/complex_08_A_b.gif","images/stimuli/spore_stims/complex_13_A_a.gif","self_paced","","9","complex_dissimilar","images/stimuli/spore_stims/complex_13_A_a.gif","","","","",""
"","null","html-keyboard-response","114","416401","0.0-27.0-0.4","SS1619740104294","","","null","","","","","","<p><img src= images/blank.png width =""600"" height = ""600"" style=""position:fixed;top:50%; left:50%; transform: translate(-50%, -50%); border:5px solid black"">","","","","","","","",""
"","1041.5400000056252","sequential-stimulus-presentation-old","115","417948","0.0-27.0-1.4","SS1619740104294","trial","","40","500","1541.5400000056252","images/stimuli/spore_stims/complex_08_A_b.gif","images/stimuli/spore_stims/complex_13_A_a.gif","self_paced","","9","complex_dissimilar","images/stimuli/spore_stims/complex_13_A_a.gif","","","","",""
"","null","html-keyboard-response","116","418886","0.0-27.0-0.5","SS1619740104294","","","null","","","","","","<p><img src= images/blank.png width =""600"" height = ""600"" style=""position:fixed;top:50%; left:50%; transform: translate(-50%, -50%); border:5px solid black"">","","","","","","","",""
"","1194.3500000052154","sequential-stimulus-presentation-old","117","420585","0.0-27.0-1.5","SS1619740104294","trial","","40","500","1694.3500000052154","images/stimuli/spore_stims/complex_08_A_b.gif","images/stimuli/spore_stims/complex_13_A_a.gif","self_paced","","9","complex_dissimilar","images/stimuli/spore_stims/complex_13_A_a.gif","","","","",""
"","2890.8400000073016","survey-multi-choice","118","423481","0.0-28.0","SS1619740104294","math_question","","","","","","","","","","","","{""Q0"":""9""}","[0]","9","",""
"","null","html-keyboard-response","119","424713","0.0-29.0-0.0","SS1619740104294","","","null","","","","","","<p><img src= images/blank.png width =""600"" height = ""600"" style=""position:fixed;top:50%; left:50%; transform: translate(-50%, -50%); border:5px solid black"">","","","","","","","",""
"","3679.4499999959953","sequential-stimulus-presentation-old","120","428897","0.0-29.0-1.0","SS1619740104294","trial","","40","500","4179.449999995995","images/stimuli/spore_stims/simple_07_A_b.gif","images/stimuli/spore_stims/simple_11_A_a.gif","self_paced","","10","simple_dissimilar","images/stimuli/spore_stims/simple_11_A_a.gif","","","","",""
"","null","html-keyboard-response","121","430117","0.0-29.0-0.1","SS1619740104294","","","null","","","","","","<p><img src= images/blank.png width =""600"" height = ""600"" style=""position:fixed;top:50%; left:50%; transform: translate(-50%, -50%); border:5px solid black"">","","","","","","","",""
"","3560.4249999742024","sequential-stimulus-presentation-old","122","434183","0.0-29.0-1.1","SS1619740104294","trial","","40","500","4060.4249999742024","images/stimuli/spore_stims/simple_07_A_b.gif","images/stimuli/spore_stims/simple_11_A_a.gif","self_paced","","10","simple_dissimilar","images/stimuli/spore_stims/simple_07_A_b.gif","","","","",""
"","null","html-keyboard-response","123","435394","0.0-29.0-0.2","SS1619740104294","","","null","","","","","","<p><img src= images/blank.png width =""600"" height = ""600"" style=""position:fixed;top:50%; left:50%; transform: translate(-50%, -50%); border:5px solid black"">","","","","","","","",""
"","2300.6600000080653","sequential-stimulus-presentation-old","124","438200","0.0-29.0-1.2","SS1619740104294","trial","","40","500","2800.6600000080653","images/stimuli/spore_stims/simple_07_A_b.gif","images/stimuli/spore_stims/simple_11_A_a.gif","self_paced","","10","simple_dissimilar","images/stimuli/spore_stims/simple_11_A_a.gif","","","","",""
"","null","html-keyboard-response","125","439129","0.0-29.0-0.3","SS1619740104294","","","null","","","","","","<p><img src= images/blank.png width =""600"" height = ""600"" style=""position:fixed;top:50%; left:50%; transform: translate(-50%, -50%); border:5px solid black"">","","","","","","","",""
"","669.7999999742024","sequential-stimulus-presentation-old","126","440305","0.0-29.0-1.3","SS1619740104294","trial","","40","500","1169.7999999742024","images/stimuli/spore_stims/simple_07_A_b.gif","images/stimuli/spore_stims/simple_11_A_a.gif","self_paced","","10","simple_dissimilar","images/stimuli/spore_stims/simple_11_A_a.gif","","","","",""
"","null","html-keyboard-response","127","441464","0.0-29.0-0.4","SS1619740104294","","","null","","","","","","<p><img src= images/blank.png width =""600"" height = ""600"" style=""position:fixed;top:50%; left:50%; transform: translate(-50%, -50%); border:5px solid black"">","","","","","","","",""
"","58.985000010579824","sequential-stimulus-presentation-old","128","442028","0.0-29.0-1.4","SS1619740104294","trial","","40","500","558.9850000105798","images/stimuli/spore_stims/simple_07_A_b.gif","images/stimuli/spore_stims/simple_11_A_a.gif","self_paced","","10","simple_dissimilar","images/stimuli/spore_stims/simple_11_A_a.gif","","","","",""
"","null","html-keyboard-response","129","442837","0.0-29.0-0.5","SS1619740104294","","","null","","","","","","<p><img src= images/blank.png width =""600"" height = ""600"" style=""position:fixed;top:50%; left:50%; transform: translate(-50%, -50%); border:5px solid black"">","","","","","","","",""
"","236.89999995986","sequential-stimulus-presentation-old","130","443579","0.0-29.0-1.5","SS1619740104294","trial","","40","500","736.89999995986","images/stimuli/spore_stims/simple_07_A_b.gif","images/stimuli/spore_stims/simple_11_A_a.gif","self_paced","","10","simple_dissimilar","images/stimuli/spore_stims/simple_11_A_a.gif","","","","",""
"","2987.6550000044517","survey-multi-choice","131","446571","0.0-30.0","SS1619740104294","math_question","","","","","","","","","","","","{""Q0"":""4""}","[0]","4","",""
"","null","html-keyboard-response","132","447853","0.0-31.0-0.0","SS1619740104294","","","null","","","","","","<p><img src= images/blank.png width =""600"" height = ""600"" style=""position:fixed;top:50%; left:50%; transform: translate(-50%, -50%); border:5px solid black"">","","","","","","","",""
"","1244.204999995418","sequential-stimulus-presentation-old","133","449603","0.0-31.0-1.0","SS1619740104294","trial","","40","500","1744.204999995418","images/stimuli/spore_stims/simple_15_A_a.gif","images/stimuli/spore_stims/simple_19_A_b.gif","forced_short","","11","simple_dissimilar","images/stimuli/spore_stims/simple_19_A_b.gif","","","","",""
"","null","html-keyboard-response","134","450538","0.0-31.0-0.1","SS1619740104294","","","null","","","","","","<p><img src= images/blank.png width =""600"" height = ""600"" style=""position:fixed;top:50%; left:50%; transform: translate(-50%, -50%); border:5px solid black"">","","","","","","","",""
"","1298.8400000031106","sequential-stimulus-presentation-old","135","452342","0.0-31.0-1.1","SS1619740104294","trial","","40","500","1798.8400000031106","images/stimuli/spore_stims/simple_15_A_a.gif","images/stimuli/spore_stims/simple_19_A_b.gif","forced_short","","11","simple_dissimilar","images/stimuli/spore_stims/simple_19_A_b.gif","","","","",""
"","null","html-keyboard-response","136","453196","0.0-31.0-0.2","SS1619740104294","","","null","","","","","","<p><img src= images/blank.png width =""600"" height = ""600"" style=""position:fixed;top:50%; left:50%; transform: translate(-50%, -50%); border:5px solid black"">","","","","","","","",""
"","2588.740000035614","sequential-stimulus-presentation-old","137","456291","0.0-31.0-1.2","SS1619740104294","trial","","40","500","3088.740000035614","images/stimuli/spore_stims/simple_15_A_a.gif","images/stimuli/spore_stims/simple_19_A_b.gif","forced_short","","11","simple_dissimilar","images/stimuli/spore_stims/simple_19_A_b.gif","","","","",""
"","null","html-keyboard-response","138","457539","0.0-31.0-0.3","SS1619740104294","","","null","","","","","","<p><img src= images/blank.png width =""600"" height = ""600"" style=""position:fixed;top:50%; left:50%; transform: translate(-50%, -50%); border:5px solid black"">","","","","","","","",""
"","818.7699999543838","sequential-stimulus-presentation-old","139","458864","0.0-31.0-1.3","SS1619740104294","trial","","40","500","1318.7699999543838","images/stimuli/spore_stims/simple_15_A_a.gif","images/stimuli/spore_stims/simple_19_A_b.gif","forced_short","","11","simple_dissimilar","images/stimuli/spore_stims/simple_19_A_b.gif","","","","",""
"","null","html-keyboard-response","140","459882","0.0-31.0-0.4","SS1619740104294","","","null","","","","","","<p><img src= images/blank.png width =""600"" height = ""600"" style=""position:fixed;top:50%; left:50%; transform: translate(-50%, -50%); border:5px solid black"">","","","","","","","",""
"","1002.5349999777973","sequential-stimulus-presentation-old","141","461391","0.0-31.0-1.4","SS1619740104294","trial","","40","500","1502.5349999777973","images/stimuli/spore_stims/simple_15_A_a.gif","images/stimuli/spore_stims/simple_19_A_b.gif","forced_short","","11","simple_dissimilar","images/stimuli/spore_stims/simple_19_A_b.gif","","","","",""
"","null","html-keyboard-response","142","462589","0.0-31.0-0.5","SS1619740104294","","","null","","","","","","<p><img src= images/blank.png width =""600"" height = ""600"" style=""position:fixed;top:50%; left:50%; transform: translate(-50%, -50%); border:5px solid black"">","","","","","","","",""
"","1313.079999992624","sequential-stimulus-presentation-old","143","464407","0.0-31.0-1.5","SS1619740104294","trial","","40","500","1813.079999992624","images/stimuli/spore_stims/simple_15_A_a.gif","images/stimuli/spore_stims/simple_19_A_b.gif","forced_short","","11","simple_dissimilar","images/stimuli/spore_stims/simple_15_A_a.gif","","","","",""
"[{""page_index"":0,""viewing_time"":6374.3150000227615}]","6374.4949999963865","instructions","144","470787","0.0-32.0","SS1619740104294","instructions","","","","","","","","","","","","","","","",""
"","5898.675000004005","survey-likert","145","476691","0.0-33.0","SS1619740104294","similarity_question","","","","","","","","","","","","{""Q0"":4}","[0]","","images/stimuli/spore_stims/simple_02_A_a.gif","images/stimuli/spore_stims/simple_03_A_b.gif"
"","4528.144999989308","survey-likert","146","481225","0.0-34.0","SS1619740104294","similarity_question","","","","","","","","","","","","{""Q0"":5}","[0]","","images/stimuli/spore_stims/simple_18_A_b.gif","images/stimuli/spore_stims/simple_07_A_a.gif"
"","3775.260000023991","survey-likert","147","485005","0.0-35.0","SS1619740104294","similarity_question","","","","","","","","","","","","{""Q0"":4}","[0]","","images/stimuli/spore_stims/simple_01_A_a.gif","images/stimuli/spore_stims/simple_17_A_b.gif"
"","3834.199999982957","survey-likert","148","488845","0.0-36.0","SS1619740104294","similarity_question","","","","","","","","","","","","{""Q0"":3}","[0]","","images/stimuli/spore_stims/simple_05_A_a.gif","images/stimuli/spore_stims/simple_15_A_b.gif"
"","7551.429999992251","survey-likert","149","496402","0.0-37.0","SS1619740104294","similarity_question","","","","","","","","","","","","{""Q0"":4}","[0]","","images/stimuli/spore_stims/complex_08_A_b.gif","images/stimuli/spore_stims/complex_13_A_a.gif"
"","5034.04999995837","survey-likert","150","501441","0.0-38.0","SS1619740104294","similarity_question","","","","","","","","","","","","{""Q0"":1}","[0]","","images/stimuli/spore_stims/complex_10_A_a.gif","images/stimuli/spore_stims/complex_05_A_b.gif"
"","4641.204999992624","survey-likert","151","506088","0.0-39.0","SS1619740104294","similarity_question","","","","","","","","","","","","{""Q0"":4}","[0]","","images/stimuli/spore_stims/simple_19_A_b.gif","images/stimuli/spore_stims/simple_15_A_a.gif"
"","3903.98499998264","survey-likert","152","509997","0.0-40.0","SS1619740104294","similarity_question","","","","","","","","","","","","{""Q0"":0}","[0]","","images/stimuli/spore_stims/complex_09_A_b.gif","images/stimuli/spore_stims/complex_12_A_a.gif"
"","3191.4700000197627","survey-likert","153","513195","0.0-41.0","SS1619740104294","similarity_question","","","","","","","","","","","","{""Q0"":1}","[0]","","images/stimuli/spore_stims/simple_07_A_b.gif","images/stimuli/spore_stims/simple_11_A_a.gif"
"","3882.999999972526","survey-likert","154","517084","0.0-42.0","SS1619740104294","similarity_question","","","","","","","","","","","","{""Q0"":1}","[0]","","images/stimuli/spore_stims/complex_20_A_b.gif","images/stimuli/spore_stims/complex_02_A_a.gif"
"","4842.669999983627","survey-likert","155","521933","0.0-43.0","SS1619740104294","similarity_question","","","","","","","","","","","","{""Q0"":3}","[0]","","images/stimuli/spore_stims/complex_08_A_a.gif","images/stimuli/spore_stims/complex_15_A_b.gif"
"","3759.5149999833666","survey-likert","156","525698","0.0-44.0","SS1619740104294","similarity_question","","","","","","","","","","","","{""Q0"":1}","[0]","","images/stimuli/spore_stims/complex_13_A_b.gif","images/stimuli/spore_stims/complex_11_A_a.gif"
"[{""page_index"":0,""viewing_time"":5238.004999991972}]","5238.184999965597","instructions","157","530942","0.0-45.0","SS1619740104294","instructions","","","","","","","","","","","","","","","",""
"","9145.599999988917","survey-likert","158","540093","0.0-46.0","SS1619740104294","","","","","","","","","images/stimuli/spore_stims/simple_18_A_b.gif","","","","{""Q0"":1}","[0]","","",""
"","2790.884999965783","survey-likert","159","542889","0.0-47.0","SS1619740104294","","","","","","","","","images/stimuli/spore_stims/complex_11_A_a.gif","","","","{""Q0"":5}","[0]","","",""
"","1992.6550000091083","survey-likert","160","544887","0.0-48.0","SS1619740104294","","","","","","","","","images/stimuli/spore_stims/complex_02_A_a.gif","","","","{""Q0"":5}","[0]","","",""
"","3386.655000038445","survey-likert","161","548280","0.0-49.0","SS1619740104294","","","","","","","","","images/stimuli/spore_stims/simple_07_A_b.gif","","","","{""Q0"":0}","[0]","","",""
"","2809.320000000298","survey-likert","162","551095","0.0-50.0","SS1619740104294","","","","","","","","","images/stimuli/spore_stims/complex_13_A_a.gif","","","","{""Q0"":5}","[0]","","",""
"","2937.6550000160933","survey-likert","163","554039","0.0-51.0","SS1619740104294","","","","","","","","","images/stimuli/spore_stims/simple_15_A_a.gif","","","","{""Q0"":0}","[0]","","",""
"","3450.650000013411","survey-likert","164","557495","0.0-52.0","SS1619740104294","","","","","","","","","images/stimuli/spore_stims/complex_15_A_b.gif","","","","{""Q0"":5}","[0]","","",""
"","2980.6400000234134","survey-likert","165","560481","0.0-53.0","SS1619740104294","","","","","","","","","images/stimuli/spore_stims/complex_12_A_a.gif","","","","{""Q0"":6}","[0]","","",""
"","2194.344999967143","survey-likert","166","562682","0.0-54.0","SS1619740104294","","","","","","","","","images/stimuli/spore_stims/simple_02_A_a.gif","","","","{""Q0"":1}","[0]","","",""
"","2488.855000003241","survey-likert","167","565177","0.0-55.0","SS1619740104294","","","","","","","","","images/stimuli/spore_stims/simple_01_A_a.gif","","","","{""Q0"":1}","[0]","","",""
"","2155.320000019856","survey-likert","168","567338","0.0-56.0","SS1619740104294","","","","","","","","","images/stimuli/spore_stims/complex_05_A_b.gif","","","","{""Q0"":5}","[0]","","",""
"","2099.3649999727495","survey-likert","169","569444","0.0-57.0","SS1619740104294","","","","","","","","","images/stimuli/spore_stims/simple_15_A_b.gif","","","","{""Q0"":1}","[0]","","",""
"[{""page_index"":0,""viewing_time"":3749.3050000048243}]","3749.4949999963865","instructions","170","573199","0.0-58.0","SS1619740104294","instructions","","","","","","","","","","","","","","","",""
"","3106.964999984484","demog-age","171","576313","0.0-59.0","SS1619740104294","","","","","","","","","","","","","{""age"":""25""}","","","",""
"","9135.084999958053","demog-ethnic-US","172","585455","0.0-60.0","SS1619740104294","","","","","","","","","","","","","{""ethnicity"":[""Other""]}","[0]","","",""
"","4758.1999999820255","demog-gender-and-education","173","590220","0.0-61.0","SS1619740104294","","","","","","","","","","","","","{""gender"":""Male"",""education"":""Associate Degree/Technical certification""}","[0,1]","","",""
"","28226.135000004433","survey-text","174","618453","0.0-62.0","SS1619740104294","feedback","","","","","","","","","","","","{""Q0"":""the pictures where the animations was furthest away was the best ones in quality.""}","","","",""
"[{""page_index"":0,""viewing_time"":1787.9400000092573}]","1788.0950000253506","instructions","175","620247","0.0-63.0","SS1619740104294","instructions","","","","","","","","","","","","","","","",""
