"view_history","rt","trial_type","trial_index","time_elapsed","internal_node_id","subject","stimulus_type","trial_stimulus","key_press","minimum_viewing_duration","trial_looking_time","block_deviant","block_background","exposure_type","stimulus","block_number","block_type","stimulus_displayed","responses","question_order","math_correct_answer","stimulus_left","stimulus_right"
"[{""page_index"":0,""viewing_time"":3621.1550000007264}]","3622.0500000054017","instructions","0","3624","0.0-0.0","SS1619739452993","","","","","","","","","","","","","","","","",""
"[{""page_index"":0,""viewing_time"":13090.720000007423},{""page_index"":1,""viewing_time"":13215.874999994412}]","26306.884999998147","instructions","1","31944","0.0-1.0","SS1619739452993","instructions","","","","","","","","","","","","","","","",""
"","5815.594999992754","sequential-stimulus-presentation-old","2","38266","0.0-2.0","SS1619739452993","","","40","500","6315.594999992754","null","null","self_paced","","","","","","","","",""
"","6947.709999978542","sequential-stimulus-presentation-old","3","45724","0.0-3.0","SS1619739452993","","","40","500","7447.709999978542","null","null","self_paced","","","","","","","","",""
"[{""page_index"":0,""viewing_time"":13944.890000013402}]","13945.165000011912","instructions","4","59672","0.0-4.0","SS1619739452993","instructions","","","","","","","","","","","","","","","",""
"","523.6649999860674","sequential-stimulus-presentation-old","5","75203","0.0-5.0","SS1619739452993","","","40","500","1023.6649999860674","null","null","forced_long","","","","","","","","",""
"","4090.940000023693","sequential-stimulus-presentation-old","6","79799","0.0-6.0","SS1619739452993","","","40","500","4590.940000023693","null","null","forced_long","","","","","","","","",""
"[{""page_index"":0,""viewing_time"":4134.74499998847}]","4135.069999989355","instructions","7","83936","0.0-7.0","SS1619739452993","instructions","","","","","","","","","","","","","","","",""
"[{""page_index"":0,""viewing_time"":9207.400000013877},{""page_index"":1,""viewing_time"":7200.949999998556},{""page_index"":2,""viewing_time"":3905.139999988023},{""page_index"":3,""viewing_time"":1479.5350000204053},{""page_index"":4,""viewing_time"":1365.1399999798741}]","23158.51500001736","instructions","8","107096","0.0-8.0","SS1619739452993","instructions","","","","","","","","","","","","","","","",""
"","null","html-keyboard-response","9","108254","0.0-9.0-0.0","SS1619739452993","","","null","","","","","","<p><img src= images/blank.png width =""600"" height = ""600"" style=""position:fixed;top:50%; left:50%; transform: translate(-50%, -50%); border:5px solid black"">","","","","","","","",""
"","1613.0249999987427","sequential-stimulus-presentation-old","10","110392","0.0-9.0-1.0","SS1619739452993","trial","","40","500","2113.0249999987427","images/stimuli/spore_stims/complex_11_A_a.gif","images/stimuli/spore_stims/complex_20_A_b.gif","forced_short","","0","complex_dissimilar","images/stimuli/spore_stims/complex_20_A_b.gif","","","","",""
"","null","html-keyboard-response","11","111218","0.0-9.0-0.1","SS1619739452993","","","null","","","","","","<p><img src= images/blank.png width =""600"" height = ""600"" style=""position:fixed;top:50%; left:50%; transform: translate(-50%, -50%); border:5px solid black"">","","","","","","","",""
"","37582.69000001019","sequential-stimulus-presentation-old","12","149308","0.0-9.0-1.1","SS1619739452993","trial","","40","500","38082.69000001019","images/stimuli/spore_stims/complex_11_A_a.gif","images/stimuli/spore_stims/complex_20_A_b.gif","forced_short","","0","complex_dissimilar","images/stimuli/spore_stims/complex_11_A_a.gif","","","","",""
"","null","html-keyboard-response","13","150359","0.0-9.0-0.2","SS1619739452993","","","null","","","","","","<p><img src= images/blank.png width =""600"" height = ""600"" style=""position:fixed;top:50%; left:50%; transform: translate(-50%, -50%); border:5px solid black"">","","","","","","","",""
"","162.7800000132993","sequential-stimulus-presentation-old","14","151030","0.0-9.0-1.2","SS1619739452993","trial","","40","500","662.7800000132993","images/stimuli/spore_stims/complex_11_A_a.gif","images/stimuli/spore_stims/complex_20_A_b.gif","forced_short","","0","complex_dissimilar","images/stimuli/spore_stims/complex_11_A_a.gif","","","","",""
"","null","html-keyboard-response","15","152210","0.0-9.0-0.3","SS1619739452993","","","null","","","","","","<p><img src= images/blank.png width =""600"" height = ""600"" style=""position:fixed;top:50%; left:50%; transform: translate(-50%, -50%); border:5px solid black"">","","","","","","","",""
"","100.37000000011176","sequential-stimulus-presentation-old","16","152818","0.0-9.0-1.3","SS1619739452993","trial","","40","500","600.3700000001118","images/stimuli/spore_stims/complex_11_A_a.gif","images/stimuli/spore_stims/complex_20_A_b.gif","forced_short","","0","complex_dissimilar","images/stimuli/spore_stims/complex_20_A_b.gif","","","","",""
"","4404.920000000857","survey-multi-choice","17","157229","0.0-10.0","SS1619739452993","math_question","","","","","","","","","","","","{""Q0"":""9""}","[0]","9","",""
"","null","html-keyboard-response","18","158535","0.0-11.0-0.0","SS1619739452993","","","null","","","","","","<p><img src= images/blank.png width =""600"" height = ""600"" style=""position:fixed;top:50%; left:50%; transform: translate(-50%, -50%); border:5px solid black"">","","","","","","","",""
"","670.2299999888055","sequential-stimulus-presentation-old","19","159720","0.0-11.0-1.0","SS1619739452993","trial","","40","500","1170.2299999888055","images/stimuli/spore_stims/simple_06_A_a.gif","images/stimuli/spore_stims/simple_04_A_b.gif","forced_short","","1","simple_dissimilar","images/stimuli/spore_stims/simple_04_A_b.gif","","","","",""
"","null","html-keyboard-response","20","160749","0.0-11.0-0.1","SS1619739452993","","","null","","","","","","<p><img src= images/blank.png width =""600"" height = ""600"" style=""position:fixed;top:50%; left:50%; transform: translate(-50%, -50%); border:5px solid black"">","","","","","","","",""
"","2980.2400000044145","sequential-stimulus-presentation-old","21","164238","0.0-11.0-1.1","SS1619739452993","trial","","40","500","3480.2400000044145","images/stimuli/spore_stims/simple_06_A_a.gif","images/stimuli/spore_stims/simple_04_A_b.gif","forced_short","","1","simple_dissimilar","images/stimuli/spore_stims/simple_06_A_a.gif","","","","",""
"","null","html-keyboard-response","22","165429","0.0-11.0-0.2","SS1619739452993","","","null","","","","","","<p><img src= images/blank.png width =""600"" height = ""600"" style=""position:fixed;top:50%; left:50%; transform: translate(-50%, -50%); border:5px solid black"">","","","","","","","",""
"","293.07000001426786","sequential-stimulus-presentation-old","23","166231","0.0-11.0-1.2","SS1619739452993","trial","","40","500","793.0700000142679","images/stimuli/spore_stims/simple_06_A_a.gif","images/stimuli/spore_stims/simple_04_A_b.gif","forced_short","","1","simple_dissimilar","images/stimuli/spore_stims/simple_04_A_b.gif","","","","",""
"","null","html-keyboard-response","24","167359","0.0-11.0-0.3","SS1619739452993","","","null","","","","","","<p><img src= images/blank.png width =""600"" height = ""600"" style=""position:fixed;top:50%; left:50%; transform: translate(-50%, -50%); border:5px solid black"">","","","","","","","",""
"","4922.344999999041","sequential-stimulus-presentation-old","25","172789","0.0-11.0-1.3","SS1619739452993","trial","","40","500","5422.344999999041","images/stimuli/spore_stims/simple_06_A_a.gif","images/stimuli/spore_stims/simple_04_A_b.gif","forced_short","","1","simple_dissimilar","images/stimuli/spore_stims/simple_04_A_b.gif","","","","",""
"","3177.945000003092","survey-multi-choice","26","175971","0.0-12.0","SS1619739452993","math_question","","","","","","","","","","","","{""Q0"":""4""}","[0]","4","",""
"","null","html-keyboard-response","27","177210","0.0-13.0-0.0","SS1619739452993","","","null","","","","","","<p><img src= images/blank.png width =""600"" height = ""600"" style=""position:fixed;top:50%; left:50%; transform: translate(-50%, -50%); border:5px solid black"">","","","","","","","",""
"","526.5899999940302","sequential-stimulus-presentation-old","28","192745","0.0-13.0-1.0","SS1619739452993","trial","","40","500","1026.5899999940302","images/stimuli/spore_stims/complex_03_A_a.gif","images/stimuli/spore_stims/complex_01_A_b.gif","forced_long","","2","complex_dissimilar","images/stimuli/spore_stims/complex_01_A_b.gif","","","","",""
"","null","html-keyboard-response","29","193689","0.0-13.0-0.1","SS1619739452993","","","null","","","","","","<p><img src= images/blank.png width =""600"" height = ""600"" style=""position:fixed;top:50%; left:50%; transform: translate(-50%, -50%); border:5px solid black"">","","","","","","","",""
"","89.00499998708256","sequential-stimulus-presentation-old","30","194288","0.0-13.0-1.1","SS1619739452993","trial","","40","500","589.0049999870826","images/stimuli/spore_stims/complex_03_A_a.gif","images/stimuli/spore_stims/complex_01_A_b.gif","forced_long","","2","complex_dissimilar","images/stimuli/spore_stims/complex_01_A_b.gif","","","","",""
"","null","html-keyboard-response","31","195530","0.0-13.0-0.2","SS1619739452993","","","null","","","","","","<p><img src= images/blank.png width =""600"" height = ""600"" style=""position:fixed;top:50%; left:50%; transform: translate(-50%, -50%); border:5px solid black"">","","","","","","","",""
"","11238.314999995055","sequential-stimulus-presentation-old","32","207276","0.0-13.0-1.2","SS1619739452993","trial","","40","500","11738.314999995055","images/stimuli/spore_stims/complex_03_A_a.gif","images/stimuli/spore_stims/complex_01_A_b.gif","forced_long","","2","complex_dissimilar","images/stimuli/spore_stims/complex_01_A_b.gif","","","","",""
"","null","html-keyboard-response","33","208349","0.0-13.0-0.3","SS1619739452993","","","null","","","","","","<p><img src= images/blank.png width =""600"" height = ""600"" style=""position:fixed;top:50%; left:50%; transform: translate(-50%, -50%); border:5px solid black"">","","","","","","","",""
"","48.884999996516854","sequential-stimulus-presentation-old","34","208906","0.0-13.0-1.3","SS1619739452993","trial","","40","500","548.8849999965169","images/stimuli/spore_stims/complex_03_A_a.gif","images/stimuli/spore_stims/complex_01_A_b.gif","forced_long","","2","complex_dissimilar","images/stimuli/spore_stims/complex_01_A_b.gif","","","","",""
"","null","html-keyboard-response","35","210003","0.0-13.0-0.4","SS1619739452993","","","null","","","","","","<p><img src= images/blank.png width =""600"" height = ""600"" style=""position:fixed;top:50%; left:50%; transform: translate(-50%, -50%); border:5px solid black"">","","","","","","","",""
"","1010.0800000072923","sequential-stimulus-presentation-old","36","211519","0.0-13.0-1.4","SS1619739452993","trial","","40","500","1510.0800000072923","images/stimuli/spore_stims/complex_03_A_a.gif","images/stimuli/spore_stims/complex_01_A_b.gif","forced_long","","2","complex_dissimilar","images/stimuli/spore_stims/complex_01_A_b.gif","","","","",""
"","null","html-keyboard-response","37","212379","0.0-13.0-0.5","SS1619739452993","","","null","","","","","","<p><img src= images/blank.png width =""600"" height = ""600"" style=""position:fixed;top:50%; left:50%; transform: translate(-50%, -50%); border:5px solid black"">","","","","","","","",""
"","122.31999999494292","sequential-stimulus-presentation-old","38","213021","0.0-13.0-1.5","SS1619739452993","trial","","40","500","622.3199999949429","images/stimuli/spore_stims/complex_03_A_a.gif","images/stimuli/spore_stims/complex_01_A_b.gif","forced_long","","2","complex_dissimilar","images/stimuli/spore_stims/complex_01_A_b.gif","","","","",""
"","3415.9299999882933","survey-multi-choice","39","216441","0.0-14.0","SS1619739452993","math_question","","","","","","","","","","","","{""Q0"":""10""}","[0]","10","",""
"","null","html-keyboard-response","40","217354","0.0-15.0-0.0","SS1619739452993","","","null","","","","","","<p><img src= images/blank.png width =""600"" height = ""600"" style=""position:fixed;top:50%; left:50%; transform: translate(-50%, -50%); border:5px solid black"">","","","","","","","",""
"","6864.754999987781","sequential-stimulus-presentation-old","41","224727","0.0-15.0-1.0","SS1619739452993","trial","","40","500","7364.754999987781","images/stimuli/spore_stims/complex_14_A_b.gif","images/stimuli/spore_stims/complex_08_A_a.gif","self_paced","","3","complex_dissimilar","images/stimuli/spore_stims/complex_08_A_a.gif","","","","",""
"","null","html-keyboard-response","42","225549","0.0-15.0-0.1","SS1619739452993","","","null","","","","","","<p><img src= images/blank.png width =""600"" height = ""600"" style=""position:fixed;top:50%; left:50%; transform: translate(-50%, -50%); border:5px solid black"">","","","","","","","",""
"","16570.20499999635","sequential-stimulus-presentation-old","43","242629","0.0-15.0-1.1","SS1619739452993","trial","","40","500","17070.20499999635","images/stimuli/spore_stims/complex_14_A_b.gif","images/stimuli/spore_stims/complex_08_A_a.gif","self_paced","","3","complex_dissimilar","images/stimuli/spore_stims/complex_08_A_a.gif","","","","",""
"","null","html-keyboard-response","44","243929","0.0-15.0-0.2","SS1619739452993","","","null","","","","","","<p><img src= images/blank.png width =""600"" height = ""600"" style=""position:fixed;top:50%; left:50%; transform: translate(-50%, -50%); border:5px solid black"">","","","","","","","",""
"","9216.679999983171","sequential-stimulus-presentation-old","45","253655","0.0-15.0-1.2","SS1619739452993","trial","","40","500","9716.679999983171","images/stimuli/spore_stims/complex_14_A_b.gif","images/stimuli/spore_stims/complex_08_A_a.gif","self_paced","","3","complex_dissimilar","images/stimuli/spore_stims/complex_08_A_a.gif","","","","",""
"","null","html-keyboard-response","46","254619","0.0-15.0-0.3","SS1619739452993","","","null","","","","","","<p><img src= images/blank.png width =""600"" height = ""600"" style=""position:fixed;top:50%; left:50%; transform: translate(-50%, -50%); border:5px solid black"">","","","","","","","",""
"","11618.069999996806","sequential-stimulus-presentation-old","47","266745","0.0-15.0-1.3","SS1619739452993","trial","","40","500","12118.069999996806","images/stimuli/spore_stims/complex_14_A_b.gif","images/stimuli/spore_stims/complex_08_A_a.gif","self_paced","","3","complex_dissimilar","images/stimuli/spore_stims/complex_14_A_b.gif","","","","",""
"","null","html-keyboard-response","48","267989","0.0-15.0-0.4","SS1619739452993","","","null","","","","","","<p><img src= images/blank.png width =""600"" height = ""600"" style=""position:fixed;top:50%; left:50%; transform: translate(-50%, -50%); border:5px solid black"">","","","","","","","",""
"","7835.6150000181515","sequential-stimulus-presentation-old","49","276334","0.0-15.0-1.4","SS1619739452993","trial","","40","500","8335.615000018151","images/stimuli/spore_stims/complex_14_A_b.gif","images/stimuli/spore_stims/complex_08_A_a.gif","self_paced","","3","complex_dissimilar","images/stimuli/spore_stims/complex_14_A_b.gif","","","","",""
"","3484.965000010561","survey-multi-choice","50","279823","0.0-16.0","SS1619739452993","math_question","","","","","","","","","","","","{""Q0"":""12""}","[0]","12","",""
"","null","html-keyboard-response","51","280691","0.0-17.0-0.0","SS1619739452993","","","null","","","","","","<p><img src= images/blank.png width =""600"" height = ""600"" style=""position:fixed;top:50%; left:50%; transform: translate(-50%, -50%); border:5px solid black"">","","","","","","","",""
"","7938.735000003362","sequential-stimulus-presentation-old","52","303641","0.0-17.0-1.0","SS1619739452993","trial","","40","500","8438.735000003362","images/stimuli/spore_stims/complex_03_A_b.gif","images/stimuli/spore_stims/complex_02_A_a.gif","forced_long","","4","complex_dissimilar","images/stimuli/spore_stims/complex_02_A_a.gif","","","","",""
"","null","html-keyboard-response","53","304769","0.0-17.0-0.1","SS1619739452993","","","null","","","","","","<p><img src= images/blank.png width =""600"" height = ""600"" style=""position:fixed;top:50%; left:50%; transform: translate(-50%, -50%); border:5px solid black"">","","","","","","","",""
"","852.0750000025146","sequential-stimulus-presentation-old","54","306131","0.0-17.0-1.1","SS1619739452993","trial","","40","500","1352.0750000025146","images/stimuli/spore_stims/complex_03_A_b.gif","images/stimuli/spore_stims/complex_02_A_a.gif","forced_long","","4","complex_dissimilar","images/stimuli/spore_stims/complex_02_A_a.gif","","","","",""
"","null","html-keyboard-response","55","307387","0.0-17.0-0.2","SS1619739452993","","","null","","","","","","<p><img src= images/blank.png width =""600"" height = ""600"" style=""position:fixed;top:50%; left:50%; transform: translate(-50%, -50%); border:5px solid black"">","","","","","","","",""
"","2325.270000001183","sequential-stimulus-presentation-old","56","310224","0.0-17.0-1.2","SS1619739452993","trial","","40","500","2825.270000001183","images/stimuli/spore_stims/complex_03_A_b.gif","images/stimuli/spore_stims/complex_02_A_a.gif","forced_long","","4","complex_dissimilar","images/stimuli/spore_stims/complex_02_A_a.gif","","","","",""
"","null","html-keyboard-response","57","311304","0.0-17.0-0.3","SS1619739452993","","","null","","","","","","<p><img src= images/blank.png width =""600"" height = ""600"" style=""position:fixed;top:50%; left:50%; transform: translate(-50%, -50%); border:5px solid black"">","","","","","","","",""
"","1196.0350000008475","sequential-stimulus-presentation-old","58","313015","0.0-17.0-1.3","SS1619739452993","trial","","40","500","1696.0350000008475","images/stimuli/spore_stims/complex_03_A_b.gif","images/stimuli/spore_stims/complex_02_A_a.gif","forced_long","","4","complex_dissimilar","images/stimuli/spore_stims/complex_02_A_a.gif","","","","",""
"","null","html-keyboard-response","59","314014","0.0-17.0-0.4","SS1619739452993","","","null","","","","","","<p><img src= images/blank.png width =""600"" height = ""600"" style=""position:fixed;top:50%; left:50%; transform: translate(-50%, -50%); border:5px solid black"">","","","","","","","",""
"","109.71000001882203","sequential-stimulus-presentation-old","60","314639","0.0-17.0-1.4","SS1619739452993","trial","","40","500","609.710000018822","images/stimuli/spore_stims/complex_03_A_b.gif","images/stimuli/spore_stims/complex_02_A_a.gif","forced_long","","4","complex_dissimilar","images/stimuli/spore_stims/complex_02_A_a.gif","","","","",""
"","null","html-keyboard-response","61","315849","0.0-17.0-0.5","SS1619739452993","","","null","","","","","","<p><img src= images/blank.png width =""600"" height = ""600"" style=""position:fixed;top:50%; left:50%; transform: translate(-50%, -50%); border:5px solid black"">","","","","","","","",""
"","51.164999982574955","sequential-stimulus-presentation-old","62","316409","0.0-17.0-1.5","SS1619739452993","trial","","40","500","551.164999982575","images/stimuli/spore_stims/complex_03_A_b.gif","images/stimuli/spore_stims/complex_02_A_a.gif","forced_long","","4","complex_dissimilar","images/stimuli/spore_stims/complex_03_A_b.gif","","","","",""
"","7401.5350000117905","survey-multi-choice","63","323815","0.0-18.0","SS1619739452993","math_question","","","","","","","","","","","","{""Q0"":""3""}","[0]","3","",""
"","null","html-keyboard-response","64","324767","0.0-19.0-0.0","SS1619739452993","","","null","","","","","","<p><img src= images/blank.png width =""600"" height = ""600"" style=""position:fixed;top:50%; left:50%; transform: translate(-50%, -50%); border:5px solid black"">","","","","","","","",""
"","5523.994999995921","sequential-stimulus-presentation-old","65","330812","0.0-19.0-1.0","SS1619739452993","trial","","40","500","6023.994999995921","images/stimuli/spore_stims/complex_09_A_b.gif","images/stimuli/spore_stims/complex_04_A_a.gif","self_paced","","5","complex_dissimilar","images/stimuli/spore_stims/complex_04_A_a.gif","","","","",""
"","null","html-keyboard-response","66","332111","0.0-19.0-0.1","SS1619739452993","","","null","","","","","","<p><img src= images/blank.png width =""600"" height = ""600"" style=""position:fixed;top:50%; left:50%; transform: translate(-50%, -50%); border:5px solid black"">","","","","","","","",""
"","17327.055000001565","sequential-stimulus-presentation-old","67","349947","0.0-19.0-1.1","SS1619739452993","trial","","40","500","17827.055000001565","images/stimuli/spore_stims/complex_09_A_b.gif","images/stimuli/spore_stims/complex_04_A_a.gif","self_paced","","5","complex_dissimilar","images/stimuli/spore_stims/complex_04_A_a.gif","","","","",""
"","null","html-keyboard-response","68","350981","0.0-19.0-0.2","SS1619739452993","","","null","","","","","","<p><img src= images/blank.png width =""600"" height = ""600"" style=""position:fixed;top:50%; left:50%; transform: translate(-50%, -50%); border:5px solid black"">","","","","","","","",""
"","320.15499999397434","sequential-stimulus-presentation-old","69","351810","0.0-19.0-1.2","SS1619739452993","trial","","40","500","820.1549999939743","images/stimuli/spore_stims/complex_09_A_b.gif","images/stimuli/spore_stims/complex_04_A_a.gif","self_paced","","5","complex_dissimilar","images/stimuli/spore_stims/complex_04_A_a.gif","","","","",""
"","null","html-keyboard-response","70","352640","0.0-19.0-0.3","SS1619739452993","","","null","","","","","","<p><img src= images/blank.png width =""600"" height = ""600"" style=""position:fixed;top:50%; left:50%; transform: translate(-50%, -50%); border:5px solid black"">","","","","","","","",""
"","266.7699999874458","sequential-stimulus-presentation-old","71","353415","0.0-19.0-1.3","SS1619739452993","trial","","40","500","766.7699999874458","images/stimuli/spore_stims/complex_09_A_b.gif","images/stimuli/spore_stims/complex_04_A_a.gif","self_paced","","5","complex_dissimilar","images/stimuli/spore_stims/complex_04_A_a.gif","","","","",""
"","null","html-keyboard-response","72","354511","0.0-19.0-0.4","SS1619739452993","","","null","","","","","","<p><img src= images/blank.png width =""600"" height = ""600"" style=""position:fixed;top:50%; left:50%; transform: translate(-50%, -50%); border:5px solid black"">","","","","","","","",""
"","114.33499999111518","sequential-stimulus-presentation-old","73","355141","0.0-19.0-1.4","SS1619739452993","trial","","40","500","614.3349999911152","images/stimuli/spore_stims/complex_09_A_b.gif","images/stimuli/spore_stims/complex_04_A_a.gif","self_paced","","5","complex_dissimilar","images/stimuli/spore_stims/complex_04_A_a.gif","","","","",""
"","4072.439999989001","survey-multi-choice","74","359218","0.0-20.0","SS1619739452993","math_question","","","","","","","","","","","","{""Q0"":""6""}","[0]","6","",""
"","null","html-keyboard-response","75","360218","0.0-21.0-0.0","SS1619739452993","","","null","","","","","","<p><img src= images/blank.png width =""600"" height = ""600"" style=""position:fixed;top:50%; left:50%; transform: translate(-50%, -50%); border:5px solid black"">","","","","","","","",""
"","10984.129999997094","sequential-stimulus-presentation-old","76","372275","0.0-21.0-1.0","SS1619739452993","trial","","40","500","11484.129999997094","images/stimuli/spore_stims/simple_08_A_a.gif","images/stimuli/spore_stims/simple_11_A_b.gif","self_paced","","6","simple_dissimilar","images/stimuli/spore_stims/simple_11_A_b.gif","","","","",""
"","null","html-keyboard-response","77","373342","0.0-21.0-0.1","SS1619739452993","","","null","","","","","","<p><img src= images/blank.png width =""600"" height = ""600"" style=""position:fixed;top:50%; left:50%; transform: translate(-50%, -50%); border:5px solid black"">","","","","","","","",""
"","1843.395000003511","sequential-stimulus-presentation-old","78","375709","0.0-21.0-1.1","SS1619739452993","trial","","40","500","2343.395000003511","images/stimuli/spore_stims/simple_08_A_a.gif","images/stimuli/spore_stims/simple_11_A_b.gif","self_paced","","6","simple_dissimilar","images/stimuli/spore_stims/simple_11_A_b.gif","","","","",""
"","null","html-keyboard-response","79","376970","0.0-21.0-0.2","SS1619739452993","","","null","","","","","","<p><img src= images/blank.png width =""600"" height = ""600"" style=""position:fixed;top:50%; left:50%; transform: translate(-50%, -50%); border:5px solid black"">","","","","","","","",""
"","1892.8500000038184","sequential-stimulus-presentation-old","80","379373","0.0-21.0-1.2","SS1619739452993","trial","","40","500","2392.8500000038184","images/stimuli/spore_stims/simple_08_A_a.gif","images/stimuli/spore_stims/simple_11_A_b.gif","self_paced","","6","simple_dissimilar","images/stimuli/spore_stims/simple_08_A_a.gif","","","","",""
"","null","html-keyboard-response","81","380247","0.0-21.0-0.3","SS1619739452993","","","null","","","","","","<p><img src= images/blank.png width =""600"" height = ""600"" style=""position:fixed;top:50%; left:50%; transform: translate(-50%, -50%); border:5px solid black"">","","","","","","","",""
"","401.94000001065433","sequential-stimulus-presentation-old","82","381163","0.0-21.0-1.3","SS1619739452993","trial","","40","500","901.9400000106543","images/stimuli/spore_stims/simple_08_A_a.gif","images/stimuli/spore_stims/simple_11_A_b.gif","self_paced","","6","simple_dissimilar","images/stimuli/spore_stims/simple_11_A_b.gif","","","","",""
"","null","html-keyboard-response","83","382381","0.0-21.0-0.4","SS1619739452993","","","null","","","","","","<p><img src= images/blank.png width =""600"" height = ""600"" style=""position:fixed;top:50%; left:50%; transform: translate(-50%, -50%); border:5px solid black"">","","","","","","","",""
"","559.6149999764748","sequential-stimulus-presentation-old","84","383450","0.0-21.0-1.4","SS1619739452993","trial","","40","500","1059.6149999764748","images/stimuli/spore_stims/simple_08_A_a.gif","images/stimuli/spore_stims/simple_11_A_b.gif","self_paced","","6","simple_dissimilar","images/stimuli/spore_stims/simple_08_A_a.gif","","","","",""
"","null","html-keyboard-response","85","384441","0.0-21.0-0.5","SS1619739452993","","","null","","","","","","<p><img src= images/blank.png width =""600"" height = ""600"" style=""position:fixed;top:50%; left:50%; transform: translate(-50%, -50%); border:5px solid black"">","","","","","","","",""
"","149.64500002679415","sequential-stimulus-presentation-old","86","385098","0.0-21.0-1.5","SS1619739452993","trial","","40","500","649.6450000267942","images/stimuli/spore_stims/simple_08_A_a.gif","images/stimuli/spore_stims/simple_11_A_b.gif","self_paced","","6","simple_dissimilar","images/stimuli/spore_stims/simple_11_A_b.gif","","","","",""
"","5675.329999998212","survey-multi-choice","87","390779","0.0-22.0","SS1619739452993","math_question","","","","","","","","","","","","{""Q0"":""14""}","[0]","14","",""
"","null","html-keyboard-response","88","391971","0.0-23.0-0.0","SS1619739452993","","","null","","","","","","<p><img src= images/blank.png width =""600"" height = ""600"" style=""position:fixed;top:50%; left:50%; transform: translate(-50%, -50%); border:5px solid black"">","","","","","","","",""
"","4069.229999993695","sequential-stimulus-presentation-old","89","411359","0.0-23.0-1.0","SS1619739452993","trial","","40","500","4569.229999993695","images/stimuli/spore_stims/simple_17_A_b.gif","images/stimuli/spore_stims/simple_12_A_a.gif","forced_long","","7","simple_dissimilar","images/stimuli/spore_stims/simple_12_A_a.gif","","","","",""
"","null","html-keyboard-response","90","412528","0.0-23.0-0.1","SS1619739452993","","","null","","","","","","<p><img src= images/blank.png width =""600"" height = ""600"" style=""position:fixed;top:50%; left:50%; transform: translate(-50%, -50%); border:5px solid black"">","","","","","","","",""
"","491.6499999817461","sequential-stimulus-presentation-old","91","413532","0.0-23.0-1.1","SS1619739452993","trial","","40","500","991.6499999817461","images/stimuli/spore_stims/simple_17_A_b.gif","images/stimuli/spore_stims/simple_12_A_a.gif","forced_long","","7","simple_dissimilar","images/stimuli/spore_stims/simple_12_A_a.gif","","","","",""
"","null","html-keyboard-response","92","414840","0.0-23.0-0.2","SS1619739452993","","","null","","","","","","<p><img src= images/blank.png width =""600"" height = ""600"" style=""position:fixed;top:50%; left:50%; transform: translate(-50%, -50%); border:5px solid black"">","","","","","","","",""
"","318.1299999996554","sequential-stimulus-presentation-old","93","415679","0.0-23.0-1.2","SS1619739452993","trial","","40","500","818.1299999996554","images/stimuli/spore_stims/simple_17_A_b.gif","images/stimuli/spore_stims/simple_12_A_a.gif","forced_long","","7","simple_dissimilar","images/stimuli/spore_stims/simple_17_A_b.gif","","","","",""
"","null","html-keyboard-response","94","416557","0.0-23.0-0.3","SS1619739452993","","","null","","","","","","<p><img src= images/blank.png width =""600"" height = ""600"" style=""position:fixed;top:50%; left:50%; transform: translate(-50%, -50%); border:5px solid black"">","","","","","","","",""
"","704.8000000067987","sequential-stimulus-presentation-old","95","417773","0.0-23.0-1.3","SS1619739452993","trial","","40","500","1204.8000000067987","images/stimuli/spore_stims/simple_17_A_b.gif","images/stimuli/spore_stims/simple_12_A_a.gif","forced_long","","7","simple_dissimilar","images/stimuli/spore_stims/simple_17_A_b.gif","","","","",""
"","null","html-keyboard-response","96","418780","0.0-23.0-0.4","SS1619739452993","","","null","","","","","","<p><img src= images/blank.png width =""600"" height = ""600"" style=""position:fixed;top:50%; left:50%; transform: translate(-50%, -50%); border:5px solid black"">","","","","","","","",""
"","32.749999983934686","sequential-stimulus-presentation-old","97","419329","0.0-23.0-1.4","SS1619739452993","trial","","40","500","532.7499999839347","images/stimuli/spore_stims/simple_17_A_b.gif","images/stimuli/spore_stims/simple_12_A_a.gif","forced_long","","7","simple_dissimilar","images/stimuli/spore_stims/simple_12_A_a.gif","","","","",""
"","3162.1000000159256","survey-multi-choice","98","422497","0.0-24.0","SS1619739452993","math_question","","","","","","","","","","","","{""Q0"":""11""}","[0]","11","",""
"","null","html-keyboard-response","99","423625","0.0-25.0-0.0","SS1619739452993","","","null","","","","","","<p><img src= images/blank.png width =""600"" height = ""600"" style=""position:fixed;top:50%; left:50%; transform: translate(-50%, -50%); border:5px solid black"">","","","","","","","",""
"","6547.430000005988","sequential-stimulus-presentation-old","100","430838","0.0-25.0-1.0","SS1619739452993","trial","","40","500","7047.430000005988","images/stimuli/spore_stims/complex_05_A_b.gif","images/stimuli/spore_stims/complex_18_A_a.gif","forced_short","","8","complex_dissimilar","images/stimuli/spore_stims/complex_18_A_a.gif","","","","",""
"","null","html-keyboard-response","101","432090","0.0-25.0-0.1","SS1619739452993","","","null","","","","","","<p><img src= images/blank.png width =""600"" height = ""600"" style=""position:fixed;top:50%; left:50%; transform: translate(-50%, -50%); border:5px solid black"">","","","","","","","",""
"","650.179999996908","sequential-stimulus-presentation-old","102","433251","0.0-25.0-1.1","SS1619739452993","trial","","40","500","1150.179999996908","images/stimuli/spore_stims/complex_05_A_b.gif","images/stimuli/spore_stims/complex_18_A_a.gif","forced_short","","8","complex_dissimilar","images/stimuli/spore_stims/complex_05_A_b.gif","","","","",""
"","null","html-keyboard-response","103","434260","0.0-25.0-0.2","SS1619739452993","","","null","","","","","","<p><img src= images/blank.png width =""600"" height = ""600"" style=""position:fixed;top:50%; left:50%; transform: translate(-50%, -50%); border:5px solid black"">","","","","","","","",""
"","103.82999997818843","sequential-stimulus-presentation-old","104","434884","0.0-25.0-1.2","SS1619739452993","trial","","40","500","603.8299999781884","images/stimuli/spore_stims/complex_05_A_b.gif","images/stimuli/spore_stims/complex_18_A_a.gif","forced_short","","8","complex_dissimilar","images/stimuli/spore_stims/complex_18_A_a.gif","","","","",""
"","null","html-keyboard-response","105","435826","0.0-25.0-0.3","SS1619739452993","","","null","","","","","","<p><img src= images/blank.png width =""600"" height = ""600"" style=""position:fixed;top:50%; left:50%; transform: translate(-50%, -50%); border:5px solid black"">","","","","","","","",""
"","103.39000000385568","sequential-stimulus-presentation-old","106","436437","0.0-25.0-1.3","SS1619739452993","trial","","40","500","603.3900000038557","images/stimuli/spore_stims/complex_05_A_b.gif","images/stimuli/spore_stims/complex_18_A_a.gif","forced_short","","8","complex_dissimilar","images/stimuli/spore_stims/complex_18_A_a.gif","","","","",""
"","null","html-keyboard-response","107","437631","0.0-25.0-0.4","SS1619739452993","","","null","","","","","","<p><img src= images/blank.png width =""600"" height = ""600"" style=""position:fixed;top:50%; left:50%; transform: translate(-50%, -50%); border:5px solid black"">","","","","","","","",""
"","169.93999999249354","sequential-stimulus-presentation-old","108","438315","0.0-25.0-1.4","SS1619739452993","trial","","40","500","669.9399999924935","images/stimuli/spore_stims/complex_05_A_b.gif","images/stimuli/spore_stims/complex_18_A_a.gif","forced_short","","8","complex_dissimilar","images/stimuli/spore_stims/complex_18_A_a.gif","","","","",""
"","null","html-keyboard-response","109","439451","0.0-25.0-0.5","SS1619739452993","","","null","","","","","","<p><img src= images/blank.png width =""600"" height = ""600"" style=""position:fixed;top:50%; left:50%; transform: translate(-50%, -50%); border:5px solid black"">","","","","","","","",""
"","232.1300000185147","sequential-stimulus-presentation-old","110","440191","0.0-25.0-1.5","SS1619739452993","trial","","40","500","732.1300000185147","images/stimuli/spore_stims/complex_05_A_b.gif","images/stimuli/spore_stims/complex_18_A_a.gif","forced_short","","8","complex_dissimilar","images/stimuli/spore_stims/complex_18_A_a.gif","","","","",""
"","3586.680000007618","survey-multi-choice","111","443782","0.0-26.0","SS1619739452993","math_question","","","","","","","","","","","","{""Q0"":""8""}","[0]","8","",""
"","null","html-keyboard-response","112","444800","0.0-27.0-0.0","SS1619739452993","","","null","","","","","","<p><img src= images/blank.png width =""600"" height = ""600"" style=""position:fixed;top:50%; left:50%; transform: translate(-50%, -50%); border:5px solid black"">","","","","","","","",""
"","11073.640000016894","sequential-stimulus-presentation-old","113","471362","0.0-27.0-1.0","SS1619739452993","trial","","40","500","11573.640000016894","images/stimuli/spore_stims/simple_18_A_b.gif","images/stimuli/spore_stims/simple_10_A_a.gif","forced_long","","9","simple_dissimilar","images/stimuli/spore_stims/simple_10_A_a.gif","","","","",""
"","null","html-keyboard-response","114","472300","0.0-27.0-0.1","SS1619739452993","","","null","","","","","","<p><img src= images/blank.png width =""600"" height = ""600"" style=""position:fixed;top:50%; left:50%; transform: translate(-50%, -50%); border:5px solid black"">","","","","","","","",""
"","190.39500001235865","sequential-stimulus-presentation-old","115","473011","0.0-27.0-1.1","SS1619739452993","trial","","40","500","690.3950000123587","images/stimuli/spore_stims/simple_18_A_b.gif","images/stimuli/spore_stims/simple_10_A_a.gif","forced_long","","9","simple_dissimilar","images/stimuli/spore_stims/simple_10_A_a.gif","","","","",""
"","null","html-keyboard-response","116","474150","0.0-27.0-0.2","SS1619739452993","","","null","","","","","","<p><img src= images/blank.png width =""600"" height = ""600"" style=""position:fixed;top:50%; left:50%; transform: translate(-50%, -50%); border:5px solid black"">","","","","","","","",""
"","2556.1799999850336","sequential-stimulus-presentation-old","117","477218","0.0-27.0-1.2","SS1619739452993","trial","","40","500","3056.1799999850336","images/stimuli/spore_stims/simple_18_A_b.gif","images/stimuli/spore_stims/simple_10_A_a.gif","forced_long","","9","simple_dissimilar","images/stimuli/spore_stims/simple_10_A_a.gif","","","","",""
"","null","html-keyboard-response","118","478379","0.0-27.0-0.3","SS1619739452993","","","null","","","","","","<p><img src= images/blank.png width =""600"" height = ""600"" style=""position:fixed;top:50%; left:50%; transform: translate(-50%, -50%); border:5px solid black"">","","","","","","","",""
"","278.9550000161398","sequential-stimulus-presentation-old","119","479167","0.0-27.0-1.3","SS1619739452993","trial","","40","500","778.9550000161398","images/stimuli/spore_stims/simple_18_A_b.gif","images/stimuli/spore_stims/simple_10_A_a.gif","forced_long","","9","simple_dissimilar","images/stimuli/spore_stims/simple_10_A_a.gif","","","","",""
"","null","html-keyboard-response","120","480440","0.0-27.0-0.4","SS1619739452993","","","null","","","","","","<p><img src= images/blank.png width =""600"" height = ""600"" style=""position:fixed;top:50%; left:50%; transform: translate(-50%, -50%); border:5px solid black"">","","","","","","","",""
"","212.3050000227522","sequential-stimulus-presentation-old","121","481163","0.0-27.0-1.4","SS1619739452993","trial","","40","500","712.3050000227522","images/stimuli/spore_stims/simple_18_A_b.gif","images/stimuli/spore_stims/simple_10_A_a.gif","forced_long","","9","simple_dissimilar","images/stimuli/spore_stims/simple_10_A_a.gif","","","","",""
"","3695.6549999886192","survey-multi-choice","122","484867","0.0-28.0","SS1619739452993","math_question","","","","","","","","","","","","{""Q0"":""12""}","[0]","12","",""
"","null","html-keyboard-response","123","486289","0.0-29.0-0.0","SS1619739452993","","","null","","","","","","<p><img src= images/blank.png width =""600"" height = ""600"" style=""position:fixed;top:50%; left:50%; transform: translate(-50%, -50%); border:5px solid black"">","","","","","","","",""
"","2530.205000017304","sequential-stimulus-presentation-old","124","489820","0.0-29.0-1.0","SS1619739452993","trial","","40","500","3030.205000017304","images/stimuli/spore_stims/simple_13_A_b.gif","images/stimuli/spore_stims/simple_05_A_a.gif","self_paced","","10","simple_dissimilar","images/stimuli/spore_stims/simple_05_A_a.gif","","","","",""
"","null","html-keyboard-response","125","490957","0.0-29.0-0.1","SS1619739452993","","","null","","","","","","<p><img src= images/blank.png width =""600"" height = ""600"" style=""position:fixed;top:50%; left:50%; transform: translate(-50%, -50%); border:5px solid black"">","","","","","","","",""
"","287.9499999980908","sequential-stimulus-presentation-old","126","491763","0.0-29.0-1.1","SS1619739452993","trial","","40","500","787.9499999980908","images/stimuli/spore_stims/simple_13_A_b.gif","images/stimuli/spore_stims/simple_05_A_a.gif","self_paced","","10","simple_dissimilar","images/stimuli/spore_stims/simple_05_A_a.gif","","","","",""
"","null","html-keyboard-response","127","492930","0.0-29.0-0.2","SS1619739452993","","","null","","","","","","<p><img src= images/blank.png width =""600"" height = ""600"" style=""position:fixed;top:50%; left:50%; transform: translate(-50%, -50%); border:5px solid black"">","","","","","","","",""
"","78.03999999305233","sequential-stimulus-presentation-old","128","493529","0.0-29.0-1.2","SS1619739452993","trial","","40","500","578.0399999930523","images/stimuli/spore_stims/simple_13_A_b.gif","images/stimuli/spore_stims/simple_05_A_a.gif","self_paced","","10","simple_dissimilar","images/stimuli/spore_stims/simple_05_A_a.gif","","","","",""
"","null","html-keyboard-response","129","494390","0.0-29.0-0.3","SS1619739452993","","","null","","","","","","<p><img src= images/blank.png width =""600"" height = ""600"" style=""position:fixed;top:50%; left:50%; transform: translate(-50%, -50%); border:5px solid black"">","","","","","","","",""
"","3770.6550000002608","sequential-stimulus-presentation-old","130","498681","0.0-29.0-1.3","SS1619739452993","trial","","40","500","4270.655000000261","images/stimuli/spore_stims/simple_13_A_b.gif","images/stimuli/spore_stims/simple_05_A_a.gif","self_paced","","10","simple_dissimilar","images/stimuli/spore_stims/simple_05_A_a.gif","","","","",""
"","null","html-keyboard-response","131","499710","0.0-29.0-0.4","SS1619739452993","","","null","","","","","","<p><img src= images/blank.png width =""600"" height = ""600"" style=""position:fixed;top:50%; left:50%; transform: translate(-50%, -50%); border:5px solid black"">","","","","","","","",""
"","261.74999997601844","sequential-stimulus-presentation-old","132","500492","0.0-29.0-1.4","SS1619739452993","trial","","40","500","761.7499999760184","images/stimuli/spore_stims/simple_13_A_b.gif","images/stimuli/spore_stims/simple_05_A_a.gif","self_paced","","10","simple_dissimilar","images/stimuli/spore_stims/simple_05_A_a.gif","","","","",""
"","2992.1700000122655","survey-multi-choice","133","503491","0.0-30.0","SS1619739452993","math_question","","","","","","","","","","","","{""Q0"":""10""}","[0]","10","",""
"","null","html-keyboard-response","134","504789","0.0-31.0-0.0","SS1619739452993","","","null","","","","","","<p><img src= images/blank.png width =""600"" height = ""600"" style=""position:fixed;top:50%; left:50%; transform: translate(-50%, -50%); border:5px solid black"">","","","","","","","",""
"","279.89499998511747","sequential-stimulus-presentation-old","135","505581","0.0-31.0-1.0","SS1619739452993","trial","","40","500","779.8949999851175","images/stimuli/spore_stims/simple_16_A_b.gif","images/stimuli/spore_stims/simple_11_A_a.gif","forced_short","","11","simple_dissimilar","images/stimuli/spore_stims/simple_11_A_a.gif","","","","",""
"","null","html-keyboard-response","136","506535","0.0-31.0-0.1","SS1619739452993","","","null","","","","","","<p><img src= images/blank.png width =""600"" height = ""600"" style=""position:fixed;top:50%; left:50%; transform: translate(-50%, -50%); border:5px solid black"">","","","","","","","",""
"","10703.07000001776","sequential-stimulus-presentation-old","137","517749","0.0-31.0-1.1","SS1619739452993","trial","","40","500","11203.07000001776","images/stimuli/spore_stims/simple_16_A_b.gif","images/stimuli/spore_stims/simple_11_A_a.gif","forced_short","","11","simple_dissimilar","images/stimuli/spore_stims/simple_11_A_a.gif","","","","",""
"","null","html-keyboard-response","138","518856","0.0-31.0-0.2","SS1619739452993","","","null","","","","","","<p><img src= images/blank.png width =""600"" height = ""600"" style=""position:fixed;top:50%; left:50%; transform: translate(-50%, -50%); border:5px solid black"">","","","","","","","",""
"","294.59499998483807","sequential-stimulus-presentation-old","139","519657","0.0-31.0-1.2","SS1619739452993","trial","","40","500","794.5949999848381","images/stimuli/spore_stims/simple_16_A_b.gif","images/stimuli/spore_stims/simple_11_A_a.gif","forced_short","","11","simple_dissimilar","images/stimuli/spore_stims/simple_16_A_b.gif","","","","",""
"","null","html-keyboard-response","140","520659","0.0-31.0-0.3","SS1619739452993","","","null","","","","","","<p><img src= images/blank.png width =""600"" height = ""600"" style=""position:fixed;top:50%; left:50%; transform: translate(-50%, -50%); border:5px solid black"">","","","","","","","",""
"","37.01500000897795","sequential-stimulus-presentation-old","141","521204","0.0-31.0-1.3","SS1619739452993","trial","","40","500","537.015000008978","images/stimuli/spore_stims/simple_16_A_b.gif","images/stimuli/spore_stims/simple_11_A_a.gif","forced_short","","11","simple_dissimilar","images/stimuli/spore_stims/simple_11_A_a.gif","","","","",""
"","null","html-keyboard-response","142","522320","0.0-31.0-0.4","SS1619739452993","","","null","","","","","","<p><img src= images/blank.png width =""600"" height = ""600"" style=""position:fixed;top:50%; left:50%; transform: translate(-50%, -50%); border:5px solid black"">","","","","","","","",""
"","7338.06999999797","sequential-stimulus-presentation-old","143","530177","0.0-31.0-1.4","SS1619739452993","trial","","40","500","7838.06999999797","images/stimuli/spore_stims/simple_16_A_b.gif","images/stimuli/spore_stims/simple_11_A_a.gif","forced_short","","11","simple_dissimilar","images/stimuli/spore_stims/simple_11_A_a.gif","","","","",""
"[{""page_index"":0,""viewing_time"":3717.430000018794}]","3717.690000019502","instructions","144","533901","0.0-32.0","SS1619739452993","instructions","","","","","","","","","","","","","","","",""
"","5592.155000020284","survey-likert","145","539499","0.0-33.0","SS1619739452993","similarity_question","","","","","","","","","","","","{""Q0"":2}","[0]","","images/stimuli/spore_stims/simple_08_A_a.gif","images/stimuli/spore_stims/simple_11_A_b.gif"
"","4809.680000005756","survey-likert","146","544320","0.0-34.0","SS1619739452993","similarity_question","","","","","","","","","","","","{""Q0"":2}","[0]","","images/stimuli/spore_stims/complex_01_A_b.gif","images/stimuli/spore_stims/complex_03_A_a.gif"
"","4601.620000001276","survey-likert","147","548932","0.0-35.0","SS1619739452993","similarity_question","","","","","","","","","","","","{""Q0"":4}","[0]","","images/stimuli/spore_stims/simple_12_A_a.gif","images/stimuli/spore_stims/simple_17_A_b.gif"
"","3404.934999998659","survey-likert","148","552349","0.0-36.0","SS1619739452993","similarity_question","","","","","","","","","","","","{""Q0"":2}","[0]","","images/stimuli/spore_stims/complex_09_A_b.gif","images/stimuli/spore_stims/complex_04_A_a.gif"
"","3483.784999989439","survey-likert","149","555842","0.0-37.0","SS1619739452993","similarity_question","","","","","","","","","","","","{""Q0"":5}","[0]","","images/stimuli/spore_stims/simple_05_A_a.gif","images/stimuli/spore_stims/simple_13_A_b.gif"
"","3085.5400000000373","survey-likert","150","558939","0.0-38.0","SS1619739452993","similarity_question","","","","","","","","","","","","{""Q0"":2}","[0]","","images/stimuli/spore_stims/simple_18_A_b.gif","images/stimuli/spore_stims/simple_10_A_a.gif"
"","3832.1500000020023","survey-likert","151","562781","0.0-39.0","SS1619739452993","similarity_question","","","","","","","","","","","","{""Q0"":2}","[0]","","images/stimuli/spore_stims/simple_06_A_a.gif","images/stimuli/spore_stims/simple_04_A_b.gif"
"","4653.850000002421","survey-likert","152","567445","0.0-40.0","SS1619739452993","similarity_question","","","","","","","","","","","","{""Q0"":2}","[0]","","images/stimuli/spore_stims/complex_20_A_b.gif","images/stimuli/spore_stims/complex_11_A_a.gif"
"","7167.385000007926","survey-likert","153","574623","0.0-41.0","SS1619739452993","similarity_question","","","","","","","","","","","","{""Q0"":2}","[0]","","images/stimuli/spore_stims/complex_05_A_b.gif","images/stimuli/spore_stims/complex_18_A_a.gif"
"","3698.904999997467","survey-likert","154","578334","0.0-42.0","SS1619739452993","similarity_question","","","","","","","","","","","","{""Q0"":2}","[0]","","images/stimuli/spore_stims/complex_14_A_b.gif","images/stimuli/spore_stims/complex_08_A_a.gif"
"","7591.834999999264","survey-likert","155","585936","0.0-43.0","SS1619739452993","similarity_question","","","","","","","","","","","","{""Q0"":5}","[0]","","images/stimuli/spore_stims/simple_16_A_b.gif","images/stimuli/spore_stims/simple_11_A_a.gif"
"","3427.960000000894","survey-likert","156","589375","0.0-44.0","SS1619739452993","similarity_question","","","","","","","","","","","","{""Q0"":2}","[0]","","images/stimuli/spore_stims/complex_02_A_a.gif","images/stimuli/spore_stims/complex_03_A_b.gif"
"[{""page_index"":0,""viewing_time"":1581.2999999907333}]","1581.6850000119302","instructions","157","590965","0.0-45.0","SS1619739452993","instructions","","","","","","","","","","","","","","","",""
"","5418.940000003204","survey-likert","158","596390","0.0-46.0","SS1619739452993","","","","","","","","","images/stimuli/spore_stims/complex_02_A_a.gif","","","","{""Q0"":4}","[0]","","",""
"","6764.12999999593","survey-likert","159","603165","0.0-47.0","SS1619739452993","","","","","","","","","images/stimuli/spore_stims/complex_09_A_b.gif","","","","{""Q0"":5}","[0]","","",""
"","3535.5100000160746","survey-likert","160","606710","0.0-48.0","SS1619739452993","","","","","","","","","images/stimuli/spore_stims/complex_08_A_a.gif","","","","{""Q0"":5}","[0]","","",""
"","3495.9450000023935","survey-likert","161","610216","0.0-49.0","SS1619739452993","","","","","","","","","images/stimuli/spore_stims/complex_03_A_a.gif","","","","{""Q0"":4}","[0]","","",""
"","3518.309999984922","survey-likert","162","613746","0.0-50.0","SS1619739452993","","","","","","","","","images/stimuli/spore_stims/simple_17_A_b.gif","","","","{""Q0"":3}","[0]","","",""
"","3250.9399999980815","survey-likert","163","617006","0.0-51.0","SS1619739452993","","","","","","","","","images/stimuli/spore_stims/simple_04_A_b.gif","","","","{""Q0"":3}","[0]","","",""
"","9479.309999995166","survey-likert","164","626496","0.0-52.0","SS1619739452993","","","","","","","","","images/stimuli/spore_stims/simple_18_A_b.gif","","","","{""Q0"":3}","[0]","","",""
"","5175.719999999274","survey-likert","165","631682","0.0-53.0","SS1619739452993","","","","","","","","","images/stimuli/spore_stims/simple_11_A_a.gif","","","","{""Q0"":3}","[0]","","",""
"","3943.05999999051","survey-likert","166","635636","0.0-54.0","SS1619739452993","","","","","","","","","images/stimuli/spore_stims/complex_20_A_b.gif","","","","{""Q0"":5}","[0]","","",""
"","2614.5699999760836","survey-likert","167","638260","0.0-55.0","SS1619739452993","","","","","","","","","images/stimuli/spore_stims/simple_05_A_a.gif","","","","{""Q0"":3}","[0]","","",""
"","7521.455000009155","survey-likert","168","645793","0.0-56.0","SS1619739452993","","","","","","","","","images/stimuli/spore_stims/complex_18_A_a.gif","","","","{""Q0"":5}","[0]","","",""
"","5658.175000018673","survey-likert","169","651461","0.0-57.0","SS1619739452993","","","","","","","","","images/stimuli/spore_stims/simple_08_A_a.gif","","","","{""Q0"":2}","[0]","","",""
"[{""page_index"":0,""viewing_time"":2315.4300000169314}]","2315.790000022389","instructions","170","653787","0.0-58.0","SS1619739452993","instructions","","","","","","","","","","","","","","","",""
"","3587.325000000419","demog-age","171","657382","0.0-59.0","SS1619739452993","","","","","","","","","","","","","{""age"":""36""}","","","",""
"","8024.815000011586","demog-ethnic-US","172","665415","0.0-60.0","SS1619739452993","","","","","","","","","","","","","{""ethnicity"":[""White""]}","[0]","","",""
"","9073.11500000651","demog-gender-and-education","173","674499","0.0-61.0","SS1619739452993","","","","","","","","","","","","","{""gender"":""Female"",""education"":""Master's Degree""}","[0,1]","","",""
"","25739.270000020042","survey-text","174","700252","0.0-62.0","SS1619739452993","feedback","","","","","","","","","","","","{""Q0"":""No""}","","","",""
"[{""page_index"":0,""viewing_time"":1695.1300000073388}]","1695.3900000080466","instructions","175","701952","0.0-63.0","SS1619739452993","instructions","","","","","","","","","","","","","","","",""
