"view_history","rt","trial_type","trial_index","time_elapsed","internal_node_id","subject","stimulus_type","trial_stimulus","key_press","minimum_viewing_duration","trial_looking_time","block_deviant","block_background","exposure_type","stimulus","block_number","block_type","stimulus_displayed","responses","question_order","math_correct_answer","stimulus_left","stimulus_right"
"[{""page_index"":0,""viewing_time"":52663.0699999514}]","52663.42999995686","instructions","0","52671","0.0-0.0","SS1619740212383","","","","","","","","","","","","","","","","",""
"[{""page_index"":0,""viewing_time"":72737.02000000048},{""page_index"":1,""viewing_time"":3192.269999999553}]","75929.524999985","instructions","1","131224","0.0-1.0","SS1619740212383","instructions","","","","","","","","","","","","","","","",""
"","3142.44000002509","sequential-stimulus-presentation-old","2","134871","0.0-2.0","SS1619740212383","","","40","500","3642.44000002509","null","null","self_paced","","","","","","","","",""
"","1641.0550000146031","sequential-stimulus-presentation-old","3","137014","0.0-3.0","SS1619740212383","","","40","500","2141.055000014603","null","null","self_paced","","","","","","","","",""
"[{""page_index"":0,""viewing_time"":14745.91999995755}]","14746.169999998529","instructions","4","151761","0.0-4.0","SS1619740212383","instructions","","","","","","","","","","","","","","","",""
"","522.0700000063516","sequential-stimulus-presentation-old","5","167287","0.0-5.0","SS1619740212383","","","40","500","1022.0700000063516","null","null","forced_long","","","","","","","","",""
"","601.1849999777041","sequential-stimulus-presentation-old","6","168390","0.0-6.0","SS1619740212383","","","40","500","1101.1849999777041","null","null","forced_long","","","","","","","","",""
"[{""page_index"":0,""viewing_time"":11291.02000000421}]","11291.26000002725","instructions","7","179683","0.0-7.0","SS1619740212383","instructions","","","","","","","","","","","","","","","",""
"[{""page_index"":0,""viewing_time"":3311.8350000004284},{""page_index"":1,""viewing_time"":3272.22000004258},{""page_index"":2,""viewing_time"":1667.1799999894574},{""page_index"":3,""viewing_time"":944.1750000114553},{""page_index"":4,""viewing_time"":719.2899999790825}]","9915.055000048596","instructions","8","189600","0.0-8.0","SS1619740212383","instructions","","","","","","","","","","","","","","","",""
"","null","html-keyboard-response","9","190764","0.0-9.0-0.0","SS1619740212383","","","null","","","","","","<p><img src= images/blank.png width =""600"" height = ""600"" style=""position:fixed;top:50%; left:50%; transform: translate(-50%, -50%); border:5px solid black"">","","","","","","","",""
"","626.0849999962375","sequential-stimulus-presentation-old","10","191895","0.0-9.0-1.0","SS1619740212383","trial","","40","500","1126.0849999962375","images/stimuli/spore_stims/complex_09_A_a.gif","images/stimuli/spore_stims/complex_20_A_b.gif","forced_short","","0","complex_dissimilar","images/stimuli/spore_stims/complex_20_A_b.gif","","","","",""
"","null","html-keyboard-response","11","193033","0.0-9.0-0.1","SS1619740212383","","","null","","","","","","<p><img src= images/blank.png width =""600"" height = ""600"" style=""position:fixed;top:50%; left:50%; transform: translate(-50%, -50%); border:5px solid black"">","","","","","","","",""
"","20662.875000038184","sequential-stimulus-presentation-old","12","214199","0.0-9.0-1.1","SS1619740212383","trial","","40","500","21162.875000038184","images/stimuli/spore_stims/complex_09_A_a.gif","images/stimuli/spore_stims/complex_20_A_b.gif","forced_short","","0","complex_dissimilar","images/stimuli/spore_stims/complex_20_A_b.gif","","","","",""
"","null","html-keyboard-response","13","215040","0.0-9.0-0.2","SS1619740212383","","","null","","","","","","<p><img src= images/blank.png width =""600"" height = ""600"" style=""position:fixed;top:50%; left:50%; transform: translate(-50%, -50%); border:5px solid black"">","","","","","","","",""
"","1118.7749999808148","sequential-stimulus-presentation-old","14","216662","0.0-9.0-1.2","SS1619740212383","trial","","40","500","1618.7749999808148","images/stimuli/spore_stims/complex_09_A_a.gif","images/stimuli/spore_stims/complex_20_A_b.gif","forced_short","","0","complex_dissimilar","images/stimuli/spore_stims/complex_20_A_b.gif","","","","",""
"","null","html-keyboard-response","15","217771","0.0-9.0-0.3","SS1619740212383","","","null","","","","","","<p><img src= images/blank.png width =""600"" height = ""600"" style=""position:fixed;top:50%; left:50%; transform: translate(-50%, -50%); border:5px solid black"">","","","","","","","",""
"","3589.1149999806657","sequential-stimulus-presentation-old","16","221862","0.0-9.0-1.3","SS1619740212383","trial","","40","500","4089.1149999806657","images/stimuli/spore_stims/complex_09_A_a.gif","images/stimuli/spore_stims/complex_20_A_b.gif","forced_short","","0","complex_dissimilar","images/stimuli/spore_stims/complex_09_A_a.gif","","","","",""
"","null","html-keyboard-response","17","223045","0.0-9.0-0.4","SS1619740212383","","","null","","","","","","<p><img src= images/blank.png width =""600"" height = ""600"" style=""position:fixed;top:50%; left:50%; transform: translate(-50%, -50%); border:5px solid black"">","","","","","","","",""
"","714.4650000263937","sequential-stimulus-presentation-old","18","224263","0.0-9.0-1.4","SS1619740212383","trial","","40","500","1214.4650000263937","images/stimuli/spore_stims/complex_09_A_a.gif","images/stimuli/spore_stims/complex_20_A_b.gif","forced_short","","0","complex_dissimilar","images/stimuli/spore_stims/complex_20_A_b.gif","","","","",""
"","4949.740000010934","survey-multi-choice","19","229218","0.0-10.0","SS1619740212383","math_question","","","","","","","","","","","","{""Q0"":""12""}","[0]","12","",""
"","null","html-keyboard-response","20","230487","0.0-11.0-0.0","SS1619740212383","","","null","","","","","","<p><img src= images/blank.png width =""600"" height = ""600"" style=""position:fixed;top:50%; left:50%; transform: translate(-50%, -50%); border:5px solid black"">","","","","","","","",""
"","2311.4499999792315","sequential-stimulus-presentation-old","21","233302","0.0-11.0-1.0","SS1619740212383","trial","","40","500","2811.4499999792315","images/stimuli/spore_stims/complex_12_A_b.gif","images/stimuli/spore_stims/complex_20_A_a.gif","forced_short","","1","complex_dissimilar","images/stimuli/spore_stims/complex_20_A_a.gif","","","","",""
"","null","html-keyboard-response","22","234438","0.0-11.0-0.1","SS1619740212383","","","null","","","","","","<p><img src= images/blank.png width =""600"" height = ""600"" style=""position:fixed;top:50%; left:50%; transform: translate(-50%, -50%); border:5px solid black"">","","","","","","","",""
"","1225.25499999756","sequential-stimulus-presentation-old","23","236167","0.0-11.0-1.1","SS1619740212383","trial","","40","500","1725.25499999756","images/stimuli/spore_stims/complex_12_A_b.gif","images/stimuli/spore_stims/complex_20_A_a.gif","forced_short","","1","complex_dissimilar","images/stimuli/spore_stims/complex_20_A_a.gif","","","","",""
"","null","html-keyboard-response","24","236977","0.0-11.0-0.2","SS1619740212383","","","null","","","","","","<p><img src= images/blank.png width =""600"" height = ""600"" style=""position:fixed;top:50%; left:50%; transform: translate(-50%, -50%); border:5px solid black"">","","","","","","","",""
"","1086.2750000087544","sequential-stimulus-presentation-old","25","238567","0.0-11.0-1.2","SS1619740212383","trial","","40","500","1586.2750000087544","images/stimuli/spore_stims/complex_12_A_b.gif","images/stimuli/spore_stims/complex_20_A_a.gif","forced_short","","1","complex_dissimilar","images/stimuli/spore_stims/complex_20_A_a.gif","","","","",""
"","null","html-keyboard-response","26","239555","0.0-11.0-0.3","SS1619740212383","","","null","","","","","","<p><img src= images/blank.png width =""600"" height = ""600"" style=""position:fixed;top:50%; left:50%; transform: translate(-50%, -50%); border:5px solid black"">","","","","","","","",""
"","940.6449999660254","sequential-stimulus-presentation-old","27","240999","0.0-11.0-1.3","SS1619740212383","trial","","40","500","1440.6449999660254","images/stimuli/spore_stims/complex_12_A_b.gif","images/stimuli/spore_stims/complex_20_A_a.gif","forced_short","","1","complex_dissimilar","images/stimuli/spore_stims/complex_12_A_b.gif","","","","",""
"","null","html-keyboard-response","28","242162","0.0-11.0-0.4","SS1619740212383","","","null","","","","","","<p><img src= images/blank.png width =""600"" height = ""600"" style=""position:fixed;top:50%; left:50%; transform: translate(-50%, -50%); border:5px solid black"">","","","","","","","",""
"","253.47499997587875","sequential-stimulus-presentation-old","29","242918","0.0-11.0-1.4","SS1619740212383","trial","","40","500","753.4749999758787","images/stimuli/spore_stims/complex_12_A_b.gif","images/stimuli/spore_stims/complex_20_A_a.gif","forced_short","","1","complex_dissimilar","images/stimuli/spore_stims/complex_20_A_a.gif","","","","",""
"","2611.155000049621","survey-multi-choice","30","245532","0.0-12.0","SS1619740212383","math_question","","","","","","","","","","","","{""Q0"":""12""}","[0]","12","",""
"","null","html-keyboard-response","31","246683","0.0-13.0-0.0","SS1619740212383","","","null","","","","","","<p><img src= images/blank.png width =""600"" height = ""600"" style=""position:fixed;top:50%; left:50%; transform: translate(-50%, -50%); border:5px solid black"">","","","","","","","",""
"","1380.7750000269152","sequential-stimulus-presentation-old","32","248567","0.0-13.0-1.0","SS1619740212383","trial","","40","500","1880.7750000269152","images/stimuli/spore_stims/simple_13_A_b.gif","images/stimuli/spore_stims/simple_01_A_a.gif","forced_short","","2","simple_dissimilar","images/stimuli/spore_stims/simple_01_A_a.gif","","","","",""
"","null","html-keyboard-response","33","249847","0.0-13.0-0.1","SS1619740212383","","","null","","","","","","<p><img src= images/blank.png width =""600"" height = ""600"" style=""position:fixed;top:50%; left:50%; transform: translate(-50%, -50%); border:5px solid black"">","","","","","","","",""
"","1784.3499999726191","sequential-stimulus-presentation-old","34","252134","0.0-13.0-1.1","SS1619740212383","trial","","40","500","2284.349999972619","images/stimuli/spore_stims/simple_13_A_b.gif","images/stimuli/spore_stims/simple_01_A_a.gif","forced_short","","2","simple_dissimilar","images/stimuli/spore_stims/simple_13_A_b.gif","","","","",""
"","null","html-keyboard-response","35","253391","0.0-13.0-0.2","SS1619740212383","","","null","","","","","","<p><img src= images/blank.png width =""600"" height = ""600"" style=""position:fixed;top:50%; left:50%; transform: translate(-50%, -50%); border:5px solid black"">","","","","","","","",""
"","1743.9949999679811","sequential-stimulus-presentation-old","36","255638","0.0-13.0-1.2","SS1619740212383","trial","","40","500","2243.994999967981","images/stimuli/spore_stims/simple_13_A_b.gif","images/stimuli/spore_stims/simple_01_A_a.gif","forced_short","","2","simple_dissimilar","images/stimuli/spore_stims/simple_13_A_b.gif","","","","",""
"","null","html-keyboard-response","37","256582","0.0-13.0-0.3","SS1619740212383","","","null","","","","","","<p><img src= images/blank.png width =""600"" height = ""600"" style=""position:fixed;top:50%; left:50%; transform: translate(-50%, -50%); border:5px solid black"">","","","","","","","",""
"","821.544999955222","sequential-stimulus-presentation-old","38","257910","0.0-13.0-1.3","SS1619740212383","trial","","40","500","1321.544999955222","images/stimuli/spore_stims/simple_13_A_b.gif","images/stimuli/spore_stims/simple_01_A_a.gif","forced_short","","2","simple_dissimilar","images/stimuli/spore_stims/simple_01_A_a.gif","","","","",""
"","2472.9349999688566","survey-multi-choice","39","260385","0.0-14.0","SS1619740212383","math_question","","","","","","","","","","","","{""Q0"":""6""}","[0]","6","",""
"","null","html-keyboard-response","40","261535","0.0-15.0-0.0","SS1619740212383","","","null","","","","","","<p><img src= images/blank.png width =""600"" height = ""600"" style=""position:fixed;top:50%; left:50%; transform: translate(-50%, -50%); border:5px solid black"">","","","","","","","",""
"","2223.0749999871477","sequential-stimulus-presentation-old","41","264262","0.0-15.0-1.0","SS1619740212383","trial","","40","500","2723.0749999871477","images/stimuli/spore_stims/complex_17_A_a.gif","images/stimuli/spore_stims/complex_04_A_b.gif","self_paced","","3","complex_dissimilar","images/stimuli/spore_stims/complex_04_A_b.gif","","","","",""
"","null","html-keyboard-response","42","265283","0.0-15.0-0.1","SS1619740212383","","","null","","","","","","<p><img src= images/blank.png width =""600"" height = ""600"" style=""position:fixed;top:50%; left:50%; transform: translate(-50%, -50%); border:5px solid black"">","","","","","","","",""
"","1067.6749999984168","sequential-stimulus-presentation-old","43","266854","0.0-15.0-1.1","SS1619740212383","trial","","40","500","1567.6749999984168","images/stimuli/spore_stims/complex_17_A_a.gif","images/stimuli/spore_stims/complex_04_A_b.gif","self_paced","","3","complex_dissimilar","images/stimuli/spore_stims/complex_17_A_a.gif","","","","",""
"","null","html-keyboard-response","44","268065","0.0-15.0-0.2","SS1619740212383","","","null","","","","","","<p><img src= images/blank.png width =""600"" height = ""600"" style=""position:fixed;top:50%; left:50%; transform: translate(-50%, -50%); border:5px solid black"">","","","","","","","",""
"","12.869999976828694","sequential-stimulus-presentation-old","45","268582","0.0-15.0-1.2","SS1619740212383","trial","","40","500","512.8699999768287","images/stimuli/spore_stims/complex_17_A_a.gif","images/stimuli/spore_stims/complex_04_A_b.gif","self_paced","","3","complex_dissimilar","images/stimuli/spore_stims/complex_04_A_b.gif","","","","",""
"","null","html-keyboard-response","46","269827","0.0-15.0-0.3","SS1619740212383","","","null","","","","","","<p><img src= images/blank.png width =""600"" height = ""600"" style=""position:fixed;top:50%; left:50%; transform: translate(-50%, -50%); border:5px solid black"">","","","","","","","",""
"","892.1400000108406","sequential-stimulus-presentation-old","47","271222","0.0-15.0-1.3","SS1619740212383","trial","","40","500","1392.1400000108406","images/stimuli/spore_stims/complex_17_A_a.gif","images/stimuli/spore_stims/complex_04_A_b.gif","self_paced","","3","complex_dissimilar","images/stimuli/spore_stims/complex_04_A_b.gif","","","","",""
"","null","html-keyboard-response","48","272414","0.0-15.0-0.4","SS1619740212383","","","null","","","","","","<p><img src= images/blank.png width =""600"" height = ""600"" style=""position:fixed;top:50%; left:50%; transform: translate(-50%, -50%); border:5px solid black"">","","","","","","","",""
"","479.97500002384186","sequential-stimulus-presentation-old","49","273398","0.0-15.0-1.4","SS1619740212383","trial","","40","500","979.9750000238419","images/stimuli/spore_stims/complex_17_A_a.gif","images/stimuli/spore_stims/complex_04_A_b.gif","self_paced","","3","complex_dissimilar","images/stimuli/spore_stims/complex_04_A_b.gif","","","","",""
"","null","html-keyboard-response","50","274567","0.0-15.0-0.5","SS1619740212383","","","null","","","","","","<p><img src= images/blank.png width =""600"" height = ""600"" style=""position:fixed;top:50%; left:50%; transform: translate(-50%, -50%); border:5px solid black"">","","","","","","","",""
"","120.1050000381656","sequential-stimulus-presentation-old","51","275190","0.0-15.0-1.5","SS1619740212383","trial","","40","500","620.1050000381656","images/stimuli/spore_stims/complex_17_A_a.gif","images/stimuli/spore_stims/complex_04_A_b.gif","self_paced","","3","complex_dissimilar","images/stimuli/spore_stims/complex_04_A_b.gif","","","","",""
"","2559.869999997318","survey-multi-choice","52","277752","0.0-16.0","SS1619740212383","math_question","","","","","","","","","","","","{""Q0"":""7""}","[0]","7","",""
"","null","html-keyboard-response","53","278719","0.0-17.0-0.0","SS1619740212383","","","null","","","","","","<p><img src= images/blank.png width =""600"" height = ""600"" style=""position:fixed;top:50%; left:50%; transform: translate(-50%, -50%); border:5px solid black"">","","","","","","","",""
"","2544.1350000328384","sequential-stimulus-presentation-old","54","281767","0.0-17.0-1.0","SS1619740212383","trial","","40","500","3044.1350000328384","images/stimuli/spore_stims/complex_01_A_a.gif","images/stimuli/spore_stims/complex_11_A_b.gif","self_paced","","4","complex_dissimilar","images/stimuli/spore_stims/complex_11_A_b.gif","","","","",""
"","null","html-keyboard-response","55","283068","0.0-17.0-0.1","SS1619740212383","","","null","","","","","","<p><img src= images/blank.png width =""600"" height = ""600"" style=""position:fixed;top:50%; left:50%; transform: translate(-50%, -50%); border:5px solid black"">","","","","","","","",""
"","818.169999984093","sequential-stimulus-presentation-old","56","284390","0.0-17.0-1.1","SS1619740212383","trial","","40","500","1318.169999984093","images/stimuli/spore_stims/complex_01_A_a.gif","images/stimuli/spore_stims/complex_11_A_b.gif","self_paced","","4","complex_dissimilar","images/stimuli/spore_stims/complex_01_A_a.gif","","","","",""
"","null","html-keyboard-response","57","285533","0.0-17.0-0.2","SS1619740212383","","","null","","","","","","<p><img src= images/blank.png width =""600"" height = ""600"" style=""position:fixed;top:50%; left:50%; transform: translate(-50%, -50%); border:5px solid black"">","","","","","","","",""
"","914.2049999791197","sequential-stimulus-presentation-old","58","286951","0.0-17.0-1.2","SS1619740212383","trial","","40","500","1414.2049999791197","images/stimuli/spore_stims/complex_01_A_a.gif","images/stimuli/spore_stims/complex_11_A_b.gif","self_paced","","4","complex_dissimilar","images/stimuli/spore_stims/complex_11_A_b.gif","","","","",""
"","null","html-keyboard-response","59","288177","0.0-17.0-0.3","SS1619740212383","","","null","","","","","","<p><img src= images/blank.png width =""600"" height = ""600"" style=""position:fixed;top:50%; left:50%; transform: translate(-50%, -50%); border:5px solid black"">","","","","","","","",""
"","477.1799999871291","sequential-stimulus-presentation-old","60","289158","0.0-17.0-1.3","SS1619740212383","trial","","40","500","977.1799999871291","images/stimuli/spore_stims/complex_01_A_a.gif","images/stimuli/spore_stims/complex_11_A_b.gif","self_paced","","4","complex_dissimilar","images/stimuli/spore_stims/complex_11_A_b.gif","","","","",""
"","5233.85000001872","survey-multi-choice","61","294394","0.0-18.0","SS1619740212383","math_question","","","","","","","","","","","","{""Q0"":""15""}","[0]","15","",""
"","null","html-keyboard-response","62","295441","0.0-19.0-0.0","SS1619740212383","","","null","","","","","","<p><img src= images/blank.png width =""600"" height = ""600"" style=""position:fixed;top:50%; left:50%; transform: translate(-50%, -50%); border:5px solid black"">","","","","","","","",""
"","553.9649999700487","sequential-stimulus-presentation-old","63","310999","0.0-19.0-1.0","SS1619740212383","trial","","40","500","1053.9649999700487","images/stimuli/spore_stims/complex_19_A_a.gif","images/stimuli/spore_stims/complex_10_A_b.gif","forced_long","","5","complex_dissimilar","images/stimuli/spore_stims/complex_10_A_b.gif","","","","",""
"","null","html-keyboard-response","64","312279","0.0-19.0-0.1","SS1619740212383","","","null","","","","","","<p><img src= images/blank.png width =""600"" height = ""600"" style=""position:fixed;top:50%; left:50%; transform: translate(-50%, -50%); border:5px solid black"">","","","","","","","",""
"","230.94000003766268","sequential-stimulus-presentation-old","65","313015","0.0-19.0-1.1","SS1619740212383","trial","","40","500","730.9400000376627","images/stimuli/spore_stims/complex_19_A_a.gif","images/stimuli/spore_stims/complex_10_A_b.gif","forced_long","","5","complex_dissimilar","images/stimuli/spore_stims/complex_19_A_a.gif","","","","",""
"","null","html-keyboard-response","66","314017","0.0-19.0-0.2","SS1619740212383","","","null","","","","","","<p><img src= images/blank.png width =""600"" height = ""600"" style=""position:fixed;top:50%; left:50%; transform: translate(-50%, -50%); border:5px solid black"">","","","","","","","",""
"","492.95500002335757","sequential-stimulus-presentation-old","67","315015","0.0-19.0-1.2","SS1619740212383","trial","","40","500","992.9550000233576","images/stimuli/spore_stims/complex_19_A_a.gif","images/stimuli/spore_stims/complex_10_A_b.gif","forced_long","","5","complex_dissimilar","images/stimuli/spore_stims/complex_10_A_b.gif","","","","",""
"","null","html-keyboard-response","68","316025","0.0-19.0-0.3","SS1619740212383","","","null","","","","","","<p><img src= images/blank.png width =""600"" height = ""600"" style=""position:fixed;top:50%; left:50%; transform: translate(-50%, -50%); border:5px solid black"">","","","","","","","",""
"","517.1599999885075","sequential-stimulus-presentation-old","69","317047","0.0-19.0-1.3","SS1619740212383","trial","","40","500","1017.1599999885075","images/stimuli/spore_stims/complex_19_A_a.gif","images/stimuli/spore_stims/complex_10_A_b.gif","forced_long","","5","complex_dissimilar","images/stimuli/spore_stims/complex_10_A_b.gif","","","","",""
"","null","html-keyboard-response","70","318197","0.0-19.0-0.4","SS1619740212383","","","null","","","","","","<p><img src= images/blank.png width =""600"" height = ""600"" style=""position:fixed;top:50%; left:50%; transform: translate(-50%, -50%); border:5px solid black"">","","","","","","","",""
"","9.640000003855675","sequential-stimulus-presentation-old","71","318711","0.0-19.0-1.4","SS1619740212383","trial","","40","500","509.6400000038557","images/stimuli/spore_stims/complex_19_A_a.gif","images/stimuli/spore_stims/complex_10_A_b.gif","forced_long","","5","complex_dissimilar","images/stimuli/spore_stims/complex_10_A_b.gif","","","","",""
"","2648.7750000087544","survey-multi-choice","72","321362","0.0-20.0","SS1619740212383","math_question","","","","","","","","","","","","{""Q0"":""8""}","[0]","8","",""
"","null","html-keyboard-response","73","322425","0.0-21.0-0.0","SS1619740212383","","","null","","","","","","<p><img src= images/blank.png width =""600"" height = ""600"" style=""position:fixed;top:50%; left:50%; transform: translate(-50%, -50%); border:5px solid black"">","","","","","","","",""
"","915.2400000020862","sequential-stimulus-presentation-old","74","338344","0.0-21.0-1.0","SS1619740212383","trial","","40","500","1415.2400000020862","images/stimuli/spore_stims/simple_07_A_a.gif","images/stimuli/spore_stims/simple_01_A_b.gif","forced_long","","6","simple_dissimilar","images/stimuli/spore_stims/simple_01_A_b.gif","","","","",""
"","null","html-keyboard-response","75","339372","0.0-21.0-0.1","SS1619740212383","","","null","","","","","","<p><img src= images/blank.png width =""600"" height = ""600"" style=""position:fixed;top:50%; left:50%; transform: translate(-50%, -50%); border:5px solid black"">","","","","","","","",""
"","252.06999998772517","sequential-stimulus-presentation-old","76","340151","0.0-21.0-1.1","SS1619740212383","trial","","40","500","752.0699999877252","images/stimuli/spore_stims/simple_07_A_a.gif","images/stimuli/spore_stims/simple_01_A_b.gif","forced_long","","6","simple_dissimilar","images/stimuli/spore_stims/simple_01_A_b.gif","","","","",""
"","null","html-keyboard-response","77","341116","0.0-21.0-0.2","SS1619740212383","","","null","","","","","","<p><img src= images/blank.png width =""600"" height = ""600"" style=""position:fixed;top:50%; left:50%; transform: translate(-50%, -50%); border:5px solid black"">","","","","","","","",""
"","319.1499999957159","sequential-stimulus-presentation-old","78","341943","0.0-21.0-1.2","SS1619740212383","trial","","40","500","819.1499999957159","images/stimuli/spore_stims/simple_07_A_a.gif","images/stimuli/spore_stims/simple_01_A_b.gif","forced_long","","6","simple_dissimilar","images/stimuli/spore_stims/simple_01_A_b.gif","","","","",""
"","null","html-keyboard-response","79","342962","0.0-21.0-0.3","SS1619740212383","","","null","","","","","","<p><img src= images/blank.png width =""600"" height = ""600"" style=""position:fixed;top:50%; left:50%; transform: translate(-50%, -50%); border:5px solid black"">","","","","","","","",""
"","919.4900000002235","sequential-stimulus-presentation-old","80","344408","0.0-21.0-1.3","SS1619740212383","trial","","40","500","1419.4900000002235","images/stimuli/spore_stims/simple_07_A_a.gif","images/stimuli/spore_stims/simple_01_A_b.gif","forced_long","","6","simple_dissimilar","images/stimuli/spore_stims/simple_01_A_b.gif","","","","",""
"","null","html-keyboard-response","81","345653","0.0-21.0-0.4","SS1619740212383","","","null","","","","","","<p><img src= images/blank.png width =""600"" height = ""600"" style=""position:fixed;top:50%; left:50%; transform: translate(-50%, -50%); border:5px solid black"">","","","","","","","",""
"","130.69500005804002","sequential-stimulus-presentation-old","82","346295","0.0-21.0-1.4","SS1619740212383","trial","","40","500","630.69500005804","images/stimuli/spore_stims/simple_07_A_a.gif","images/stimuli/spore_stims/simple_01_A_b.gif","forced_long","","6","simple_dissimilar","images/stimuli/spore_stims/simple_01_A_b.gif","","","","",""
"","null","html-keyboard-response","83","347567","0.0-21.0-0.5","SS1619740212383","","","null","","","","","","<p><img src= images/blank.png width =""600"" height = ""600"" style=""position:fixed;top:50%; left:50%; transform: translate(-50%, -50%); border:5px solid black"">","","","","","","","",""
"","735.564999980852","sequential-stimulus-presentation-old","84","348807","0.0-21.0-1.5","SS1619740212383","trial","","40","500","1235.564999980852","images/stimuli/spore_stims/simple_07_A_a.gif","images/stimuli/spore_stims/simple_01_A_b.gif","forced_long","","6","simple_dissimilar","images/stimuli/spore_stims/simple_07_A_a.gif","","","","",""
"","2655.9049999923445","survey-multi-choice","85","351466","0.0-22.0","SS1619740212383","math_question","","","","","","","","","","","","{""Q0"":""4""}","[0]","4","",""
"","null","html-keyboard-response","86","352615","0.0-23.0-0.0","SS1619740212383","","","null","","","","","","<p><img src= images/blank.png width =""600"" height = ""600"" style=""position:fixed;top:50%; left:50%; transform: translate(-50%, -50%); border:5px solid black"">","","","","","","","",""
"","1302.9950000345707","sequential-stimulus-presentation-old","87","354423","0.0-23.0-1.0","SS1619740212383","trial","","40","500","1802.9950000345707","images/stimuli/spore_stims/simple_18_A_b.gif","images/stimuli/spore_stims/simple_06_A_a.gif","forced_short","","7","simple_dissimilar","images/stimuli/spore_stims/simple_06_A_a.gif","","","","",""
"","null","html-keyboard-response","88","355413","0.0-23.0-0.1","SS1619740212383","","","null","","","","","","<p><img src= images/blank.png width =""600"" height = ""600"" style=""position:fixed;top:50%; left:50%; transform: translate(-50%, -50%); border:5px solid black"">","","","","","","","",""
"","105.88500002631918","sequential-stimulus-presentation-old","89","356023","0.0-23.0-1.1","SS1619740212383","trial","","40","500","605.8850000263192","images/stimuli/spore_stims/simple_18_A_b.gif","images/stimuli/spore_stims/simple_06_A_a.gif","forced_short","","7","simple_dissimilar","images/stimuli/spore_stims/simple_06_A_a.gif","","","","",""
"","null","html-keyboard-response","90","356995","0.0-23.0-0.2","SS1619740212383","","","null","","","","","","<p><img src= images/blank.png width =""600"" height = ""600"" style=""position:fixed;top:50%; left:50%; transform: translate(-50%, -50%); border:5px solid black"">","","","","","","","",""
"","122.98499996541068","sequential-stimulus-presentation-old","91","357623","0.0-23.0-1.2","SS1619740212383","trial","","40","500","622.9849999654107","images/stimuli/spore_stims/simple_18_A_b.gif","images/stimuli/spore_stims/simple_06_A_a.gif","forced_short","","7","simple_dissimilar","images/stimuli/spore_stims/simple_06_A_a.gif","","","","",""
"","null","html-keyboard-response","92","358907","0.0-23.0-0.3","SS1619740212383","","","null","","","","","","<p><img src= images/blank.png width =""600"" height = ""600"" style=""position:fixed;top:50%; left:50%; transform: translate(-50%, -50%); border:5px solid black"">","","","","","","","",""
"","19.864999980200082","sequential-stimulus-presentation-old","93","359431","0.0-23.0-1.3","SS1619740212383","trial","","40","500","519.8649999802001","images/stimuli/spore_stims/simple_18_A_b.gif","images/stimuli/spore_stims/simple_06_A_a.gif","forced_short","","7","simple_dissimilar","images/stimuli/spore_stims/simple_06_A_a.gif","","","","",""
"","null","html-keyboard-response","94","360374","0.0-23.0-0.4","SS1619740212383","","","null","","","","","","<p><img src= images/blank.png width =""600"" height = ""600"" style=""position:fixed;top:50%; left:50%; transform: translate(-50%, -50%); border:5px solid black"">","","","","","","","",""
"","726.8700000131503","sequential-stimulus-presentation-old","95","361607","0.0-23.0-1.4","SS1619740212383","trial","","40","500","1226.8700000131503","images/stimuli/spore_stims/simple_18_A_b.gif","images/stimuli/spore_stims/simple_06_A_a.gif","forced_short","","7","simple_dissimilar","images/stimuli/spore_stims/simple_06_A_a.gif","","","","",""
"","2684.110000031069","survey-multi-choice","96","364294","0.0-24.0","SS1619740212383","math_question","","","","","","","","","","","","{""Q0"":""8""}","[0]","8","",""
"","null","html-keyboard-response","97","365372","0.0-25.0-0.0","SS1619740212383","","","null","","","","","","<p><img src= images/blank.png width =""600"" height = ""600"" style=""position:fixed;top:50%; left:50%; transform: translate(-50%, -50%); border:5px solid black"">","","","","","","","",""
"","1218.0000000516884","sequential-stimulus-presentation-old","98","367094","0.0-25.0-1.0","SS1619740212383","trial","","40","500","1718.0000000516884","images/stimuli/spore_stims/simple_04_A_b.gif","images/stimuli/spore_stims/simple_16_A_a.gif","self_paced","","8","simple_dissimilar","images/stimuli/spore_stims/simple_16_A_a.gif","","","","",""
"","null","html-keyboard-response","99","368055","0.0-25.0-0.1","SS1619740212383","","","null","","","","","","<p><img src= images/blank.png width =""600"" height = ""600"" style=""position:fixed;top:50%; left:50%; transform: translate(-50%, -50%); border:5px solid black"">","","","","","","","",""
"","278.9500000071712","sequential-stimulus-presentation-old","100","368838","0.0-25.0-1.1","SS1619740212383","trial","","40","500","778.9500000071712","images/stimuli/spore_stims/simple_04_A_b.gif","images/stimuli/spore_stims/simple_16_A_a.gif","self_paced","","8","simple_dissimilar","images/stimuli/spore_stims/simple_16_A_a.gif","","","","",""
"","null","html-keyboard-response","101","369814","0.0-25.0-0.2","SS1619740212383","","","null","","","","","","<p><img src= images/blank.png width =""600"" height = ""600"" style=""position:fixed;top:50%; left:50%; transform: translate(-50%, -50%); border:5px solid black"">","","","","","","","",""
"","984.2000000062399","sequential-stimulus-presentation-old","102","371303","0.0-25.0-1.2","SS1619740212383","trial","","40","500","1484.2000000062399","images/stimuli/spore_stims/simple_04_A_b.gif","images/stimuli/spore_stims/simple_16_A_a.gif","self_paced","","8","simple_dissimilar","images/stimuli/spore_stims/simple_16_A_a.gif","","","","",""
"","null","html-keyboard-response","103","372277","0.0-25.0-0.3","SS1619740212383","","","null","","","","","","<p><img src= images/blank.png width =""600"" height = ""600"" style=""position:fixed;top:50%; left:50%; transform: translate(-50%, -50%); border:5px solid black"">","","","","","","","",""
"","377.98000004841015","sequential-stimulus-presentation-old","104","373159","0.0-25.0-1.3","SS1619740212383","trial","","40","500","877.9800000484101","images/stimuli/spore_stims/simple_04_A_b.gif","images/stimuli/spore_stims/simple_16_A_a.gif","self_paced","","8","simple_dissimilar","images/stimuli/spore_stims/simple_04_A_b.gif","","","","",""
"","null","html-keyboard-response","105","374395","0.0-25.0-0.4","SS1619740212383","","","null","","","","","","<p><img src= images/blank.png width =""600"" height = ""600"" style=""position:fixed;top:50%; left:50%; transform: translate(-50%, -50%); border:5px solid black"">","","","","","","","",""
"","178.30999998841435","sequential-stimulus-presentation-old","106","375078","0.0-25.0-1.4","SS1619740212383","trial","","40","500","678.3099999884143","images/stimuli/spore_stims/simple_04_A_b.gif","images/stimuli/spore_stims/simple_16_A_a.gif","self_paced","","8","simple_dissimilar","images/stimuli/spore_stims/simple_16_A_a.gif","","","","",""
"","null","html-keyboard-response","107","376140","0.0-25.0-0.5","SS1619740212383","","","null","","","","","","<p><img src= images/blank.png width =""600"" height = ""600"" style=""position:fixed;top:50%; left:50%; transform: translate(-50%, -50%); border:5px solid black"">","","","","","","","",""
"","2161.7499999701977","sequential-stimulus-presentation-old","108","378806","0.0-25.0-1.5","SS1619740212383","trial","","40","500","2661.7499999701977","images/stimuli/spore_stims/simple_04_A_b.gif","images/stimuli/spore_stims/simple_16_A_a.gif","self_paced","","8","simple_dissimilar","images/stimuli/spore_stims/simple_04_A_b.gif","","","","",""
"","3970.260000030976","survey-multi-choice","109","382780","0.0-26.0","SS1619740212383","math_question","","","","","","","","","","","","{""Q0"":""14""}","[0]","14","",""
"","null","html-keyboard-response","110","383863","0.0-27.0-0.0","SS1619740212383","","","null","","","","","","<p><img src= images/blank.png width =""600"" height = ""600"" style=""position:fixed;top:50%; left:50%; transform: translate(-50%, -50%); border:5px solid black"">","","","","","","","",""
"","770.7400000072084","sequential-stimulus-presentation-old","111","399639","0.0-27.0-1.0","SS1619740212383","trial","","40","500","1270.7400000072084","images/stimuli/spore_stims/simple_09_A_b.gif","images/stimuli/spore_stims/simple_04_A_a.gif","forced_long","","9","simple_dissimilar","images/stimuli/spore_stims/simple_04_A_a.gif","","","","",""
"","null","html-keyboard-response","112","400706","0.0-27.0-0.1","SS1619740212383","","","null","","","","","","<p><img src= images/blank.png width =""600"" height = ""600"" style=""position:fixed;top:50%; left:50%; transform: translate(-50%, -50%); border:5px solid black"">","","","","","","","",""
"","3243.925000017043","sequential-stimulus-presentation-old","113","404455","0.0-27.0-1.1","SS1619740212383","trial","","40","500","3743.925000017043","images/stimuli/spore_stims/simple_09_A_b.gif","images/stimuli/spore_stims/simple_04_A_a.gif","forced_long","","9","simple_dissimilar","images/stimuli/spore_stims/simple_04_A_a.gif","","","","",""
"","null","html-keyboard-response","114","405468","0.0-27.0-0.2","SS1619740212383","","","null","","","","","","<p><img src= images/blank.png width =""600"" height = ""600"" style=""position:fixed;top:50%; left:50%; transform: translate(-50%, -50%); border:5px solid black"">","","","","","","","",""
"","2386.2549999612384","sequential-stimulus-presentation-old","115","408359","0.0-27.0-1.2","SS1619740212383","trial","","40","500","2886.2549999612384","images/stimuli/spore_stims/simple_09_A_b.gif","images/stimuli/spore_stims/simple_04_A_a.gif","forced_long","","9","simple_dissimilar","images/stimuli/spore_stims/simple_04_A_a.gif","","","","",""
"","null","html-keyboard-response","116","409212","0.0-27.0-0.3","SS1619740212383","","","null","","","","","","<p><img src= images/blank.png width =""600"" height = ""600"" style=""position:fixed;top:50%; left:50%; transform: translate(-50%, -50%); border:5px solid black"">","","","","","","","",""
"","225.8550000260584","sequential-stimulus-presentation-old","117","409943","0.0-27.0-1.3","SS1619740212383","trial","","40","500","725.8550000260584","images/stimuli/spore_stims/simple_09_A_b.gif","images/stimuli/spore_stims/simple_04_A_a.gif","forced_long","","9","simple_dissimilar","images/stimuli/spore_stims/simple_04_A_a.gif","","","","",""
"","null","html-keyboard-response","118","410986","0.0-27.0-0.4","SS1619740212383","","","null","","","","","","<p><img src= images/blank.png width =""600"" height = ""600"" style=""position:fixed;top:50%; left:50%; transform: translate(-50%, -50%); border:5px solid black"">","","","","","","","",""
"","260.59999997960404","sequential-stimulus-presentation-old","119","411751","0.0-27.0-1.4","SS1619740212383","trial","","40","500","760.599999979604","images/stimuli/spore_stims/simple_09_A_b.gif","images/stimuli/spore_stims/simple_04_A_a.gif","forced_long","","9","simple_dissimilar","images/stimuli/spore_stims/simple_04_A_a.gif","","","","",""
"","8478.17000001669","survey-multi-choice","120","420231","0.0-28.0","SS1619740212383","math_question","","","","","","","","","","","","{""Q0"":""15""}","[0]","15","",""
"","null","html-keyboard-response","121","421172","0.0-29.0-0.0","SS1619740212383","","","null","","","","","","<p><img src= images/blank.png width =""600"" height = ""600"" style=""position:fixed;top:50%; left:50%; transform: translate(-50%, -50%); border:5px solid black"">","","","","","","","",""
"","2773.5049999901094","sequential-stimulus-presentation-old","122","424455","0.0-29.0-1.0","SS1619740212383","trial","","40","500","3273.5049999901094","images/stimuli/spore_stims/simple_16_A_b.gif","images/stimuli/spore_stims/simple_05_A_a.gif","self_paced","","10","simple_dissimilar","images/stimuli/spore_stims/simple_05_A_a.gif","","","","",""
"","null","html-keyboard-response","123","425597","0.0-29.0-0.1","SS1619740212383","","","null","","","","","","<p><img src= images/blank.png width =""600"" height = ""600"" style=""position:fixed;top:50%; left:50%; transform: translate(-50%, -50%); border:5px solid black"">","","","","","","","",""
"","495.08999998215586","sequential-stimulus-presentation-old","124","426600","0.0-29.0-1.1","SS1619740212383","trial","","40","500","995.0899999821559","images/stimuli/spore_stims/simple_16_A_b.gif","images/stimuli/spore_stims/simple_05_A_a.gif","self_paced","","10","simple_dissimilar","images/stimuli/spore_stims/simple_05_A_a.gif","","","","",""
"","null","html-keyboard-response","125","427417","0.0-29.0-0.2","SS1619740212383","","","null","","","","","","<p><img src= images/blank.png width =""600"" height = ""600"" style=""position:fixed;top:50%; left:50%; transform: translate(-50%, -50%); border:5px solid black"">","","","","","","","",""
"","579.6599999885075","sequential-stimulus-presentation-old","126","428503","0.0-29.0-1.2","SS1619740212383","trial","","40","500","1079.6599999885075","images/stimuli/spore_stims/simple_16_A_b.gif","images/stimuli/spore_stims/simple_05_A_a.gif","self_paced","","10","simple_dissimilar","images/stimuli/spore_stims/simple_05_A_a.gif","","","","",""
"","null","html-keyboard-response","127","429633","0.0-29.0-0.3","SS1619740212383","","","null","","","","","","<p><img src= images/blank.png width =""600"" height = ""600"" style=""position:fixed;top:50%; left:50%; transform: translate(-50%, -50%); border:5px solid black"">","","","","","","","",""
"","268.48500000778586","sequential-stimulus-presentation-old","128","430408","0.0-29.0-1.3","SS1619740212383","trial","","40","500","768.4850000077859","images/stimuli/spore_stims/simple_16_A_b.gif","images/stimuli/spore_stims/simple_05_A_a.gif","self_paced","","10","simple_dissimilar","images/stimuli/spore_stims/simple_05_A_a.gif","","","","",""
"","null","html-keyboard-response","129","431357","0.0-29.0-0.4","SS1619740212383","","","null","","","","","","<p><img src= images/blank.png width =""600"" height = ""600"" style=""position:fixed;top:50%; left:50%; transform: translate(-50%, -50%); border:5px solid black"">","","","","","","","",""
"","111.34999996284023","sequential-stimulus-presentation-old","130","431976","0.0-29.0-1.4","SS1619740212383","trial","","40","500","611.3499999628402","images/stimuli/spore_stims/simple_16_A_b.gif","images/stimuli/spore_stims/simple_05_A_a.gif","self_paced","","10","simple_dissimilar","images/stimuli/spore_stims/simple_05_A_a.gif","","","","",""
"","5646.844999981113","survey-multi-choice","131","437628","0.0-30.0","SS1619740212383","math_question","","","","","","","","","","","","{""Q0"":""12""}","[0]","12","",""
"","null","html-keyboard-response","132","438548","0.0-31.0-0.0","SS1619740212383","","","null","","","","","","<p><img src= images/blank.png width =""600"" height = ""600"" style=""position:fixed;top:50%; left:50%; transform: translate(-50%, -50%); border:5px solid black"">","","","","","","","",""
"","4324.630000046454","sequential-stimulus-presentation-old","133","458616","0.0-31.0-1.0","SS1619740212383","trial","","40","500","4824.630000046454","images/stimuli/spore_stims/complex_10_A_a.gif","images/stimuli/spore_stims/complex_17_A_b.gif","forced_long","","11","complex_dissimilar","images/stimuli/spore_stims/complex_17_A_b.gif","","","","",""
"","null","html-keyboard-response","134","459589","0.0-31.0-0.1","SS1619740212383","","","null","","","","","","<p><img src= images/blank.png width =""600"" height = ""600"" style=""position:fixed;top:50%; left:50%; transform: translate(-50%, -50%); border:5px solid black"">","","","","","","","",""
"","342.92500000447035","sequential-stimulus-presentation-old","135","460440","0.0-31.0-1.1","SS1619740212383","trial","","40","500","842.9250000044703","images/stimuli/spore_stims/complex_10_A_a.gif","images/stimuli/spore_stims/complex_17_A_b.gif","forced_long","","11","complex_dissimilar","images/stimuli/spore_stims/complex_17_A_b.gif","","","","",""
"","null","html-keyboard-response","136","461495","0.0-31.0-0.2","SS1619740212383","","","null","","","","","","<p><img src= images/blank.png width =""600"" height = ""600"" style=""position:fixed;top:50%; left:50%; transform: translate(-50%, -50%); border:5px solid black"">","","","","","","","",""
"","469.26499996334314","sequential-stimulus-presentation-old","137","462472","0.0-31.0-1.2","SS1619740212383","trial","","40","500","969.2649999633431","images/stimuli/spore_stims/complex_10_A_a.gif","images/stimuli/spore_stims/complex_17_A_b.gif","forced_long","","11","complex_dissimilar","images/stimuli/spore_stims/complex_17_A_b.gif","","","","",""
"","null","html-keyboard-response","138","463331","0.0-31.0-0.3","SS1619740212383","","","null","","","","","","<p><img src= images/blank.png width =""600"" height = ""600"" style=""position:fixed;top:50%; left:50%; transform: translate(-50%, -50%); border:5px solid black"">","","","","","","","",""
"","552.9550000210293","sequential-stimulus-presentation-old","139","464391","0.0-31.0-1.3","SS1619740212383","trial","","40","500","1052.9550000210293","images/stimuli/spore_stims/complex_10_A_a.gif","images/stimuli/spore_stims/complex_17_A_b.gif","forced_long","","11","complex_dissimilar","images/stimuli/spore_stims/complex_17_A_b.gif","","","","",""
"","null","html-keyboard-response","140","465676","0.0-31.0-0.4","SS1619740212383","","","null","","","","","","<p><img src= images/blank.png width =""600"" height = ""600"" style=""position:fixed;top:50%; left:50%; transform: translate(-50%, -50%); border:5px solid black"">","","","","","","","",""
"","112.51000000629574","sequential-stimulus-presentation-old","141","466296","0.0-31.0-1.4","SS1619740212383","trial","","40","500","612.5100000062957","images/stimuli/spore_stims/complex_10_A_a.gif","images/stimuli/spore_stims/complex_17_A_b.gif","forced_long","","11","complex_dissimilar","images/stimuli/spore_stims/complex_17_A_b.gif","","","","",""
"","null","html-keyboard-response","142","467253","0.0-31.0-0.5","SS1619740212383","","","null","","","","","","<p><img src= images/blank.png width =""600"" height = ""600"" style=""position:fixed;top:50%; left:50%; transform: translate(-50%, -50%); border:5px solid black"">","","","","","","","",""
"","630.0650000339374","sequential-stimulus-presentation-old","143","468391","0.0-31.0-1.5","SS1619740212383","trial","","40","500","1130.0650000339374","images/stimuli/spore_stims/complex_10_A_a.gif","images/stimuli/spore_stims/complex_17_A_b.gif","forced_long","","11","complex_dissimilar","images/stimuli/spore_stims/complex_10_A_a.gif","","","","",""
"[{""page_index"":0,""viewing_time"":2561.05999997817}]","2561.344999994617","instructions","144","470958","0.0-32.0","SS1619740212383","instructions","","","","","","","","","","","","","","","",""
"","6795.619999989867","survey-likert","145","477758","0.0-33.0","SS1619740212383","similarity_question","","","","","","","","","","","","{""Q0"":6}","[0]","","images/stimuli/spore_stims/simple_13_A_b.gif","images/stimuli/spore_stims/simple_01_A_a.gif"
"","5787.994999962393","survey-likert","146","483554","0.0-34.0","SS1619740212383","similarity_question","","","","","","","","","","","","{""Q0"":1}","[0]","","images/stimuli/spore_stims/complex_20_A_b.gif","images/stimuli/spore_stims/complex_09_A_a.gif"
"","2977.2050000028685","survey-likert","147","486540","0.0-35.0","SS1619740212383","similarity_question","","","","","","","","","","","","{""Q0"":0}","[0]","","images/stimuli/spore_stims/complex_10_A_a.gif","images/stimuli/spore_stims/complex_17_A_b.gif"
"","3483.9199999696575","survey-likert","148","490032","0.0-36.0","SS1619740212383","similarity_question","","","","","","","","","","","","{""Q0"":1}","[0]","","images/stimuli/spore_stims/simple_16_A_b.gif","images/stimuli/spore_stims/simple_05_A_a.gif"
"","2390.300000028219","survey-likert","149","492431","0.0-37.0","SS1619740212383","similarity_question","","","","","","","","","","","","{""Q0"":1}","[0]","","images/stimuli/spore_stims/simple_04_A_b.gif","images/stimuli/spore_stims/simple_16_A_a.gif"
"","5659.349999972619","survey-likert","150","498097","0.0-38.0","SS1619740212383","similarity_question","","","","","","","","","","","","{""Q0"":1}","[0]","","images/stimuli/spore_stims/simple_06_A_a.gif","images/stimuli/spore_stims/simple_18_A_b.gif"
"","3514.759999990929","survey-likert","151","501620","0.0-39.0","SS1619740212383","similarity_question","","","","","","","","","","","","{""Q0"":2}","[0]","","images/stimuli/spore_stims/complex_11_A_b.gif","images/stimuli/spore_stims/complex_01_A_a.gif"
"","5358.554999984335","survey-likert","152","506986","0.0-40.0","SS1619740212383","similarity_question","","","","","","","","","","","","{""Q0"":2}","[0]","","images/stimuli/spore_stims/simple_01_A_b.gif","images/stimuli/spore_stims/simple_07_A_a.gif"
"","3586.4650000003166","survey-likert","153","510581","0.0-41.0","SS1619740212383","similarity_question","","","","","","","","","","","","{""Q0"":2}","[0]","","images/stimuli/spore_stims/simple_09_A_b.gif","images/stimuli/spore_stims/simple_04_A_a.gif"
"","3352.2749999538064","survey-likert","154","513941","0.0-42.0","SS1619740212383","similarity_question","","","","","","","","","","","","{""Q0"":4}","[0]","","images/stimuli/spore_stims/complex_10_A_b.gif","images/stimuli/spore_stims/complex_19_A_a.gif"
"","3474.4449999998324","survey-likert","155","517423","0.0-43.0","SS1619740212383","similarity_question","","","","","","","","","","","","{""Q0"":2}","[0]","","images/stimuli/spore_stims/complex_20_A_a.gif","images/stimuli/spore_stims/complex_12_A_b.gif"
"","3212.5700000324287","survey-likert","156","520645","0.0-44.0","SS1619740212383","similarity_question","","","","","","","","","","","","{""Q0"":2}","[0]","","images/stimuli/spore_stims/complex_04_A_b.gif","images/stimuli/spore_stims/complex_17_A_a.gif"
"[{""page_index"":0,""viewing_time"":1067.3149999929592}]","1067.589999991469","instructions","157","521720","0.0-45.0","SS1619740212383","instructions","","","","","","","","","","","","","","","",""
"","2745.9099999978207","survey-likert","158","524470","0.0-46.0","SS1619740212383","","","","","","","","","images/stimuli/spore_stims/simple_13_A_b.gif","","","","{""Q0"":0}","[0]","","",""
"","1485.6749999453314","survey-likert","159","525965","0.0-47.0","SS1619740212383","","","","","","","","","images/stimuli/spore_stims/simple_04_A_b.gif","","","","{""Q0"":0}","[0]","","",""
"","3410.5649999692105","survey-likert","160","529384","0.0-48.0","SS1619740212383","","","","","","","","","images/stimuli/spore_stims/complex_11_A_b.gif","","","","{""Q0"":5}","[0]","","",""
"","2310.3600000031292","survey-likert","161","531703","0.0-49.0","SS1619740212383","","","","","","","","","images/stimuli/spore_stims/complex_09_A_a.gif","","","","{""Q0"":5}","[0]","","",""
"","2225.1650000107475","survey-likert","162","533936","0.0-50.0","SS1619740212383","","","","","","","","","images/stimuli/spore_stims/simple_06_A_a.gif","","","","{""Q0"":0}","[0]","","",""
"","4264.8099999642","survey-likert","163","538209","0.0-51.0","SS1619740212383","","","","","","","","","images/stimuli/spore_stims/complex_17_A_a.gif","","","","{""Q0"":5}","[0]","","",""
"","2163.9750000322238","survey-likert","164","540381","0.0-52.0","SS1619740212383","","","","","","","","","images/stimuli/spore_stims/complex_19_A_a.gif","","","","{""Q0"":6}","[0]","","",""
"","2499.5449999696575","survey-likert","165","542889","0.0-53.0","SS1619740212383","","","","","","","","","images/stimuli/spore_stims/simple_07_A_a.gif","","","","{""Q0"":0}","[0]","","",""
"","2583.169999998063","survey-likert","166","545479","0.0-54.0","SS1619740212383","","","","","","","","","images/stimuli/spore_stims/complex_17_A_b.gif","","","","{""Q0"":4}","[0]","","",""
"","2015.5549999908544","survey-likert","167","547502","0.0-55.0","SS1619740212383","","","","","","","","","images/stimuli/spore_stims/simple_09_A_b.gif","","","","{""Q0"":0}","[0]","","",""
"","5003.335000015795","survey-likert","168","552514","0.0-56.0","SS1619740212383","","","","","","","","","images/stimuli/spore_stims/complex_20_A_a.gif","","","","{""Q0"":5}","[0]","","",""
"","2707.4399999692105","survey-likert","169","555230","0.0-57.0","SS1619740212383","","","","","","","","","images/stimuli/spore_stims/simple_16_A_b.gif","","","","{""Q0"":0}","[0]","","",""
"[{""page_index"":0,""viewing_time"":1132.9550000373274}]","1133.2249999977648","instructions","170","556369","0.0-58.0","SS1619740212383","instructions","","","","","","","","","","","","","","","",""
"","2334.419999970123","demog-age","171","558714","0.0-59.0","SS1619740212383","","","","","","","","","","","","","{""age"":""18""}","","","",""
"","6872.679999971297","demog-ethnic-US","172","565596","0.0-60.0","SS1619740212383","","","","","","","","","","","","","{""ethnicity"":[""Hispanic or Latino"",""White""]}","[0]","","",""
"","14456.575000018347","demog-gender-and-education","173","580061","0.0-61.0","SS1619740212383","","","","","","","","","","","","","{""gender"":""Male"",""education"":""Doctorate/Professional degree""}","[0,1]","","",""
"","18325.82500000717","survey-text","174","598411","0.0-62.0","SS1619740212383","feedback","","","","","","","","","","","","{""Q0"":""The animation was flawless, no lag whatsoever""}","","","",""
"[{""page_index"":0,""viewing_time"":4795.105000026524}]","4795.535000041127","instructions","175","603210","0.0-63.0","SS1619740212383","instructions","","","","","","","","","","","","","","","",""
