"view_history","rt","trial_type","trial_index","time_elapsed","internal_node_id","subject","stimulus_type","trial_stimulus","key_press","minimum_viewing_duration","trial_looking_time","block_deviant","block_background","exposure_type","stimulus","block_number","block_type","stimulus_displayed","responses","question_order","math_correct_answer"
"[{""page_index"":0,""viewing_time"":3455.34499999485}]","3455.6049999955576","instructions","0","3459","0.0-0.0","SS1619739595845","","","","","","","","","","","","","","",""
"[{""page_index"":0,""viewing_time"":9458.844999986468},{""page_index"":1,""viewing_time"":4424.159999995027}]","13883.289999997942","instructions","1","19345","0.0-1.0","SS1619739595845","instructions","","","","","","","","","","","","","",""
"","6455.61999999336","sequential-stimulus-presentation-old","2","26308","0.0-2.0","SS1619739595845","","","40","500","6955.61999999336","null","null","self_paced","","","","","","",""
"","4023.4999999811407","sequential-stimulus-presentation-old","3","30835","0.0-3.0","SS1619739595845","","","40","500","4523.499999981141","null","null","self_paced","","","","","","",""
"[{""page_index"":0,""viewing_time"":11812.680000002729}]","11813.02499998128","instructions","4","42649","0.0-4.0","SS1619739595845","instructions","","","","","","","","","","","","","",""
"","849.8499999986961","sequential-stimulus-presentation-old","5","58507","0.0-5.0","SS1619739595845","","","40","500","1349.8499999986961","null","null","forced_long","","","","","","",""
"","576.485000026878","sequential-stimulus-presentation-old","6","59594","0.0-6.0","SS1619739595845","","","40","500","1076.485000026878","null","null","forced_long","","","","","","",""
"[{""page_index"":0,""viewing_time"":1973.5700000019278}]","1973.839999991469","instructions","7","61568","0.0-7.0","SS1619739595845","instructions","","","","","","","","","","","","","",""
"[{""page_index"":0,""viewing_time"":2986.8549999955576},{""page_index"":1,""viewing_time"":4900.104999978794},{""page_index"":2,""viewing_time"":1545.8000000216998},{""page_index"":3,""viewing_time"":3950.2299999876413},{""page_index"":4,""viewing_time"":919.8749999923166}]","14303.129999985686","instructions","8","75873","0.0-8.0","SS1619739595845","instructions","","","","","","","","","","","","","",""
"","null","html-keyboard-response","9","76700","0.0-9.0-0.0","SS1619739595845","","","null","","","","","","<p><img src= images/blank.png width =""600"" height = ""600"" style=""position:fixed;top:50%; left:50%; transform: translate(-50%, -50%); border:5px solid black"">","","","","","",""
"","409.8200000007637","sequential-stimulus-presentation-old","10","77619","0.0-9.0-1.0","SS1619739595845","trial","","40","500","909.8200000007637","images/stimuli/spore_stims/simple_13_A_b.gif","images/stimuli/spore_stims/simple_16_A_a.gif","forced_short","","0","simple_dissimilar","images/stimuli/spore_stims/simple_16_A_a.gif","","",""
"","null","html-keyboard-response","11","78850","0.0-9.0-0.1","SS1619739595845","","","null","","","","","","<p><img src= images/blank.png width =""600"" height = ""600"" style=""position:fixed;top:50%; left:50%; transform: translate(-50%, -50%); border:5px solid black"">","","","","","",""
"","467.42999998969026","sequential-stimulus-presentation-old","12","79828","0.0-9.0-1.1","SS1619739595845","trial","","40","500","967.4299999896903","images/stimuli/spore_stims/simple_13_A_b.gif","images/stimuli/spore_stims/simple_16_A_a.gif","forced_short","","0","simple_dissimilar","images/stimuli/spore_stims/simple_16_A_a.gif","","",""
"","null","html-keyboard-response","13","80801","0.0-9.0-0.2","SS1619739595845","","","null","","","","","","<p><img src= images/blank.png width =""600"" height = ""600"" style=""position:fixed;top:50%; left:50%; transform: translate(-50%, -50%); border:5px solid black"">","","","","","",""
"","535.7150000054389","sequential-stimulus-presentation-old","14","81844","0.0-9.0-1.2","SS1619739595845","trial","","40","500","1035.715000005439","images/stimuli/spore_stims/simple_13_A_b.gif","images/stimuli/spore_stims/simple_16_A_a.gif","forced_short","","0","simple_dissimilar","images/stimuli/spore_stims/simple_16_A_a.gif","","",""
"","null","html-keyboard-response","15","82735","0.0-9.0-0.3","SS1619739595845","","","null","","","","","","<p><img src= images/blank.png width =""600"" height = ""600"" style=""position:fixed;top:50%; left:50%; transform: translate(-50%, -50%); border:5px solid black"">","","","","","",""
"","602.790000004461","sequential-stimulus-presentation-old","16","83846","0.0-9.0-1.3","SS1619739595845","trial","","40","500","1102.790000004461","images/stimuli/spore_stims/simple_13_A_b.gif","images/stimuli/spore_stims/simple_16_A_a.gif","forced_short","","0","simple_dissimilar","images/stimuli/spore_stims/simple_16_A_a.gif","","",""
"","null","html-keyboard-response","17","84904","0.0-9.0-0.4","SS1619739595845","","","null","","","","","","<p><img src= images/blank.png width =""600"" height = ""600"" style=""position:fixed;top:50%; left:50%; transform: translate(-50%, -50%); border:5px solid black"">","","","","","",""
"","1766.4999999979045","sequential-stimulus-presentation-old","18","87174","0.0-9.0-1.4","SS1619739595845","trial","","40","500","2266.4999999979045","images/stimuli/spore_stims/simple_13_A_b.gif","images/stimuli/spore_stims/simple_16_A_a.gif","forced_short","","0","simple_dissimilar","images/stimuli/spore_stims/simple_16_A_a.gif","","",""
"","null","html-keyboard-response","19","88014","0.0-9.0-0.5","SS1619739595845","","","null","","","","","","<p><img src= images/blank.png width =""600"" height = ""600"" style=""position:fixed;top:50%; left:50%; transform: translate(-50%, -50%); border:5px solid black"">","","","","","",""
"","1922.2400000144262","sequential-stimulus-presentation-old","20","90442","0.0-9.0-1.5","SS1619739595845","trial","","40","500","2422.240000014426","images/stimuli/spore_stims/simple_13_A_b.gif","images/stimuli/spore_stims/simple_16_A_a.gif","forced_short","","0","simple_dissimilar","images/stimuli/spore_stims/simple_13_A_b.gif","","",""
"","2672.9300000006333","survey-multi-choice","21","93120","0.0-10.0","SS1619739595845","math_question","","","","","","","","","","","","{""Q0"":""5""}","[0]","5"
"","null","html-keyboard-response","22","94142","0.0-11.0-0.0","SS1619739595845","","","null","","","","","","<p><img src= images/blank.png width =""600"" height = ""600"" style=""position:fixed;top:50%; left:50%; transform: translate(-50%, -50%); border:5px solid black"">","","","","","",""
"","2570.7149999798276","sequential-stimulus-presentation-old","23","97217","0.0-11.0-1.0","SS1619739595845","trial","","40","500","3070.7149999798276","images/stimuli/spore_stims/complex_20_A_b.gif","images/stimuli/spore_stims/complex_04_A_a.gif","forced_short","","1","complex_dissimilar","images/stimuli/spore_stims/complex_04_A_a.gif","","",""
"","null","html-keyboard-response","24","98146","0.0-11.0-0.1","SS1619739595845","","","null","","","","","","<p><img src= images/blank.png width =""600"" height = ""600"" style=""position:fixed;top:50%; left:50%; transform: translate(-50%, -50%); border:5px solid black"">","","","","","",""
"","1860.6549999967683","sequential-stimulus-presentation-old","25","100518","0.0-11.0-1.1","SS1619739595845","trial","","40","500","2360.6549999967683","images/stimuli/spore_stims/complex_20_A_b.gif","images/stimuli/spore_stims/complex_04_A_a.gif","forced_short","","1","complex_dissimilar","images/stimuli/spore_stims/complex_04_A_a.gif","","",""
"","null","html-keyboard-response","26","101347","0.0-11.0-0.2","SS1619739595845","","","null","","","","","","<p><img src= images/blank.png width =""600"" height = ""600"" style=""position:fixed;top:50%; left:50%; transform: translate(-50%, -50%); border:5px solid black"">","","","","","",""
"","937.0000000053551","sequential-stimulus-presentation-old","27","102791","0.0-11.0-1.2","SS1619739595845","trial","","40","500","1437.000000005355","images/stimuli/spore_stims/complex_20_A_b.gif","images/stimuli/spore_stims/complex_04_A_a.gif","forced_short","","1","complex_dissimilar","images/stimuli/spore_stims/complex_04_A_a.gif","","",""
"","null","html-keyboard-response","28","103780","0.0-11.0-0.3","SS1619739595845","","","null","","","","","","<p><img src= images/blank.png width =""600"" height = ""600"" style=""position:fixed;top:50%; left:50%; transform: translate(-50%, -50%); border:5px solid black"">","","","","","",""
"","21.799999987706542","sequential-stimulus-presentation-old","29","104311","0.0-11.0-1.3","SS1619739595845","trial","","40","500","521.7999999877065","images/stimuli/spore_stims/complex_20_A_b.gif","images/stimuli/spore_stims/complex_04_A_a.gif","forced_short","","1","complex_dissimilar","images/stimuli/spore_stims/complex_04_A_a.gif","","",""
"","9557.125000021188","survey-multi-choice","30","113870","0.0-12.0","SS1619739595845","math_question","","","","","","","","","","","","{""Q0"":""13""}","[0]","13"
"","null","html-keyboard-response","31","114717","0.0-13.0-0.0","SS1619739595845","","","null","","","","","","<p><img src= images/blank.png width =""600"" height = ""600"" style=""position:fixed;top:50%; left:50%; transform: translate(-50%, -50%); border:5px solid black"">","","","","","",""
"","1870.1899999869056","sequential-stimulus-presentation-old","32","117097","0.0-13.0-1.0","SS1619739595845","trial","","40","500","2370.1899999869056","images/stimuli/spore_stims/complex_10_A_a.gif","images/stimuli/spore_stims/complex_01_A_b.gif","forced_short","","2","complex_dissimilar","images/stimuli/spore_stims/complex_01_A_b.gif","","",""
"","null","html-keyboard-response","33","118319","0.0-13.0-0.1","SS1619739595845","","","null","","","","","","<p><img src= images/blank.png width =""600"" height = ""600"" style=""position:fixed;top:50%; left:50%; transform: translate(-50%, -50%); border:5px solid black"">","","","","","",""
"","2139.1050000092946","sequential-stimulus-presentation-old","34","120971","0.0-13.0-1.1","SS1619739595845","trial","","40","500","2639.1050000092946","images/stimuli/spore_stims/complex_10_A_a.gif","images/stimuli/spore_stims/complex_01_A_b.gif","forced_short","","2","complex_dissimilar","images/stimuli/spore_stims/complex_01_A_b.gif","","",""
"","null","html-keyboard-response","35","122094","0.0-13.0-0.2","SS1619739595845","","","null","","","","","","<p><img src= images/blank.png width =""600"" height = ""600"" style=""position:fixed;top:50%; left:50%; transform: translate(-50%, -50%); border:5px solid black"">","","","","","",""
"","674.8200000147335","sequential-stimulus-presentation-old","36","123281","0.0-13.0-1.2","SS1619739595845","trial","","40","500","1174.8200000147335","images/stimuli/spore_stims/complex_10_A_a.gif","images/stimuli/spore_stims/complex_01_A_b.gif","forced_short","","2","complex_dissimilar","images/stimuli/spore_stims/complex_10_A_a.gif","","",""
"","null","html-keyboard-response","37","124397","0.0-13.0-0.3","SS1619739595845","","","null","","","","","","<p><img src= images/blank.png width =""600"" height = ""600"" style=""position:fixed;top:50%; left:50%; transform: translate(-50%, -50%); border:5px solid black"">","","","","","",""
"","2328.769999992801","sequential-stimulus-presentation-old","38","127230","0.0-13.0-1.3","SS1619739595845","trial","","40","500","2828.769999992801","images/stimuli/spore_stims/complex_10_A_a.gif","images/stimuli/spore_stims/complex_01_A_b.gif","forced_short","","2","complex_dissimilar","images/stimuli/spore_stims/complex_01_A_b.gif","","",""
"","null","html-keyboard-response","39","128159","0.0-13.0-0.4","SS1619739595845","","","null","","","","","","<p><img src= images/blank.png width =""600"" height = ""600"" style=""position:fixed;top:50%; left:50%; transform: translate(-50%, -50%); border:5px solid black"">","","","","","",""
"","996.6149999818299","sequential-stimulus-presentation-old","40","129661","0.0-13.0-1.4","SS1619739595845","trial","","40","500","1496.61499998183","images/stimuli/spore_stims/complex_10_A_a.gif","images/stimuli/spore_stims/complex_01_A_b.gif","forced_short","","2","complex_dissimilar","images/stimuli/spore_stims/complex_01_A_b.gif","","",""
"","null","html-keyboard-response","41","130516","0.0-13.0-0.5","SS1619739595845","","","null","","","","","","<p><img src= images/blank.png width =""600"" height = ""600"" style=""position:fixed;top:50%; left:50%; transform: translate(-50%, -50%); border:5px solid black"">","","","","","",""
"","523.2250000117347","sequential-stimulus-presentation-old","42","131552","0.0-13.0-1.5","SS1619739595845","trial","","40","500","1023.2250000117347","images/stimuli/spore_stims/complex_10_A_a.gif","images/stimuli/spore_stims/complex_01_A_b.gif","forced_short","","2","complex_dissimilar","images/stimuli/spore_stims/complex_10_A_a.gif","","",""
"","3135.535000008531","survey-multi-choice","43","134694","0.0-14.0","SS1619739595845","math_question","","","","","","","","","","","","{""Q0"":""10""}","[0]","10"
"","null","html-keyboard-response","44","135862","0.0-15.0-0.0","SS1619739595845","","","null","","","","","","<p><img src= images/blank.png width =""600"" height = ""600"" style=""position:fixed;top:50%; left:50%; transform: translate(-50%, -50%); border:5px solid black"">","","","","","",""
"","871.3549999811221","sequential-stimulus-presentation-old","45","137240","0.0-15.0-1.0","SS1619739595845","trial","","40","500","1371.354999981122","images/stimuli/spore_stims/simple_04_A_a.gif","images/stimuli/spore_stims/simple_05_A_b.gif","self_paced","","3","simple_dissimilar","images/stimuli/spore_stims/simple_05_A_b.gif","","",""
"","null","html-keyboard-response","46","138529","0.0-15.0-0.1","SS1619739595845","","","null","","","","","","<p><img src= images/blank.png width =""600"" height = ""600"" style=""position:fixed;top:50%; left:50%; transform: translate(-50%, -50%); border:5px solid black"">","","","","","",""
"","2254.2799999937415","sequential-stimulus-presentation-old","47","141292","0.0-15.0-1.1","SS1619739595845","trial","","40","500","2754.2799999937415","images/stimuli/spore_stims/simple_04_A_a.gif","images/stimuli/spore_stims/simple_05_A_b.gif","self_paced","","3","simple_dissimilar","images/stimuli/spore_stims/simple_05_A_b.gif","","",""
"","null","html-keyboard-response","48","142578","0.0-15.0-0.2","SS1619739595845","","","null","","","","","","<p><img src= images/blank.png width =""600"" height = ""600"" style=""position:fixed;top:50%; left:50%; transform: translate(-50%, -50%); border:5px solid black"">","","","","","",""
"","537.2849999985192","sequential-stimulus-presentation-old","49","143621","0.0-15.0-1.2","SS1619739595845","trial","","40","500","1037.2849999985192","images/stimuli/spore_stims/simple_04_A_a.gif","images/stimuli/spore_stims/simple_05_A_b.gif","self_paced","","3","simple_dissimilar","images/stimuli/spore_stims/simple_05_A_b.gif","","",""
"","null","html-keyboard-response","50","144776","0.0-15.0-0.3","SS1619739595845","","","null","","","","","","<p><img src= images/blank.png width =""600"" height = ""600"" style=""position:fixed;top:50%; left:50%; transform: translate(-50%, -50%); border:5px solid black"">","","","","","",""
"","1945.3349999967031","sequential-stimulus-presentation-old","51","147232","0.0-15.0-1.3","SS1619739595845","trial","","40","500","2445.334999996703","images/stimuli/spore_stims/simple_04_A_a.gif","images/stimuli/spore_stims/simple_05_A_b.gif","self_paced","","3","simple_dissimilar","images/stimuli/spore_stims/simple_04_A_a.gif","","",""
"","null","html-keyboard-response","52","148224","0.0-15.0-0.4","SS1619739595845","","","null","","","","","","<p><img src= images/blank.png width =""600"" height = ""600"" style=""position:fixed;top:50%; left:50%; transform: translate(-50%, -50%); border:5px solid black"">","","","","","",""
"","266.31500001531094","sequential-stimulus-presentation-old","53","149000","0.0-15.0-1.4","SS1619739595845","trial","","40","500","766.3150000153109","images/stimuli/spore_stims/simple_04_A_a.gif","images/stimuli/spore_stims/simple_05_A_b.gif","self_paced","","3","simple_dissimilar","images/stimuli/spore_stims/simple_05_A_b.gif","","",""
"","null","html-keyboard-response","54","149962","0.0-15.0-0.5","SS1619739595845","","","null","","","","","","<p><img src= images/blank.png width =""600"" height = ""600"" style=""position:fixed;top:50%; left:50%; transform: translate(-50%, -50%); border:5px solid black"">","","","","","",""
"","587.1550000156276","sequential-stimulus-presentation-old","55","151060","0.0-15.0-1.5","SS1619739595845","trial","","40","500","1087.1550000156276","images/stimuli/spore_stims/simple_04_A_a.gif","images/stimuli/spore_stims/simple_05_A_b.gif","self_paced","","3","simple_dissimilar","images/stimuli/spore_stims/simple_04_A_a.gif","","",""
"","3306.5049999859184","survey-multi-choice","56","154368","0.0-16.0","SS1619739595845","math_question","","","","","","","","","","","","{""Q0"":""9""}","[0]","9"
"","null","html-keyboard-response","57","155616","0.0-17.0-0.0","SS1619739595845","","","null","","","","","","<p><img src= images/blank.png width =""600"" height = ""600"" style=""position:fixed;top:50%; left:50%; transform: translate(-50%, -50%); border:5px solid black"">","","","","","",""
"","22.594999987632036","sequential-stimulus-presentation-old","58","156155","0.0-17.0-1.0","SS1619739595845","trial","","40","500","522.594999987632","images/stimuli/spore_stims/complex_19_A_b.gif","images/stimuli/spore_stims/complex_01_A_a.gif","self_paced","","4","complex_dissimilar","images/stimuli/spore_stims/complex_01_A_a.gif","","",""
"","null","html-keyboard-response","59","157295","0.0-17.0-0.1","SS1619739595845","","","null","","","","","","<p><img src= images/blank.png width =""600"" height = ""600"" style=""position:fixed;top:50%; left:50%; transform: translate(-50%, -50%); border:5px solid black"">","","","","","",""
"","437.7749999985099","sequential-stimulus-presentation-old","60","158245","0.0-17.0-1.1","SS1619739595845","trial","","40","500","937.7749999985099","images/stimuli/spore_stims/complex_19_A_b.gif","images/stimuli/spore_stims/complex_01_A_a.gif","self_paced","","4","complex_dissimilar","images/stimuli/spore_stims/complex_01_A_a.gif","","",""
"","null","html-keyboard-response","61","159390","0.0-17.0-0.2","SS1619739595845","","","null","","","","","","<p><img src= images/blank.png width =""600"" height = ""600"" style=""position:fixed;top:50%; left:50%; transform: translate(-50%, -50%); border:5px solid black"">","","","","","",""
"","838.3749999920838","sequential-stimulus-presentation-old","62","160739","0.0-17.0-1.2","SS1619739595845","trial","","40","500","1338.3749999920838","images/stimuli/spore_stims/complex_19_A_b.gif","images/stimuli/spore_stims/complex_01_A_a.gif","self_paced","","4","complex_dissimilar","images/stimuli/spore_stims/complex_19_A_b.gif","","",""
"","null","html-keyboard-response","63","161560","0.0-17.0-0.3","SS1619739595845","","","null","","","","","","<p><img src= images/blank.png width =""600"" height = ""600"" style=""position:fixed;top:50%; left:50%; transform: translate(-50%, -50%); border:5px solid black"">","","","","","",""
"","1194.2800000251736","sequential-stimulus-presentation-old","64","163268","0.0-17.0-1.3","SS1619739595845","trial","","40","500","1694.2800000251736","images/stimuli/spore_stims/complex_19_A_b.gif","images/stimuli/spore_stims/complex_01_A_a.gif","self_paced","","4","complex_dissimilar","images/stimuli/spore_stims/complex_01_A_a.gif","","",""
"","null","html-keyboard-response","65","164200","0.0-17.0-0.4","SS1619739595845","","","null","","","","","","<p><img src= images/blank.png width =""600"" height = ""600"" style=""position:fixed;top:50%; left:50%; transform: translate(-50%, -50%); border:5px solid black"">","","","","","",""
"","914.5900000003166","sequential-stimulus-presentation-old","66","165627","0.0-17.0-1.4","SS1619739595845","trial","","40","500","1414.5900000003166","images/stimuli/spore_stims/complex_19_A_b.gif","images/stimuli/spore_stims/complex_01_A_a.gif","self_paced","","4","complex_dissimilar","images/stimuli/spore_stims/complex_19_A_b.gif","","",""
"","2193.77500002156","survey-multi-choice","67","167824","0.0-18.0","SS1619739595845","math_question","","","","","","","","","","","","{""Q0"":""10""}","[0]","10"
"","null","html-keyboard-response","68","168696","0.0-19.0-0.0","SS1619739595845","","","null","","","","","","<p><img src= images/blank.png width =""600"" height = ""600"" style=""position:fixed;top:50%; left:50%; transform: translate(-50%, -50%); border:5px solid black"">","","","","","",""
"","515.2200000011362","sequential-stimulus-presentation-old","69","169717","0.0-19.0-1.0","SS1619739595845","trial","","40","500","1015.2200000011362","images/stimuli/spore_stims/complex_17_A_b.gif","images/stimuli/spore_stims/complex_14_A_a.gif","self_paced","","5","complex_dissimilar","images/stimuli/spore_stims/complex_14_A_a.gif","","",""
"","null","html-keyboard-response","70","170987","0.0-19.0-0.1","SS1619739595845","","","null","","","","","","<p><img src= images/blank.png width =""600"" height = ""600"" style=""position:fixed;top:50%; left:50%; transform: translate(-50%, -50%); border:5px solid black"">","","","","","",""
"","122.52499998430721","sequential-stimulus-presentation-old","71","171620","0.0-19.0-1.1","SS1619739595845","trial","","40","500","622.5249999843072","images/stimuli/spore_stims/complex_17_A_b.gif","images/stimuli/spore_stims/complex_14_A_a.gif","self_paced","","5","complex_dissimilar","images/stimuli/spore_stims/complex_14_A_a.gif","","",""
"","null","html-keyboard-response","72","172601","0.0-19.0-0.2","SS1619739595845","","","null","","","","","","<p><img src= images/blank.png width =""600"" height = ""600"" style=""position:fixed;top:50%; left:50%; transform: translate(-50%, -50%); border:5px solid black"">","","","","","",""
"","224.21500002383254","sequential-stimulus-presentation-old","73","173338","0.0-19.0-1.2","SS1619739595845","trial","","40","500","724.2150000238325","images/stimuli/spore_stims/complex_17_A_b.gif","images/stimuli/spore_stims/complex_14_A_a.gif","self_paced","","5","complex_dissimilar","images/stimuli/spore_stims/complex_17_A_b.gif","","",""
"","null","html-keyboard-response","74","174467","0.0-19.0-0.3","SS1619739595845","","","null","","","","","","<p><img src= images/blank.png width =""600"" height = ""600"" style=""position:fixed;top:50%; left:50%; transform: translate(-50%, -50%); border:5px solid black"">","","","","","",""
"","61.535000015283","sequential-stimulus-presentation-old","75","175040","0.0-19.0-1.3","SS1619739595845","trial","","40","500","561.535000015283","images/stimuli/spore_stims/complex_17_A_b.gif","images/stimuli/spore_stims/complex_14_A_a.gif","self_paced","","5","complex_dissimilar","images/stimuli/spore_stims/complex_14_A_a.gif","","",""
"","null","html-keyboard-response","76","176141","0.0-19.0-0.4","SS1619739595845","","","null","","","","","","<p><img src= images/blank.png width =""600"" height = ""600"" style=""position:fixed;top:50%; left:50%; transform: translate(-50%, -50%); border:5px solid black"">","","","","","",""
"","102.3599999898579","sequential-stimulus-presentation-old","77","176758","0.0-19.0-1.4","SS1619739595845","trial","","40","500","602.3599999898579","images/stimuli/spore_stims/complex_17_A_b.gif","images/stimuli/spore_stims/complex_14_A_a.gif","self_paced","","5","complex_dissimilar","images/stimuli/spore_stims/complex_14_A_a.gif","","",""
"","null","html-keyboard-response","78","177975","0.0-19.0-0.5","SS1619739595845","","","null","","","","","","<p><img src= images/blank.png width =""600"" height = ""600"" style=""position:fixed;top:50%; left:50%; transform: translate(-50%, -50%); border:5px solid black"">","","","","","",""
"","20.020000025397167","sequential-stimulus-presentation-old","79","178507","0.0-19.0-1.5","SS1619739595845","trial","","40","500","520.0200000253972","images/stimuli/spore_stims/complex_17_A_b.gif","images/stimuli/spore_stims/complex_14_A_a.gif","self_paced","","5","complex_dissimilar","images/stimuli/spore_stims/complex_14_A_a.gif","","",""
"","2517.309999995632","survey-multi-choice","80","181032","0.0-20.0","SS1619739595845","math_question","","","","","","","","","","","","{""Q0"":""4""}","[0]","4"
"","null","html-keyboard-response","81","181940","0.0-21.0-0.0","SS1619739595845","","","null","","","","","","<p><img src= images/blank.png width =""600"" height = ""600"" style=""position:fixed;top:50%; left:50%; transform: translate(-50%, -50%); border:5px solid black"">","","","","","",""
"","5.774999997811392","sequential-stimulus-presentation-old","82","182459","0.0-21.0-1.0","SS1619739595845","trial","","40","500","505.7749999978114","images/stimuli/spore_stims/simple_17_A_a.gif","images/stimuli/spore_stims/simple_04_A_b.gif","self_paced","","6","simple_dissimilar","images/stimuli/spore_stims/simple_04_A_b.gif","","",""
"","null","html-keyboard-response","83","183461","0.0-21.0-0.1","SS1619739595845","","","null","","","","","","<p><img src= images/blank.png width =""600"" height = ""600"" style=""position:fixed;top:50%; left:50%; transform: translate(-50%, -50%); border:5px solid black"">","","","","","",""
"","1.7499999958090484","sequential-stimulus-presentation-old","84","183975","0.0-21.0-1.1","SS1619739595845","trial","","40","500","501.74999999580905","images/stimuli/spore_stims/simple_17_A_a.gif","images/stimuli/spore_stims/simple_04_A_b.gif","self_paced","","6","simple_dissimilar","images/stimuli/spore_stims/simple_04_A_b.gif","","",""
"","null","html-keyboard-response","85","184891","0.0-21.0-0.2","SS1619739595845","","","null","","","","","","<p><img src= images/blank.png width =""600"" height = ""600"" style=""position:fixed;top:50%; left:50%; transform: translate(-50%, -50%); border:5px solid black"">","","","","","",""
"","140.01999999163672","sequential-stimulus-presentation-old","86","185544","0.0-21.0-1.2","SS1619739595845","trial","","40","500","640.0199999916367","images/stimuli/spore_stims/simple_17_A_a.gif","images/stimuli/spore_stims/simple_04_A_b.gif","self_paced","","6","simple_dissimilar","images/stimuli/spore_stims/simple_04_A_b.gif","","",""
"","null","html-keyboard-response","87","186631","0.0-21.0-0.3","SS1619739595845","","","null","","","","","","<p><img src= images/blank.png width =""600"" height = ""600"" style=""position:fixed;top:50%; left:50%; transform: translate(-50%, -50%); border:5px solid black"">","","","","","",""
"","54.004999983590096","sequential-stimulus-presentation-old","88","187197","0.0-21.0-1.3","SS1619739595845","trial","","40","500","554.0049999835901","images/stimuli/spore_stims/simple_17_A_a.gif","images/stimuli/spore_stims/simple_04_A_b.gif","self_paced","","6","simple_dissimilar","images/stimuli/spore_stims/simple_04_A_b.gif","","",""
"","null","html-keyboard-response","89","188105","0.0-21.0-0.4","SS1619739595845","","","null","","","","","","<p><img src= images/blank.png width =""600"" height = ""600"" style=""position:fixed;top:50%; left:50%; transform: translate(-50%, -50%); border:5px solid black"">","","","","","",""
"","108.20000001695007","sequential-stimulus-presentation-old","90","188728","0.0-21.0-1.4","SS1619739595845","trial","","40","500","608.2000000169501","images/stimuli/spore_stims/simple_17_A_a.gif","images/stimuli/spore_stims/simple_04_A_b.gif","self_paced","","6","simple_dissimilar","images/stimuli/spore_stims/simple_04_A_b.gif","","",""
"","null","html-keyboard-response","91","189722","0.0-21.0-0.5","SS1619739595845","","","null","","","","","","<p><img src= images/blank.png width =""600"" height = ""600"" style=""position:fixed;top:50%; left:50%; transform: translate(-50%, -50%); border:5px solid black"">","","","","","",""
"","221.59000000101514","sequential-stimulus-presentation-old","92","190456","0.0-21.0-1.5","SS1619739595845","trial","","40","500","721.5900000010151","images/stimuli/spore_stims/simple_17_A_a.gif","images/stimuli/spore_stims/simple_04_A_b.gif","self_paced","","6","simple_dissimilar","images/stimuli/spore_stims/simple_04_A_b.gif","","",""
"","2531.69999999227","survey-multi-choice","93","192992","0.0-22.0","SS1619739595845","math_question","","","","","","","","","","","","{""Q0"":""18""}","[0]","18"
"","null","html-keyboard-response","94","193895","0.0-23.0-0.0","SS1619739595845","","","null","","","","","","<p><img src= images/blank.png width =""600"" height = ""600"" style=""position:fixed;top:50%; left:50%; transform: translate(-50%, -50%); border:5px solid black"">","","","","","",""
"","183.64499998278916","sequential-stimulus-presentation-old","95","209090","0.0-23.0-1.0","SS1619739595845","trial","","40","500","683.6449999827892","images/stimuli/spore_stims/simple_16_A_b.gif","images/stimuli/spore_stims/simple_14_A_a.gif","forced_long","","7","simple_dissimilar","images/stimuli/spore_stims/simple_14_A_a.gif","","",""
"","null","html-keyboard-response","96","210256","0.0-23.0-0.1","SS1619739595845","","","null","","","","","","<p><img src= images/blank.png width =""600"" height = ""600"" style=""position:fixed;top:50%; left:50%; transform: translate(-50%, -50%); border:5px solid black"">","","","","","",""
"","1783.8749999937136","sequential-stimulus-presentation-old","97","212546","0.0-23.0-1.1","SS1619739595845","trial","","40","500","2283.8749999937136","images/stimuli/spore_stims/simple_16_A_b.gif","images/stimuli/spore_stims/simple_14_A_a.gif","forced_long","","7","simple_dissimilar","images/stimuli/spore_stims/simple_14_A_a.gif","","",""
"","null","html-keyboard-response","98","213451","0.0-23.0-0.2","SS1619739595845","","","null","","","","","","<p><img src= images/blank.png width =""600"" height = ""600"" style=""position:fixed;top:50%; left:50%; transform: translate(-50%, -50%); border:5px solid black"">","","","","","",""
"","339.98000001884066","sequential-stimulus-presentation-old","99","214296","0.0-23.0-1.2","SS1619739595845","trial","","40","500","839.9800000188407","images/stimuli/spore_stims/simple_16_A_b.gif","images/stimuli/spore_stims/simple_14_A_a.gif","forced_long","","7","simple_dissimilar","images/stimuli/spore_stims/simple_14_A_a.gif","","",""
"","null","html-keyboard-response","100","215433","0.0-23.0-0.3","SS1619739595845","","","null","","","","","","<p><img src= images/blank.png width =""600"" height = ""600"" style=""position:fixed;top:50%; left:50%; transform: translate(-50%, -50%); border:5px solid black"">","","","","","",""
"","749.7150000126567","sequential-stimulus-presentation-old","101","216687","0.0-23.0-1.3","SS1619739595845","trial","","40","500","1249.7150000126567","images/stimuli/spore_stims/simple_16_A_b.gif","images/stimuli/spore_stims/simple_14_A_a.gif","forced_long","","7","simple_dissimilar","images/stimuli/spore_stims/simple_14_A_a.gif","","",""
"","null","html-keyboard-response","102","217775","0.0-23.0-0.4","SS1619739595845","","","null","","","","","","<p><img src= images/blank.png width =""600"" height = ""600"" style=""position:fixed;top:50%; left:50%; transform: translate(-50%, -50%); border:5px solid black"">","","","","","",""
"","206.9150000170339","sequential-stimulus-presentation-old","103","218488","0.0-23.0-1.4","SS1619739595845","trial","","40","500","706.9150000170339","images/stimuli/spore_stims/simple_16_A_b.gif","images/stimuli/spore_stims/simple_14_A_a.gif","forced_long","","7","simple_dissimilar","images/stimuli/spore_stims/simple_14_A_a.gif","","",""
"","null","html-keyboard-response","104","219468","0.0-23.0-0.5","SS1619739595845","","","null","","","","","","<p><img src= images/blank.png width =""600"" height = ""600"" style=""position:fixed;top:50%; left:50%; transform: translate(-50%, -50%); border:5px solid black"">","","","","","",""
