"view_history","rt","trial_type","trial_index","time_elapsed","internal_node_id","subject","stimulus_type","trial_stimulus","key_press","minimum_viewing_duration","trial_looking_time","block_deviant","block_background","exposure_type","stimulus","block_number","block_type","stimulus_displayed","responses","question_order","math_correct_answer","stimulus_left","stimulus_right"
"[{""page_index"":0,""viewing_time"":6221.595000002708}]","6222.134999996342","instructions","0","6223","0.0-0.0","SS1619740009815","","","","","","","","","","","","","","","","",""
"[{""page_index"":0,""viewing_time"":12007.5549999965},{""page_index"":1,""viewing_time"":7143.900000002759}]","19151.6599999959","instructions","1","27390","0.0-1.0","SS1619740009815","instructions","","","","","","","","","","","","","","","",""
"","7716.005000002042","sequential-stimulus-presentation-old","2","35609","0.0-2.0","SS1619740009815","","","40","500","8216.005000002042","null","null","self_paced","","","","","","","","",""
"","3958.6250000065775","sequential-stimulus-presentation-old","3","40080","0.0-3.0","SS1619740009815","","","40","500","4458.6250000065775","null","null","self_paced","","","","","","","","",""
"[{""page_index"":0,""viewing_time"":37233.28500000207}]","37233.50500000379","instructions","4","77314","0.0-4.0","SS1619740009815","instructions","","","","","","","","","","","","","","","",""
"","1846.494999997958","sequential-stimulus-presentation-old","5","94163","0.0-5.0","SS1619740009815","","","40","500","2346.494999997958","null","null","forced_long","","","","","","","","",""
"","2426.5899999954854","sequential-stimulus-presentation-old","6","97101","0.0-6.0","SS1619740009815","","","40","500","2926.5899999954854","null","null","forced_long","","","","","","","","",""
"[{""page_index"":0,""viewing_time"":13530.330000001413}]","13530.530000003637","instructions","7","110633","0.0-7.0","SS1619740009815","instructions","","","","","","","","","","","","","","","",""
"[{""page_index"":0,""viewing_time"":23050.73000000266},{""page_index"":1,""viewing_time"":15429.329999999027},{""page_index"":2,""viewing_time"":5918.834999996761},{""page_index"":3,""viewing_time"":2548.7750000029337},{""page_index"":4,""viewing_time"":1196.1799999990035}]","48144.22499999637","instructions","8","158778","0.0-8.0","SS1619740009815","instructions","","","","","","","","","","","","","","","",""
"","null","html-keyboard-response","9","160028","0.0-9.0-0.0","SS1619740009815","","","null","","","","","","<p><img src= images/blank.png width =""600"" height = ""600"" style=""position:fixed;top:50%; left:50%; transform: translate(-50%, -50%); border:5px solid black"">","","","","","","","",""
"","1303.6549999960698","sequential-stimulus-presentation-old","10","176344","0.0-9.0-1.0","SS1619740009815","trial","","40","500","1803.6549999960698","images/stimuli/spore_stims/simple_14_A_b.gif","images/stimuli/spore_stims/simple_20_A_a.gif","forced_long","","0","simple_dissimilar","images/stimuli/spore_stims/simple_20_A_a.gif","","","","",""
"","null","html-keyboard-response","11","177239","0.0-9.0-0.1","SS1619740009815","","","null","","","","","","<p><img src= images/blank.png width =""600"" height = ""600"" style=""position:fixed;top:50%; left:50%; transform: translate(-50%, -50%); border:5px solid black"">","","","","","","","",""
"","9577.50500000111","sequential-stimulus-presentation-old","12","187321","0.0-9.0-1.1","SS1619740009815","trial","","40","500","10077.50500000111","images/stimuli/spore_stims/simple_14_A_b.gif","images/stimuli/spore_stims/simple_20_A_a.gif","forced_long","","0","simple_dissimilar","images/stimuli/spore_stims/simple_20_A_a.gif","","","","",""
"","null","html-keyboard-response","13","188204","0.0-9.0-0.2","SS1619740009815","","","null","","","","","","<p><img src= images/blank.png width =""600"" height = ""600"" style=""position:fixed;top:50%; left:50%; transform: translate(-50%, -50%); border:5px solid black"">","","","","","","","",""
"","5331.0399999973015","sequential-stimulus-presentation-old","14","194041","0.0-9.0-1.2","SS1619740009815","trial","","40","500","5831.0399999973015","images/stimuli/spore_stims/simple_14_A_b.gif","images/stimuli/spore_stims/simple_20_A_a.gif","forced_long","","0","simple_dissimilar","images/stimuli/spore_stims/simple_20_A_a.gif","","","","",""
"","null","html-keyboard-response","15","195223","0.0-9.0-0.3","SS1619740009815","","","null","","","","","","<p><img src= images/blank.png width =""600"" height = ""600"" style=""position:fixed;top:50%; left:50%; transform: translate(-50%, -50%); border:5px solid black"">","","","","","","","",""
"","6601.970000003348","sequential-stimulus-presentation-old","16","202329","0.0-9.0-1.3","SS1619740009815","trial","","40","500","7101.970000003348","images/stimuli/spore_stims/simple_14_A_b.gif","images/stimuli/spore_stims/simple_20_A_a.gif","forced_long","","0","simple_dissimilar","images/stimuli/spore_stims/simple_20_A_a.gif","","","","",""
"","null","html-keyboard-response","17","203566","0.0-9.0-0.4","SS1619740009815","","","null","","","","","","<p><img src= images/blank.png width =""600"" height = ""600"" style=""position:fixed;top:50%; left:50%; transform: translate(-50%, -50%); border:5px solid black"">","","","","","","","",""
"","7317.474999996193","sequential-stimulus-presentation-old","18","211389","0.0-9.0-1.4","SS1619740009815","trial","","40","500","7817.474999996193","images/stimuli/spore_stims/simple_14_A_b.gif","images/stimuli/spore_stims/simple_20_A_a.gif","forced_long","","0","simple_dissimilar","images/stimuli/spore_stims/simple_14_A_b.gif","","","","",""
"","null","html-keyboard-response","19","212563","0.0-9.0-0.5","SS1619740009815","","","null","","","","","","<p><img src= images/blank.png width =""600"" height = ""600"" style=""position:fixed;top:50%; left:50%; transform: translate(-50%, -50%); border:5px solid black"">","","","","","","","",""
"","8872.284999997646","sequential-stimulus-presentation-old","20","221938","0.0-9.0-1.5","SS1619740009815","trial","","40","500","9372.284999997646","images/stimuli/spore_stims/simple_14_A_b.gif","images/stimuli/spore_stims/simple_20_A_a.gif","forced_long","","0","simple_dissimilar","images/stimuli/spore_stims/simple_14_A_b.gif","","","","",""
"","8185.674999993353","survey-multi-choice","21","230126","0.0-10.0","SS1619740009815","math_question","","","","","","","","","","","","{""Q0"":""11""}","[0]","11","",""
"","null","html-keyboard-response","22","231337","0.0-11.0-0.0","SS1619740009815","","","null","","","","","","<p><img src= images/blank.png width =""600"" height = ""600"" style=""position:fixed;top:50%; left:50%; transform: translate(-50%, -50%); border:5px solid black"">","","","","","","","",""
"","2660.8950000008917","sequential-stimulus-presentation-old","23","234501","0.0-11.0-1.0","SS1619740009815","trial","","40","500","3160.8950000008917","images/stimuli/spore_stims/simple_08_A_a.gif","images/stimuli/spore_stims/simple_13_A_b.gif","forced_short","","1","simple_dissimilar","images/stimuli/spore_stims/simple_13_A_b.gif","","","","",""
"","null","html-keyboard-response","24","235457","0.0-11.0-0.1","SS1619740009815","","","null","","","","","","<p><img src= images/blank.png width =""600"" height = ""600"" style=""position:fixed;top:50%; left:50%; transform: translate(-50%, -50%); border:5px solid black"">","","","","","","","",""
"","12770.100000001548","sequential-stimulus-presentation-old","25","248731","0.0-11.0-1.1","SS1619740009815","trial","","40","500","13270.100000001548","images/stimuli/spore_stims/simple_08_A_a.gif","images/stimuli/spore_stims/simple_13_A_b.gif","forced_short","","1","simple_dissimilar","images/stimuli/spore_stims/simple_13_A_b.gif","","","","",""
"","null","html-keyboard-response","26","249871","0.0-11.0-0.2","SS1619740009815","","","null","","","","","","<p><img src= images/blank.png width =""600"" height = ""600"" style=""position:fixed;top:50%; left:50%; transform: translate(-50%, -50%); border:5px solid black"">","","","","","","","",""
"","7027.375000005122","sequential-stimulus-presentation-old","27","257401","0.0-11.0-1.2","SS1619740009815","trial","","40","500","7527.375000005122","images/stimuli/spore_stims/simple_08_A_a.gif","images/stimuli/spore_stims/simple_13_A_b.gif","forced_short","","1","simple_dissimilar","images/stimuli/spore_stims/simple_13_A_b.gif","","","","",""
"","null","html-keyboard-response","28","258206","0.0-11.0-0.3","SS1619740009815","","","null","","","","","","<p><img src= images/blank.png width =""600"" height = ""600"" style=""position:fixed;top:50%; left:50%; transform: translate(-50%, -50%); border:5px solid black"">","","","","","","","",""
"","6525.840000002063","sequential-stimulus-presentation-old","29","265235","0.0-11.0-1.3","SS1619740009815","trial","","40","500","7025.840000002063","images/stimuli/spore_stims/simple_08_A_a.gif","images/stimuli/spore_stims/simple_13_A_b.gif","forced_short","","1","simple_dissimilar","images/stimuli/spore_stims/simple_08_A_a.gif","","","","",""
"","null","html-keyboard-response","30","266096","0.0-11.0-0.4","SS1619740009815","","","null","","","","","","<p><img src= images/blank.png width =""600"" height = ""600"" style=""position:fixed;top:50%; left:50%; transform: translate(-50%, -50%); border:5px solid black"">","","","","","","","",""
"","3586.779999997816","sequential-stimulus-presentation-old","31","270186","0.0-11.0-1.4","SS1619740009815","trial","","40","500","4086.779999997816","images/stimuli/spore_stims/simple_08_A_a.gif","images/stimuli/spore_stims/simple_13_A_b.gif","forced_short","","1","simple_dissimilar","images/stimuli/spore_stims/simple_08_A_a.gif","","","","",""
"","7618.69999999908","survey-multi-choice","32","277808","0.0-12.0","SS1619740009815","math_question","","","","","","","","","","","","{""Q0"":""13""}","[0]","13","",""
"","null","html-keyboard-response","33","278996","0.0-13.0-0.0","SS1619740009815","","","null","","","","","","<p><img src= images/blank.png width =""600"" height = ""600"" style=""position:fixed;top:50%; left:50%; transform: translate(-50%, -50%); border:5px solid black"">","","","","","","","",""
"","5422.9749999940395","sequential-stimulus-presentation-old","34","284924","0.0-13.0-1.0","SS1619740009815","trial","","40","500","5922.9749999940395","images/stimuli/spore_stims/complex_01_A_b.gif","images/stimuli/spore_stims/complex_19_A_a.gif","self_paced","","2","complex_dissimilar","images/stimuli/spore_stims/complex_19_A_a.gif","","","","",""
"","null","html-keyboard-response","35","285969","0.0-13.0-0.1","SS1619740009815","","","null","","","","","","<p><img src= images/blank.png width =""600"" height = ""600"" style=""position:fixed;top:50%; left:50%; transform: translate(-50%, -50%); border:5px solid black"">","","","","","","","",""
"","9726.560000002792","sequential-stimulus-presentation-old","36","296200","0.0-13.0-1.1","SS1619740009815","trial","","40","500","10226.560000002792","images/stimuli/spore_stims/complex_01_A_b.gif","images/stimuli/spore_stims/complex_19_A_a.gif","self_paced","","2","complex_dissimilar","images/stimuli/spore_stims/complex_19_A_a.gif","","","","",""
"","null","html-keyboard-response","37","297488","0.0-13.0-0.2","SS1619740009815","","","null","","","","","","<p><img src= images/blank.png width =""600"" height = ""600"" style=""position:fixed;top:50%; left:50%; transform: translate(-50%, -50%); border:5px solid black"">","","","","","","","",""
"","7481.870000003255","sequential-stimulus-presentation-old","38","305474","0.0-13.0-1.2","SS1619740009815","trial","","40","500","7981.870000003255","images/stimuli/spore_stims/complex_01_A_b.gif","images/stimuli/spore_stims/complex_19_A_a.gif","self_paced","","2","complex_dissimilar","images/stimuli/spore_stims/complex_19_A_a.gif","","","","",""
"","null","html-keyboard-response","39","306709","0.0-13.0-0.3","SS1619740009815","","","null","","","","","","<p><img src= images/blank.png width =""600"" height = ""600"" style=""position:fixed;top:50%; left:50%; transform: translate(-50%, -50%); border:5px solid black"">","","","","","","","",""
"","11633.785000005446","sequential-stimulus-presentation-old","40","318846","0.0-13.0-1.3","SS1619740009815","trial","","40","500","12133.785000005446","images/stimuli/spore_stims/complex_01_A_b.gif","images/stimuli/spore_stims/complex_19_A_a.gif","self_paced","","2","complex_dissimilar","images/stimuli/spore_stims/complex_01_A_b.gif","","","","",""
"","null","html-keyboard-response","41","320025","0.0-13.0-0.4","SS1619740009815","","","null","","","","","","<p><img src= images/blank.png width =""600"" height = ""600"" style=""position:fixed;top:50%; left:50%; transform: translate(-50%, -50%); border:5px solid black"">","","","","","","","",""
"","4252.269999997225","sequential-stimulus-presentation-old","42","324787","0.0-13.0-1.4","SS1619740009815","trial","","40","500","4752.269999997225","images/stimuli/spore_stims/complex_01_A_b.gif","images/stimuli/spore_stims/complex_19_A_a.gif","self_paced","","2","complex_dissimilar","images/stimuli/spore_stims/complex_19_A_a.gif","","","","",""
"","3942.219999997178","survey-multi-choice","43","328731","0.0-14.0","SS1619740009815","math_question","","","","","","","","","","","","{""Q0"":""12""}","[0]","12","",""
"","null","html-keyboard-response","44","329649","0.0-15.0-0.0","SS1619740009815","","","null","","","","","","<p><img src= images/blank.png width =""600"" height = ""600"" style=""position:fixed;top:50%; left:50%; transform: translate(-50%, -50%); border:5px solid black"">","","","","","","","",""
"","3647.259999997914","sequential-stimulus-presentation-old","45","333800","0.0-15.0-1.0","SS1619740009815","trial","","40","500","4147.259999997914","images/stimuli/spore_stims/complex_07_A_b.gif","images/stimuli/spore_stims/complex_04_A_a.gif","self_paced","","3","complex_dissimilar","images/stimuli/spore_stims/complex_04_A_a.gif","","","","",""
"","null","html-keyboard-response","46","335069","0.0-15.0-0.1","SS1619740009815","","","null","","","","","","<p><img src= images/blank.png width =""600"" height = ""600"" style=""position:fixed;top:50%; left:50%; transform: translate(-50%, -50%); border:5px solid black"">","","","","","","","",""
"","3519.2650000026333","sequential-stimulus-presentation-old","47","339091","0.0-15.0-1.1","SS1619740009815","trial","","40","500","4019.2650000026333","images/stimuli/spore_stims/complex_07_A_b.gif","images/stimuli/spore_stims/complex_04_A_a.gif","self_paced","","3","complex_dissimilar","images/stimuli/spore_stims/complex_04_A_a.gif","","","","",""
"","null","html-keyboard-response","48","339937","0.0-15.0-0.2","SS1619740009815","","","null","","","","","","<p><img src= images/blank.png width =""600"" height = ""600"" style=""position:fixed;top:50%; left:50%; transform: translate(-50%, -50%); border:5px solid black"">","","","","","","","",""
"","3609.6849999958067","sequential-stimulus-presentation-old","49","344052","0.0-15.0-1.2","SS1619740009815","trial","","40","500","4109.684999995807","images/stimuli/spore_stims/complex_07_A_b.gif","images/stimuli/spore_stims/complex_04_A_a.gif","self_paced","","3","complex_dissimilar","images/stimuli/spore_stims/complex_04_A_a.gif","","","","",""
"","null","html-keyboard-response","50","345231","0.0-15.0-0.3","SS1619740009815","","","null","","","","","","<p><img src= images/blank.png width =""600"" height = ""600"" style=""position:fixed;top:50%; left:50%; transform: translate(-50%, -50%); border:5px solid black"">","","","","","","","",""
"","4097.524999997404","sequential-stimulus-presentation-old","51","349833","0.0-15.0-1.3","SS1619740009815","trial","","40","500","4597.524999997404","images/stimuli/spore_stims/complex_07_A_b.gif","images/stimuli/spore_stims/complex_04_A_a.gif","self_paced","","3","complex_dissimilar","images/stimuli/spore_stims/complex_07_A_b.gif","","","","",""
"","null","html-keyboard-response","52","351022","0.0-15.0-0.4","SS1619740009815","","","null","","","","","","<p><img src= images/blank.png width =""600"" height = ""600"" style=""position:fixed;top:50%; left:50%; transform: translate(-50%, -50%); border:5px solid black"">","","","","","","","",""
"","3305.3100000033737","sequential-stimulus-presentation-old","53","354831","0.0-15.0-1.4","SS1619740009815","trial","","40","500","3805.3100000033737","images/stimuli/spore_stims/complex_07_A_b.gif","images/stimuli/spore_stims/complex_04_A_a.gif","self_paced","","3","complex_dissimilar","images/stimuli/spore_stims/complex_04_A_a.gif","","","","",""
"","3895.5300000015995","survey-multi-choice","54","358729","0.0-16.0","SS1619740009815","math_question","","","","","","","","","","","","{""Q0"":""8""}","[0]","8","",""
"","null","html-keyboard-response","55","359702","0.0-17.0-0.0","SS1619740009815","","","null","","","","","","<p><img src= images/blank.png width =""600"" height = ""600"" style=""position:fixed;top:50%; left:50%; transform: translate(-50%, -50%); border:5px solid black"">","","","","","","","",""
"","1435.7549999986077","sequential-stimulus-presentation-old","56","361642","0.0-17.0-1.0","SS1619740009815","trial","","40","500","1935.7549999986077","images/stimuli/spore_stims/complex_09_A_a.gif","images/stimuli/spore_stims/complex_18_A_b.gif","forced_short","","4","complex_dissimilar","images/stimuli/spore_stims/complex_18_A_b.gif","","","","",""
"","null","html-keyboard-response","57","362598","0.0-17.0-0.1","SS1619740009815","","","null","","","","","","<p><img src= images/blank.png width =""600"" height = ""600"" style=""position:fixed;top:50%; left:50%; transform: translate(-50%, -50%); border:5px solid black"">","","","","","","","",""
"","5711.920000001555","sequential-stimulus-presentation-old","58","368818","0.0-17.0-1.1","SS1619740009815","trial","","40","500","6211.920000001555","images/stimuli/spore_stims/complex_09_A_a.gif","images/stimuli/spore_stims/complex_18_A_b.gif","forced_short","","4","complex_dissimilar","images/stimuli/spore_stims/complex_18_A_b.gif","","","","",""
"","null","html-keyboard-response","59","369648","0.0-17.0-0.2","SS1619740009815","","","null","","","","","","<p><img src= images/blank.png width =""600"" height = ""600"" style=""position:fixed;top:50%; left:50%; transform: translate(-50%, -50%); border:5px solid black"">","","","","","","","",""
"","3564.525000001595","sequential-stimulus-presentation-old","60","373718","0.0-17.0-1.2","SS1619740009815","trial","","40","500","4064.525000001595","images/stimuli/spore_stims/complex_09_A_a.gif","images/stimuli/spore_stims/complex_18_A_b.gif","forced_short","","4","complex_dissimilar","images/stimuli/spore_stims/complex_18_A_b.gif","","","","",""
"","null","html-keyboard-response","61","374625","0.0-17.0-0.3","SS1619740009815","","","null","","","","","","<p><img src= images/blank.png width =""600"" height = ""600"" style=""position:fixed;top:50%; left:50%; transform: translate(-50%, -50%); border:5px solid black"">","","","","","","","",""
"","3224.884999995993","sequential-stimulus-presentation-old","62","378356","0.0-17.0-1.3","SS1619740009815","trial","","40","500","3724.884999995993","images/stimuli/spore_stims/complex_09_A_a.gif","images/stimuli/spore_stims/complex_18_A_b.gif","forced_short","","4","complex_dissimilar","images/stimuli/spore_stims/complex_18_A_b.gif","","","","",""
"","null","html-keyboard-response","63","379208","0.0-17.0-0.4","SS1619740009815","","","null","","","","","","<p><img src= images/blank.png width =""600"" height = ""600"" style=""position:fixed;top:50%; left:50%; transform: translate(-50%, -50%); border:5px solid black"">","","","","","","","",""
"","3216.9450000001234","sequential-stimulus-presentation-old","64","382929","0.0-17.0-1.4","SS1619740009815","trial","","40","500","3716.9450000001234","images/stimuli/spore_stims/complex_09_A_a.gif","images/stimuli/spore_stims/complex_18_A_b.gif","forced_short","","4","complex_dissimilar","images/stimuli/spore_stims/complex_18_A_b.gif","","","","",""
"","null","html-keyboard-response","65","384070","0.0-17.0-0.5","SS1619740009815","","","null","","","","","","<p><img src= images/blank.png width =""600"" height = ""600"" style=""position:fixed;top:50%; left:50%; transform: translate(-50%, -50%); border:5px solid black"">","","","","","","","",""
"","4372.940000001108","sequential-stimulus-presentation-old","66","388948","0.0-17.0-1.5","SS1619740009815","trial","","40","500","4872.940000001108","images/stimuli/spore_stims/complex_09_A_a.gif","images/stimuli/spore_stims/complex_18_A_b.gif","forced_short","","4","complex_dissimilar","images/stimuli/spore_stims/complex_18_A_b.gif","","","","",""
"","3723.5749999963446","survey-multi-choice","67","392673","0.0-18.0","SS1619740009815","math_question","","","","","","","","","","","","{""Q0"":""10""}","[0]","10","",""
"","null","html-keyboard-response","68","393681","0.0-19.0-0.0","SS1619740009815","","","null","","","","","","<p><img src= images/blank.png width =""600"" height = ""600"" style=""position:fixed;top:50%; left:50%; transform: translate(-50%, -50%); border:5px solid black"">","","","","","","","",""
"","3756.999999997788","sequential-stimulus-presentation-old","69","412442","0.0-19.0-1.0","SS1619740009815","trial","","40","500","4256.999999997788","images/stimuli/spore_stims/complex_03_A_b.gif","images/stimuli/spore_stims/complex_06_A_a.gif","forced_long","","5","complex_dissimilar","images/stimuli/spore_stims/complex_06_A_a.gif","","","","",""
"","null","html-keyboard-response","70","413428","0.0-19.0-0.1","SS1619740009815","","","null","","","","","","<p><img src= images/blank.png width =""600"" height = ""600"" style=""position:fixed;top:50%; left:50%; transform: translate(-50%, -50%); border:5px solid black"">","","","","","","","",""
"","4189.854999996896","sequential-stimulus-presentation-old","71","418124","0.0-19.0-1.1","SS1619740009815","trial","","40","500","4689.854999996896","images/stimuli/spore_stims/complex_03_A_b.gif","images/stimuli/spore_stims/complex_06_A_a.gif","forced_long","","5","complex_dissimilar","images/stimuli/spore_stims/complex_06_A_a.gif","","","","",""
"","null","html-keyboard-response","72","419399","0.0-19.0-0.2","SS1619740009815","","","null","","","","","","<p><img src= images/blank.png width =""600"" height = ""600"" style=""position:fixed;top:50%; left:50%; transform: translate(-50%, -50%); border:5px solid black"">","","","","","","","",""
"","3360.694999995758","sequential-stimulus-presentation-old","73","423266","0.0-19.0-1.2","SS1619740009815","trial","","40","500","3860.694999995758","images/stimuli/spore_stims/complex_03_A_b.gif","images/stimuli/spore_stims/complex_06_A_a.gif","forced_long","","5","complex_dissimilar","images/stimuli/spore_stims/complex_06_A_a.gif","","","","",""
"","null","html-keyboard-response","74","424487","0.0-19.0-0.3","SS1619740009815","","","null","","","","","","<p><img src= images/blank.png width =""600"" height = ""600"" style=""position:fixed;top:50%; left:50%; transform: translate(-50%, -50%); border:5px solid black"">","","","","","","","",""
"","3631.215000001248","sequential-stimulus-presentation-old","75","428625","0.0-19.0-1.3","SS1619740009815","trial","","40","500","4131.215000001248","images/stimuli/spore_stims/complex_03_A_b.gif","images/stimuli/spore_stims/complex_06_A_a.gif","forced_long","","5","complex_dissimilar","images/stimuli/spore_stims/complex_06_A_a.gif","","","","",""
"","null","html-keyboard-response","76","429706","0.0-19.0-0.4","SS1619740009815","","","null","","","","","","<p><img src= images/blank.png width =""600"" height = ""600"" style=""position:fixed;top:50%; left:50%; transform: translate(-50%, -50%); border:5px solid black"">","","","","","","","",""
"","3162.5550000026124","sequential-stimulus-presentation-old","77","433373","0.0-19.0-1.4","SS1619740009815","trial","","40","500","3662.5550000026124","images/stimuli/spore_stims/complex_03_A_b.gif","images/stimuli/spore_stims/complex_06_A_a.gif","forced_long","","5","complex_dissimilar","images/stimuli/spore_stims/complex_06_A_a.gif","","","","",""
"","4069.835000002058","survey-multi-choice","78","437445","0.0-20.0","SS1619740009815","math_question","","","","","","","","","","","","{""Q0"":""7""}","[0]","7","",""
"","null","html-keyboard-response","79","438691","0.0-21.0-0.0","SS1619740009815","","","null","","","","","","<p><img src= images/blank.png width =""600"" height = ""600"" style=""position:fixed;top:50%; left:50%; transform: translate(-50%, -50%); border:5px solid black"">","","","","","","","",""
"","4557.699999997567","sequential-stimulus-presentation-old","80","443752","0.0-21.0-1.0","SS1619740009815","trial","","40","500","5057.699999997567","images/stimuli/spore_stims/simple_18_A_a.gif","images/stimuli/spore_stims/simple_16_A_b.gif","self_paced","","6","simple_dissimilar","images/stimuli/spore_stims/simple_16_A_b.gif","","","","",""
"","null","html-keyboard-response","81","444958","0.0-21.0-0.1","SS1619740009815","","","null","","","","","","<p><img src= images/blank.png width =""600"" height = ""600"" style=""position:fixed;top:50%; left:50%; transform: translate(-50%, -50%); border:5px solid black"">","","","","","","","",""
"","3085.400000003574","sequential-stimulus-presentation-old","82","448549","0.0-21.0-1.1","SS1619740009815","trial","","40","500","3585.400000003574","images/stimuli/spore_stims/simple_18_A_a.gif","images/stimuli/spore_stims/simple_16_A_b.gif","self_paced","","6","simple_dissimilar","images/stimuli/spore_stims/simple_16_A_b.gif","","","","",""
"","null","html-keyboard-response","83","449838","0.0-21.0-0.2","SS1619740009815","","","null","","","","","","<p><img src= images/blank.png width =""600"" height = ""600"" style=""position:fixed;top:50%; left:50%; transform: translate(-50%, -50%); border:5px solid black"">","","","","","","","",""
"","4788.424999998824","sequential-stimulus-presentation-old","84","455130","0.0-21.0-1.2","SS1619740009815","trial","","40","500","5288.424999998824","images/stimuli/spore_stims/simple_18_A_a.gif","images/stimuli/spore_stims/simple_16_A_b.gif","self_paced","","6","simple_dissimilar","images/stimuli/spore_stims/simple_16_A_b.gif","","","","",""
"","null","html-keyboard-response","85","456221","0.0-21.0-0.3","SS1619740009815","","","null","","","","","","<p><img src= images/blank.png width =""600"" height = ""600"" style=""position:fixed;top:50%; left:50%; transform: translate(-50%, -50%); border:5px solid black"">","","","","","","","",""
"","2389.214999995602","sequential-stimulus-presentation-old","86","459117","0.0-21.0-1.3","SS1619740009815","trial","","40","500","2889.214999995602","images/stimuli/spore_stims/simple_18_A_a.gif","images/stimuli/spore_stims/simple_16_A_b.gif","self_paced","","6","simple_dissimilar","images/stimuli/spore_stims/simple_16_A_b.gif","","","","",""
"","7349.229999999807","survey-multi-choice","87","466469","0.0-22.0","SS1619740009815","math_question","","","","","","","","","","","","{""Q0"":""13""}","[0]","13","",""
"","null","html-keyboard-response","88","467723","0.0-23.0-0.0","SS1619740009815","","","null","","","","","","<p><img src= images/blank.png width =""600"" height = ""600"" style=""position:fixed;top:50%; left:50%; transform: translate(-50%, -50%); border:5px solid black"">","","","","","","","",""
"","1397.7149999991525","sequential-stimulus-presentation-old","89","484125","0.0-23.0-1.0","SS1619740009815","trial","","40","500","1897.7149999991525","images/stimuli/spore_stims/simple_09_A_b.gif","images/stimuli/spore_stims/simple_02_A_a.gif","forced_long","","7","simple_dissimilar","images/stimuli/spore_stims/simple_02_A_a.gif","","","","",""
"","null","html-keyboard-response","90","485242","0.0-23.0-0.1","SS1619740009815","","","null","","","","","","<p><img src= images/blank.png width =""600"" height = ""600"" style=""position:fixed;top:50%; left:50%; transform: translate(-50%, -50%); border:5px solid black"">","","","","","","","",""
"","1677.414999998291","sequential-stimulus-presentation-old","91","487424","0.0-23.0-1.1","SS1619740009815","trial","","40","500","2177.414999998291","images/stimuli/spore_stims/simple_09_A_b.gif","images/stimuli/spore_stims/simple_02_A_a.gif","forced_long","","7","simple_dissimilar","images/stimuli/spore_stims/simple_02_A_a.gif","","","","",""
"","null","html-keyboard-response","92","488491","0.0-23.0-0.2","SS1619740009815","","","null","","","","","","<p><img src= images/blank.png width =""600"" height = ""600"" style=""position:fixed;top:50%; left:50%; transform: translate(-50%, -50%); border:5px solid black"">","","","","","","","",""
"","3390.814999998838","sequential-stimulus-presentation-old","93","492388","0.0-23.0-1.2","SS1619740009815","trial","","40","500","3890.814999998838","images/stimuli/spore_stims/simple_09_A_b.gif","images/stimuli/spore_stims/simple_02_A_a.gif","forced_long","","7","simple_dissimilar","images/stimuli/spore_stims/simple_09_A_b.gif","","","","",""
"","null","html-keyboard-response","94","493439","0.0-23.0-0.3","SS1619740009815","","","null","","","","","","<p><img src= images/blank.png width =""600"" height = ""600"" style=""position:fixed;top:50%; left:50%; transform: translate(-50%, -50%); border:5px solid black"">","","","","","","","",""
"","3608.890000003157","sequential-stimulus-presentation-old","95","497552","0.0-23.0-1.3","SS1619740009815","trial","","40","500","4108.890000003157","images/stimuli/spore_stims/simple_09_A_b.gif","images/stimuli/spore_stims/simple_02_A_a.gif","forced_long","","7","simple_dissimilar","images/stimuli/spore_stims/simple_02_A_a.gif","","","","",""
"","null","html-keyboard-response","96","498848","0.0-23.0-0.4","SS1619740009815","","","null","","","","","","<p><img src= images/blank.png width =""600"" height = ""600"" style=""position:fixed;top:50%; left:50%; transform: translate(-50%, -50%); border:5px solid black"">","","","","","","","",""
"","2840.315000001283","sequential-stimulus-presentation-old","97","502194","0.0-23.0-1.4","SS1619740009815","trial","","40","500","3340.315000001283","images/stimuli/spore_stims/simple_09_A_b.gif","images/stimuli/spore_stims/simple_02_A_a.gif","forced_long","","7","simple_dissimilar","images/stimuli/spore_stims/simple_09_A_b.gif","","","","",""
"","null","html-keyboard-response","98","503264","0.0-23.0-0.5","SS1619740009815","","","null","","","","","","<p><img src= images/blank.png width =""600"" height = ""600"" style=""position:fixed;top:50%; left:50%; transform: translate(-50%, -50%); border:5px solid black"">","","","","","","","",""
"","3179.714999998396","sequential-stimulus-presentation-old","99","506952","0.0-23.0-1.5","SS1619740009815","trial","","40","500","3679.714999998396","images/stimuli/spore_stims/simple_09_A_b.gif","images/stimuli/spore_stims/simple_02_A_a.gif","forced_long","","7","simple_dissimilar","images/stimuli/spore_stims/simple_02_A_a.gif","","","","",""
"","4772.400000001653","survey-multi-choice","100","511728","0.0-24.0","SS1619740009815","math_question","","","","","","","","","","","","{""Q0"":""9""}","[0]","9","",""
"","null","html-keyboard-response","101","512776","0.0-25.0-0.0","SS1619740009815","","","null","","","","","","<p><img src= images/blank.png width =""600"" height = ""600"" style=""position:fixed;top:50%; left:50%; transform: translate(-50%, -50%); border:5px solid black"">","","","","","","","",""
"","1637.9549999983283","sequential-stimulus-presentation-old","102","514918","0.0-25.0-1.0","SS1619740009815","trial","","40","500","2137.9549999983283","images/stimuli/spore_stims/simple_07_A_a.gif","images/stimuli/spore_stims/simple_18_A_b.gif","forced_short","","8","simple_dissimilar","images/stimuli/spore_stims/simple_18_A_b.gif","","","","",""
"","null","html-keyboard-response","103","516211","0.0-25.0-0.1","SS1619740009815","","","null","","","","","","<p><img src= images/blank.png width =""600"" height = ""600"" style=""position:fixed;top:50%; left:50%; transform: translate(-50%, -50%); border:5px solid black"">","","","","","","","",""
"","4216.730000000098","sequential-stimulus-presentation-old","104","520932","0.0-25.0-1.1","SS1619740009815","trial","","40","500","4716.730000000098","images/stimuli/spore_stims/simple_07_A_a.gif","images/stimuli/spore_stims/simple_18_A_b.gif","forced_short","","8","simple_dissimilar","images/stimuli/spore_stims/simple_18_A_b.gif","","","","",""
"","null","html-keyboard-response","105","521782","0.0-25.0-0.2","SS1619740009815","","","null","","","","","","<p><img src= images/blank.png width =""600"" height = ""600"" style=""position:fixed;top:50%; left:50%; transform: translate(-50%, -50%); border:5px solid black"">","","","","","","","",""
"","4099.699999998789","sequential-stimulus-presentation-old","106","526385","0.0-25.0-1.2","SS1619740009815","trial","","40","500","4599.699999998789","images/stimuli/spore_stims/simple_07_A_a.gif","images/stimuli/spore_stims/simple_18_A_b.gif","forced_short","","8","simple_dissimilar","images/stimuli/spore_stims/simple_18_A_b.gif","","","","",""
"","null","html-keyboard-response","107","527245","0.0-25.0-0.3","SS1619740009815","","","null","","","","","","<p><img src= images/blank.png width =""600"" height = ""600"" style=""position:fixed;top:50%; left:50%; transform: translate(-50%, -50%); border:5px solid black"">","","","","","","","",""
"","5500.63499999675","sequential-stimulus-presentation-old","108","533250","0.0-25.0-1.3","SS1619740009815","trial","","40","500","6000.63499999675","images/stimuli/spore_stims/simple_07_A_a.gif","images/stimuli/spore_stims/simple_18_A_b.gif","forced_short","","8","simple_dissimilar","images/stimuli/spore_stims/simple_18_A_b.gif","","","","",""
"","null","html-keyboard-response","109","534439","0.0-25.0-0.4","SS1619740009815","","","null","","","","","","<p><img src= images/blank.png width =""600"" height = ""600"" style=""position:fixed;top:50%; left:50%; transform: translate(-50%, -50%); border:5px solid black"">","","","","","","","",""
"","2456.5050000019837","sequential-stimulus-presentation-old","110","537401","0.0-25.0-1.4","SS1619740009815","trial","","40","500","2956.5050000019837","images/stimuli/spore_stims/simple_07_A_a.gif","images/stimuli/spore_stims/simple_18_A_b.gif","forced_short","","8","simple_dissimilar","images/stimuli/spore_stims/simple_18_A_b.gif","","","","",""
"","3142.404999998631","survey-multi-choice","111","540546","0.0-26.0","SS1619740009815","math_question","","","","","","","","","","","","{""Q0"":""10""}","[0]","10","",""
"","null","html-keyboard-response","112","541529","0.0-27.0-0.0","SS1619740009815","","","null","","","","","","<p><img src= images/blank.png width =""600"" height = ""600"" style=""position:fixed;top:50%; left:50%; transform: translate(-50%, -50%); border:5px solid black"">","","","","","","","",""
"","3066.9100000014296","sequential-stimulus-presentation-old","113","545101","0.0-27.0-1.0","SS1619740009815","trial","","40","500","3566.9100000014296","images/stimuli/spore_stims/simple_12_A_b.gif","images/stimuli/spore_stims/simple_03_A_a.gif","self_paced","","9","simple_dissimilar","images/stimuli/spore_stims/simple_03_A_a.gif","","","","",""
"","null","html-keyboard-response","114","546064","0.0-27.0-0.1","SS1619740009815","","","null","","","","","","<p><img src= images/blank.png width =""600"" height = ""600"" style=""position:fixed;top:50%; left:50%; transform: translate(-50%, -50%); border:5px solid black"">","","","","","","","",""
"","3252.1200000045355","sequential-stimulus-presentation-old","115","549822","0.0-27.0-1.1","SS1619740009815","trial","","40","500","3752.1200000045355","images/stimuli/spore_stims/simple_12_A_b.gif","images/stimuli/spore_stims/simple_03_A_a.gif","self_paced","","9","simple_dissimilar","images/stimuli/spore_stims/simple_03_A_a.gif","","","","",""
"","null","html-keyboard-response","116","551092","0.0-27.0-0.2","SS1619740009815","","","null","","","","","","<p><img src= images/blank.png width =""600"" height = ""600"" style=""position:fixed;top:50%; left:50%; transform: translate(-50%, -50%); border:5px solid black"">","","","","","","","",""
"","2550.440000006347","sequential-stimulus-presentation-old","117","554148","0.0-27.0-1.2","SS1619740009815","trial","","40","500","3050.440000006347","images/stimuli/spore_stims/simple_12_A_b.gif","images/stimuli/spore_stims/simple_03_A_a.gif","self_paced","","9","simple_dissimilar","images/stimuli/spore_stims/simple_03_A_a.gif","","","","",""
"","null","html-keyboard-response","118","555233","0.0-27.0-0.3","SS1619740009815","","","null","","","","","","<p><img src= images/blank.png width =""600"" height = ""600"" style=""position:fixed;top:50%; left:50%; transform: translate(-50%, -50%); border:5px solid black"">","","","","","","","",""
"","4412.130000004312","sequential-stimulus-presentation-old","119","560152","0.0-27.0-1.3","SS1619740009815","trial","","40","500","4912.130000004312","images/stimuli/spore_stims/simple_12_A_b.gif","images/stimuli/spore_stims/simple_03_A_a.gif","self_paced","","9","simple_dissimilar","images/stimuli/spore_stims/simple_03_A_a.gif","","","","",""
"","3152.5599999949336","survey-multi-choice","120","563307","0.0-28.0","SS1619740009815","math_question","","","","","","","","","","","","{""Q0"":""3""}","[0]","3","",""
"","null","html-keyboard-response","121","564390","0.0-29.0-0.0","SS1619740009815","","","null","","","","","","<p><img src= images/blank.png width =""600"" height = ""600"" style=""position:fixed;top:50%; left:50%; transform: translate(-50%, -50%); border:5px solid black"">","","","","","","","",""
"","1420.8999999973457","sequential-stimulus-presentation-old","122","566316","0.0-29.0-1.0","SS1619740009815","trial","","40","500","1920.8999999973457","images/stimuli/spore_stims/complex_08_A_a.gif","images/stimuli/spore_stims/complex_04_A_b.gif","forced_short","","10","complex_dissimilar","images/stimuli/spore_stims/complex_04_A_b.gif","","","","",""
"","null","html-keyboard-response","123","567616","0.0-29.0-0.1","SS1619740009815","","","null","","","","","","<p><img src= images/blank.png width =""600"" height = ""600"" style=""position:fixed;top:50%; left:50%; transform: translate(-50%, -50%); border:5px solid black"">","","","","","","","",""
"","503.6199999959208","sequential-stimulus-presentation-old","124","568624","0.0-29.0-1.1","SS1619740009815","trial","","40","500","1003.6199999959208","images/stimuli/spore_stims/complex_08_A_a.gif","images/stimuli/spore_stims/complex_04_A_b.gif","forced_short","","10","complex_dissimilar","images/stimuli/spore_stims/complex_04_A_b.gif","","","","",""
"","null","html-keyboard-response","125","569795","0.0-29.0-0.2","SS1619740009815","","","null","","","","","","<p><img src= images/blank.png width =""600"" height = ""600"" style=""position:fixed;top:50%; left:50%; transform: translate(-50%, -50%); border:5px solid black"">","","","","","","","",""
"","3732.8049999995856","sequential-stimulus-presentation-old","126","574032","0.0-29.0-1.2","SS1619740009815","trial","","40","500","4232.804999999586","images/stimuli/spore_stims/complex_08_A_a.gif","images/stimuli/spore_stims/complex_04_A_b.gif","forced_short","","10","complex_dissimilar","images/stimuli/spore_stims/complex_08_A_a.gif","","","","",""
"","null","html-keyboard-response","127","574924","0.0-29.0-0.3","SS1619740009815","","","null","","","","","","<p><img src= images/blank.png width =""600"" height = ""600"" style=""position:fixed;top:50%; left:50%; transform: translate(-50%, -50%); border:5px solid black"">","","","","","","","",""
"","1032.565000001341","sequential-stimulus-presentation-old","128","576461","0.0-29.0-1.3","SS1619740009815","trial","","40","500","1532.565000001341","images/stimuli/spore_stims/complex_08_A_a.gif","images/stimuli/spore_stims/complex_04_A_b.gif","forced_short","","10","complex_dissimilar","images/stimuli/spore_stims/complex_04_A_b.gif","","","","",""
"","null","html-keyboard-response","129","577549","0.0-29.0-0.4","SS1619740009815","","","null","","","","","","<p><img src= images/blank.png width =""600"" height = ""600"" style=""position:fixed;top:50%; left:50%; transform: translate(-50%, -50%); border:5px solid black"">","","","","","","","",""
"","650.7150000034599","sequential-stimulus-presentation-old","130","578707","0.0-29.0-1.4","SS1619740009815","trial","","40","500","1150.7150000034599","images/stimuli/spore_stims/complex_08_A_a.gif","images/stimuli/spore_stims/complex_04_A_b.gif","forced_short","","10","complex_dissimilar","images/stimuli/spore_stims/complex_04_A_b.gif","","","","",""
"","null","html-keyboard-response","131","579685","0.0-29.0-0.5","SS1619740009815","","","null","","","","","","<p><img src= images/blank.png width =""600"" height = ""600"" style=""position:fixed;top:50%; left:50%; transform: translate(-50%, -50%); border:5px solid black"">","","","","","","","",""
"","1410.3150000009919","sequential-stimulus-presentation-old","132","581601","0.0-29.0-1.5","SS1619740009815","trial","","40","500","1910.3150000009919","images/stimuli/spore_stims/complex_08_A_a.gif","images/stimuli/spore_stims/complex_04_A_b.gif","forced_short","","10","complex_dissimilar","images/stimuli/spore_stims/complex_08_A_a.gif","","","","",""
"","3166.5700000012293","survey-multi-choice","133","584771","0.0-30.0","SS1619740009815","math_question","","","","","","","","","","","","{""Q0"":""7""}","[0]","7","",""
"","null","html-keyboard-response","134","585835","0.0-31.0-0.0","SS1619740009815","","","null","","","","","","<p><img src= images/blank.png width =""600"" height = ""600"" style=""position:fixed;top:50%; left:50%; transform: translate(-50%, -50%); border:5px solid black"">","","","","","","","",""
"","1622.769999994547","sequential-stimulus-presentation-old","135","602463","0.0-31.0-1.0","SS1619740009815","trial","","40","500","2122.769999994547","images/stimuli/spore_stims/complex_12_A_b.gif","images/stimuli/spore_stims/complex_05_A_a.gif","forced_long","","11","complex_dissimilar","images/stimuli/spore_stims/complex_05_A_a.gif","","","","",""
"","null","html-keyboard-response","136","603517","0.0-31.0-0.1","SS1619740009815","","","null","","","","","","<p><img src= images/blank.png width =""600"" height = ""600"" style=""position:fixed;top:50%; left:50%; transform: translate(-50%, -50%); border:5px solid black"">","","","","","","","",""
"","4145.340000002761","sequential-stimulus-presentation-old","137","608167","0.0-31.0-1.1","SS1619740009815","trial","","40","500","4645.340000002761","images/stimuli/spore_stims/complex_12_A_b.gif","images/stimuli/spore_stims/complex_05_A_a.gif","forced_long","","11","complex_dissimilar","images/stimuli/spore_stims/complex_05_A_a.gif","","","","",""
"","null","html-keyboard-response","138","609296","0.0-31.0-0.2","SS1619740009815","","","null","","","","","","<p><img src= images/blank.png width =""600"" height = ""600"" style=""position:fixed;top:50%; left:50%; transform: translate(-50%, -50%); border:5px solid black"">","","","","","","","",""
"","3068.520000000717","sequential-stimulus-presentation-old","139","612870","0.0-31.0-1.2","SS1619740009815","trial","","40","500","3568.520000000717","images/stimuli/spore_stims/complex_12_A_b.gif","images/stimuli/spore_stims/complex_05_A_a.gif","forced_long","","11","complex_dissimilar","images/stimuli/spore_stims/complex_05_A_a.gif","","","","",""
"","null","html-keyboard-response","140","614017","0.0-31.0-0.3","SS1619740009815","","","null","","","","","","<p><img src= images/blank.png width =""600"" height = ""600"" style=""position:fixed;top:50%; left:50%; transform: translate(-50%, -50%); border:5px solid black"">","","","","","","","",""
"","3278.120000002673","sequential-stimulus-presentation-old","141","617801","0.0-31.0-1.3","SS1619740009815","trial","","40","500","3778.120000002673","images/stimuli/spore_stims/complex_12_A_b.gif","images/stimuli/spore_stims/complex_05_A_a.gif","forced_long","","11","complex_dissimilar","images/stimuli/spore_stims/complex_05_A_a.gif","","","","",""
"","null","html-keyboard-response","142","618998","0.0-31.0-0.4","SS1619740009815","","","null","","","","","","<p><img src= images/blank.png width =""600"" height = ""600"" style=""position:fixed;top:50%; left:50%; transform: translate(-50%, -50%); border:5px solid black"">","","","","","","","",""
"","5613.774999998044","sequential-stimulus-presentation-old","143","625118","0.0-31.0-1.4","SS1619740009815","trial","","40","500","6113.774999998044","images/stimuli/spore_stims/complex_12_A_b.gif","images/stimuli/spore_stims/complex_05_A_a.gif","forced_long","","11","complex_dissimilar","images/stimuli/spore_stims/complex_12_A_b.gif","","","","",""
"[{""page_index"":0,""viewing_time"":4605.450000002747}]","4605.665000002831","instructions","144","629732","0.0-32.0","SS1619740009815","instructions","","","","","","","","","","","","","","","",""
"","10195.305000001099","survey-likert","145","639930","0.0-33.0","SS1619740009815","similarity_question","","","","","","","","","","","","{""Q0"":0}","[0]","","images/stimuli/spore_stims/complex_07_A_b.gif","images/stimuli/spore_stims/complex_04_A_a.gif"
"","8332.670000003418","survey-likert","146","648266","0.0-34.0","SS1619740009815","similarity_question","","","","","","","","","","","","{""Q0"":4}","[0]","","images/stimuli/spore_stims/complex_01_A_b.gif","images/stimuli/spore_stims/complex_19_A_a.gif"
"","7657.444999997155","survey-likert","147","655929","0.0-35.0","SS1619740009815","similarity_question","","","","","","","","","","","","{""Q0"":3}","[0]","","images/stimuli/spore_stims/complex_05_A_a.gif","images/stimuli/spore_stims/complex_12_A_b.gif"
"","6093.510000006063","survey-likert","148","662025","0.0-36.0","SS1619740009815","similarity_question","","","","","","","","","","","","{""Q0"":0}","[0]","","images/stimuli/spore_stims/simple_16_A_b.gif","images/stimuli/spore_stims/simple_18_A_a.gif"
"","7213.635000000009","survey-likert","149","669243","0.0-37.0","SS1619740009815","similarity_question","","","","","","","","","","","","{""Q0"":0}","[0]","","images/stimuli/spore_stims/complex_06_A_a.gif","images/stimuli/spore_stims/complex_03_A_b.gif"
"","4526.210000003688","survey-likert","150","673773","0.0-38.0","SS1619740009815","similarity_question","","","","","","","","","","","","{""Q0"":5}","[0]","","images/stimuli/spore_stims/simple_02_A_a.gif","images/stimuli/spore_stims/simple_09_A_b.gif"
"","3607.3299999989104","survey-likert","151","677383","0.0-39.0","SS1619740009815","similarity_question","","","","","","","","","","","","{""Q0"":4}","[0]","","images/stimuli/spore_stims/simple_03_A_a.gif","images/stimuli/spore_stims/simple_12_A_b.gif"
"","5349.924999994924","survey-likert","152","682736","0.0-40.0","SS1619740009815","similarity_question","","","","","","","","","","","","{""Q0"":1}","[0]","","images/stimuli/spore_stims/complex_08_A_a.gif","images/stimuli/spore_stims/complex_04_A_b.gif"
"","4669.314999999246","survey-likert","153","687409","0.0-41.0","SS1619740009815","similarity_question","","","","","","","","","","","","{""Q0"":0}","[0]","","images/stimuli/spore_stims/complex_09_A_a.gif","images/stimuli/spore_stims/complex_18_A_b.gif"
"","4536.265000002459","survey-likert","154","691949","0.0-42.0","SS1619740009815","similarity_question","","","","","","","","","","","","{""Q0"":4}","[0]","","images/stimuli/spore_stims/simple_08_A_a.gif","images/stimuli/spore_stims/simple_13_A_b.gif"
"","2886.299999998184","survey-likert","155","694839","0.0-43.0","SS1619740009815","similarity_question","","","","","","","","","","","","{""Q0"":4}","[0]","","images/stimuli/spore_stims/simple_14_A_b.gif","images/stimuli/spore_stims/simple_20_A_a.gif"
"","3388.8149999984307","survey-likert","156","698231","0.0-44.0","SS1619740009815","similarity_question","","","","","","","","","","","","{""Q0"":6}","[0]","","images/stimuli/spore_stims/simple_18_A_b.gif","images/stimuli/spore_stims/simple_07_A_a.gif"
"[{""page_index"":0,""viewing_time"":4296.524999997928}]","4296.739999998012","instructions","157","702531","0.0-45.0","SS1619740009815","instructions","","","","","","","","","","","","","","","",""
"","8541.294999995502","survey-likert","158","711075","0.0-46.0","SS1619740009815","","","","","","","","","images/stimuli/spore_stims/simple_14_A_b.gif","","","","{""Q0"":0}","[0]","","",""
"","1917.379999998957","survey-likert","159","712996","0.0-47.0","SS1619740009815","","","","","","","","","images/stimuli/spore_stims/simple_03_A_a.gif","","","","{""Q0"":1}","[0]","","",""
"","3124.2199999978766","survey-likert","160","716123","0.0-48.0","SS1619740009815","","","","","","","","","images/stimuli/spore_stims/simple_13_A_b.gif","","","","{""Q0"":1}","[0]","","",""
"","9896.039999999688","survey-likert","161","726023","0.0-49.0","SS1619740009815","","","","","","","","","images/stimuli/spore_stims/simple_02_A_a.gif","","","","{""Q0"":1}","[0]","","",""
"","2313.484999998822","survey-likert","162","728340","0.0-50.0","SS1619740009815","","","","","","","","","images/stimuli/spore_stims/simple_07_A_a.gif","","","","{""Q0"":0}","[0]","","",""
"","5118.449999994482","survey-likert","163","733462","0.0-51.0","SS1619740009815","","","","","","","","","images/stimuli/spore_stims/complex_07_A_b.gif","","","","{""Q0"":5}","[0]","","",""
"","2822.325000001001","survey-likert","164","736287","0.0-52.0","SS1619740009815","","","","","","","","","images/stimuli/spore_stims/complex_04_A_b.gif","","","","{""Q0"":4}","[0]","","",""
"","3525.549999998533","survey-likert","165","739816","0.0-53.0","SS1619740009815","","","","","","","","","images/stimuli/spore_stims/complex_01_A_b.gif","","","","{""Q0"":3}","[0]","","",""
"","2936.4649999989197","survey-likert","166","742756","0.0-54.0","SS1619740009815","","","","","","","","","images/stimuli/spore_stims/complex_12_A_b.gif","","","","{""Q0"":3}","[0]","","",""
"","2722.800000003306","survey-likert","167","745482","0.0-55.0","SS1619740009815","","","","","","","","","images/stimuli/spore_stims/simple_16_A_b.gif","","","","{""Q0"":1}","[0]","","",""
"","3265.6450000067707","survey-likert","168","748751","0.0-56.0","SS1619740009815","","","","","","","","","images/stimuli/spore_stims/complex_06_A_a.gif","","","","{""Q0"":4}","[0]","","",""
"","3211.7399999988265","survey-likert","169","751966","0.0-57.0","SS1619740009815","","","","","","","","","images/stimuli/spore_stims/complex_09_A_a.gif","","","","{""Q0"":5}","[0]","","",""
"[{""page_index"":0,""viewing_time"":2910.339999994845}]","2910.5599999965634","instructions","170","754880","0.0-58.0","SS1619740009815","instructions","","","","","","","","","","","","","","","",""
"","3112.715000002878","demog-age","171","757997","0.0-59.0","SS1619740009815","","","","","","","","","","","","","{""age"":""20""}","","","",""
"","10640.060000005178","demog-ethnic-US","172","768642","0.0-60.0","SS1619740009815","","","","","","","","","","","","","{""ethnicity"":[""White""]}","[0]","","",""
"","10656.975000005215","demog-gender-and-education","173","779303","0.0-61.0","SS1619740009815","","","","","","","","","","","","","{""gender"":""Male"",""education"":""High school diploma""}","[0,1]","","",""
"","35875.77500000049","survey-text","174","815184","0.0-62.0","SS1619740009815","feedback","","","","","","","","","","","","{""Q0"":""on my part, there were no issues""}","","","",""
"[{""page_index"":0,""viewing_time"":3738.3100000005215}]","3738.564999999595","instructions","175","818925","0.0-63.0","SS1619740009815","instructions","","","","","","","","","","","","","","","",""
