"view_history","rt","trial_type","trial_index","time_elapsed","internal_node_id","subject","stimulus_type","trial_stimulus","key_press","minimum_viewing_duration","trial_looking_time","block_deviant","block_background","exposure_type","stimulus","block_number","block_type","stimulus_displayed","responses","question_order","math_correct_answer","stimulus_left","stimulus_right"
"[{""page_index"":0,""viewing_time"":4058.359999966342}]","4058.729999989737","instructions","0","4059","0.0-0.0","SS1619740073432","","","","","","","","","","","","","","","","",""
"[{""page_index"":0,""viewing_time"":10466.95999999065},{""page_index"":1,""viewing_time"":5147.389999998268}]","15614.499999966938","instructions","1","21691","0.0-1.0","SS1619740073432","instructions","","","","","","","","","","","","","","","",""
"","4459.885000018403","sequential-stimulus-presentation-old","2","26661","0.0-2.0","SS1619740073432","","","40","500","4959.885000018403","null","null","self_paced","","","","","","","","",""
"","6751.835000002757","sequential-stimulus-presentation-old","3","33916","0.0-3.0","SS1619740073432","","","40","500","7251.835000002757","null","null","self_paced","","","","","","","","",""
"[{""page_index"":0,""viewing_time"":10629.529999976512}]","10629.710000008345","instructions","4","44546","0.0-4.0","SS1619740073432","instructions","","","","","","","","","","","","","","","",""
"","1792.8200000314973","sequential-stimulus-presentation-old","5","61340","0.0-5.0","SS1619740073432","","","40","500","2292.8200000314973","null","null","forced_long","","","","","","","","",""
"","2876.9050000119023","sequential-stimulus-presentation-old","6","64732","0.0-6.0","SS1619740073432","","","40","500","3376.9050000119023","null","null","forced_long","","","","","","","","",""
"[{""page_index"":0,""viewing_time"":2762.189999979455}]","2762.349999975413","instructions","7","67495","0.0-7.0","SS1619740073432","instructions","","","","","","","","","","","","","","","",""
"[{""page_index"":0,""viewing_time"":5506.869999982882},{""page_index"":1,""viewing_time"":6472.295000043232},{""page_index"":2,""viewing_time"":4299.29999995511},{""page_index"":3,""viewing_time"":1288.5499999974854},{""page_index"":4,""viewing_time"":1091.690000030212}]","18658.854999986943","instructions","8","86154","0.0-8.0","SS1619740073432","instructions","","","","","","","","","","","","","","","",""
"","null","html-keyboard-response","9","87104","0.0-9.0-0.0","SS1619740073432","","","null","","","","","","<p><img src= images/blank.png width =""600"" height = ""600"" style=""position:fixed;top:50%; left:50%; transform: translate(-50%, -50%); border:5px solid black"">","","","","","","","",""
"","34244.78000000818","sequential-stimulus-presentation-old","10","121852","0.0-9.0-1.0","SS1619740073432","trial","","40","500","34744.78000000818","images/stimuli/spore_stims/complex_01_A_a.gif","images/stimuli/spore_stims/complex_15_A_b.gif","self_paced","","0","complex_dissimilar","images/stimuli/spore_stims/complex_15_A_b.gif","","","","",""
"","null","html-keyboard-response","11","122793","0.0-9.0-0.1","SS1619740073432","","","null","","","","","","<p><img src= images/blank.png width =""600"" height = ""600"" style=""position:fixed;top:50%; left:50%; transform: translate(-50%, -50%); border:5px solid black"">","","","","","","","",""
"","14420.685000019148","sequential-stimulus-presentation-old","12","137715","0.0-9.0-1.1","SS1619740073432","trial","","40","500","14920.685000019148","images/stimuli/spore_stims/complex_01_A_a.gif","images/stimuli/spore_stims/complex_15_A_b.gif","self_paced","","0","complex_dissimilar","images/stimuli/spore_stims/complex_15_A_b.gif","","","","",""
"","null","html-keyboard-response","13","138606","0.0-9.0-0.2","SS1619740073432","","","null","","","","","","<p><img src= images/blank.png width =""600"" height = ""600"" style=""position:fixed;top:50%; left:50%; transform: translate(-50%, -50%); border:5px solid black"">","","","","","","","",""
"","25421.950000047218","sequential-stimulus-presentation-old","14","164531","0.0-9.0-1.2","SS1619740073432","trial","","40","500","25921.950000047218","images/stimuli/spore_stims/complex_01_A_a.gif","images/stimuli/spore_stims/complex_15_A_b.gif","self_paced","","0","complex_dissimilar","images/stimuli/spore_stims/complex_15_A_b.gif","","","","",""
"","null","html-keyboard-response","15","165367","0.0-9.0-0.3","SS1619740073432","","","null","","","","","","<p><img src= images/blank.png width =""600"" height = ""600"" style=""position:fixed;top:50%; left:50%; transform: translate(-50%, -50%); border:5px solid black"">","","","","","","","",""
"","9101.049999997485","sequential-stimulus-presentation-old","16","174971","0.0-9.0-1.3","SS1619740073432","trial","","40","500","9601.049999997485","images/stimuli/spore_stims/complex_01_A_a.gif","images/stimuli/spore_stims/complex_15_A_b.gif","self_paced","","0","complex_dissimilar","images/stimuli/spore_stims/complex_01_A_a.gif","","","","",""
"","null","html-keyboard-response","17","176187","0.0-9.0-0.4","SS1619740073432","","","null","","","","","","<p><img src= images/blank.png width =""600"" height = ""600"" style=""position:fixed;top:50%; left:50%; transform: translate(-50%, -50%); border:5px solid black"">","","","","","","","",""
"","7538.369999965653","sequential-stimulus-presentation-old","18","184227","0.0-9.0-1.4","SS1619740073432","trial","","40","500","8038.369999965653","images/stimuli/spore_stims/complex_01_A_a.gif","images/stimuli/spore_stims/complex_15_A_b.gif","self_paced","","0","complex_dissimilar","images/stimuli/spore_stims/complex_15_A_b.gif","","","","",""
"","null","html-keyboard-response","19","185164","0.0-9.0-0.5","SS1619740073432","","","null","","","","","","<p><img src= images/blank.png width =""600"" height = ""600"" style=""position:fixed;top:50%; left:50%; transform: translate(-50%, -50%); border:5px solid black"">","","","","","","","",""
"","8688.659999985248","sequential-stimulus-presentation-old","20","194354","0.0-9.0-1.5","SS1619740073432","trial","","40","500","9188.659999985248","images/stimuli/spore_stims/complex_01_A_a.gif","images/stimuli/spore_stims/complex_15_A_b.gif","self_paced","","0","complex_dissimilar","images/stimuli/spore_stims/complex_15_A_b.gif","","","","",""
"","3509.124999982305","survey-multi-choice","21","197865","0.0-10.0","SS1619740073432","math_question","","","","","","","","","","","","{""Q0"":""8""}","[0]","8","",""
"","null","html-keyboard-response","22","198714","0.0-11.0-0.0","SS1619740073432","","","null","","","","","","<p><img src= images/blank.png width =""600"" height = ""600"" style=""position:fixed;top:50%; left:50%; transform: translate(-50%, -50%); border:5px solid black"">","","","","","","","",""
"","2385.9400000073947","sequential-stimulus-presentation-old","23","201603","0.0-11.0-1.0","SS1619740073432","trial","","40","500","2885.9400000073947","images/stimuli/spore_stims/simple_14_A_b.gif","images/stimuli/spore_stims/simple_13_A_a.gif","forced_short","","1","simple_dissimilar","images/stimuli/spore_stims/simple_13_A_a.gif","","","","",""
"","null","html-keyboard-response","24","202752","0.0-11.0-0.1","SS1619740073432","","","null","","","","","","<p><img src= images/blank.png width =""600"" height = ""600"" style=""position:fixed;top:50%; left:50%; transform: translate(-50%, -50%); border:5px solid black"">","","","","","","","",""
"","7667.599999986123","sequential-stimulus-presentation-old","25","210922","0.0-11.0-1.1","SS1619740073432","trial","","40","500","8167.599999986123","images/stimuli/spore_stims/simple_14_A_b.gif","images/stimuli/spore_stims/simple_13_A_a.gif","forced_short","","1","simple_dissimilar","images/stimuli/spore_stims/simple_13_A_a.gif","","","","",""
"","null","html-keyboard-response","26","211950","0.0-11.0-0.2","SS1619740073432","","","null","","","","","","<p><img src= images/blank.png width =""600"" height = ""600"" style=""position:fixed;top:50%; left:50%; transform: translate(-50%, -50%); border:5px solid black"">","","","","","","","",""
"","17132.81000003917","sequential-stimulus-presentation-old","27","229586","0.0-11.0-1.2","SS1619740073432","trial","","40","500","17632.81000003917","images/stimuli/spore_stims/simple_14_A_b.gif","images/stimuli/spore_stims/simple_13_A_a.gif","forced_short","","1","simple_dissimilar","images/stimuli/spore_stims/simple_13_A_a.gif","","","","",""
"","null","html-keyboard-response","28","230787","0.0-11.0-0.3","SS1619740073432","","","null","","","","","","<p><img src= images/blank.png width =""600"" height = ""600"" style=""position:fixed;top:50%; left:50%; transform: translate(-50%, -50%); border:5px solid black"">","","","","","","","",""
"","24368.199999968056","sequential-stimulus-presentation-old","29","255658","0.0-11.0-1.3","SS1619740073432","trial","","40","500","24868.199999968056","images/stimuli/spore_stims/simple_14_A_b.gif","images/stimuli/spore_stims/simple_13_A_a.gif","forced_short","","1","simple_dissimilar","images/stimuli/spore_stims/simple_14_A_b.gif","","","","",""
"","null","html-keyboard-response","30","256579","0.0-11.0-0.4","SS1619740073432","","","null","","","","","","<p><img src= images/blank.png width =""600"" height = ""600"" style=""position:fixed;top:50%; left:50%; transform: translate(-50%, -50%); border:5px solid black"">","","","","","","","",""
"","10688.800000003539","sequential-stimulus-presentation-old","31","267769","0.0-11.0-1.4","SS1619740073432","trial","","40","500","11188.800000003539","images/stimuli/spore_stims/simple_14_A_b.gif","images/stimuli/spore_stims/simple_13_A_a.gif","forced_short","","1","simple_dissimilar","images/stimuli/spore_stims/simple_13_A_a.gif","","","","",""
"","null","html-keyboard-response","32","269063","0.0-11.0-0.5","SS1619740073432","","","null","","","","","","<p><img src= images/blank.png width =""600"" height = ""600"" style=""position:fixed;top:50%; left:50%; transform: translate(-50%, -50%); border:5px solid black"">","","","","","","","",""
"","1459.4199999701232","sequential-stimulus-presentation-old","33","271025","0.0-11.0-1.5","SS1619740073432","trial","","40","500","1959.4199999701232","images/stimuli/spore_stims/simple_14_A_b.gif","images/stimuli/spore_stims/simple_13_A_a.gif","forced_short","","1","simple_dissimilar","images/stimuli/spore_stims/simple_13_A_a.gif","","","","",""
"","3993.114999961108","survey-multi-choice","34","275019","0.0-12.0","SS1619740073432","math_question","","","","","","","","","","","","{""Q0"":""8""}","[0]","8","",""
"","null","html-keyboard-response","35","276215","0.0-13.0-0.0","SS1619740073432","","","null","","","","","","<p><img src= images/blank.png width =""600"" height = ""600"" style=""position:fixed;top:50%; left:50%; transform: translate(-50%, -50%); border:5px solid black"">","","","","","","","",""
"","16583.484999951907","sequential-stimulus-presentation-old","36","307801","0.0-13.0-1.0","SS1619740073432","trial","","40","500","17083.484999951907","images/stimuli/spore_stims/complex_13_A_a.gif","images/stimuli/spore_stims/complex_04_A_b.gif","forced_long","","2","complex_dissimilar","images/stimuli/spore_stims/complex_04_A_b.gif","","","","",""
"","null","html-keyboard-response","37","308947","0.0-13.0-0.1","SS1619740073432","","","null","","","","","","<p><img src= images/blank.png width =""600"" height = ""600"" style=""position:fixed;top:50%; left:50%; transform: translate(-50%, -50%); border:5px solid black"">","","","","","","","",""
"","14112.06499999389","sequential-stimulus-presentation-old","38","323561","0.0-13.0-1.1","SS1619740073432","trial","","40","500","14612.06499999389","images/stimuli/spore_stims/complex_13_A_a.gif","images/stimuli/spore_stims/complex_04_A_b.gif","forced_long","","2","complex_dissimilar","images/stimuli/spore_stims/complex_04_A_b.gif","","","","",""
"","null","html-keyboard-response","39","324624","0.0-13.0-0.2","SS1619740073432","","","null","","","","","","<p><img src= images/blank.png width =""600"" height = ""600"" style=""position:fixed;top:50%; left:50%; transform: translate(-50%, -50%); border:5px solid black"">","","","","","","","",""
"","7658.364999981131","sequential-stimulus-presentation-old","40","332784","0.0-13.0-1.2","SS1619740073432","trial","","40","500","8158.364999981131","images/stimuli/spore_stims/complex_13_A_a.gif","images/stimuli/spore_stims/complex_04_A_b.gif","forced_long","","2","complex_dissimilar","images/stimuli/spore_stims/complex_04_A_b.gif","","","","",""
"","null","html-keyboard-response","41","333724","0.0-13.0-0.3","SS1619740073432","","","null","","","","","","<p><img src= images/blank.png width =""600"" height = ""600"" style=""position:fixed;top:50%; left:50%; transform: translate(-50%, -50%); border:5px solid black"">","","","","","","","",""
"","8750.504999945406","sequential-stimulus-presentation-old","42","342977","0.0-13.0-1.3","SS1619740073432","trial","","40","500","9250.504999945406","images/stimuli/spore_stims/complex_13_A_a.gif","images/stimuli/spore_stims/complex_04_A_b.gif","forced_long","","2","complex_dissimilar","images/stimuli/spore_stims/complex_04_A_b.gif","","","","",""
"","3520.200000028126","survey-multi-choice","43","346498","0.0-14.0","SS1619740073432","math_question","","","","","","","","","","","","{""Q0"":""18""}","[0]","18","",""
"","null","html-keyboard-response","44","347543","0.0-15.0-0.0","SS1619740073432","","","null","","","","","","<p><img src= images/blank.png width =""600"" height = ""600"" style=""position:fixed;top:50%; left:50%; transform: translate(-50%, -50%); border:5px solid black"">","","","","","","","",""
"","4563.540000002831","sequential-stimulus-presentation-old","45","352608","0.0-15.0-1.0","SS1619740073432","trial","","40","500","5063.540000002831","images/stimuli/spore_stims/simple_12_A_b.gif","images/stimuli/spore_stims/simple_09_A_a.gif","self_paced","","3","simple_dissimilar","images/stimuli/spore_stims/simple_09_A_a.gif","","","","",""
"","null","html-keyboard-response","46","353754","0.0-15.0-0.1","SS1619740073432","","","null","","","","","","<p><img src= images/blank.png width =""600"" height = ""600"" style=""position:fixed;top:50%; left:50%; transform: translate(-50%, -50%); border:5px solid black"">","","","","","","","",""
"","4504.5699999900535","sequential-stimulus-presentation-old","47","358761","0.0-15.0-1.1","SS1619740073432","trial","","40","500","5004.5699999900535","images/stimuli/spore_stims/simple_12_A_b.gif","images/stimuli/spore_stims/simple_09_A_a.gif","self_paced","","3","simple_dissimilar","images/stimuli/spore_stims/simple_09_A_a.gif","","","","",""
"","null","html-keyboard-response","48","359817","0.0-15.0-0.2","SS1619740073432","","","null","","","","","","<p><img src= images/blank.png width =""600"" height = ""600"" style=""position:fixed;top:50%; left:50%; transform: translate(-50%, -50%); border:5px solid black"">","","","","","","","",""
"","2296.570000005886","sequential-stimulus-presentation-old","49","362616","0.0-15.0-1.2","SS1619740073432","trial","","40","500","2796.570000005886","images/stimuli/spore_stims/simple_12_A_b.gif","images/stimuli/spore_stims/simple_09_A_a.gif","self_paced","","3","simple_dissimilar","images/stimuli/spore_stims/simple_09_A_a.gif","","","","",""
"","null","html-keyboard-response","50","363449","0.0-15.0-0.3","SS1619740073432","","","null","","","","","","<p><img src= images/blank.png width =""600"" height = ""600"" style=""position:fixed;top:50%; left:50%; transform: translate(-50%, -50%); border:5px solid black"">","","","","","","","",""
"","5809.359999955632","sequential-stimulus-presentation-old","51","369760","0.0-15.0-1.3","SS1619740073432","trial","","40","500","6309.359999955632","images/stimuli/spore_stims/simple_12_A_b.gif","images/stimuli/spore_stims/simple_09_A_a.gif","self_paced","","3","simple_dissimilar","images/stimuli/spore_stims/simple_09_A_a.gif","","","","",""
"","null","html-keyboard-response","52","370751","0.0-15.0-0.4","SS1619740073432","","","null","","","","","","<p><img src= images/blank.png width =""600"" height = ""600"" style=""position:fixed;top:50%; left:50%; transform: translate(-50%, -50%); border:5px solid black"">","","","","","","","",""
"","3114.08000002848","sequential-stimulus-presentation-old","53","374368","0.0-15.0-1.4","SS1619740073432","trial","","40","500","3614.08000002848","images/stimuli/spore_stims/simple_12_A_b.gif","images/stimuli/spore_stims/simple_09_A_a.gif","self_paced","","3","simple_dissimilar","images/stimuli/spore_stims/simple_09_A_a.gif","","","","",""
"","null","html-keyboard-response","54","375542","0.0-15.0-0.5","SS1619740073432","","","null","","","","","","<p><img src= images/blank.png width =""600"" height = ""600"" style=""position:fixed;top:50%; left:50%; transform: translate(-50%, -50%); border:5px solid black"">","","","","","","","",""
"","2068.2900000247173","sequential-stimulus-presentation-old","55","378112","0.0-15.0-1.5","SS1619740073432","trial","","40","500","2568.2900000247173","images/stimuli/spore_stims/simple_12_A_b.gif","images/stimuli/spore_stims/simple_09_A_a.gif","self_paced","","3","simple_dissimilar","images/stimuli/spore_stims/simple_09_A_a.gif","","","","",""
"","3572.935000003781","survey-multi-choice","56","381686","0.0-16.0","SS1619740073432","math_question","","","","","","","","","","","","{""Q0"":""10""}","[0]","10","",""
"","null","html-keyboard-response","57","382827","0.0-17.0-0.0","SS1619740073432","","","null","","","","","","<p><img src= images/blank.png width =""600"" height = ""600"" style=""position:fixed;top:50%; left:50%; transform: translate(-50%, -50%); border:5px solid black"">","","","","","","","",""
"","1837.8449999727309","sequential-stimulus-presentation-old","58","385168","0.0-17.0-1.0","SS1619740073432","trial","","40","500","2337.844999972731","images/stimuli/spore_stims/complex_06_A_a.gif","images/stimuli/spore_stims/complex_11_A_b.gif","forced_short","","4","complex_dissimilar","images/stimuli/spore_stims/complex_11_A_b.gif","","","","",""
"","null","html-keyboard-response","59","386011","0.0-17.0-0.1","SS1619740073432","","","null","","","","","","<p><img src= images/blank.png width =""600"" height = ""600"" style=""position:fixed;top:50%; left:50%; transform: translate(-50%, -50%); border:5px solid black"">","","","","","","","",""
"","11774.249999958556","sequential-stimulus-presentation-old","60","398288","0.0-17.0-1.1","SS1619740073432","trial","","40","500","12274.249999958556","images/stimuli/spore_stims/complex_06_A_a.gif","images/stimuli/spore_stims/complex_11_A_b.gif","forced_short","","4","complex_dissimilar","images/stimuli/spore_stims/complex_11_A_b.gif","","","","",""
"","null","html-keyboard-response","61","399535","0.0-17.0-0.2","SS1619740073432","","","null","","","","","","<p><img src= images/blank.png width =""600"" height = ""600"" style=""position:fixed;top:50%; left:50%; transform: translate(-50%, -50%); border:5px solid black"">","","","","","","","",""
"","18618.63500002073","sequential-stimulus-presentation-old","62","418656","0.0-17.0-1.2","SS1619740073432","trial","","40","500","19118.63500002073","images/stimuli/spore_stims/complex_06_A_a.gif","images/stimuli/spore_stims/complex_11_A_b.gif","forced_short","","4","complex_dissimilar","images/stimuli/spore_stims/complex_06_A_a.gif","","","","",""
"","null","html-keyboard-response","63","419925","0.0-17.0-0.3","SS1619740073432","","","null","","","","","","<p><img src= images/blank.png width =""600"" height = ""600"" style=""position:fixed;top:50%; left:50%; transform: translate(-50%, -50%); border:5px solid black"">","","","","","","","",""
"","8885.069999960251","sequential-stimulus-presentation-old","64","429327","0.0-17.0-1.3","SS1619740073432","trial","","40","500","9385.069999960251","images/stimuli/spore_stims/complex_06_A_a.gif","images/stimuli/spore_stims/complex_11_A_b.gif","forced_short","","4","complex_dissimilar","images/stimuli/spore_stims/complex_11_A_b.gif","","","","",""
"","3957.5699999695644","survey-multi-choice","65","433286","0.0-18.0","SS1619740073432","math_question","","","","","","","","","","","","{""Q0"":""9""}","[0]","9","",""
"","null","html-keyboard-response","66","434320","0.0-19.0-0.0","SS1619740073432","","","null","","","","","","<p><img src= images/blank.png width =""600"" height = ""600"" style=""position:fixed;top:50%; left:50%; transform: translate(-50%, -50%); border:5px solid black"">","","","","","","","",""
"","6504.734999965876","sequential-stimulus-presentation-old","67","441327","0.0-19.0-1.0","SS1619740073432","trial","","40","500","7004.734999965876","images/stimuli/spore_stims/complex_20_A_b.gif","images/stimuli/spore_stims/complex_03_A_a.gif","self_paced","","5","complex_dissimilar","images/stimuli/spore_stims/complex_03_A_a.gif","","","","",""
"","null","html-keyboard-response","68","442573","0.0-19.0-0.1","SS1619740073432","","","null","","","","","","<p><img src= images/blank.png width =""600"" height = ""600"" style=""position:fixed;top:50%; left:50%; transform: translate(-50%, -50%); border:5px solid black"">","","","","","","","",""
"","8458.845000015572","sequential-stimulus-presentation-old","69","451535","0.0-19.0-1.1","SS1619740073432","trial","","40","500","8958.845000015572","images/stimuli/spore_stims/complex_20_A_b.gif","images/stimuli/spore_stims/complex_03_A_a.gif","self_paced","","5","complex_dissimilar","images/stimuli/spore_stims/complex_20_A_b.gif","","","","",""
"","null","html-keyboard-response","70","452663","0.0-19.0-0.2","SS1619740073432","","","null","","","","","","<p><img src= images/blank.png width =""600"" height = ""600"" style=""position:fixed;top:50%; left:50%; transform: translate(-50%, -50%); border:5px solid black"">","","","","","","","",""
"","6176.340000005439","sequential-stimulus-presentation-old","71","459342","0.0-19.0-1.2","SS1619740073432","trial","","40","500","6676.340000005439","images/stimuli/spore_stims/complex_20_A_b.gif","images/stimuli/spore_stims/complex_03_A_a.gif","self_paced","","5","complex_dissimilar","images/stimuli/spore_stims/complex_03_A_a.gif","","","","",""
"","null","html-keyboard-response","72","460485","0.0-19.0-0.3","SS1619740073432","","","null","","","","","","<p><img src= images/blank.png width =""600"" height = ""600"" style=""position:fixed;top:50%; left:50%; transform: translate(-50%, -50%); border:5px solid black"">","","","","","","","",""
"","2730.8699999703094","sequential-stimulus-presentation-old","73","463718","0.0-19.0-1.3","SS1619740073432","trial","","40","500","3230.8699999703094","images/stimuli/spore_stims/complex_20_A_b.gif","images/stimuli/spore_stims/complex_03_A_a.gif","self_paced","","5","complex_dissimilar","images/stimuli/spore_stims/complex_03_A_a.gif","","","","",""
"","null","html-keyboard-response","74","464575","0.0-19.0-0.4","SS1619740073432","","","null","","","","","","<p><img src= images/blank.png width =""600"" height = ""600"" style=""position:fixed;top:50%; left:50%; transform: translate(-50%, -50%); border:5px solid black"">","","","","","","","",""
"","3961.0049999901094","sequential-stimulus-presentation-old","75","469038","0.0-19.0-1.4","SS1619740073432","trial","","40","500","4461.004999990109","images/stimuli/spore_stims/complex_20_A_b.gif","images/stimuli/spore_stims/complex_03_A_a.gif","self_paced","","5","complex_dissimilar","images/stimuli/spore_stims/complex_20_A_b.gif","","","","",""
"","null","html-keyboard-response","76","470331","0.0-19.0-0.5","SS1619740073432","","","null","","","","","","<p><img src= images/blank.png width =""600"" height = ""600"" style=""position:fixed;top:50%; left:50%; transform: translate(-50%, -50%); border:5px solid black"">","","","","","","","",""
"","6068.924999970477","sequential-stimulus-presentation-old","77","476902","0.0-19.0-1.5","SS1619740073432","trial","","40","500","6568.924999970477","images/stimuli/spore_stims/complex_20_A_b.gif","images/stimuli/spore_stims/complex_03_A_a.gif","self_paced","","5","complex_dissimilar","images/stimuli/spore_stims/complex_03_A_a.gif","","","","",""
"","2821.17000001017","survey-multi-choice","78","479725","0.0-20.0","SS1619740073432","math_question","","","","","","","","","","","","{""Q0"":""7""}","[0]","7","",""
"","null","html-keyboard-response","79","480722","0.0-21.0-0.0","SS1619740073432","","","null","","","","","","<p><img src= images/blank.png width =""600"" height = ""600"" style=""position:fixed;top:50%; left:50%; transform: translate(-50%, -50%); border:5px solid black"">","","","","","","","",""
"","797.1099999849685","sequential-stimulus-presentation-old","80","482022","0.0-21.0-1.0","SS1619740073432","trial","","40","500","1297.1099999849685","images/stimuli/spore_stims/simple_05_A_b.gif","images/stimuli/spore_stims/simple_18_A_a.gif","forced_short","","6","simple_dissimilar","images/stimuli/spore_stims/simple_18_A_a.gif","","","","",""
"","null","html-keyboard-response","81","483110","0.0-21.0-0.1","SS1619740073432","","","null","","","","","","<p><img src= images/blank.png width =""600"" height = ""600"" style=""position:fixed;top:50%; left:50%; transform: translate(-50%, -50%); border:5px solid black"">","","","","","","","",""
"","4928.959999990184","sequential-stimulus-presentation-old","82","488543","0.0-21.0-1.1","SS1619740073432","trial","","40","500","5428.959999990184","images/stimuli/spore_stims/simple_05_A_b.gif","images/stimuli/spore_stims/simple_18_A_a.gif","forced_short","","6","simple_dissimilar","images/stimuli/spore_stims/simple_18_A_a.gif","","","","",""
"","null","html-keyboard-response","83","489821","0.0-21.0-0.2","SS1619740073432","","","null","","","","","","<p><img src= images/blank.png width =""600"" height = ""600"" style=""position:fixed;top:50%; left:50%; transform: translate(-50%, -50%); border:5px solid black"">","","","","","","","",""
"","5514.815000002272","sequential-stimulus-presentation-old","84","495838","0.0-21.0-1.2","SS1619740073432","trial","","40","500","6014.815000002272","images/stimuli/spore_stims/simple_05_A_b.gif","images/stimuli/spore_stims/simple_18_A_a.gif","forced_short","","6","simple_dissimilar","images/stimuli/spore_stims/simple_18_A_a.gif","","","","",""
"","null","html-keyboard-response","85","496872","0.0-21.0-0.3","SS1619740073432","","","null","","","","","","<p><img src= images/blank.png width =""600"" height = ""600"" style=""position:fixed;top:50%; left:50%; transform: translate(-50%, -50%); border:5px solid black"">","","","","","","","",""
"","10448.305000027176","sequential-stimulus-presentation-old","86","507823","0.0-21.0-1.3","SS1619740073432","trial","","40","500","10948.305000027176","images/stimuli/spore_stims/simple_05_A_b.gif","images/stimuli/spore_stims/simple_18_A_a.gif","forced_short","","6","simple_dissimilar","images/stimuli/spore_stims/simple_05_A_b.gif","","","","",""
"","null","html-keyboard-response","87","508807","0.0-21.0-0.4","SS1619740073432","","","null","","","","","","<p><img src= images/blank.png width =""600"" height = ""600"" style=""position:fixed;top:50%; left:50%; transform: translate(-50%, -50%); border:5px solid black"">","","","","","","","",""
"","12241.334999969695","sequential-stimulus-presentation-old","88","521550","0.0-21.0-1.4","SS1619740073432","trial","","40","500","12741.334999969695","images/stimuli/spore_stims/simple_05_A_b.gif","images/stimuli/spore_stims/simple_18_A_a.gif","forced_short","","6","simple_dissimilar","images/stimuli/spore_stims/simple_18_A_a.gif","","","","",""
"","null","html-keyboard-response","89","522764","0.0-21.0-0.5","SS1619740073432","","","null","","","","","","<p><img src= images/blank.png width =""600"" height = ""600"" style=""position:fixed;top:50%; left:50%; transform: translate(-50%, -50%); border:5px solid black"">","","","","","","","",""
"","3003.275000024587","sequential-stimulus-presentation-old","90","526270","0.0-21.0-1.5","SS1619740073432","trial","","40","500","3503.275000024587","images/stimuli/spore_stims/simple_05_A_b.gif","images/stimuli/spore_stims/simple_18_A_a.gif","forced_short","","6","simple_dissimilar","images/stimuli/spore_stims/simple_18_A_a.gif","","","","",""
"","2916.5800000191666","survey-multi-choice","91","529188","0.0-22.0","SS1619740073432","math_question","","","","","","","","","","","","{""Q0"":""5""}","[0]","5","",""
"","null","html-keyboard-response","92","530462","0.0-23.0-0.0","SS1619740073432","","","null","","","","","","<p><img src= images/blank.png width =""600"" height = ""600"" style=""position:fixed;top:50%; left:50%; transform: translate(-50%, -50%); border:5px solid black"">","","","","","","","",""
"","10141.150000039488","sequential-stimulus-presentation-old","93","555607","0.0-23.0-1.0","SS1619740073432","trial","","40","500","10641.150000039488","images/stimuli/spore_stims/simple_06_A_a.gif","images/stimuli/spore_stims/simple_04_A_b.gif","forced_long","","7","simple_dissimilar","images/stimuli/spore_stims/simple_04_A_b.gif","","","","",""
"","null","html-keyboard-response","94","556889","0.0-23.0-0.1","SS1619740073432","","","null","","","","","","<p><img src= images/blank.png width =""600"" height = ""600"" style=""position:fixed;top:50%; left:50%; transform: translate(-50%, -50%); border:5px solid black"">","","","","","","","",""
"","9653.2850000076","sequential-stimulus-presentation-old","95","567046","0.0-23.0-1.1","SS1619740073432","trial","","40","500","10153.2850000076","images/stimuli/spore_stims/simple_06_A_a.gif","images/stimuli/spore_stims/simple_04_A_b.gif","forced_long","","7","simple_dissimilar","images/stimuli/spore_stims/simple_04_A_b.gif","","","","",""
"","null","html-keyboard-response","96","568179","0.0-23.0-0.2","SS1619740073432","","","null","","","","","","<p><img src= images/blank.png width =""600"" height = ""600"" style=""position:fixed;top:50%; left:50%; transform: translate(-50%, -50%); border:5px solid black"">","","","","","","","",""
"","4364.144999999553","sequential-stimulus-presentation-old","97","573045","0.0-23.0-1.2","SS1619740073432","trial","","40","500","4864.144999999553","images/stimuli/spore_stims/simple_06_A_a.gif","images/stimuli/spore_stims/simple_04_A_b.gif","forced_long","","7","simple_dissimilar","images/stimuli/spore_stims/simple_04_A_b.gif","","","","",""
"","null","html-keyboard-response","98","573865","0.0-23.0-0.3","SS1619740073432","","","null","","","","","","<p><img src= images/blank.png width =""600"" height = ""600"" style=""position:fixed;top:50%; left:50%; transform: translate(-50%, -50%); border:5px solid black"">","","","","","","","",""
"","3710.030000016559","sequential-stimulus-presentation-old","99","578077","0.0-23.0-1.3","SS1619740073432","trial","","40","500","4210.030000016559","images/stimuli/spore_stims/simple_06_A_a.gif","images/stimuli/spore_stims/simple_04_A_b.gif","forced_long","","7","simple_dissimilar","images/stimuli/spore_stims/simple_06_A_a.gif","","","","",""
"","null","html-keyboard-response","100","579013","0.0-23.0-0.4","SS1619740073432","","","null","","","","","","<p><img src= images/blank.png width =""600"" height = ""600"" style=""position:fixed;top:50%; left:50%; transform: translate(-50%, -50%); border:5px solid black"">","","","","","","","",""
"","5193.970000022091","sequential-stimulus-presentation-old","101","584710","0.0-23.0-1.4","SS1619740073432","trial","","40","500","5693.970000022091","images/stimuli/spore_stims/simple_06_A_a.gif","images/stimuli/spore_stims/simple_04_A_b.gif","forced_long","","7","simple_dissimilar","images/stimuli/spore_stims/simple_06_A_a.gif","","","","",""
"","3757.069999992382","survey-multi-choice","102","588468","0.0-24.0","SS1619740073432","math_question","","","","","","","","","","","","{""Q0"":""5""}","[0]","5","",""
"","null","html-keyboard-response","103","589485","0.0-25.0-0.0","SS1619740073432","","","null","","","","","","<p><img src= images/blank.png width =""600"" height = ""600"" style=""position:fixed;top:50%; left:50%; transform: translate(-50%, -50%); border:5px solid black"">","","","","","","","",""
"","5745.164999971166","sequential-stimulus-presentation-old","104","595733","0.0-25.0-1.0","SS1619740073432","trial","","40","500","6245.164999971166","images/stimuli/spore_stims/simple_13_A_b.gif","images/stimuli/spore_stims/simple_19_A_a.gif","self_paced","","8","simple_dissimilar","images/stimuli/spore_stims/simple_19_A_a.gif","","","","",""
"","null","html-keyboard-response","105","596809","0.0-25.0-0.1","SS1619740073432","","","null","","","","","","<p><img src= images/blank.png width =""600"" height = ""600"" style=""position:fixed;top:50%; left:50%; transform: translate(-50%, -50%); border:5px solid black"">","","","","","","","",""
"","6862.010000040755","sequential-stimulus-presentation-old","106","604173","0.0-25.0-1.1","SS1619740073432","trial","","40","500","7362.010000040755","images/stimuli/spore_stims/simple_13_A_b.gif","images/stimuli/spore_stims/simple_19_A_a.gif","self_paced","","8","simple_dissimilar","images/stimuli/spore_stims/simple_19_A_a.gif","","","","",""
"","null","html-keyboard-response","107","605101","0.0-25.0-0.2","SS1619740073432","","","null","","","","","","<p><img src= images/blank.png width =""600"" height = ""600"" style=""position:fixed;top:50%; left:50%; transform: translate(-50%, -50%); border:5px solid black"">","","","","","","","",""
"","11866.350000025705","sequential-stimulus-presentation-old","108","617469","0.0-25.0-1.2","SS1619740073432","trial","","40","500","12366.350000025705","images/stimuli/spore_stims/simple_13_A_b.gif","images/stimuli/spore_stims/simple_19_A_a.gif","self_paced","","8","simple_dissimilar","images/stimuli/spore_stims/simple_19_A_a.gif","","","","",""
"","null","html-keyboard-response","109","618342","0.0-25.0-0.3","SS1619740073432","","","null","","","","","","<p><img src= images/blank.png width =""600"" height = ""600"" style=""position:fixed;top:50%; left:50%; transform: translate(-50%, -50%); border:5px solid black"">","","","","","","","",""
"","13999.929999990854","sequential-stimulus-presentation-old","110","632844","0.0-25.0-1.3","SS1619740073432","trial","","40","500","14499.929999990854","images/stimuli/spore_stims/simple_13_A_b.gif","images/stimuli/spore_stims/simple_19_A_a.gif","self_paced","","8","simple_dissimilar","images/stimuli/spore_stims/simple_19_A_a.gif","","","","",""
"","null","html-keyboard-response","111","634129","0.0-25.0-0.4","SS1619740073432","","","null","","","","","","<p><img src= images/blank.png width =""600"" height = ""600"" style=""position:fixed;top:50%; left:50%; transform: translate(-50%, -50%); border:5px solid black"">","","","","","","","",""
"","196.33999996585771","sequential-stimulus-presentation-old","112","634828","0.0-25.0-1.4","SS1619740073432","trial","","40","500","696.3399999658577","images/stimuli/spore_stims/simple_13_A_b.gif","images/stimuli/spore_stims/simple_19_A_a.gif","self_paced","","8","simple_dissimilar","images/stimuli/spore_stims/simple_19_A_a.gif","","","","",""
"","null","html-keyboard-response","113","635907","0.0-25.0-0.5","SS1619740073432","","","null","","","","","","<p><img src= images/blank.png width =""600"" height = ""600"" style=""position:fixed;top:50%; left:50%; transform: translate(-50%, -50%); border:5px solid black"">","","","","","","","",""
"","386.9249999988824","sequential-stimulus-presentation-old","114","636796","0.0-25.0-1.5","SS1619740073432","trial","","40","500","886.9249999988824","images/stimuli/spore_stims/simple_13_A_b.gif","images/stimuli/spore_stims/simple_19_A_a.gif","self_paced","","8","simple_dissimilar","images/stimuli/spore_stims/simple_19_A_a.gif","","","","",""
"","3500.865000009071","survey-multi-choice","115","640298","0.0-26.0","SS1619740073432","math_question","","","","","","","","","","","","{""Q0"":""14""}","[0]","14","",""
"","null","html-keyboard-response","116","641131","0.0-27.0-0.0","SS1619740073432","","","null","","","","","","<p><img src= images/blank.png width =""600"" height = ""600"" style=""position:fixed;top:50%; left:50%; transform: translate(-50%, -50%); border:5px solid black"">","","","","","","","",""
"","9941.615000017919","sequential-stimulus-presentation-old","117","666076","0.0-27.0-1.0","SS1619740073432","trial","","40","500","10441.615000017919","images/stimuli/spore_stims/simple_03_A_b.gif","images/stimuli/spore_stims/simple_10_A_a.gif","forced_long","","9","simple_dissimilar","images/stimuli/spore_stims/simple_10_A_a.gif","","","","",""
"","null","html-keyboard-response","118","666963","0.0-27.0-0.1","SS1619740073432","","","null","","","","","","<p><img src= images/blank.png width =""600"" height = ""600"" style=""position:fixed;top:50%; left:50%; transform: translate(-50%, -50%); border:5px solid black"">","","","","","","","",""
"","5714.195000007749","sequential-stimulus-presentation-old","119","673180","0.0-27.0-1.1","SS1619740073432","trial","","40","500","6214.195000007749","images/stimuli/spore_stims/simple_03_A_b.gif","images/stimuli/spore_stims/simple_10_A_a.gif","forced_long","","9","simple_dissimilar","images/stimuli/spore_stims/simple_03_A_b.gif","","","","",""
"","null","html-keyboard-response","120","674009","0.0-27.0-0.2","SS1619740073432","","","null","","","","","","<p><img src= images/blank.png width =""600"" height = ""600"" style=""position:fixed;top:50%; left:50%; transform: translate(-50%, -50%); border:5px solid black"">","","","","","","","",""
"","3749.0899999975227","sequential-stimulus-presentation-old","121","678261","0.0-27.0-1.2","SS1619740073432","trial","","40","500","4249.089999997523","images/stimuli/spore_stims/simple_03_A_b.gif","images/stimuli/spore_stims/simple_10_A_a.gif","forced_long","","9","simple_dissimilar","images/stimuli/spore_stims/simple_10_A_a.gif","","","","",""
"","null","html-keyboard-response","122","679361","0.0-27.0-0.3","SS1619740073432","","","null","","","","","","<p><img src= images/blank.png width =""600"" height = ""600"" style=""position:fixed;top:50%; left:50%; transform: translate(-50%, -50%); border:5px solid black"">","","","","","","","",""
"","3812.2899999725632","sequential-stimulus-presentation-old","123","683676","0.0-27.0-1.3","SS1619740073432","trial","","40","500","4312.289999972563","images/stimuli/spore_stims/simple_03_A_b.gif","images/stimuli/spore_stims/simple_10_A_a.gif","forced_long","","9","simple_dissimilar","images/stimuli/spore_stims/simple_03_A_b.gif","","","","",""
"","null","html-keyboard-response","124","684732","0.0-27.0-0.4","SS1619740073432","","","null","","","","","","<p><img src= images/blank.png width =""600"" height = ""600"" style=""position:fixed;top:50%; left:50%; transform: translate(-50%, -50%); border:5px solid black"">","","","","","","","",""
"","2256.6750000114553","sequential-stimulus-presentation-old","125","687492","0.0-27.0-1.4","SS1619740073432","trial","","40","500","2756.6750000114553","images/stimuli/spore_stims/simple_03_A_b.gif","images/stimuli/spore_stims/simple_10_A_a.gif","forced_long","","9","simple_dissimilar","images/stimuli/spore_stims/simple_10_A_a.gif","","","","",""
"","12372.619999980088","survey-multi-choice","126","699866","0.0-28.0","SS1619740073432","math_question","","","","","","","","","","","","{""Q0"":""5""}","[0]","5","",""
"","null","html-keyboard-response","127","700675","0.0-29.0-0.0","SS1619740073432","","","null","","","","","","<p><img src= images/blank.png width =""600"" height = ""600"" style=""position:fixed;top:50%; left:50%; transform: translate(-50%, -50%); border:5px solid black"">","","","","","","","",""
"","1126.0849999962375","sequential-stimulus-presentation-old","128","716804","0.0-29.0-1.0","SS1619740073432","trial","","40","500","1626.0849999962375","images/stimuli/spore_stims/complex_01_A_b.gif","images/stimuli/spore_stims/complex_18_A_a.gif","forced_long","","10","complex_dissimilar","images/stimuli/spore_stims/complex_18_A_a.gif","","","","",""
"","null","html-keyboard-response","129","717929","0.0-29.0-0.1","SS1619740073432","","","null","","","","","","<p><img src= images/blank.png width =""600"" height = ""600"" style=""position:fixed;top:50%; left:50%; transform: translate(-50%, -50%); border:5px solid black"">","","","","","","","",""
"","1475.7499999832362","sequential-stimulus-presentation-old","130","719907","0.0-29.0-1.1","SS1619740073432","trial","","40","500","1975.7499999832362","images/stimuli/spore_stims/complex_01_A_b.gif","images/stimuli/spore_stims/complex_18_A_a.gif","forced_long","","10","complex_dissimilar","images/stimuli/spore_stims/complex_18_A_a.gif","","","","",""
"","null","html-keyboard-response","131","720913","0.0-29.0-0.2","SS1619740073432","","","null","","","","","","<p><img src= images/blank.png width =""600"" height = ""600"" style=""position:fixed;top:50%; left:50%; transform: translate(-50%, -50%); border:5px solid black"">","","","","","","","",""
"","1173.990000039339","sequential-stimulus-presentation-old","132","722595","0.0-29.0-1.2","SS1619740073432","trial","","40","500","1673.990000039339","images/stimuli/spore_stims/complex_01_A_b.gif","images/stimuli/spore_stims/complex_18_A_a.gif","forced_long","","10","complex_dissimilar","images/stimuli/spore_stims/complex_18_A_a.gif","","","","",""
"","null","html-keyboard-response","133","723684","0.0-29.0-0.3","SS1619740073432","","","null","","","","","","<p><img src= images/blank.png width =""600"" height = ""600"" style=""position:fixed;top:50%; left:50%; transform: translate(-50%, -50%); border:5px solid black"">","","","","","","","",""
"","1048.7599999760278","sequential-stimulus-presentation-old","134","725235","0.0-29.0-1.3","SS1619740073432","trial","","40","500","1548.7599999760278","images/stimuli/spore_stims/complex_01_A_b.gif","images/stimuli/spore_stims/complex_18_A_a.gif","forced_long","","10","complex_dissimilar","images/stimuli/spore_stims/complex_18_A_a.gif","","","","",""
"","null","html-keyboard-response","135","726246","0.0-29.0-0.4","SS1619740073432","","","null","","","","","","<p><img src= images/blank.png width =""600"" height = ""600"" style=""position:fixed;top:50%; left:50%; transform: translate(-50%, -50%); border:5px solid black"">","","","","","","","",""
"","2670.1800000155345","sequential-stimulus-presentation-old","136","729419","0.0-29.0-1.4","SS1619740073432","trial","","40","500","3170.1800000155345","images/stimuli/spore_stims/complex_01_A_b.gif","images/stimuli/spore_stims/complex_18_A_a.gif","forced_long","","10","complex_dissimilar","images/stimuli/spore_stims/complex_18_A_a.gif","","","","",""
"","null","html-keyboard-response","137","730444","0.0-29.0-0.5","SS1619740073432","","","null","","","","","","<p><img src= images/blank.png width =""600"" height = ""600"" style=""position:fixed;top:50%; left:50%; transform: translate(-50%, -50%); border:5px solid black"">","","","","","","","",""
"","1903.2599999918602","sequential-stimulus-presentation-old","138","732851","0.0-29.0-1.5","SS1619740073432","trial","","40","500","2403.2599999918602","images/stimuli/spore_stims/complex_01_A_b.gif","images/stimuli/spore_stims/complex_18_A_a.gif","forced_long","","10","complex_dissimilar","images/stimuli/spore_stims/complex_18_A_a.gif","","","","",""
"","2996.564999979455","survey-multi-choice","139","735849","0.0-30.0","SS1619740073432","math_question","","","","","","","","","","","","{""Q0"":""4""}","[0]","4","",""
"","null","html-keyboard-response","140","737151","0.0-31.0-0.0","SS1619740073432","","","null","","","","","","<p><img src= images/blank.png width =""600"" height = ""600"" style=""position:fixed;top:50%; left:50%; transform: translate(-50%, -50%); border:5px solid black"">","","","","","","","",""
"","1102.1450000116602","sequential-stimulus-presentation-old","141","738764","0.0-31.0-1.0","SS1619740073432","trial","","40","500","1602.1450000116602","images/stimuli/spore_stims/complex_11_A_a.gif","images/stimuli/spore_stims/complex_18_A_b.gif","forced_short","","11","complex_dissimilar","images/stimuli/spore_stims/complex_18_A_b.gif","","","","",""
"","null","html-keyboard-response","142","739665","0.0-31.0-0.1","SS1619740073432","","","null","","","","","","<p><img src= images/blank.png width =""600"" height = ""600"" style=""position:fixed;top:50%; left:50%; transform: translate(-50%, -50%); border:5px solid black"">","","","","","","","",""
"","4096.940000017639","sequential-stimulus-presentation-old","143","744267","0.0-31.0-1.1","SS1619740073432","trial","","40","500","4596.940000017639","images/stimuli/spore_stims/complex_11_A_a.gif","images/stimuli/spore_stims/complex_18_A_b.gif","forced_short","","11","complex_dissimilar","images/stimuli/spore_stims/complex_18_A_b.gif","","","","",""
"","null","html-keyboard-response","144","745456","0.0-31.0-0.2","SS1619740073432","","","null","","","","","","<p><img src= images/blank.png width =""600"" height = ""600"" style=""position:fixed;top:50%; left:50%; transform: translate(-50%, -50%); border:5px solid black"">","","","","","","","",""
"","4908.029999991413","sequential-stimulus-presentation-old","145","750867","0.0-31.0-1.2","SS1619740073432","trial","","40","500","5408.029999991413","images/stimuli/spore_stims/complex_11_A_a.gif","images/stimuli/spore_stims/complex_18_A_b.gif","forced_short","","11","complex_dissimilar","images/stimuli/spore_stims/complex_11_A_a.gif","","","","",""
"","null","html-keyboard-response","146","751892","0.0-31.0-0.3","SS1619740073432","","","null","","","","","","<p><img src= images/blank.png width =""600"" height = ""600"" style=""position:fixed;top:50%; left:50%; transform: translate(-50%, -50%); border:5px solid black"">","","","","","","","",""
"","1063.7449999921955","sequential-stimulus-presentation-old","147","753459","0.0-31.0-1.3","SS1619740073432","trial","","40","500","1563.7449999921955","images/stimuli/spore_stims/complex_11_A_a.gif","images/stimuli/spore_stims/complex_18_A_b.gif","forced_short","","11","complex_dissimilar","images/stimuli/spore_stims/complex_18_A_b.gif","","","","",""
"[{""page_index"":0,""viewing_time"":4064.9850000045262}]","4065.2049999916926","instructions","148","757526","0.0-32.0","SS1619740073432","instructions","","","","","","","","","","","","","","","",""
"","21428.874999983236","survey-likert","149","778957","0.0-33.0","SS1619740073432","similarity_question","","","","","","","","","","","","{""Q0"":2}","[0]","","images/stimuli/spore_stims/complex_13_A_a.gif","images/stimuli/spore_stims/complex_04_A_b.gif"
"","5759.814999997616","survey-likert","150","784721","0.0-34.0","SS1619740073432","similarity_question","","","","","","","","","","","","{""Q0"":4}","[0]","","images/stimuli/spore_stims/simple_06_A_a.gif","images/stimuli/spore_stims/simple_04_A_b.gif"
"","5328.310000011697","survey-likert","151","790053","0.0-35.0","SS1619740073432","similarity_question","","","","","","","","","","","","{""Q0"":4}","[0]","","images/stimuli/spore_stims/simple_13_A_b.gif","images/stimuli/spore_stims/simple_19_A_a.gif"
"","5116.730000008829","survey-likert","152","795173","0.0-36.0","SS1619740073432","similarity_question","","","","","","","","","","","","{""Q0"":2}","[0]","","images/stimuli/spore_stims/simple_18_A_a.gif","images/stimuli/spore_stims/simple_05_A_b.gif"
"","3400.3849999862723","survey-likert","153","798577","0.0-37.0","SS1619740073432","similarity_question","","","","","","","","","","","","{""Q0"":4}","[0]","","images/stimuli/spore_stims/simple_14_A_b.gif","images/stimuli/spore_stims/simple_13_A_a.gif"
"","3891.62499998929","survey-likert","154","802472","0.0-38.0","SS1619740073432","similarity_question","","","","","","","","","","","","{""Q0"":5}","[0]","","images/stimuli/spore_stims/simple_10_A_a.gif","images/stimuli/spore_stims/simple_03_A_b.gif"
"","9356.06000002008","survey-likert","155","811832","0.0-39.0","SS1619740073432","similarity_question","","","","","","","","","","","","{""Q0"":2}","[0]","","images/stimuli/spore_stims/complex_11_A_a.gif","images/stimuli/spore_stims/complex_18_A_b.gif"
"","6016.254999965895","survey-likert","156","817852","0.0-40.0","SS1619740073432","similarity_question","","","","","","","","","","","","{""Q0"":5}","[0]","","images/stimuli/spore_stims/simple_12_A_b.gif","images/stimuli/spore_stims/simple_09_A_a.gif"
"","7756.2350000371225","survey-likert","157","825612","0.0-41.0","SS1619740073432","similarity_question","","","","","","","","","","","","{""Q0"":1}","[0]","","images/stimuli/spore_stims/complex_20_A_b.gif","images/stimuli/spore_stims/complex_03_A_a.gif"
"","8415.915000019595","survey-likert","158","834032","0.0-42.0","SS1619740073432","similarity_question","","","","","","","","","","","","{""Q0"":4}","[0]","","images/stimuli/spore_stims/complex_01_A_a.gif","images/stimuli/spore_stims/complex_15_A_b.gif"
"","4036.3000000361353","survey-likert","159","838072","0.0-43.0","SS1619740073432","similarity_question","","","","","","","","","","","","{""Q0"":2}","[0]","","images/stimuli/spore_stims/complex_06_A_a.gif","images/stimuli/spore_stims/complex_11_A_b.gif"
"","8688.070000032894","survey-likert","160","846764","0.0-44.0","SS1619740073432","similarity_question","","","","","","","","","","","","{""Q0"":2}","[0]","","images/stimuli/spore_stims/complex_01_A_b.gif","images/stimuli/spore_stims/complex_18_A_a.gif"
"[{""page_index"":0,""viewing_time"":2920.0749999727122}]","2920.2349999686703","instructions","161","849688","0.0-45.0","SS1619740073432","instructions","","","","","","","","","","","","","","","",""
"","8650.280000001658","survey-likert","162","858340","0.0-46.0","SS1619740073432","","","","","","","","","images/stimuli/spore_stims/simple_06_A_a.gif","","","","{""Q0"":1}","[0]","","",""
"","6480.334999971092","survey-likert","163","864824","0.0-47.0","SS1619740073432","","","","","","","","","images/stimuli/spore_stims/complex_06_A_a.gif","","","","{""Q0"":5}","[0]","","",""
"","3319.584999990184","survey-likert","164","868148","0.0-48.0","SS1619740073432","","","","","","","","","images/stimuli/spore_stims/simple_19_A_a.gif","","","","{""Q0"":1}","[0]","","",""
"","4096.27499995986","survey-likert","165","872248","0.0-49.0","SS1619740073432","","","","","","","","","images/stimuli/spore_stims/simple_05_A_b.gif","","","","{""Q0"":0}","[0]","","",""
"","5700.139999971725","survey-likert","166","877952","0.0-50.0","SS1619740073432","","","","","","","","","images/stimuli/spore_stims/complex_03_A_a.gif","","","","{""Q0"":4}","[0]","","",""
"","2004.1199999977835","survey-likert","167","879960","0.0-51.0","SS1619740073432","","","","","","","","","images/stimuli/spore_stims/simple_03_A_b.gif","","","","{""Q0"":1}","[0]","","",""
"","6695.329999958631","survey-likert","168","886659","0.0-52.0","SS1619740073432","","","","","","","","","images/stimuli/spore_stims/complex_01_A_a.gif","","","","{""Q0"":3}","[0]","","",""
"","2336.375000013504","survey-likert","169","889000","0.0-53.0","SS1619740073432","","","","","","","","","images/stimuli/spore_stims/complex_04_A_b.gif","","","","{""Q0"":4}","[0]","","",""
"","4760.0450000027195","survey-likert","170","893763","0.0-54.0","SS1619740073432","","","","","","","","","images/stimuli/spore_stims/complex_01_A_b.gif","","","","{""Q0"":3}","[0]","","",""
"","2236.6150000016205","survey-likert","171","896004","0.0-55.0","SS1619740073432","","","","","","","","","images/stimuli/spore_stims/simple_14_A_b.gif","","","","{""Q0"":1}","[0]","","",""
"","1844.2299999878742","survey-likert","172","897852","0.0-56.0","SS1619740073432","","","","","","","","","images/stimuli/spore_stims/simple_12_A_b.gif","","","","{""Q0"":1}","[0]","","",""
"","3359.375","survey-likert","173","901215","0.0-57.0","SS1619740073432","","","","","","","","","images/stimuli/spore_stims/complex_18_A_b.gif","","","","{""Q0"":5}","[0]","","",""
"[{""page_index"":0,""viewing_time"":1460.2199999499135}]","1460.3799999458715","instructions","174","902679","0.0-58.0","SS1619740073432","instructions","","","","","","","","","","","","","","","",""
"","2772.9350000154227","demog-age","175","905455","0.0-59.0","SS1619740073432","","","","","","","","","","","","","{""age"":""24""}","","","",""
"","2880.384999967646","demog-ethnic-US","176","908339","0.0-60.0","SS1619740073432","","","","","","","","","","","","","{""ethnicity"":[""Hispanic or Latino""]}","[0]","","",""
"","4775.894999969751","demog-gender-and-education","177","913119","0.0-61.0","SS1619740073432","","","","","","","","","","","","","{""gender"":""Male"",""education"":""Bachelor's Degree""}","[0,1]","","",""
"","36745.9600000293","survey-text","178","949870","0.0-62.0","SS1619740073432","feedback","","","","","","","","","","","","{""Q0"":""No major issues. The animation changed sizes throughout the experiment.""}","","","",""
"[{""page_index"":0,""viewing_time"":1385.8649999601766}]","1386.0400000121444","instructions","179","951258","0.0-63.0","SS1619740073432","instructions","","","","","","","","","","","","","","","",""
