"view_history","rt","trial_type","trial_index","time_elapsed","internal_node_id","subject","stimulus_type","trial_stimulus","key_press","minimum_viewing_duration","trial_looking_time","block_deviant","block_background","exposure_type","stimulus","block_number","block_type","stimulus_displayed","responses","question_order","math_correct_answer","stimulus_left","stimulus_right"
"[{""page_index"":0,""viewing_time"":12267.48999999836}]","12269.295000005513","instructions","0","12274","0.0-0.0","SS1619740239084","","","","","","","","","","","","","","","","",""
"[{""page_index"":0,""viewing_time"":18486.885000020266},{""page_index"":1,""viewing_time"":9580.429999972694}]","28067.86499998998","instructions","1","42349","0.0-1.0","SS1619740239084","instructions","","","","","","","","","","","","","","","",""
"","12146.9550000038","sequential-stimulus-presentation-old","2","55006","0.0-2.0","SS1619740239084","","","40","500","12646.9550000038","null","null","self_paced","","","","","","","","",""
"","6695.219999994151","sequential-stimulus-presentation-old","3","62205","0.0-3.0","SS1619740239084","","","40","500","7195.219999994151","null","null","self_paced","","","","","","","","",""
"[{""page_index"":0,""viewing_time"":28905.02499998547}]","28905.469999997877","instructions","4","91113","0.0-4.0","SS1619740239084","instructions","","","","","","","","","","","","","","","",""
"","1766.8150000972673","sequential-stimulus-presentation-old","5","107889","0.0-5.0","SS1619740239084","","","40","500","2266.8150000972673","null","null","forced_long","","","","","","","","",""
"","4442.009999998845","sequential-stimulus-presentation-old","6","112837","0.0-6.0","SS1619740239084","","","40","500","4942.009999998845","null","null","forced_long","","","","","","","","",""
"[{""page_index"":0,""viewing_time"":5072.399999946356}]","5072.919999947771","instructions","7","117913","0.0-7.0","SS1619740239084","instructions","","","","","","","","","","","","","","","",""
"[{""page_index"":0,""viewing_time"":28348.39500009548},{""page_index"":1,""viewing_time"":14558.7199999718},{""page_index"":2,""viewing_time"":10771.175000001676},{""page_index"":3,""viewing_time"":2328.815000015311},{""page_index"":4,""viewing_time"":1300.1849999418482}]","57307.95500008389","instructions","8","175223","0.0-8.0","SS1619740239084","instructions","","","","","","","","","","","","","","","",""
"","null","html-keyboard-response","9","176335","0.0-9.0-0.0","SS1619740239084","","","null","","","","","","<p><img src= images/blank.png width =""600"" height = ""600"" style=""position:fixed;top:50%; left:50%; transform: translate(-50%, -50%); border:5px solid black"">","","","","","","","",""
"","6883.495000074618","sequential-stimulus-presentation-old","10","183732","0.0-9.0-1.0","SS1619740239084","trial","","40","500","7383.495000074618","images/stimuli/spore_stims/complex_04_A_b.gif","images/stimuli/spore_stims/complex_20_A_a.gif","self_paced","","0","complex_dissimilar","images/stimuli/spore_stims/complex_20_A_a.gif","","","","",""
"","null","html-keyboard-response","11","184975","0.0-9.0-0.1","SS1619740239084","","","null","","","","","","<p><img src= images/blank.png width =""600"" height = ""600"" style=""position:fixed;top:50%; left:50%; transform: translate(-50%, -50%); border:5px solid black"">","","","","","","","",""
"","5872.74499994237","sequential-stimulus-presentation-old","12","191354","0.0-9.0-1.1","SS1619740239084","trial","","40","500","6372.74499994237","images/stimuli/spore_stims/complex_04_A_b.gif","images/stimuli/spore_stims/complex_20_A_a.gif","self_paced","","0","complex_dissimilar","images/stimuli/spore_stims/complex_20_A_a.gif","","","","",""
"","null","html-keyboard-response","13","192481","0.0-9.0-0.2","SS1619740239084","","","null","","","","","","<p><img src= images/blank.png width =""600"" height = ""600"" style=""position:fixed;top:50%; left:50%; transform: translate(-50%, -50%); border:5px solid black"">","","","","","","","",""
"","8537.520000012591","sequential-stimulus-presentation-old","14","201531","0.0-9.0-1.2","SS1619740239084","trial","","40","500","9037.520000012591","images/stimuli/spore_stims/complex_04_A_b.gif","images/stimuli/spore_stims/complex_20_A_a.gif","self_paced","","0","complex_dissimilar","images/stimuli/spore_stims/complex_20_A_a.gif","","","","",""
"","null","html-keyboard-response","15","202773","0.0-9.0-0.3","SS1619740239084","","","null","","","","","","<p><img src= images/blank.png width =""600"" height = ""600"" style=""position:fixed;top:50%; left:50%; transform: translate(-50%, -50%); border:5px solid black"">","","","","","","","",""
"","8142.0149999903515","sequential-stimulus-presentation-old","16","211426","0.0-9.0-1.3","SS1619740239084","trial","","40","500","8642.014999990351","images/stimuli/spore_stims/complex_04_A_b.gif","images/stimuli/spore_stims/complex_20_A_a.gif","self_paced","","0","complex_dissimilar","images/stimuli/spore_stims/complex_20_A_a.gif","","","","",""
"","null","html-keyboard-response","17","212260","0.0-9.0-0.4","SS1619740239084","","","null","","","","","","<p><img src= images/blank.png width =""600"" height = ""600"" style=""position:fixed;top:50%; left:50%; transform: translate(-50%, -50%); border:5px solid black"">","","","","","","","",""
"","3672.759999986738","sequential-stimulus-presentation-old","18","216440","0.0-9.0-1.4","SS1619740239084","trial","","40","500","4172.759999986738","images/stimuli/spore_stims/complex_04_A_b.gif","images/stimuli/spore_stims/complex_20_A_a.gif","self_paced","","0","complex_dissimilar","images/stimuli/spore_stims/complex_20_A_a.gif","","","","",""
"","null","html-keyboard-response","19","217406","0.0-9.0-0.5","SS1619740239084","","","null","","","","","","<p><img src= images/blank.png width =""600"" height = ""600"" style=""position:fixed;top:50%; left:50%; transform: translate(-50%, -50%); border:5px solid black"">","","","","","","","",""
"","2615.5150000704452","sequential-stimulus-presentation-old","20","220533","0.0-9.0-1.5","SS1619740239084","trial","","40","500","3115.5150000704452","images/stimuli/spore_stims/complex_04_A_b.gif","images/stimuli/spore_stims/complex_20_A_a.gif","self_paced","","0","complex_dissimilar","images/stimuli/spore_stims/complex_20_A_a.gif","","","","",""
"","7718.705000006594","survey-multi-choice","21","228261","0.0-10.0","SS1619740239084","math_question","","","","","","","","","","","","{""Q0"":""17""}","[0]","17","",""
"","null","html-keyboard-response","22","229314","0.0-11.0-0.0","SS1619740239084","","","null","","","","","","<p><img src= images/blank.png width =""600"" height = ""600"" style=""position:fixed;top:50%; left:50%; transform: translate(-50%, -50%); border:5px solid black"">","","","","","","","",""
"","8571.145000052638","sequential-stimulus-presentation-old","23","238395","0.0-11.0-1.0","SS1619740239084","trial","","40","500","9071.145000052638","images/stimuli/spore_stims/simple_20_A_b.gif","images/stimuli/spore_stims/simple_14_A_a.gif","self_paced","","1","simple_dissimilar","images/stimuli/spore_stims/simple_14_A_a.gif","","","","",""
"","null","html-keyboard-response","24","239225","0.0-11.0-0.1","SS1619740239084","","","null","","","","","","<p><img src= images/blank.png width =""600"" height = ""600"" style=""position:fixed;top:50%; left:50%; transform: translate(-50%, -50%); border:5px solid black"">","","","","","","","",""
"","3119.41000004299","sequential-stimulus-presentation-old","25","242854","0.0-11.0-1.1","SS1619740239084","trial","","40","500","3619.41000004299","images/stimuli/spore_stims/simple_20_A_b.gif","images/stimuli/spore_stims/simple_14_A_a.gif","self_paced","","1","simple_dissimilar","images/stimuli/spore_stims/simple_14_A_a.gif","","","","",""
"","null","html-keyboard-response","26","243732","0.0-11.0-0.2","SS1619740239084","","","null","","","","","","<p><img src= images/blank.png width =""600"" height = ""600"" style=""position:fixed;top:50%; left:50%; transform: translate(-50%, -50%); border:5px solid black"">","","","","","","","",""
"","4198.175000026822","sequential-stimulus-presentation-old","27","248437","0.0-11.0-1.2","SS1619740239084","trial","","40","500","4698.175000026822","images/stimuli/spore_stims/simple_20_A_b.gif","images/stimuli/spore_stims/simple_14_A_a.gif","self_paced","","1","simple_dissimilar","images/stimuli/spore_stims/simple_20_A_b.gif","","","","",""
"","null","html-keyboard-response","28","249465","0.0-11.0-0.3","SS1619740239084","","","null","","","","","","<p><img src= images/blank.png width =""600"" height = ""600"" style=""position:fixed;top:50%; left:50%; transform: translate(-50%, -50%); border:5px solid black"">","","","","","","","",""
"","3068.210000055842","sequential-stimulus-presentation-old","29","253045","0.0-11.0-1.3","SS1619740239084","trial","","40","500","3568.210000055842","images/stimuli/spore_stims/simple_20_A_b.gif","images/stimuli/spore_stims/simple_14_A_a.gif","self_paced","","1","simple_dissimilar","images/stimuli/spore_stims/simple_14_A_a.gif","","","","",""
"","null","html-keyboard-response","30","254107","0.0-11.0-0.4","SS1619740239084","","","null","","","","","","<p><img src= images/blank.png width =""600"" height = ""600"" style=""position:fixed;top:50%; left:50%; transform: translate(-50%, -50%); border:5px solid black"">","","","","","","","",""
"","2733.944999985397","sequential-stimulus-presentation-old","31","257361","0.0-11.0-1.4","SS1619740239084","trial","","40","500","3233.944999985397","images/stimuli/spore_stims/simple_20_A_b.gif","images/stimuli/spore_stims/simple_14_A_a.gif","self_paced","","1","simple_dissimilar","images/stimuli/spore_stims/simple_20_A_b.gif","","","","",""
"","9204.889999935403","survey-multi-choice","32","266572","0.0-12.0","SS1619740239084","math_question","","","","","","","","","","","","{""Q0"":""15""}","[0]","15","",""
"","null","html-keyboard-response","33","267411","0.0-13.0-0.0","SS1619740239084","","","null","","","","","","<p><img src= images/blank.png width =""600"" height = ""600"" style=""position:fixed;top:50%; left:50%; transform: translate(-50%, -50%); border:5px solid black"">","","","","","","","",""
"","1523.5600000014529","sequential-stimulus-presentation-old","34","283945","0.0-13.0-1.0","SS1619740239084","trial","","40","500","2023.5600000014529","images/stimuli/spore_stims/simple_03_A_b.gif","images/stimuli/spore_stims/simple_05_A_a.gif","forced_long","","2","simple_dissimilar","images/stimuli/spore_stims/simple_05_A_a.gif","","","","",""
"","null","html-keyboard-response","35","284813","0.0-13.0-0.1","SS1619740239084","","","null","","","","","","<p><img src= images/blank.png width =""600"" height = ""600"" style=""position:fixed;top:50%; left:50%; transform: translate(-50%, -50%); border:5px solid black"">","","","","","","","",""
"","1521.4949999935925","sequential-stimulus-presentation-old","36","286846","0.0-13.0-1.1","SS1619740239084","trial","","40","500","2021.4949999935925","images/stimuli/spore_stims/simple_03_A_b.gif","images/stimuli/spore_stims/simple_05_A_a.gif","forced_long","","2","simple_dissimilar","images/stimuli/spore_stims/simple_05_A_a.gif","","","","",""
"","null","html-keyboard-response","37","287658","0.0-13.0-0.2","SS1619740239084","","","null","","","","","","<p><img src= images/blank.png width =""600"" height = ""600"" style=""position:fixed;top:50%; left:50%; transform: translate(-50%, -50%); border:5px solid black"">","","","","","","","",""
"","1667.505000019446","sequential-stimulus-presentation-old","38","289833","0.0-13.0-1.2","SS1619740239084","trial","","40","500","2167.505000019446","images/stimuli/spore_stims/simple_03_A_b.gif","images/stimuli/spore_stims/simple_05_A_a.gif","forced_long","","2","simple_dissimilar","images/stimuli/spore_stims/simple_05_A_a.gif","","","","",""
"","null","html-keyboard-response","39","291132","0.0-13.0-0.3","SS1619740239084","","","null","","","","","","<p><img src= images/blank.png width =""600"" height = ""600"" style=""position:fixed;top:50%; left:50%; transform: translate(-50%, -50%); border:5px solid black"">","","","","","","","",""
"","3018.775000004098","sequential-stimulus-presentation-old","40","294660","0.0-13.0-1.3","SS1619740239084","trial","","40","500","3518.775000004098","images/stimuli/spore_stims/simple_03_A_b.gif","images/stimuli/spore_stims/simple_05_A_a.gif","forced_long","","2","simple_dissimilar","images/stimuli/spore_stims/simple_05_A_a.gif","","","","",""
"","null","html-keyboard-response","41","295858","0.0-13.0-0.4","SS1619740239084","","","null","","","","","","<p><img src= images/blank.png width =""600"" height = ""600"" style=""position:fixed;top:50%; left:50%; transform: translate(-50%, -50%); border:5px solid black"">","","","","","","","",""
"","4661.869999952614","sequential-stimulus-presentation-old","42","301037","0.0-13.0-1.4","SS1619740239084","trial","","40","500","5161.869999952614","images/stimuli/spore_stims/simple_03_A_b.gif","images/stimuli/spore_stims/simple_05_A_a.gif","forced_long","","2","simple_dissimilar","images/stimuli/spore_stims/simple_03_A_b.gif","","","","",""
"","3747.6850000675768","survey-multi-choice","43","304790","0.0-14.0","SS1619740239084","math_question","","","","","","","","","","","","{""Q0"":""9""}","[0]","9","",""
"","null","html-keyboard-response","44","305849","0.0-15.0-0.0","SS1619740239084","","","null","","","","","","<p><img src= images/blank.png width =""600"" height = ""600"" style=""position:fixed;top:50%; left:50%; transform: translate(-50%, -50%); border:5px solid black"">","","","","","","","",""
"","1727.1549999713898","sequential-stimulus-presentation-old","45","308087","0.0-15.0-1.0","SS1619740239084","trial","","40","500","2227.1549999713898","images/stimuli/spore_stims/simple_15_A_b.gif","images/stimuli/spore_stims/simple_18_A_a.gif","forced_short","","3","simple_dissimilar","images/stimuli/spore_stims/simple_18_A_a.gif","","","","",""
"","null","html-keyboard-response","46","309014","0.0-15.0-0.1","SS1619740239084","","","null","","","","","","<p><img src= images/blank.png width =""600"" height = ""600"" style=""position:fixed;top:50%; left:50%; transform: translate(-50%, -50%); border:5px solid black"">","","","","","","","",""
"","4040.4499999713153","sequential-stimulus-presentation-old","47","313562","0.0-15.0-1.1","SS1619740239084","trial","","40","500","4540.449999971315","images/stimuli/spore_stims/simple_15_A_b.gif","images/stimuli/spore_stims/simple_18_A_a.gif","forced_short","","3","simple_dissimilar","images/stimuli/spore_stims/simple_18_A_a.gif","","","","",""
"","null","html-keyboard-response","48","314795","0.0-15.0-0.2","SS1619740239084","","","null","","","","","","<p><img src= images/blank.png width =""600"" height = ""600"" style=""position:fixed;top:50%; left:50%; transform: translate(-50%, -50%); border:5px solid black"">","","","","","","","",""
"","1719.92499998305","sequential-stimulus-presentation-old","49","317026","0.0-15.0-1.2","SS1619740239084","trial","","40","500","2219.92499998305","images/stimuli/spore_stims/simple_15_A_b.gif","images/stimuli/spore_stims/simple_18_A_a.gif","forced_short","","3","simple_dissimilar","images/stimuli/spore_stims/simple_18_A_a.gif","","","","",""
"","null","html-keyboard-response","50","317884","0.0-15.0-0.3","SS1619740239084","","","null","","","","","","<p><img src= images/blank.png width =""600"" height = ""600"" style=""position:fixed;top:50%; left:50%; transform: translate(-50%, -50%); border:5px solid black"">","","","","","","","",""
"","1585.785000002943","sequential-stimulus-presentation-old","51","319982","0.0-15.0-1.3","SS1619740239084","trial","","40","500","2085.785000002943","images/stimuli/spore_stims/simple_15_A_b.gif","images/stimuli/spore_stims/simple_18_A_a.gif","forced_short","","3","simple_dissimilar","images/stimuli/spore_stims/simple_18_A_a.gif","","","","",""
"","null","html-keyboard-response","52","321229","0.0-15.0-0.4","SS1619740239084","","","null","","","","","","<p><img src= images/blank.png width =""600"" height = ""600"" style=""position:fixed;top:50%; left:50%; transform: translate(-50%, -50%); border:5px solid black"">","","","","","","","",""
"","4612.005000002682","sequential-stimulus-presentation-old","53","326351","0.0-15.0-1.4","SS1619740239084","trial","","40","500","5112.005000002682","images/stimuli/spore_stims/simple_15_A_b.gif","images/stimuli/spore_stims/simple_18_A_a.gif","forced_short","","3","simple_dissimilar","images/stimuli/spore_stims/simple_15_A_b.gif","","","","",""
"","4613.255000091158","survey-multi-choice","54","330970","0.0-16.0","SS1619740239084","math_question","","","","","","","","","","","","{""Q0"":""11""}","[0]","11","",""
"","null","html-keyboard-response","55","331888","0.0-17.0-0.0","SS1619740239084","","","null","","","","","","<p><img src= images/blank.png width =""600"" height = ""600"" style=""position:fixed;top:50%; left:50%; transform: translate(-50%, -50%); border:5px solid black"">","","","","","","","",""
"","957.9499999526888","sequential-stimulus-presentation-old","56","347856","0.0-17.0-1.0","SS1619740239084","trial","","40","500","1457.9499999526888","images/stimuli/spore_stims/complex_06_A_b.gif","images/stimuli/spore_stims/complex_08_A_a.gif","forced_long","","4","complex_dissimilar","images/stimuli/spore_stims/complex_08_A_a.gif","","","","",""
"","null","html-keyboard-response","57","348937","0.0-17.0-0.1","SS1619740239084","","","null","","","","","","<p><img src= images/blank.png width =""600"" height = ""600"" style=""position:fixed;top:50%; left:50%; transform: translate(-50%, -50%); border:5px solid black"">","","","","","","","",""
"","1884.7700000042096","sequential-stimulus-presentation-old","58","351331","0.0-17.0-1.1","SS1619740239084","trial","","40","500","2384.7700000042096","images/stimuli/spore_stims/complex_06_A_b.gif","images/stimuli/spore_stims/complex_08_A_a.gif","forced_long","","4","complex_dissimilar","images/stimuli/spore_stims/complex_08_A_a.gif","","","","",""
"","null","html-keyboard-response","59","352365","0.0-17.0-0.2","SS1619740239084","","","null","","","","","","<p><img src= images/blank.png width =""600"" height = ""600"" style=""position:fixed;top:50%; left:50%; transform: translate(-50%, -50%); border:5px solid black"">","","","","","","","",""
"","1168.030000058934","sequential-stimulus-presentation-old","60","354042","0.0-17.0-1.2","SS1619740239084","trial","","40","500","1668.030000058934","images/stimuli/spore_stims/complex_06_A_b.gif","images/stimuli/spore_stims/complex_08_A_a.gif","forced_long","","4","complex_dissimilar","images/stimuli/spore_stims/complex_08_A_a.gif","","","","",""
"","null","html-keyboard-response","61","355335","0.0-17.0-0.3","SS1619740239084","","","null","","","","","","<p><img src= images/blank.png width =""600"" height = ""600"" style=""position:fixed;top:50%; left:50%; transform: translate(-50%, -50%); border:5px solid black"">","","","","","","","",""
"","4329.1999999200925","sequential-stimulus-presentation-old","62","360172","0.0-17.0-1.3","SS1619740239084","trial","","40","500","4829.1999999200925","images/stimuli/spore_stims/complex_06_A_b.gif","images/stimuli/spore_stims/complex_08_A_a.gif","forced_long","","4","complex_dissimilar","images/stimuli/spore_stims/complex_06_A_b.gif","","","","",""
"","null","html-keyboard-response","63","361383","0.0-17.0-0.4","SS1619740239084","","","null","","","","","","<p><img src= images/blank.png width =""600"" height = ""600"" style=""position:fixed;top:50%; left:50%; transform: translate(-50%, -50%); border:5px solid black"">","","","","","","","",""
"","4693.425000063144","sequential-stimulus-presentation-old","64","366588","0.0-17.0-1.4","SS1619740239084","trial","","40","500","5193.425000063144","images/stimuli/spore_stims/complex_06_A_b.gif","images/stimuli/spore_stims/complex_08_A_a.gif","forced_long","","4","complex_dissimilar","images/stimuli/spore_stims/complex_08_A_a.gif","","","","",""
"","null","html-keyboard-response","65","367750","0.0-17.0-0.5","SS1619740239084","","","null","","","","","","<p><img src= images/blank.png width =""600"" height = ""600"" style=""position:fixed;top:50%; left:50%; transform: translate(-50%, -50%); border:5px solid black"">","","","","","","","",""
"","2492.7850000094622","sequential-stimulus-presentation-old","66","370754","0.0-17.0-1.5","SS1619740239084","trial","","40","500","2992.7850000094622","images/stimuli/spore_stims/complex_06_A_b.gif","images/stimuli/spore_stims/complex_08_A_a.gif","forced_long","","4","complex_dissimilar","images/stimuli/spore_stims/complex_08_A_a.gif","","","","",""
"","6532.650000066496","survey-multi-choice","67","377292","0.0-18.0","SS1619740239084","math_question","","","","","","","","","","","","{""Q0"":""13""}","[0]","13","",""
"","null","html-keyboard-response","68","378461","0.0-19.0-0.0","SS1619740239084","","","null","","","","","","<p><img src= images/blank.png width =""600"" height = ""600"" style=""position:fixed;top:50%; left:50%; transform: translate(-50%, -50%); border:5px solid black"">","","","","","","","",""
"","591.3050000090152","sequential-stimulus-presentation-old","69","394064","0.0-19.0-1.0","SS1619740239084","trial","","40","500","1091.3050000090152","images/stimuli/spore_stims/complex_04_A_a.gif","images/stimuli/spore_stims/complex_18_A_b.gif","forced_long","","5","complex_dissimilar","images/stimuli/spore_stims/complex_18_A_b.gif","","","","",""
"","null","html-keyboard-response","70","394984","0.0-19.0-0.1","SS1619740239084","","","null","","","","","","<p><img src= images/blank.png width =""600"" height = ""600"" style=""position:fixed;top:50%; left:50%; transform: translate(-50%, -50%); border:5px solid black"">","","","","","","","",""
"","1408.5649999324232","sequential-stimulus-presentation-old","71","396900","0.0-19.0-1.1","SS1619740239084","trial","","40","500","1908.5649999324232","images/stimuli/spore_stims/complex_04_A_a.gif","images/stimuli/spore_stims/complex_18_A_b.gif","forced_long","","5","complex_dissimilar","images/stimuli/spore_stims/complex_18_A_b.gif","","","","",""
"","null","html-keyboard-response","72","397808","0.0-19.0-0.2","SS1619740239084","","","null","","","","","","<p><img src= images/blank.png width =""600"" height = ""600"" style=""position:fixed;top:50%; left:50%; transform: translate(-50%, -50%); border:5px solid black"">","","","","","","","",""
"","1564.8750000400469","sequential-stimulus-presentation-old","73","399886","0.0-19.0-1.2","SS1619740239084","trial","","40","500","2064.875000040047","images/stimuli/spore_stims/complex_04_A_a.gif","images/stimuli/spore_stims/complex_18_A_b.gif","forced_long","","5","complex_dissimilar","images/stimuli/spore_stims/complex_18_A_b.gif","","","","",""
"","null","html-keyboard-response","74","400864","0.0-19.0-0.3","SS1619740239084","","","null","","","","","","<p><img src= images/blank.png width =""600"" height = ""600"" style=""position:fixed;top:50%; left:50%; transform: translate(-50%, -50%); border:5px solid black"">","","","","","","","",""
"","911.6800000192598","sequential-stimulus-presentation-old","75","402287","0.0-19.0-1.3","SS1619740239084","trial","","40","500","1411.6800000192598","images/stimuli/spore_stims/complex_04_A_a.gif","images/stimuli/spore_stims/complex_18_A_b.gif","forced_long","","5","complex_dissimilar","images/stimuli/spore_stims/complex_18_A_b.gif","","","","",""
"","3650.7999999448657","survey-multi-choice","76","405944","0.0-20.0","SS1619740239084","math_question","","","","","","","","","","","","{""Q0"":""10""}","[0]","10","",""
"","null","html-keyboard-response","77","406968","0.0-21.0-0.0","SS1619740239084","","","null","","","","","","<p><img src= images/blank.png width =""600"" height = ""600"" style=""position:fixed;top:50%; left:50%; transform: translate(-50%, -50%); border:5px solid black"">","","","","","","","",""
"","4480.955000035465","sequential-stimulus-presentation-old","78","411963","0.0-21.0-1.0","SS1619740239084","trial","","40","500","4980.955000035465","images/stimuli/spore_stims/complex_08_A_b.gif","images/stimuli/spore_stims/complex_01_A_a.gif","self_paced","","6","complex_dissimilar","images/stimuli/spore_stims/complex_01_A_a.gif","","","","",""
"","null","html-keyboard-response","79","413015","0.0-21.0-0.1","SS1619740239084","","","null","","","","","","<p><img src= images/blank.png width =""600"" height = ""600"" style=""position:fixed;top:50%; left:50%; transform: translate(-50%, -50%); border:5px solid black"">","","","","","","","",""
"","2093.635000055656","sequential-stimulus-presentation-old","80","415618","0.0-21.0-1.1","SS1619740239084","trial","","40","500","2593.635000055656","images/stimuli/spore_stims/complex_08_A_b.gif","images/stimuli/spore_stims/complex_01_A_a.gif","self_paced","","6","complex_dissimilar","images/stimuli/spore_stims/complex_08_A_b.gif","","","","",""
"","null","html-keyboard-response","81","416898","0.0-21.0-0.2","SS1619740239084","","","null","","","","","","<p><img src= images/blank.png width =""600"" height = ""600"" style=""position:fixed;top:50%; left:50%; transform: translate(-50%, -50%); border:5px solid black"">","","","","","","","",""
"","1678.4500000067055","sequential-stimulus-presentation-old","82","419085","0.0-21.0-1.2","SS1619740239084","trial","","40","500","2178.4500000067055","images/stimuli/spore_stims/complex_08_A_b.gif","images/stimuli/spore_stims/complex_01_A_a.gif","self_paced","","6","complex_dissimilar","images/stimuli/spore_stims/complex_01_A_a.gif","","","","",""
"","null","html-keyboard-response","83","419974","0.0-21.0-0.3","SS1619740239084","","","null","","","","","","<p><img src= images/blank.png width =""600"" height = ""600"" style=""position:fixed;top:50%; left:50%; transform: translate(-50%, -50%); border:5px solid black"">","","","","","","","",""
"","1152.1549999015406","sequential-stimulus-presentation-old","84","421635","0.0-21.0-1.3","SS1619740239084","trial","","40","500","1652.1549999015406","images/stimuli/spore_stims/complex_08_A_b.gif","images/stimuli/spore_stims/complex_01_A_a.gif","self_paced","","6","complex_dissimilar","images/stimuli/spore_stims/complex_01_A_a.gif","","","","",""
"","null","html-keyboard-response","85","422794","0.0-21.0-0.4","SS1619740239084","","","null","","","","","","<p><img src= images/blank.png width =""600"" height = ""600"" style=""position:fixed;top:50%; left:50%; transform: translate(-50%, -50%); border:5px solid black"">","","","","","","","",""
"","1187.3949998989701","sequential-stimulus-presentation-old","86","424492","0.0-21.0-1.4","SS1619740239084","trial","","40","500","1687.3949998989701","images/stimuli/spore_stims/complex_08_A_b.gif","images/stimuli/spore_stims/complex_01_A_a.gif","self_paced","","6","complex_dissimilar","images/stimuli/spore_stims/complex_01_A_a.gif","","","","",""
"","null","html-keyboard-response","87","425583","0.0-21.0-0.5","SS1619740239084","","","null","","","","","","<p><img src= images/blank.png width =""600"" height = ""600"" style=""position:fixed;top:50%; left:50%; transform: translate(-50%, -50%); border:5px solid black"">","","","","","","","",""
"","1980.6350000435486","sequential-stimulus-presentation-old","88","428075","0.0-21.0-1.5","SS1619740239084","trial","","40","500","2480.6350000435486","images/stimuli/spore_stims/complex_08_A_b.gif","images/stimuli/spore_stims/complex_01_A_a.gif","self_paced","","6","complex_dissimilar","images/stimuli/spore_stims/complex_01_A_a.gif","","","","",""
"","3704.090000013821","survey-multi-choice","89","431785","0.0-22.0","SS1619740239084","math_question","","","","","","","","","","","","{""Q0"":""10""}","[0]","10","",""
"","null","html-keyboard-response","90","432952","0.0-23.0-0.0","SS1619740239084","","","null","","","","","","<p><img src= images/blank.png width =""600"" height = ""600"" style=""position:fixed;top:50%; left:50%; transform: translate(-50%, -50%); border:5px solid black"">","","","","","","","",""
"","1243.04500001017","sequential-stimulus-presentation-old","91","434716","0.0-23.0-1.0","SS1619740239084","trial","","40","500","1743.04500001017","images/stimuli/spore_stims/complex_06_A_a.gif","images/stimuli/spore_stims/complex_02_A_b.gif","forced_short","","7","complex_dissimilar","images/stimuli/spore_stims/complex_02_A_b.gif","","","","",""
"","null","html-keyboard-response","92","435931","0.0-23.0-0.1","SS1619740239084","","","null","","","","","","<p><img src= images/blank.png width =""600"" height = ""600"" style=""position:fixed;top:50%; left:50%; transform: translate(-50%, -50%); border:5px solid black"">","","","","","","","",""
"","3646.1850000778213","sequential-stimulus-presentation-old","93","440085","0.0-23.0-1.1","SS1619740239084","trial","","40","500","4146.185000077821","images/stimuli/spore_stims/complex_06_A_a.gif","images/stimuli/spore_stims/complex_02_A_b.gif","forced_short","","7","complex_dissimilar","images/stimuli/spore_stims/complex_02_A_b.gif","","","","",""
"","null","html-keyboard-response","94","441386","0.0-23.0-0.2","SS1619740239084","","","null","","","","","","<p><img src= images/blank.png width =""600"" height = ""600"" style=""position:fixed;top:50%; left:50%; transform: translate(-50%, -50%); border:5px solid black"">","","","","","","","",""
"","2560.4049999965355","sequential-stimulus-presentation-old","95","444457","0.0-23.0-1.2","SS1619740239084","trial","","40","500","3060.4049999965355","images/stimuli/spore_stims/complex_06_A_a.gif","images/stimuli/spore_stims/complex_02_A_b.gif","forced_short","","7","complex_dissimilar","images/stimuli/spore_stims/complex_02_A_b.gif","","","","",""
"","null","html-keyboard-response","96","445452","0.0-23.0-0.3","SS1619740239084","","","null","","","","","","<p><img src= images/blank.png width =""600"" height = ""600"" style=""position:fixed;top:50%; left:50%; transform: translate(-50%, -50%); border:5px solid black"">","","","","","","","",""
"","1681.5449999412522","sequential-stimulus-presentation-old","97","447643","0.0-23.0-1.3","SS1619740239084","trial","","40","500","2181.544999941252","images/stimuli/spore_stims/complex_06_A_a.gif","images/stimuli/spore_stims/complex_02_A_b.gif","forced_short","","7","complex_dissimilar","images/stimuli/spore_stims/complex_02_A_b.gif","","","","",""
"","null","html-keyboard-response","98","448814","0.0-23.0-0.4","SS1619740239084","","","null","","","","","","<p><img src= images/blank.png width =""600"" height = ""600"" style=""position:fixed;top:50%; left:50%; transform: translate(-50%, -50%); border:5px solid black"">","","","","","","","",""
"","1244.704999960959","sequential-stimulus-presentation-old","99","450569","0.0-23.0-1.4","SS1619740239084","trial","","40","500","1744.704999960959","images/stimuli/spore_stims/complex_06_A_a.gif","images/stimuli/spore_stims/complex_02_A_b.gif","forced_short","","7","complex_dissimilar","images/stimuli/spore_stims/complex_02_A_b.gif","","","","",""
"","2747.1000000368804","survey-multi-choice","100","453323","0.0-24.0","SS1619740239084","math_question","","","","","","","","","","","","{""Q0"":""11""}","[0]","11","",""
"","null","html-keyboard-response","101","454391","0.0-25.0-0.0","SS1619740239084","","","null","","","","","","<p><img src= images/blank.png width =""600"" height = ""600"" style=""position:fixed;top:50%; left:50%; transform: translate(-50%, -50%); border:5px solid black"">","","","","","","","",""
"","1262.2800000244752","sequential-stimulus-presentation-old","102","456166","0.0-25.0-1.0","SS1619740239084","trial","","40","500","1762.2800000244752","images/stimuli/spore_stims/complex_05_A_a.gif","images/stimuli/spore_stims/complex_20_A_b.gif","forced_short","","8","complex_dissimilar","images/stimuli/spore_stims/complex_20_A_b.gif","","","","",""
"","null","html-keyboard-response","103","457228","0.0-25.0-0.1","SS1619740239084","","","null","","","","","","<p><img src= images/blank.png width =""600"" height = ""600"" style=""position:fixed;top:50%; left:50%; transform: translate(-50%, -50%); border:5px solid black"">","","","","","","","",""
"","9114.294999977574","sequential-stimulus-presentation-old","104","466851","0.0-25.0-1.1","SS1619740239084","trial","","40","500","9614.294999977574","images/stimuli/spore_stims/complex_05_A_a.gif","images/stimuli/spore_stims/complex_20_A_b.gif","forced_short","","8","complex_dissimilar","images/stimuli/spore_stims/complex_05_A_a.gif","","","","",""
"","null","html-keyboard-response","105","467907","0.0-25.0-0.2","SS1619740239084","","","null","","","","","","<p><img src= images/blank.png width =""600"" height = ""600"" style=""position:fixed;top:50%; left:50%; transform: translate(-50%, -50%); border:5px solid black"">","","","","","","","",""
"","3056.970000034198","sequential-stimulus-presentation-old","106","471475","0.0-25.0-1.2","SS1619740239084","trial","","40","500","3556.970000034198","images/stimuli/spore_stims/complex_05_A_a.gif","images/stimuli/spore_stims/complex_20_A_b.gif","forced_short","","8","complex_dissimilar","images/stimuli/spore_stims/complex_20_A_b.gif","","","","",""
"","null","html-keyboard-response","107","472427","0.0-25.0-0.3","SS1619740239084","","","null","","","","","","<p><img src= images/blank.png width =""600"" height = ""600"" style=""position:fixed;top:50%; left:50%; transform: translate(-50%, -50%); border:5px solid black"">","","","","","","","",""
"","1132.8750000102445","sequential-stimulus-presentation-old","108","474071","0.0-25.0-1.3","SS1619740239084","trial","","40","500","1632.8750000102445","images/stimuli/spore_stims/complex_05_A_a.gif","images/stimuli/spore_stims/complex_20_A_b.gif","forced_short","","8","complex_dissimilar","images/stimuli/spore_stims/complex_20_A_b.gif","","","","",""
"","null","html-keyboard-response","109","475122","0.0-25.0-0.4","SS1619740239084","","","null","","","","","","<p><img src= images/blank.png width =""600"" height = ""600"" style=""position:fixed;top:50%; left:50%; transform: translate(-50%, -50%); border:5px solid black"">","","","","","","","",""
"","1079.7599999932572","sequential-stimulus-presentation-old","110","476713","0.0-25.0-1.4","SS1619740239084","trial","","40","500","1579.7599999932572","images/stimuli/spore_stims/complex_05_A_a.gif","images/stimuli/spore_stims/complex_20_A_b.gif","forced_short","","8","complex_dissimilar","images/stimuli/spore_stims/complex_05_A_a.gif","","","","",""
"","null","html-keyboard-response","111","477983","0.0-25.0-0.5","SS1619740239084","","","null","","","","","","<p><img src= images/blank.png width =""600"" height = ""600"" style=""position:fixed;top:50%; left:50%; transform: translate(-50%, -50%); border:5px solid black"">","","","","","","","",""
"","611.754999961704","sequential-stimulus-presentation-old","112","479105","0.0-25.0-1.5","SS1619740239084","trial","","40","500","1111.754999961704","images/stimuli/spore_stims/complex_05_A_a.gif","images/stimuli/spore_stims/complex_20_A_b.gif","forced_short","","8","complex_dissimilar","images/stimuli/spore_stims/complex_20_A_b.gif","","","","",""
"","3866.039999993518","survey-multi-choice","113","482977","0.0-26.0","SS1619740239084","math_question","","","","","","","","","","","","{""Q0"":""12""}","[0]","12","",""
"","null","html-keyboard-response","114","483828","0.0-27.0-0.0","SS1619740239084","","","null","","","","","","<p><img src= images/blank.png width =""600"" height = ""600"" style=""position:fixed;top:50%; left:50%; transform: translate(-50%, -50%); border:5px solid black"">","","","","","","","",""
"","1220.204999903217","sequential-stimulus-presentation-old","115","485559","0.0-27.0-1.0","SS1619740239084","trial","","40","500","1720.204999903217","images/stimuli/spore_stims/simple_17_A_a.gif","images/stimuli/spore_stims/simple_04_A_b.gif","forced_short","","9","simple_dissimilar","images/stimuli/spore_stims/simple_04_A_b.gif","","","","",""
"","null","html-keyboard-response","116","486719","0.0-27.0-0.1","SS1619740239084","","","null","","","","","","<p><img src= images/blank.png width =""600"" height = ""600"" style=""position:fixed;top:50%; left:50%; transform: translate(-50%, -50%); border:5px solid black"">","","","","","","","",""
"","1564.2549999756739","sequential-stimulus-presentation-old","117","488791","0.0-27.0-1.1","SS1619740239084","trial","","40","500","2064.254999975674","images/stimuli/spore_stims/simple_17_A_a.gif","images/stimuli/spore_stims/simple_04_A_b.gif","forced_short","","9","simple_dissimilar","images/stimuli/spore_stims/simple_04_A_b.gif","","","","",""
"","null","html-keyboard-response","118","490016","0.0-27.0-0.2","SS1619740239084","","","null","","","","","","<p><img src= images/blank.png width =""600"" height = ""600"" style=""position:fixed;top:50%; left:50%; transform: translate(-50%, -50%); border:5px solid black"">","","","","","","","",""
"","734.4499999890104","sequential-stimulus-presentation-old","119","491263","0.0-27.0-1.2","SS1619740239084","trial","","40","500","1234.4499999890104","images/stimuli/spore_stims/simple_17_A_a.gif","images/stimuli/spore_stims/simple_04_A_b.gif","forced_short","","9","simple_dissimilar","images/stimuli/spore_stims/simple_04_A_b.gif","","","","",""
"","null","html-keyboard-response","120","492226","0.0-27.0-0.3","SS1619740239084","","","null","","","","","","<p><img src= images/blank.png width =""600"" height = ""600"" style=""position:fixed;top:50%; left:50%; transform: translate(-50%, -50%); border:5px solid black"">","","","","","","","",""
"","884.1750000137836","sequential-stimulus-presentation-old","121","493619","0.0-27.0-1.3","SS1619740239084","trial","","40","500","1384.1750000137836","images/stimuli/spore_stims/simple_17_A_a.gif","images/stimuli/spore_stims/simple_04_A_b.gif","forced_short","","9","simple_dissimilar","images/stimuli/spore_stims/simple_04_A_b.gif","","","","",""
"","null","html-keyboard-response","122","494524","0.0-27.0-0.4","SS1619740239084","","","null","","","","","","<p><img src= images/blank.png width =""600"" height = ""600"" style=""position:fixed;top:50%; left:50%; transform: translate(-50%, -50%); border:5px solid black"">","","","","","","","",""
"","801.2500000186265","sequential-stimulus-presentation-old","123","495837","0.0-27.0-1.4","SS1619740239084","trial","","40","500","1301.2500000186265","images/stimuli/spore_stims/simple_17_A_a.gif","images/stimuli/spore_stims/simple_04_A_b.gif","forced_short","","9","simple_dissimilar","images/stimuli/spore_stims/simple_04_A_b.gif","","","","",""
"","null","html-keyboard-response","124","496768","0.0-27.0-0.5","SS1619740239084","","","null","","","","","","<p><img src= images/blank.png width =""600"" height = ""600"" style=""position:fixed;top:50%; left:50%; transform: translate(-50%, -50%); border:5px solid black"">","","","","","","","",""
"","1177.0949999336153","sequential-stimulus-presentation-old","125","498453","0.0-27.0-1.5","SS1619740239084","trial","","40","500","1677.0949999336153","images/stimuli/spore_stims/simple_17_A_a.gif","images/stimuli/spore_stims/simple_04_A_b.gif","forced_short","","9","simple_dissimilar","images/stimuli/spore_stims/simple_04_A_b.gif","","","","",""
"","3477.394999936223","survey-multi-choice","126","501938","0.0-28.0","SS1619740239084","math_question","","","","","","","","","","","","{""Q0"":""14""}","[0]","14","",""
"","null","html-keyboard-response","127","503075","0.0-29.0-0.0","SS1619740239084","","","null","","","","","","<p><img src= images/blank.png width =""600"" height = ""600"" style=""position:fixed;top:50%; left:50%; transform: translate(-50%, -50%); border:5px solid black"">","","","","","","","",""
"","456.95499994326383","sequential-stimulus-presentation-old","128","518541","0.0-29.0-1.0","SS1619740239084","trial","","40","500","956.9549999432638","images/stimuli/spore_stims/simple_16_A_a.gif","images/stimuli/spore_stims/simple_06_A_b.gif","forced_long","","10","simple_dissimilar","images/stimuli/spore_stims/simple_06_A_b.gif","","","","",""
"","null","html-keyboard-response","129","519414","0.0-29.0-0.1","SS1619740239084","","","null","","","","","","<p><img src= images/blank.png width =""600"" height = ""600"" style=""position:fixed;top:50%; left:50%; transform: translate(-50%, -50%); border:5px solid black"">","","","","","","","",""
"","1946.4900000020862","sequential-stimulus-presentation-old","130","521872","0.0-29.0-1.1","SS1619740239084","trial","","40","500","2446.490000002086","images/stimuli/spore_stims/simple_16_A_a.gif","images/stimuli/spore_stims/simple_06_A_b.gif","forced_long","","10","simple_dissimilar","images/stimuli/spore_stims/simple_06_A_b.gif","","","","",""
"","null","html-keyboard-response","131","522792","0.0-29.0-0.2","SS1619740239084","","","null","","","","","","<p><img src= images/blank.png width =""600"" height = ""600"" style=""position:fixed;top:50%; left:50%; transform: translate(-50%, -50%); border:5px solid black"">","","","","","","","",""
"","1372.9599999496713","sequential-stimulus-presentation-old","132","524677","0.0-29.0-1.2","SS1619740239084","trial","","40","500","1872.9599999496713","images/stimuli/spore_stims/simple_16_A_a.gif","images/stimuli/spore_stims/simple_06_A_b.gif","forced_long","","10","simple_dissimilar","images/stimuli/spore_stims/simple_06_A_b.gif","","","","",""
"","null","html-keyboard-response","133","525683","0.0-29.0-0.3","SS1619740239084","","","null","","","","","","<p><img src= images/blank.png width =""600"" height = ""600"" style=""position:fixed;top:50%; left:50%; transform: translate(-50%, -50%); border:5px solid black"">","","","","","","","",""
"","3217.4599999561906","sequential-stimulus-presentation-old","134","529411","0.0-29.0-1.3","SS1619740239084","trial","","40","500","3717.4599999561906","images/stimuli/spore_stims/simple_16_A_a.gif","images/stimuli/spore_stims/simple_06_A_b.gif","forced_long","","10","simple_dissimilar","images/stimuli/spore_stims/simple_16_A_a.gif","","","","",""
"","3054.520000005141","survey-multi-choice","135","532472","0.0-30.0","SS1619740239084","math_question","","","","","","","","","","","","{""Q0"":""12""}","[0]","12","",""
"","null","html-keyboard-response","136","533627","0.0-31.0-0.0","SS1619740239084","","","null","","","","","","<p><img src= images/blank.png width =""600"" height = ""600"" style=""position:fixed;top:50%; left:50%; transform: translate(-50%, -50%); border:5px solid black"">","","","","","","","",""
"","2239.589999895543","sequential-stimulus-presentation-old","137","536376","0.0-31.0-1.0","SS1619740239084","trial","","40","500","2739.589999895543","images/stimuli/spore_stims/simple_17_A_b.gif","images/stimuli/spore_stims/simple_04_A_a.gif","self_paced","","11","simple_dissimilar","images/stimuli/spore_stims/simple_04_A_a.gif","","","","",""
"","null","html-keyboard-response","138","537486","0.0-31.0-0.1","SS1619740239084","","","null","","","","","","<p><img src= images/blank.png width =""600"" height = ""600"" style=""position:fixed;top:50%; left:50%; transform: translate(-50%, -50%); border:5px solid black"">","","","","","","","",""
"","383.58500006143004","sequential-stimulus-presentation-old","139","538379","0.0-31.0-1.1","SS1619740239084","trial","","40","500","883.58500006143","images/stimuli/spore_stims/simple_17_A_b.gif","images/stimuli/spore_stims/simple_04_A_a.gif","self_paced","","11","simple_dissimilar","images/stimuli/spore_stims/simple_04_A_a.gif","","","","",""
"","null","html-keyboard-response","140","539563","0.0-31.0-0.2","SS1619740239084","","","null","","","","","","<p><img src= images/blank.png width =""600"" height = ""600"" style=""position:fixed;top:50%; left:50%; transform: translate(-50%, -50%); border:5px solid black"">","","","","","","","",""
"","1108.6149999173358","sequential-stimulus-presentation-old","141","541181","0.0-31.0-1.2","SS1619740239084","trial","","40","500","1608.6149999173358","images/stimuli/spore_stims/simple_17_A_b.gif","images/stimuli/spore_stims/simple_04_A_a.gif","self_paced","","11","simple_dissimilar","images/stimuli/spore_stims/simple_04_A_a.gif","","","","",""
"","null","html-keyboard-response","142","542184","0.0-31.0-0.3","SS1619740239084","","","null","","","","","","<p><img src= images/blank.png width =""600"" height = ""600"" style=""position:fixed;top:50%; left:50%; transform: translate(-50%, -50%); border:5px solid black"">","","","","","","","",""
"","1103.0199999222532","sequential-stimulus-presentation-old","143","543798","0.0-31.0-1.3","SS1619740239084","trial","","40","500","1603.0199999222532","images/stimuli/spore_stims/simple_17_A_b.gif","images/stimuli/spore_stims/simple_04_A_a.gif","self_paced","","11","simple_dissimilar","images/stimuli/spore_stims/simple_04_A_a.gif","","","","",""
"[{""page_index"":0,""viewing_time"":7191.960000083782}]","7192.849999992177","instructions","144","550999","0.0-32.0","SS1619740239084","instructions","","","","","","","","","","","","","","","",""
"","8042.265000054613","survey-likert","145","559053","0.0-33.0","SS1619740239084","similarity_question","","","","","","","","","","","","{""Q0"":4}","[0]","","images/stimuli/spore_stims/complex_02_A_b.gif","images/stimuli/spore_stims/complex_06_A_a.gif"
"","5684.765000012703","survey-likert","146","564750","0.0-34.0","SS1619740239084","similarity_question","","","","","","","","","","","","{""Q0"":5}","[0]","","images/stimuli/spore_stims/simple_06_A_b.gif","images/stimuli/spore_stims/simple_16_A_a.gif"
"","5724.389999988489","survey-likert","147","570481","0.0-35.0","SS1619740239084","similarity_question","","","","","","","","","","","","{""Q0"":5}","[0]","","images/stimuli/spore_stims/simple_17_A_a.gif","images/stimuli/spore_stims/simple_04_A_b.gif"
"","5970.915000070818","survey-likert","148","576462","0.0-36.0","SS1619740239084","similarity_question","","","","","","","","","","","","{""Q0"":2}","[0]","","images/stimuli/spore_stims/complex_20_A_b.gif","images/stimuli/spore_stims/complex_05_A_a.gif"
"","4172.650000080466","survey-likert","149","580647","0.0-37.0","SS1619740239084","similarity_question","","","","","","","","","","","","{""Q0"":4}","[0]","","images/stimuli/spore_stims/complex_08_A_a.gif","images/stimuli/spore_stims/complex_06_A_b.gif"
"","3796.394999953918","survey-likert","150","584456","0.0-38.0","SS1619740239084","similarity_question","","","","","","","","","","","","{""Q0"":3}","[0]","","images/stimuli/spore_stims/complex_04_A_a.gif","images/stimuli/spore_stims/complex_18_A_b.gif"
"","6962.984999991022","survey-likert","151","591432","0.0-39.0","SS1619740239084","similarity_question","","","","","","","","","","","","{""Q0"":5}","[0]","","images/stimuli/spore_stims/simple_20_A_b.gif","images/stimuli/spore_stims/simple_14_A_a.gif"
"","5112.104999949224","survey-likert","152","596554","0.0-40.0","SS1619740239084","similarity_question","","","","","","","","","","","","{""Q0"":4}","[0]","","images/stimuli/spore_stims/complex_04_A_b.gif","images/stimuli/spore_stims/complex_20_A_a.gif"
"","3573.225000058301","survey-likert","153","600142","0.0-41.0","SS1619740239084","similarity_question","","","","","","","","","","","","{""Q0"":2}","[0]","","images/stimuli/spore_stims/complex_08_A_b.gif","images/stimuli/spore_stims/complex_01_A_a.gif"
"","3263.9150000177324","survey-likert","154","603419","0.0-42.0","SS1619740239084","similarity_question","","","","","","","","","","","","{""Q0"":5}","[0]","","images/stimuli/spore_stims/simple_04_A_a.gif","images/stimuli/spore_stims/simple_17_A_b.gif"
"","4683.760000043549","survey-likert","155","608112","0.0-43.0","SS1619740239084","similarity_question","","","","","","","","","","","","{""Q0"":5}","[0]","","images/stimuli/spore_stims/simple_05_A_a.gif","images/stimuli/spore_stims/simple_03_A_b.gif"
"","4828.999999910593","survey-likert","156","612953","0.0-44.0","SS1619740239084","similarity_question","","","","","","","","","","","","{""Q0"":4}","[0]","","images/stimuli/spore_stims/simple_18_A_a.gif","images/stimuli/spore_stims/simple_15_A_b.gif"
"[{""page_index"":0,""viewing_time"":5406.689999974333}]","5407.294999924488","instructions","157","618369","0.0-45.0","SS1619740239084","instructions","","","","","","","","","","","","","","","",""
"","6155.690000043251","survey-likert","158","624534","0.0-46.0","SS1619740239084","","","","","","","","","images/stimuli/spore_stims/complex_08_A_a.gif","","","","{""Q0"":5}","[0]","","",""
"","7447.249999968335","survey-likert","159","631991","0.0-47.0","SS1619740239084","","","","","","","","","images/stimuli/spore_stims/complex_20_A_a.gif","","","","{""Q0"":5}","[0]","","",""
"","3132.0550000527874","survey-likert","160","635136","0.0-48.0","SS1619740239084","","","","","","","","","images/stimuli/spore_stims/complex_05_A_a.gif","","","","{""Q0"":4}","[0]","","",""
"","2885.2099999785423","survey-likert","161","638031","0.0-49.0","SS1619740239084","","","","","","","","","images/stimuli/spore_stims/simple_16_A_a.gif","","","","{""Q0"":0}","[0]","","",""
"","2601.660000043921","survey-likert","162","640646","0.0-50.0","SS1619740239084","","","","","","","","","images/stimuli/spore_stims/simple_04_A_a.gif","","","","{""Q0"":1}","[0]","","",""
"","2720.949999988079","survey-likert","163","643379","0.0-51.0","SS1619740239084","","","","","","","","","images/stimuli/spore_stims/simple_05_A_a.gif","","","","{""Q0"":0}","[0]","","",""
"","3827.2600000491366","survey-likert","164","647219","0.0-52.0","SS1619740239084","","","","","","","","","images/stimuli/spore_stims/simple_17_A_a.gif","","","","{""Q0"":1}","[0]","","",""
"","4051.519999979064","survey-likert","165","651282","0.0-53.0","SS1619740239084","","","","","","","","","images/stimuli/spore_stims/simple_20_A_b.gif","","","","{""Q0"":1}","[0]","","",""
"","3612.7500000875443","survey-likert","166","654907","0.0-54.0","SS1619740239084","","","","","","","","","images/stimuli/spore_stims/complex_18_A_b.gif","","","","{""Q0"":6}","[0]","","",""
"","3062.6349999802187","survey-likert","167","657982","0.0-55.0","SS1619740239084","","","","","","","","","images/stimuli/spore_stims/complex_01_A_a.gif","","","","{""Q0"":5}","[0]","","",""
"","4636.535000056028","survey-likert","168","662630","0.0-56.0","SS1619740239084","","","","","","","","","images/stimuli/spore_stims/simple_18_A_a.gif","","","","{""Q0"":2}","[0]","","",""
"","5944.120000000112","survey-likert","169","668588","0.0-57.0","SS1619740239084","","","","","","","","","images/stimuli/spore_stims/complex_02_A_b.gif","","","","{""Q0"":4}","[0]","","",""
"[{""page_index"":0,""viewing_time"":2895.835000090301}]","2896.5600000228733","instructions","170","671494","0.0-58.0","SS1619740239084","instructions","","","","","","","","","","","","","","","",""
"","2925.7249999791384","demog-age","171","674439","0.0-59.0","SS1619740239084","","","","","","","","","","","","","{""age"":""20""}","","","",""
"","5671.755000017583","demog-ethnic-US","172","680130","0.0-60.0","SS1619740239084","","","","","","","","","","","","","{""ethnicity"":[""Hispanic or Latino""]}","[0]","","",""
"","19073.600000003353","demog-gender-and-education","173","699216","0.0-61.0","SS1619740239084","","","","","","","","","","","","","{""gender"":""Female"",""education"":""Bachelor's Degree""}","[0,1]","","",""
"","6930.229999939911","survey-text","174","706167","0.0-62.0","SS1619740239084","feedback","","","","","","","","","","","","{""Q0"":""no""}","","","",""
"[{""page_index"":0,""viewing_time"":2264.17500001844}]","2265.0549999671057","instructions","175","708441","0.0-63.0","SS1619740239084","instructions","","","","","","","","","","","","","","","",""
