"view_history","rt","trial_type","trial_index","time_elapsed","internal_node_id","subject","stimulus_type","trial_stimulus","key_press","minimum_viewing_duration","trial_looking_time","block_deviant","block_background","exposure_type","stimulus","block_number","block_type","stimulus_displayed","responses","question_order","math_correct_answer","stimulus_left","stimulus_right"
"[{""page_index"":0,""viewing_time"":4241}]","4242","instructions","0","4248","0.0-0.0","SS1619739610144","","","","","","","","","","","","","","","","",""
"[{""page_index"":0,""viewing_time"":9557},{""page_index"":1,""viewing_time"":7417}]","16974","instructions","1","23231","0.0-1.0","SS1619739610144","instructions","","","","","","","","","","","","","","","",""
"","4983","sequential-stimulus-presentation-old","2","28725","0.0-2.0","SS1619739610144","","","40","500","5483","null","null","self_paced","","","","","","","","",""
"","7651","sequential-stimulus-presentation-old","3","36882","0.0-3.0","SS1619739610144","","","40","500","8151","null","null","self_paced","","","","","","","","",""
"[{""page_index"":0,""viewing_time"":16905}]","16906","instructions","4","53791","0.0-4.0","SS1619739610144","instructions","","","","","","","","","","","","","","","",""
"","756","sequential-stimulus-presentation-old","5","69567","0.0-5.0","SS1619739610144","","","40","500","1256","null","null","forced_long","","","","","","","","",""
"","2643","sequential-stimulus-presentation-old","6","72721","0.0-6.0","SS1619739610144","","","40","500","3143","null","null","forced_long","","","","","","","","",""
"[{""page_index"":0,""viewing_time"":3268}]","3268","instructions","7","75992","0.0-7.0","SS1619739610144","instructions","","","","","","","","","","","","","","","",""
"[{""page_index"":0,""viewing_time"":3907},{""page_index"":1,""viewing_time"":5557},{""page_index"":2,""viewing_time"":973},{""page_index"":3,""viewing_time"":1909},{""page_index"":4,""viewing_time"":1423}]","13770","instructions","8","89768","0.0-8.0","SS1619739610144","instructions","","","","","","","","","","","","","","","",""
"","null","html-keyboard-response","9","90855","0.0-9.0-0.0","SS1619739610144","","","null","","","","","","<p><img src= images/blank.png width =""600"" height = ""600"" style=""position:fixed;top:50%; left:50%; transform: translate(-50%, -50%); border:5px solid black"">","","","","","","","",""
"","799","sequential-stimulus-presentation-old","10","106666","0.0-9.0-1.0","SS1619739610144","trial","","40","500","1299","images/stimuli/spore_stims/simple_04_A_a.gif","images/stimuli/spore_stims/simple_06_A_b.gif","forced_long","","0","simple_dissimilar","images/stimuli/spore_stims/simple_06_A_b.gif","","","","",""
"","null","html-keyboard-response","11","107522","0.0-9.0-0.1","SS1619739610144","","","null","","","","","","<p><img src= images/blank.png width =""600"" height = ""600"" style=""position:fixed;top:50%; left:50%; transform: translate(-50%, -50%); border:5px solid black"">","","","","","","","",""
"","1490","sequential-stimulus-presentation-old","12","109520","0.0-9.0-1.1","SS1619739610144","trial","","40","500","1990","images/stimuli/spore_stims/simple_04_A_a.gif","images/stimuli/spore_stims/simple_06_A_b.gif","forced_long","","0","simple_dissimilar","images/stimuli/spore_stims/simple_06_A_b.gif","","","","",""
"","null","html-keyboard-response","13","110550","0.0-9.0-0.2","SS1619739610144","","","null","","","","","","<p><img src= images/blank.png width =""600"" height = ""600"" style=""position:fixed;top:50%; left:50%; transform: translate(-50%, -50%); border:5px solid black"">","","","","","","","",""
"","1219","sequential-stimulus-presentation-old","14","112274","0.0-9.0-1.2","SS1619739610144","trial","","40","500","1719","images/stimuli/spore_stims/simple_04_A_a.gif","images/stimuli/spore_stims/simple_06_A_b.gif","forced_long","","0","simple_dissimilar","images/stimuli/spore_stims/simple_06_A_b.gif","","","","",""
"","null","html-keyboard-response","15","113218","0.0-9.0-0.3","SS1619739610144","","","null","","","","","","<p><img src= images/blank.png width =""600"" height = ""600"" style=""position:fixed;top:50%; left:50%; transform: translate(-50%, -50%); border:5px solid black"">","","","","","","","",""
"","185","sequential-stimulus-presentation-old","16","113910","0.0-9.0-1.3","SS1619739610144","trial","","40","500","685","images/stimuli/spore_stims/simple_04_A_a.gif","images/stimuli/spore_stims/simple_06_A_b.gif","forced_long","","0","simple_dissimilar","images/stimuli/spore_stims/simple_06_A_b.gif","","","","",""
"","null","html-keyboard-response","17","114740","0.0-9.0-0.4","SS1619739610144","","","null","","","","","","<p><img src= images/blank.png width =""600"" height = ""600"" style=""position:fixed;top:50%; left:50%; transform: translate(-50%, -50%); border:5px solid black"">","","","","","","","",""
"","979","sequential-stimulus-presentation-old","18","116224","0.0-9.0-1.4","SS1619739610144","trial","","40","500","1479","images/stimuli/spore_stims/simple_04_A_a.gif","images/stimuli/spore_stims/simple_06_A_b.gif","forced_long","","0","simple_dissimilar","images/stimuli/spore_stims/simple_06_A_b.gif","","","","",""
"","4891","survey-multi-choice","19","121130","0.0-10.0","SS1619739610144","math_question","","","","","","","","","","","","{""Q0"":""9""}","[0]","9","",""
"","null","html-keyboard-response","20","122061","0.0-11.0-0.0","SS1619739610144","","","null","","","","","","<p><img src= images/blank.png width =""600"" height = ""600"" style=""position:fixed;top:50%; left:50%; transform: translate(-50%, -50%); border:5px solid black"">","","","","","","","",""
"","593","sequential-stimulus-presentation-old","21","137671","0.0-11.0-1.0","SS1619739610144","trial","","40","500","1093","images/stimuli/spore_stims/simple_15_A_b.gif","images/stimuli/spore_stims/simple_02_A_a.gif","forced_long","","1","simple_dissimilar","images/stimuli/spore_stims/simple_02_A_a.gif","","","","",""
"","null","html-keyboard-response","22","138789","0.0-11.0-0.1","SS1619739610144","","","null","","","","","","<p><img src= images/blank.png width =""600"" height = ""600"" style=""position:fixed;top:50%; left:50%; transform: translate(-50%, -50%); border:5px solid black"">","","","","","","","",""
"","67","sequential-stimulus-presentation-old","23","139384","0.0-11.0-1.1","SS1619739610144","trial","","40","500","567","images/stimuli/spore_stims/simple_15_A_b.gif","images/stimuli/spore_stims/simple_02_A_a.gif","forced_long","","1","simple_dissimilar","images/stimuli/spore_stims/simple_02_A_a.gif","","","","",""
"","null","html-keyboard-response","24","140447","0.0-11.0-0.2","SS1619739610144","","","null","","","","","","<p><img src= images/blank.png width =""600"" height = ""600"" style=""position:fixed;top:50%; left:50%; transform: translate(-50%, -50%); border:5px solid black"">","","","","","","","",""
"","1125","sequential-stimulus-presentation-old","25","142078","0.0-11.0-1.2","SS1619739610144","trial","","40","500","1625","images/stimuli/spore_stims/simple_15_A_b.gif","images/stimuli/spore_stims/simple_02_A_a.gif","forced_long","","1","simple_dissimilar","images/stimuli/spore_stims/simple_02_A_a.gif","","","","",""
"","null","html-keyboard-response","26","142900","0.0-11.0-0.3","SS1619739610144","","","null","","","","","","<p><img src= images/blank.png width =""600"" height = ""600"" style=""position:fixed;top:50%; left:50%; transform: translate(-50%, -50%); border:5px solid black"">","","","","","","","",""
"","799","sequential-stimulus-presentation-old","27","144205","0.0-11.0-1.3","SS1619739610144","trial","","40","500","1299","images/stimuli/spore_stims/simple_15_A_b.gif","images/stimuli/spore_stims/simple_02_A_a.gif","forced_long","","1","simple_dissimilar","images/stimuli/spore_stims/simple_15_A_b.gif","","","","",""
"","null","html-keyboard-response","28","145124","0.0-11.0-0.4","SS1619739610144","","","null","","","","","","<p><img src= images/blank.png width =""600"" height = ""600"" style=""position:fixed;top:50%; left:50%; transform: translate(-50%, -50%); border:5px solid black"">","","","","","","","",""
"","237","sequential-stimulus-presentation-old","29","145866","0.0-11.0-1.4","SS1619739610144","trial","","40","500","737","images/stimuli/spore_stims/simple_15_A_b.gif","images/stimuli/spore_stims/simple_02_A_a.gif","forced_long","","1","simple_dissimilar","images/stimuli/spore_stims/simple_15_A_b.gif","","","","",""
"","3709","survey-multi-choice","30","149581","0.0-12.0","SS1619739610144","math_question","","","","","","","","","","","","{""Q0"":""18""}","[0]","18","",""
"","null","html-keyboard-response","31","150844","0.0-13.0-0.0","SS1619739610144","","","null","","","","","","<p><img src= images/blank.png width =""600"" height = ""600"" style=""position:fixed;top:50%; left:50%; transform: translate(-50%, -50%); border:5px solid black"">","","","","","","","",""
"","598","sequential-stimulus-presentation-old","32","166448","0.0-13.0-1.0","SS1619739610144","trial","","40","500","1098","images/stimuli/spore_stims/complex_10_A_a.gif","images/stimuli/spore_stims/complex_13_A_b.gif","forced_long","","2","complex_dissimilar","images/stimuli/spore_stims/complex_13_A_b.gif","","","","",""
"","null","html-keyboard-response","33","167710","0.0-13.0-0.1","SS1619739610144","","","null","","","","","","<p><img src= images/blank.png width =""600"" height = ""600"" style=""position:fixed;top:50%; left:50%; transform: translate(-50%, -50%); border:5px solid black"">","","","","","","","",""
"","1342","sequential-stimulus-presentation-old","34","169558","0.0-13.0-1.1","SS1619739610144","trial","","40","500","1842","images/stimuli/spore_stims/complex_10_A_a.gif","images/stimuli/spore_stims/complex_13_A_b.gif","forced_long","","2","complex_dissimilar","images/stimuli/spore_stims/complex_13_A_b.gif","","","","",""
"","null","html-keyboard-response","35","170628","0.0-13.0-0.2","SS1619739610144","","","null","","","","","","<p><img src= images/blank.png width =""600"" height = ""600"" style=""position:fixed;top:50%; left:50%; transform: translate(-50%, -50%); border:5px solid black"">","","","","","","","",""
"","1142","sequential-stimulus-presentation-old","36","172277","0.0-13.0-1.2","SS1619739610144","trial","","40","500","1642","images/stimuli/spore_stims/complex_10_A_a.gif","images/stimuli/spore_stims/complex_13_A_b.gif","forced_long","","2","complex_dissimilar","images/stimuli/spore_stims/complex_13_A_b.gif","","","","",""
"","null","html-keyboard-response","37","173337","0.0-13.0-0.3","SS1619739610144","","","null","","","","","","<p><img src= images/blank.png width =""600"" height = ""600"" style=""position:fixed;top:50%; left:50%; transform: translate(-50%, -50%); border:5px solid black"">","","","","","","","",""
"","942","sequential-stimulus-presentation-old","38","174786","0.0-13.0-1.3","SS1619739610144","trial","","40","500","1442","images/stimuli/spore_stims/complex_10_A_a.gif","images/stimuli/spore_stims/complex_13_A_b.gif","forced_long","","2","complex_dissimilar","images/stimuli/spore_stims/complex_13_A_b.gif","","","","",""
"","null","html-keyboard-response","39","175615","0.0-13.0-0.4","SS1619739610144","","","null","","","","","","<p><img src= images/blank.png width =""600"" height = ""600"" style=""position:fixed;top:50%; left:50%; transform: translate(-50%, -50%); border:5px solid black"">","","","","","","","",""
"","512","sequential-stimulus-presentation-old","40","176633","0.0-13.0-1.4","SS1619739610144","trial","","40","500","1012","images/stimuli/spore_stims/complex_10_A_a.gif","images/stimuli/spore_stims/complex_13_A_b.gif","forced_long","","2","complex_dissimilar","images/stimuli/spore_stims/complex_13_A_b.gif","","","","",""
"","3513","survey-multi-choice","41","180151","0.0-14.0","SS1619739610144","math_question","","","","","","","","","","","","{""Q0"":""10""}","[0]","10","",""
"","null","html-keyboard-response","42","181024","0.0-15.0-0.0","SS1619739610144","","","null","","","","","","<p><img src= images/blank.png width =""600"" height = ""600"" style=""position:fixed;top:50%; left:50%; transform: translate(-50%, -50%); border:5px solid black"">","","","","","","","",""
"","3901","sequential-stimulus-presentation-old","43","185431","0.0-15.0-1.0","SS1619739610144","trial","","40","500","4401","images/stimuli/spore_stims/complex_15_A_b.gif","images/stimuli/spore_stims/complex_20_A_a.gif","self_paced","","3","complex_dissimilar","images/stimuli/spore_stims/complex_20_A_a.gif","","","","",""
"","null","html-keyboard-response","44","186358","0.0-15.0-0.1","SS1619739610144","","","null","","","","","","<p><img src= images/blank.png width =""600"" height = ""600"" style=""position:fixed;top:50%; left:50%; transform: translate(-50%, -50%); border:5px solid black"">","","","","","","","",""
"","126","sequential-stimulus-presentation-old","45","187022","0.0-15.0-1.1","SS1619739610144","trial","","40","500","626","images/stimuli/spore_stims/complex_15_A_b.gif","images/stimuli/spore_stims/complex_20_A_a.gif","self_paced","","3","complex_dissimilar","images/stimuli/spore_stims/complex_20_A_a.gif","","","","",""
"","null","html-keyboard-response","46","188094","0.0-15.0-0.2","SS1619739610144","","","null","","","","","","<p><img src= images/blank.png width =""600"" height = ""600"" style=""position:fixed;top:50%; left:50%; transform: translate(-50%, -50%); border:5px solid black"">","","","","","","","",""
"","529","sequential-stimulus-presentation-old","47","189131","0.0-15.0-1.2","SS1619739610144","trial","","40","500","1029","images/stimuli/spore_stims/complex_15_A_b.gif","images/stimuli/spore_stims/complex_20_A_a.gif","self_paced","","3","complex_dissimilar","images/stimuli/spore_stims/complex_20_A_a.gif","","","","",""
"","null","html-keyboard-response","48","190026","0.0-15.0-0.3","SS1619739610144","","","null","","","","","","<p><img src= images/blank.png width =""600"" height = ""600"" style=""position:fixed;top:50%; left:50%; transform: translate(-50%, -50%); border:5px solid black"">","","","","","","","",""
"","28","sequential-stimulus-presentation-old","49","190563","0.0-15.0-1.3","SS1619739610144","trial","","40","500","528","images/stimuli/spore_stims/complex_15_A_b.gif","images/stimuli/spore_stims/complex_20_A_a.gif","self_paced","","3","complex_dissimilar","images/stimuli/spore_stims/complex_20_A_a.gif","","","","",""
"","null","html-keyboard-response","50","191565","0.0-15.0-0.4","SS1619739610144","","","null","","","","","","<p><img src= images/blank.png width =""600"" height = ""600"" style=""position:fixed;top:50%; left:50%; transform: translate(-50%, -50%); border:5px solid black"">","","","","","","","",""
"","391","sequential-stimulus-presentation-old","51","192465","0.0-15.0-1.4","SS1619739610144","trial","","40","500","891","images/stimuli/spore_stims/complex_15_A_b.gif","images/stimuli/spore_stims/complex_20_A_a.gif","self_paced","","3","complex_dissimilar","images/stimuli/spore_stims/complex_20_A_a.gif","","","","",""
"","4619","survey-multi-choice","52","197092","0.0-16.0","SS1619739610144","math_question","","","","","","","","","","","","{""Q0"":""11""}","[0]","11","",""
"","null","html-keyboard-response","53","198286","0.0-17.0-0.0","SS1619739610144","","","null","","","","","","<p><img src= images/blank.png width =""600"" height = ""600"" style=""position:fixed;top:50%; left:50%; transform: translate(-50%, -50%); border:5px solid black"">","","","","","","","",""
"","14206","sequential-stimulus-presentation-old","54","227501","0.0-17.0-1.0","SS1619739610144","trial","","40","500","14706","images/stimuli/spore_stims/complex_17_A_b.gif","images/stimuli/spore_stims/complex_07_A_a.gif","forced_long","","4","complex_dissimilar","images/stimuli/spore_stims/complex_07_A_a.gif","","","","",""
"","null","html-keyboard-response","55","228450","0.0-17.0-0.1","SS1619739610144","","","null","","","","","","<p><img src= images/blank.png width =""600"" height = ""600"" style=""position:fixed;top:50%; left:50%; transform: translate(-50%, -50%); border:5px solid black"">","","","","","","","",""
"","1095","sequential-stimulus-presentation-old","56","230058","0.0-17.0-1.1","SS1619739610144","trial","","40","500","1595","images/stimuli/spore_stims/complex_17_A_b.gif","images/stimuli/spore_stims/complex_07_A_a.gif","forced_long","","4","complex_dissimilar","images/stimuli/spore_stims/complex_07_A_a.gif","","","","",""
"","null","html-keyboard-response","57","231245","0.0-17.0-0.2","SS1619739610144","","","null","","","","","","<p><img src= images/blank.png width =""600"" height = ""600"" style=""position:fixed;top:50%; left:50%; transform: translate(-50%, -50%); border:5px solid black"">","","","","","","","",""
"","863","sequential-stimulus-presentation-old","58","232614","0.0-17.0-1.2","SS1619739610144","trial","","40","500","1363","images/stimuli/spore_stims/complex_17_A_b.gif","images/stimuli/spore_stims/complex_07_A_a.gif","forced_long","","4","complex_dissimilar","images/stimuli/spore_stims/complex_07_A_a.gif","","","","",""
"","null","html-keyboard-response","59","233874","0.0-17.0-0.3","SS1619739610144","","","null","","","","","","<p><img src= images/blank.png width =""600"" height = ""600"" style=""position:fixed;top:50%; left:50%; transform: translate(-50%, -50%); border:5px solid black"">","","","","","","","",""
"","192","sequential-stimulus-presentation-old","60","234573","0.0-17.0-1.3","SS1619739610144","trial","","40","500","692","images/stimuli/spore_stims/complex_17_A_b.gif","images/stimuli/spore_stims/complex_07_A_a.gif","forced_long","","4","complex_dissimilar","images/stimuli/spore_stims/complex_07_A_a.gif","","","","",""
"","null","html-keyboard-response","61","235846","0.0-17.0-0.4","SS1619739610144","","","null","","","","","","<p><img src= images/blank.png width =""600"" height = ""600"" style=""position:fixed;top:50%; left:50%; transform: translate(-50%, -50%); border:5px solid black"">","","","","","","","",""
"","1073","sequential-stimulus-presentation-old","62","237428","0.0-17.0-1.4","SS1619739610144","trial","","40","500","1573","images/stimuli/spore_stims/complex_17_A_b.gif","images/stimuli/spore_stims/complex_07_A_a.gif","forced_long","","4","complex_dissimilar","images/stimuli/spore_stims/complex_07_A_a.gif","","","","",""
"","4120","survey-multi-choice","63","241555","0.0-18.0","SS1619739610144","math_question","","","","","","","","","","","","{""Q0"":""14""}","[0]","14","",""
"","null","html-keyboard-response","64","242416","0.0-19.0-0.0","SS1619739610144","","","null","","","","","","<p><img src= images/blank.png width =""600"" height = ""600"" style=""position:fixed;top:50%; left:50%; transform: translate(-50%, -50%); border:5px solid black"">","","","","","","","",""
"","788","sequential-stimulus-presentation-old","65","243711","0.0-19.0-1.0","SS1619739610144","trial","","40","500","1288","images/stimuli/spore_stims/simple_15_A_a.gif","images/stimuli/spore_stims/simple_16_A_b.gif","self_paced","","5","simple_dissimilar","images/stimuli/spore_stims/simple_16_A_b.gif","","","","",""
"","null","html-keyboard-response","66","244740","0.0-19.0-0.1","SS1619739610144","","","null","","","","","","<p><img src= images/blank.png width =""600"" height = ""600"" style=""position:fixed;top:50%; left:50%; transform: translate(-50%, -50%); border:5px solid black"">","","","","","","","",""
"","394","sequential-stimulus-presentation-old","67","245642","0.0-19.0-1.1","SS1619739610144","trial","","40","500","894","images/stimuli/spore_stims/simple_15_A_a.gif","images/stimuli/spore_stims/simple_16_A_b.gif","self_paced","","5","simple_dissimilar","images/stimuli/spore_stims/simple_16_A_b.gif","","","","",""
"","null","html-keyboard-response","68","246723","0.0-19.0-0.2","SS1619739610144","","","null","","","","","","<p><img src= images/blank.png width =""600"" height = ""600"" style=""position:fixed;top:50%; left:50%; transform: translate(-50%, -50%); border:5px solid black"">","","","","","","","",""
"","363","sequential-stimulus-presentation-old","69","247620","0.0-19.0-1.2","SS1619739610144","trial","","40","500","863","images/stimuli/spore_stims/simple_15_A_a.gif","images/stimuli/spore_stims/simple_16_A_b.gif","self_paced","","5","simple_dissimilar","images/stimuli/spore_stims/simple_16_A_b.gif","","","","",""
"","null","html-keyboard-response","70","248509","0.0-19.0-0.3","SS1619739610144","","","null","","","","","","<p><img src= images/blank.png width =""600"" height = ""600"" style=""position:fixed;top:50%; left:50%; transform: translate(-50%, -50%); border:5px solid black"">","","","","","","","",""
"","674","sequential-stimulus-presentation-old","71","249694","0.0-19.0-1.3","SS1619739610144","trial","","40","500","1174","images/stimuli/spore_stims/simple_15_A_a.gif","images/stimuli/spore_stims/simple_16_A_b.gif","self_paced","","5","simple_dissimilar","images/stimuli/spore_stims/simple_16_A_b.gif","","","","",""
"","4167","survey-multi-choice","72","253876","0.0-20.0","SS1619739610144","math_question","","","","","","","","","","","","{""Q0"":""11""}","[0]","11","",""
"","null","html-keyboard-response","73","254813","0.0-21.0-0.0","SS1619739610144","","","null","","","","","","<p><img src= images/blank.png width =""600"" height = ""600"" style=""position:fixed;top:50%; left:50%; transform: translate(-50%, -50%); border:5px solid black"">","","","","","","","",""
"","452","sequential-stimulus-presentation-old","74","255780","0.0-21.0-1.0","SS1619739610144","trial","","40","500","952","images/stimuli/spore_stims/complex_16_A_a.gif","images/stimuli/spore_stims/complex_05_A_b.gif","self_paced","","6","complex_dissimilar","images/stimuli/spore_stims/complex_05_A_b.gif","","","","",""
"","null","html-keyboard-response","75","256670","0.0-21.0-0.1","SS1619739610144","","","null","","","","","","<p><img src= images/blank.png width =""600"" height = ""600"" style=""position:fixed;top:50%; left:50%; transform: translate(-50%, -50%); border:5px solid black"">","","","","","","","",""
"","1191","sequential-stimulus-presentation-old","76","258370","0.0-21.0-1.1","SS1619739610144","trial","","40","500","1691","images/stimuli/spore_stims/complex_16_A_a.gif","images/stimuli/spore_stims/complex_05_A_b.gif","self_paced","","6","complex_dissimilar","images/stimuli/spore_stims/complex_05_A_b.gif","","","","",""
"","null","html-keyboard-response","77","259290","0.0-21.0-0.2","SS1619739610144","","","null","","","","","","<p><img src= images/blank.png width =""600"" height = ""600"" style=""position:fixed;top:50%; left:50%; transform: translate(-50%, -50%); border:5px solid black"">","","","","","","","",""
"","164","sequential-stimulus-presentation-old","78","259967","0.0-21.0-1.2","SS1619739610144","trial","","40","500","664","images/stimuli/spore_stims/complex_16_A_a.gif","images/stimuli/spore_stims/complex_05_A_b.gif","self_paced","","6","complex_dissimilar","images/stimuli/spore_stims/complex_05_A_b.gif","","","","",""
"","null","html-keyboard-response","79","261178","0.0-21.0-0.3","SS1619739610144","","","null","","","","","","<p><img src= images/blank.png width =""600"" height = ""600"" style=""position:fixed;top:50%; left:50%; transform: translate(-50%, -50%); border:5px solid black"">","","","","","","","",""
"","77","sequential-stimulus-presentation-old","80","261766","0.0-21.0-1.3","SS1619739610144","trial","","40","500","577","images/stimuli/spore_stims/complex_16_A_a.gif","images/stimuli/spore_stims/complex_05_A_b.gif","self_paced","","6","complex_dissimilar","images/stimuli/spore_stims/complex_05_A_b.gif","","","","",""
"","null","html-keyboard-response","81","263020","0.0-21.0-0.4","SS1619739610144","","","null","","","","","","<p><img src= images/blank.png width =""600"" height = ""600"" style=""position:fixed;top:50%; left:50%; transform: translate(-50%, -50%); border:5px solid black"">","","","","","","","",""
"","2683","sequential-stimulus-presentation-old","82","266213","0.0-21.0-1.4","SS1619739610144","trial","","40","500","3183","images/stimuli/spore_stims/complex_16_A_a.gif","images/stimuli/spore_stims/complex_05_A_b.gif","self_paced","","6","complex_dissimilar","images/stimuli/spore_stims/complex_16_A_a.gif","","","","",""
"","4216","survey-multi-choice","83","270444","0.0-22.0","SS1619739610144","math_question","","","","","","","","","","","","{""Q0"":""13""}","[0]","13","",""
"","null","html-keyboard-response","84","271510","0.0-23.0-0.0","SS1619739610144","","","null","","","","","","<p><img src= images/blank.png width =""600"" height = ""600"" style=""position:fixed;top:50%; left:50%; transform: translate(-50%, -50%); border:5px solid black"">","","","","","","","",""
"","767","sequential-stimulus-presentation-old","85","272787","0.0-23.0-1.0","SS1619739610144","trial","","40","500","1267","images/stimuli/spore_stims/complex_14_A_a.gif","images/stimuli/spore_stims/complex_01_A_b.gif","forced_short","","7","complex_dissimilar","images/stimuli/spore_stims/complex_01_A_b.gif","","","","",""
"","null","html-keyboard-response","86","273911","0.0-23.0-0.1","SS1619739610144","","","null","","","","","","<p><img src= images/blank.png width =""600"" height = ""600"" style=""position:fixed;top:50%; left:50%; transform: translate(-50%, -50%); border:5px solid black"">","","","","","","","",""
"","478","sequential-stimulus-presentation-old","87","274897","0.0-23.0-1.1","SS1619739610144","trial","","40","500","978","images/stimuli/spore_stims/complex_14_A_a.gif","images/stimuli/spore_stims/complex_01_A_b.gif","forced_short","","7","complex_dissimilar","images/stimuli/spore_stims/complex_01_A_b.gif","","","","",""
"","null","html-keyboard-response","88","275862","0.0-23.0-0.2","SS1619739610144","","","null","","","","","","<p><img src= images/blank.png width =""600"" height = ""600"" style=""position:fixed;top:50%; left:50%; transform: translate(-50%, -50%); border:5px solid black"">","","","","","","","",""
"","870","sequential-stimulus-presentation-old","89","277246","0.0-23.0-1.2","SS1619739610144","trial","","40","500","1370","images/stimuli/spore_stims/complex_14_A_a.gif","images/stimuli/spore_stims/complex_01_A_b.gif","forced_short","","7","complex_dissimilar","images/stimuli/spore_stims/complex_01_A_b.gif","","","","",""
"","null","html-keyboard-response","90","278442","0.0-23.0-0.3","SS1619739610144","","","null","","","","","","<p><img src= images/blank.png width =""600"" height = ""600"" style=""position:fixed;top:50%; left:50%; transform: translate(-50%, -50%); border:5px solid black"">","","","","","","","",""
"","1","sequential-stimulus-presentation-old","91","278974","0.0-23.0-1.3","SS1619739610144","trial","","40","500","501","images/stimuli/spore_stims/complex_14_A_a.gif","images/stimuli/spore_stims/complex_01_A_b.gif","forced_short","","7","complex_dissimilar","images/stimuli/spore_stims/complex_01_A_b.gif","","","","",""
"","3185","survey-multi-choice","92","282168","0.0-24.0","SS1619739610144","math_question","","","","","","","","","","","","{""Q0"":""6""}","[0]","6","",""
"","null","html-keyboard-response","93","283354","0.0-25.0-0.0","SS1619739610144","","","null","","","","","","<p><img src= images/blank.png width =""600"" height = ""600"" style=""position:fixed;top:50%; left:50%; transform: translate(-50%, -50%); border:5px solid black"">","","","","","","","",""
"","743","sequential-stimulus-presentation-old","94","284606","0.0-25.0-1.0","SS1619739610144","trial","","40","500","1243","images/stimuli/spore_stims/simple_14_A_b.gif","images/stimuli/spore_stims/simple_03_A_a.gif","forced_short","","8","simple_dissimilar","images/stimuli/spore_stims/simple_03_A_a.gif","","","","",""
"","null","html-keyboard-response","95","285846","0.0-25.0-0.1","SS1619739610144","","","null","","","","","","<p><img src= images/blank.png width =""600"" height = ""600"" style=""position:fixed;top:50%; left:50%; transform: translate(-50%, -50%); border:5px solid black"">","","","","","","","",""
"","33","sequential-stimulus-presentation-old","96","286388","0.0-25.0-1.1","SS1619739610144","trial","","40","500","533","images/stimuli/spore_stims/simple_14_A_b.gif","images/stimuli/spore_stims/simple_03_A_a.gif","forced_short","","8","simple_dissimilar","images/stimuli/spore_stims/simple_03_A_a.gif","","","","",""
"","null","html-keyboard-response","97","287452","0.0-25.0-0.2","SS1619739610144","","","null","","","","","","<p><img src= images/blank.png width =""600"" height = ""600"" style=""position:fixed;top:50%; left:50%; transform: translate(-50%, -50%); border:5px solid black"">","","","","","","","",""
"","353","sequential-stimulus-presentation-old","98","288314","0.0-25.0-1.2","SS1619739610144","trial","","40","500","853","images/stimuli/spore_stims/simple_14_A_b.gif","images/stimuli/spore_stims/simple_03_A_a.gif","forced_short","","8","simple_dissimilar","images/stimuli/spore_stims/simple_03_A_a.gif","","","","",""
"","null","html-keyboard-response","99","289390","0.0-25.0-0.3","SS1619739610144","","","null","","","","","","<p><img src= images/blank.png width =""600"" height = ""600"" style=""position:fixed;top:50%; left:50%; transform: translate(-50%, -50%); border:5px solid black"">","","","","","","","",""
"","230","sequential-stimulus-presentation-old","100","290130","0.0-25.0-1.3","SS1619739610144","trial","","40","500","730","images/stimuli/spore_stims/simple_14_A_b.gif","images/stimuli/spore_stims/simple_03_A_a.gif","forced_short","","8","simple_dissimilar","images/stimuli/spore_stims/simple_03_A_a.gif","","","","",""
"","null","html-keyboard-response","101","291035","0.0-25.0-0.4","SS1619739610144","","","null","","","","","","<p><img src= images/blank.png width =""600"" height = ""600"" style=""position:fixed;top:50%; left:50%; transform: translate(-50%, -50%); border:5px solid black"">","","","","","","","",""
"","199","sequential-stimulus-presentation-old","102","291742","0.0-25.0-1.4","SS1619739610144","trial","","40","500","699","images/stimuli/spore_stims/simple_14_A_b.gif","images/stimuli/spore_stims/simple_03_A_a.gif","forced_short","","8","simple_dissimilar","images/stimuli/spore_stims/simple_03_A_a.gif","","","","",""
"","null","html-keyboard-response","103","292625","0.0-25.0-0.5","SS1619739610144","","","null","","","","","","<p><img src= images/blank.png width =""600"" height = ""600"" style=""position:fixed;top:50%; left:50%; transform: translate(-50%, -50%); border:5px solid black"">","","","","","","","",""
"","378","sequential-stimulus-presentation-old","104","293514","0.0-25.0-1.5","SS1619739610144","trial","","40","500","878","images/stimuli/spore_stims/simple_14_A_b.gif","images/stimuli/spore_stims/simple_03_A_a.gif","forced_short","","8","simple_dissimilar","images/stimuli/spore_stims/simple_03_A_a.gif","","","","",""
"","3687","survey-multi-choice","105","297210","0.0-26.0","SS1619739610144","math_question","","","","","","","","","","","","{""Q0"":""10""}","[0]","10","",""
"","null","html-keyboard-response","106","298399","0.0-27.0-0.0","SS1619739610144","","","null","","","","","","<p><img src= images/blank.png width =""600"" height = ""600"" style=""position:fixed;top:50%; left:50%; transform: translate(-50%, -50%); border:5px solid black"">","","","","","","","",""
"","2","sequential-stimulus-presentation-old","107","298913","0.0-27.0-1.0","SS1619739610144","trial","","40","500","502","images/stimuli/spore_stims/simple_17_A_a.gif","images/stimuli/spore_stims/simple_04_A_b.gif","forced_short","","9","simple_dissimilar","images/stimuli/spore_stims/simple_04_A_b.gif","","","","",""
"","null","html-keyboard-response","108","300127","0.0-27.0-0.1","SS1619739610144","","","null","","","","","","<p><img src= images/blank.png width =""600"" height = ""600"" style=""position:fixed;top:50%; left:50%; transform: translate(-50%, -50%); border:5px solid black"">","","","","","","","",""
"","587","sequential-stimulus-presentation-old","109","301225","0.0-27.0-1.1","SS1619739610144","trial","","40","500","1087","images/stimuli/spore_stims/simple_17_A_a.gif","images/stimuli/spore_stims/simple_04_A_b.gif","forced_short","","9","simple_dissimilar","images/stimuli/spore_stims/simple_04_A_b.gif","","","","",""
"","null","html-keyboard-response","110","302311","0.0-27.0-0.2","SS1619739610144","","","null","","","","","","<p><img src= images/blank.png width =""600"" height = ""600"" style=""position:fixed;top:50%; left:50%; transform: translate(-50%, -50%); border:5px solid black"">","","","","","","","",""
"","772","sequential-stimulus-presentation-old","111","303593","0.0-27.0-1.2","SS1619739610144","trial","","40","500","1272","images/stimuli/spore_stims/simple_17_A_a.gif","images/stimuli/spore_stims/simple_04_A_b.gif","forced_short","","9","simple_dissimilar","images/stimuli/spore_stims/simple_04_A_b.gif","","","","",""
"","null","html-keyboard-response","112","304605","0.0-27.0-0.3","SS1619739610144","","","null","","","","","","<p><img src= images/blank.png width =""600"" height = ""600"" style=""position:fixed;top:50%; left:50%; transform: translate(-50%, -50%); border:5px solid black"">","","","","","","","",""
"","64","sequential-stimulus-presentation-old","113","305177","0.0-27.0-1.3","SS1619739610144","trial","","40","500","564","images/stimuli/spore_stims/simple_17_A_a.gif","images/stimuli/spore_stims/simple_04_A_b.gif","forced_short","","9","simple_dissimilar","images/stimuli/spore_stims/simple_04_A_b.gif","","","","",""
"","null","html-keyboard-response","114","306239","0.0-27.0-0.4","SS1619739610144","","","null","","","","","","<p><img src= images/blank.png width =""600"" height = ""600"" style=""position:fixed;top:50%; left:50%; transform: translate(-50%, -50%); border:5px solid black"">","","","","","","","",""
"","9","sequential-stimulus-presentation-old","115","306763","0.0-27.0-1.4","SS1619739610144","trial","","40","500","509","images/stimuli/spore_stims/simple_17_A_a.gif","images/stimuli/spore_stims/simple_04_A_b.gif","forced_short","","9","simple_dissimilar","images/stimuli/spore_stims/simple_04_A_b.gif","","","","",""
"","null","html-keyboard-response","116","307804","0.0-27.0-0.5","SS1619739610144","","","null","","","","","","<p><img src= images/blank.png width =""600"" height = ""600"" style=""position:fixed;top:50%; left:50%; transform: translate(-50%, -50%); border:5px solid black"">","","","","","","","",""
"","405","sequential-stimulus-presentation-old","117","308719","0.0-27.0-1.5","SS1619739610144","trial","","40","500","905","images/stimuli/spore_stims/simple_17_A_a.gif","images/stimuli/spore_stims/simple_04_A_b.gif","forced_short","","9","simple_dissimilar","images/stimuli/spore_stims/simple_17_A_a.gif","","","","",""
"","4658","survey-multi-choice","118","313387","0.0-28.0","SS1619739610144","math_question","","","","","","","","","","","","{""Q0"":""11""}","[0]","11","",""
"","null","html-keyboard-response","119","314650","0.0-29.0-0.0","SS1619739610144","","","null","","","","","","<p><img src= images/blank.png width =""600"" height = ""600"" style=""position:fixed;top:50%; left:50%; transform: translate(-50%, -50%); border:5px solid black"">","","","","","","","",""
"","254","sequential-stimulus-presentation-old","120","315441","0.0-29.0-1.0","SS1619739610144","trial","","40","500","754","images/stimuli/spore_stims/complex_08_A_a.gif","images/stimuli/spore_stims/complex_02_A_b.gif","forced_short","","10","complex_dissimilar","images/stimuli/spore_stims/complex_02_A_b.gif","","","","",""
"","null","html-keyboard-response","121","316461","0.0-29.0-0.1","SS1619739610144","","","null","","","","","","<p><img src= images/blank.png width =""600"" height = ""600"" style=""position:fixed;top:50%; left:50%; transform: translate(-50%, -50%); border:5px solid black"">","","","","","","","",""
"","765","sequential-stimulus-presentation-old","122","317741","0.0-29.0-1.1","SS1619739610144","trial","","40","500","1265","images/stimuli/spore_stims/complex_08_A_a.gif","images/stimuli/spore_stims/complex_02_A_b.gif","forced_short","","10","complex_dissimilar","images/stimuli/spore_stims/complex_02_A_b.gif","","","","",""
"","null","html-keyboard-response","123","318891","0.0-29.0-0.2","SS1619739610144","","","null","","","","","","<p><img src= images/blank.png width =""600"" height = ""600"" style=""position:fixed;top:50%; left:50%; transform: translate(-50%, -50%); border:5px solid black"">","","","","","","","",""
"","609","sequential-stimulus-presentation-old","124","320015","0.0-29.0-1.2","SS1619739610144","trial","","40","500","1109","images/stimuli/spore_stims/complex_08_A_a.gif","images/stimuli/spore_stims/complex_02_A_b.gif","forced_short","","10","complex_dissimilar","images/stimuli/spore_stims/complex_02_A_b.gif","","","","",""
"","null","html-keyboard-response","125","320963","0.0-29.0-0.3","SS1619739610144","","","null","","","","","","<p><img src= images/blank.png width =""600"" height = ""600"" style=""position:fixed;top:50%; left:50%; transform: translate(-50%, -50%); border:5px solid black"">","","","","","","","",""
"","465","sequential-stimulus-presentation-old","126","321941","0.0-29.0-1.3","SS1619739610144","trial","","40","500","965","images/stimuli/spore_stims/complex_08_A_a.gif","images/stimuli/spore_stims/complex_02_A_b.gif","forced_short","","10","complex_dissimilar","images/stimuli/spore_stims/complex_02_A_b.gif","","","","",""
"","null","html-keyboard-response","127","323075","0.0-29.0-0.4","SS1619739610144","","","null","","","","","","<p><img src= images/blank.png width =""600"" height = ""600"" style=""position:fixed;top:50%; left:50%; transform: translate(-50%, -50%); border:5px solid black"">","","","","","","","",""
"","190","sequential-stimulus-presentation-old","128","323775","0.0-29.0-1.4","SS1619739610144","trial","","40","500","690","images/stimuli/spore_stims/complex_08_A_a.gif","images/stimuli/spore_stims/complex_02_A_b.gif","forced_short","","10","complex_dissimilar","images/stimuli/spore_stims/complex_02_A_b.gif","","","","",""
"","null","html-keyboard-response","129","325034","0.0-29.0-0.5","SS1619739610144","","","null","","","","","","<p><img src= images/blank.png width =""600"" height = ""600"" style=""position:fixed;top:50%; left:50%; transform: translate(-50%, -50%); border:5px solid black"">","","","","","","","",""
"","441","sequential-stimulus-presentation-old","130","325985","0.0-29.0-1.5","SS1619739610144","trial","","40","500","941","images/stimuli/spore_stims/complex_08_A_a.gif","images/stimuli/spore_stims/complex_02_A_b.gif","forced_short","","10","complex_dissimilar","images/stimuli/spore_stims/complex_02_A_b.gif","","","","",""
"","3243","survey-multi-choice","131","329248","0.0-30.0","SS1619739610144","math_question","","","","","","","","","","","","{""Q0"":""4""}","[0]","4","",""
"","null","html-keyboard-response","132","330452","0.0-31.0-0.0","SS1619739610144","","","null","","","","","","<p><img src= images/blank.png width =""600"" height = ""600"" style=""position:fixed;top:50%; left:50%; transform: translate(-50%, -50%); border:5px solid black"">","","","","","","","",""
"","161","sequential-stimulus-presentation-old","133","331123","0.0-31.0-1.0","SS1619739610144","trial","","40","500","661","images/stimuli/spore_stims/simple_20_A_b.gif","images/stimuli/spore_stims/simple_19_A_a.gif","self_paced","","11","simple_dissimilar","images/stimuli/spore_stims/simple_19_A_a.gif","","","","",""
"","null","html-keyboard-response","134","332253","0.0-31.0-0.1","SS1619739610144","","","null","","","","","","<p><img src= images/blank.png width =""600"" height = ""600"" style=""position:fixed;top:50%; left:50%; transform: translate(-50%, -50%); border:5px solid black"">","","","","","","","",""
"","295","sequential-stimulus-presentation-old","135","333057","0.0-31.0-1.1","SS1619739610144","trial","","40","500","795","images/stimuli/spore_stims/simple_20_A_b.gif","images/stimuli/spore_stims/simple_19_A_a.gif","self_paced","","11","simple_dissimilar","images/stimuli/spore_stims/simple_20_A_b.gif","","","","",""
"","null","html-keyboard-response","136","334350","0.0-31.0-0.2","SS1619739610144","","","null","","","","","","<p><img src= images/blank.png width =""600"" height = ""600"" style=""position:fixed;top:50%; left:50%; transform: translate(-50%, -50%); border:5px solid black"">","","","","","","","",""
"","333","sequential-stimulus-presentation-old","137","335195","0.0-31.0-1.2","SS1619739610144","trial","","40","500","833","images/stimuli/spore_stims/simple_20_A_b.gif","images/stimuli/spore_stims/simple_19_A_a.gif","self_paced","","11","simple_dissimilar","images/stimuli/spore_stims/simple_19_A_a.gif","","","","",""
"","null","html-keyboard-response","138","336271","0.0-31.0-0.3","SS1619739610144","","","null","","","","","","<p><img src= images/blank.png width =""600"" height = ""600"" style=""position:fixed;top:50%; left:50%; transform: translate(-50%, -50%); border:5px solid black"">","","","","","","","",""
"","339","sequential-stimulus-presentation-old","139","337118","0.0-31.0-1.3","SS1619739610144","trial","","40","500","839","images/stimuli/spore_stims/simple_20_A_b.gif","images/stimuli/spore_stims/simple_19_A_a.gif","self_paced","","11","simple_dissimilar","images/stimuli/spore_stims/simple_19_A_a.gif","","","","",""
"[{""page_index"":0,""viewing_time"":4678}]","4679","instructions","140","341804","0.0-32.0","SS1619739610144","instructions","","","","","","","","","","","","","","","",""
"","4746","survey-likert","141","346564","0.0-33.0","SS1619739610144","similarity_question","","","","","","","","","","","","{""Q0"":5}","[0]","","images/stimuli/spore_stims/simple_19_A_a.gif","images/stimuli/spore_stims/simple_20_A_b.gif"
"","4080","survey-likert","142","350655","0.0-34.0","SS1619739610144","similarity_question","","","","","","","","","","","","{""Q0"":4}","[0]","","images/stimuli/spore_stims/complex_01_A_b.gif","images/stimuli/spore_stims/complex_14_A_a.gif"
"","4068","survey-likert","143","354735","0.0-35.0","SS1619739610144","similarity_question","","","","","","","","","","","","{""Q0"":1}","[0]","","images/stimuli/spore_stims/complex_20_A_a.gif","images/stimuli/spore_stims/complex_15_A_b.gif"
"","5440","survey-likert","144","360185","0.0-36.0","SS1619739610144","similarity_question","","","","","","","","","","","","{""Q0"":5}","[0]","","images/stimuli/spore_stims/simple_15_A_b.gif","images/stimuli/spore_stims/simple_02_A_a.gif"
"","3659","survey-likert","145","363853","0.0-37.0","SS1619739610144","similarity_question","","","","","","","","","","","","{""Q0"":6}","[0]","","images/stimuli/spore_stims/simple_16_A_b.gif","images/stimuli/spore_stims/simple_15_A_a.gif"
"","6199","survey-likert","146","370061","0.0-38.0","SS1619739610144","similarity_question","","","","","","","","","","","","{""Q0"":4}","[0]","","images/stimuli/spore_stims/complex_16_A_a.gif","images/stimuli/spore_stims/complex_05_A_b.gif"
"","3171","survey-likert","147","373241","0.0-39.0","SS1619739610144","similarity_question","","","","","","","","","","","","{""Q0"":6}","[0]","","images/stimuli/spore_stims/simple_04_A_a.gif","images/stimuli/spore_stims/simple_06_A_b.gif"
"","4966","survey-likert","148","378217","0.0-40.0","SS1619739610144","similarity_question","","","","","","","","","","","","{""Q0"":5}","[0]","","images/stimuli/spore_stims/simple_04_A_b.gif","images/stimuli/spore_stims/simple_17_A_a.gif"
"","4049","survey-likert","149","382286","0.0-41.0","SS1619739610144","similarity_question","","","","","","","","","","","","{""Q0"":3}","[0]","","images/stimuli/spore_stims/complex_08_A_a.gif","images/stimuli/spore_stims/complex_02_A_b.gif"
"","4702","survey-likert","150","387009","0.0-42.0","SS1619739610144","similarity_question","","","","","","","","","","","","{""Q0"":2}","[0]","","images/stimuli/spore_stims/complex_10_A_a.gif","images/stimuli/spore_stims/complex_13_A_b.gif"
"","4604","survey-likert","151","391627","0.0-43.0","SS1619739610144","similarity_question","","","","","","","","","","","","{""Q0"":5}","[0]","","images/stimuli/spore_stims/simple_03_A_a.gif","images/stimuli/spore_stims/simple_14_A_b.gif"
"","3895","survey-likert","152","395543","0.0-44.0","SS1619739610144","similarity_question","","","","","","","","","","","","{""Q0"":2}","[0]","","images/stimuli/spore_stims/complex_17_A_b.gif","images/stimuli/spore_stims/complex_07_A_a.gif"
"[{""page_index"":0,""viewing_time"":16766}]","16768","instructions","153","412335","0.0-45.0","SS1619739610144","instructions","","","","","","","","","","","","","","","",""
"","4227","survey-likert","154","416591","0.0-46.0","SS1619739610144","","","","","","","","","images/stimuli/spore_stims/complex_07_A_a.gif","","","","{""Q0"":5}","[0]","","",""
"","3789","survey-likert","155","420398","0.0-47.0","SS1619739610144","","","","","","","","","images/stimuli/spore_stims/complex_15_A_b.gif","","","","{""Q0"":4}","[0]","","",""
"","4975","survey-likert","156","425387","0.0-48.0","SS1619739610144","","","","","","","","","images/stimuli/spore_stims/complex_01_A_b.gif","","","","{""Q0"":4}","[0]","","",""
"","3521","survey-likert","157","428922","0.0-49.0","SS1619739610144","","","","","","","","","images/stimuli/spore_stims/simple_17_A_a.gif","","","","{""Q0"":0}","[0]","","",""
"","3093","survey-likert","158","432027","0.0-50.0","SS1619739610144","","","","","","","","","images/stimuli/spore_stims/simple_03_A_a.gif","","","","{""Q0"":0}","[0]","","",""
"","2736","survey-likert","159","434774","0.0-51.0","SS1619739610144","","","","","","","","","images/stimuli/spore_stims/simple_15_A_b.gif","","","","{""Q0"":0}","[0]","","",""
"","3624","survey-likert","160","438408","0.0-52.0","SS1619739610144","","","","","","","","","images/stimuli/spore_stims/complex_08_A_a.gif","","","","{""Q0"":5}","[0]","","",""
"","3637","survey-likert","161","442053","0.0-53.0","SS1619739610144","","","","","","","","","images/stimuli/spore_stims/simple_04_A_a.gif","","","","{""Q0"":0}","[0]","","",""
"","2751","survey-likert","162","444831","0.0-54.0","SS1619739610144","","","","","","","","","images/stimuli/spore_stims/simple_16_A_b.gif","","","","{""Q0"":0}","[0]","","",""
"","3320","survey-likert","163","448177","0.0-55.0","SS1619739610144","","","","","","","","","images/stimuli/spore_stims/complex_05_A_b.gif","","","","{""Q0"":5}","[0]","","",""
"","3022","survey-likert","164","451225","0.0-56.0","SS1619739610144","","","","","","","","","images/stimuli/spore_stims/complex_13_A_b.gif","","","","{""Q0"":4}","[0]","","",""
"","2889","survey-likert","165","454130","0.0-57.0","SS1619739610144","","","","","","","","","images/stimuli/spore_stims/simple_20_A_b.gif","","","","{""Q0"":0}","[0]","","",""
"[{""page_index"":0,""viewing_time"":1719}]","1719","instructions","166","455865","0.0-58.0","SS1619739610144","instructions","","","","","","","","","","","","","","","",""
"","2843","demog-age","167","458729","0.0-59.0","SS1619739610144","","","","","","","","","","","","","{""age"":""22""}","","","",""
"","2966","demog-ethnic-US","168","461739","0.0-60.0","SS1619739610144","","","","","","","","","","","","","{""ethnicity"":[""White""]}","[0]","","",""
"","6190","demog-gender-and-education","169","467982","0.0-61.0","SS1619739610144","","","","","","","","","","","","","{""gender"":""Female"",""education"":""Bachelor's Degree""}","[0,1]","","",""
"","8418","survey-text","170","476436","0.0-62.0","SS1619739610144","feedback","","","","","","","","","","","","{""Q0"":""No""}","","","",""
"[{""page_index"":0,""viewing_time"":1937}]","1937","instructions","171","478414","0.0-63.0","SS1619739610144","instructions","","","","","","","","","","","","","","","",""
