"view_history","rt","trial_type","trial_index","time_elapsed","internal_node_id","subject","stimulus_type","trial_stimulus","key_press","minimum_viewing_duration","trial_looking_time","block_deviant","block_background","exposure_type","stimulus","block_number","block_type","stimulus_displayed","responses","question_order","math_correct_answer","stimulus_left","stimulus_right"
"[{""page_index"":0,""viewing_time"":29299.6100000164}]","29300.634999992326","instructions","0","29303","0.0-0.0","SS1619739704103","","","","","","","","","","","","","","","","",""
"[{""page_index"":0,""viewing_time"":29171.429999987595},{""page_index"":1,""viewing_time"":9288.07500001858}]","38459.73000000231","instructions","1","69782","0.0-1.0","SS1619739704103","instructions","","","","","","","","","","","","","","","",""
"","9018.875000008848","sequential-stimulus-presentation-old","2","79306","0.0-2.0","SS1619739704103","","","40","500","9518.875000008848","null","null","self_paced","","","","","","","","",""
"","8085.989999992307","sequential-stimulus-presentation-old","3","87907","0.0-3.0","SS1619739704103","","","40","500","8585.989999992307","null","null","self_paced","","","","","","","","",""
"[{""page_index"":0,""viewing_time"":24009.95999999577}]","24010.190000000875","instructions","4","111918","0.0-4.0","SS1619739704103","instructions","","","","","","","","","","","","","","","",""
"","2863.039999996545","sequential-stimulus-presentation-old","5","129783","0.0-5.0","SS1619739704103","","","40","500","3363.039999996545","null","null","forced_long","","","","","","","","",""
"","3605.8350000239443","sequential-stimulus-presentation-old","6","133893","0.0-6.0","SS1619739704103","","","40","500","4105.835000023944","null","null","forced_long","","","","","","","","",""
"[{""page_index"":0,""viewing_time"":7519.059999991441}]","7519.304999994347","instructions","7","141413","0.0-7.0","SS1619739704103","instructions","","","","","","","","","","","","","","","",""
"[{""page_index"":0,""viewing_time"":25135.53500000853},{""page_index"":1,""viewing_time"":24007.660000002943},{""page_index"":2,""viewing_time"":11760.24000000325},{""page_index"":3,""viewing_time"":2423.9749999833293},{""page_index"":4,""viewing_time"":1240.1200000022072}]","64567.780000012135","instructions","8","205982","0.0-8.0","SS1619739704103","instructions","","","","","","","","","","","","","","","",""
"","null","html-keyboard-response","9","206994","0.0-9.0-0.0","SS1619739704103","","","null","","","","","","<p><img src= images/blank.png width =""600"" height = ""600"" style=""position:fixed;top:50%; left:50%; transform: translate(-50%, -50%); border:5px solid black"">","","","","","","","",""
"","1099.774999980582","sequential-stimulus-presentation-old","10","223098","0.0-9.0-1.0","SS1619739704103","trial","","40","500","1599.774999980582","images/stimuli/spore_stims/simple_12_A_a.gif","images/stimuli/spore_stims/simple_08_A_b.gif","forced_long","","0","simple_dissimilar","images/stimuli/spore_stims/simple_08_A_b.gif","","","","",""
"","null","html-keyboard-response","11","224353","0.0-9.0-0.1","SS1619739704103","","","null","","","","","","<p><img src= images/blank.png width =""600"" height = ""600"" style=""position:fixed;top:50%; left:50%; transform: translate(-50%, -50%); border:5px solid black"">","","","","","","","",""
"","26247.53999998211","sequential-stimulus-presentation-old","12","251102","0.0-9.0-1.1","SS1619739704103","trial","","40","500","26747.53999998211","images/stimuli/spore_stims/simple_12_A_a.gif","images/stimuli/spore_stims/simple_08_A_b.gif","forced_long","","0","simple_dissimilar","images/stimuli/spore_stims/simple_08_A_b.gif","","","","",""
"","null","html-keyboard-response","13","252184","0.0-9.0-0.2","SS1619739704103","","","null","","","","","","<p><img src= images/blank.png width =""600"" height = ""600"" style=""position:fixed;top:50%; left:50%; transform: translate(-50%, -50%); border:5px solid black"">","","","","","","","",""
"","3715.9600000013597","sequential-stimulus-presentation-old","14","256404","0.0-9.0-1.2","SS1619739704103","trial","","40","500","4215.96000000136","images/stimuli/spore_stims/simple_12_A_a.gif","images/stimuli/spore_stims/simple_08_A_b.gif","forced_long","","0","simple_dissimilar","images/stimuli/spore_stims/simple_12_A_a.gif","","","","",""
"","null","html-keyboard-response","15","257527","0.0-9.0-0.3","SS1619739704103","","","null","","","","","","<p><img src= images/blank.png width =""600"" height = ""600"" style=""position:fixed;top:50%; left:50%; transform: translate(-50%, -50%); border:5px solid black"">","","","","","","","",""
"","4331.46499999566","sequential-stimulus-presentation-old","16","262362","0.0-9.0-1.3","SS1619739704103","trial","","40","500","4831.46499999566","images/stimuli/spore_stims/simple_12_A_a.gif","images/stimuli/spore_stims/simple_08_A_b.gif","forced_long","","0","simple_dissimilar","images/stimuli/spore_stims/simple_08_A_b.gif","","","","",""
"","null","html-keyboard-response","17","263632","0.0-9.0-0.4","SS1619739704103","","","null","","","","","","<p><img src= images/blank.png width =""600"" height = ""600"" style=""position:fixed;top:50%; left:50%; transform: translate(-50%, -50%); border:5px solid black"">","","","","","","","",""
"","6277.350000018487","sequential-stimulus-presentation-old","18","270412","0.0-9.0-1.4","SS1619739704103","trial","","40","500","6777.350000018487","images/stimuli/spore_stims/simple_12_A_a.gif","images/stimuli/spore_stims/simple_08_A_b.gif","forced_long","","0","simple_dissimilar","images/stimuli/spore_stims/simple_12_A_a.gif","","","","",""
"","null","html-keyboard-response","19","271381","0.0-9.0-0.5","SS1619739704103","","","null","","","","","","<p><img src= images/blank.png width =""600"" height = ""600"" style=""position:fixed;top:50%; left:50%; transform: translate(-50%, -50%); border:5px solid black"">","","","","","","","",""
"","7226.1449999932665","sequential-stimulus-presentation-old","20","279116","0.0-9.0-1.5","SS1619739704103","trial","","40","500","7726.1449999932665","images/stimuli/spore_stims/simple_12_A_a.gif","images/stimuli/spore_stims/simple_08_A_b.gif","forced_long","","0","simple_dissimilar","images/stimuli/spore_stims/simple_08_A_b.gif","","","","",""
"","5832.560000009835","survey-multi-choice","21","284951","0.0-10.0","SS1619739704103","math_question","","","","","","","","","","","","{""Q0"":""11""}","[0]","11","",""
"","null","html-keyboard-response","22","285869","0.0-11.0-0.0","SS1619739704103","","","null","","","","","","<p><img src= images/blank.png width =""600"" height = ""600"" style=""position:fixed;top:50%; left:50%; transform: translate(-50%, -50%); border:5px solid black"">","","","","","","","",""
"","4216.449999978067","sequential-stimulus-presentation-old","23","305089","0.0-11.0-1.0","SS1619739704103","trial","","40","500","4716.449999978067","images/stimuli/spore_stims/complex_06_A_a.gif","images/stimuli/spore_stims/complex_12_A_b.gif","forced_long","","1","complex_dissimilar","images/stimuli/spore_stims/complex_12_A_b.gif","","","","",""
"","null","html-keyboard-response","24","306263","0.0-11.0-0.1","SS1619739704103","","","null","","","","","","<p><img src= images/blank.png width =""600"" height = ""600"" style=""position:fixed;top:50%; left:50%; transform: translate(-50%, -50%); border:5px solid black"">","","","","","","","",""
"","811.7050000000745","sequential-stimulus-presentation-old","25","307579","0.0-11.0-1.1","SS1619739704103","trial","","40","500","1311.7050000000745","images/stimuli/spore_stims/complex_06_A_a.gif","images/stimuli/spore_stims/complex_12_A_b.gif","forced_long","","1","complex_dissimilar","images/stimuli/spore_stims/complex_12_A_b.gif","","","","",""
"","null","html-keyboard-response","26","308434","0.0-11.0-0.2","SS1619739704103","","","null","","","","","","<p><img src= images/blank.png width =""600"" height = ""600"" style=""position:fixed;top:50%; left:50%; transform: translate(-50%, -50%); border:5px solid black"">","","","","","","","",""
"","1460.5699999956414","sequential-stimulus-presentation-old","27","310397","0.0-11.0-1.2","SS1619739704103","trial","","40","500","1960.5699999956414","images/stimuli/spore_stims/complex_06_A_a.gif","images/stimuli/spore_stims/complex_12_A_b.gif","forced_long","","1","complex_dissimilar","images/stimuli/spore_stims/complex_12_A_b.gif","","","","",""
"","null","html-keyboard-response","28","311364","0.0-11.0-0.3","SS1619739704103","","","null","","","","","","<p><img src= images/blank.png width =""600"" height = ""600"" style=""position:fixed;top:50%; left:50%; transform: translate(-50%, -50%); border:5px solid black"">","","","","","","","",""
"","2526.510000025155","sequential-stimulus-presentation-old","29","314393","0.0-11.0-1.3","SS1619739704103","trial","","40","500","3026.510000025155","images/stimuli/spore_stims/complex_06_A_a.gif","images/stimuli/spore_stims/complex_12_A_b.gif","forced_long","","1","complex_dissimilar","images/stimuli/spore_stims/complex_12_A_b.gif","","","","",""
"","4251.684999995632","survey-multi-choice","30","318646","0.0-12.0","SS1619739704103","math_question","","","","","","","","","","","","{""Q0"":""4""}","[0]","4","",""
"","null","html-keyboard-response","31","319793","0.0-13.0-0.0","SS1619739704103","","","null","","","","","","<p><img src= images/blank.png width =""600"" height = ""600"" style=""position:fixed;top:50%; left:50%; transform: translate(-50%, -50%); border:5px solid black"">","","","","","","","",""
"","1663.7599999958184","sequential-stimulus-presentation-old","32","321960","0.0-13.0-1.0","SS1619739704103","trial","","40","500","2163.7599999958184","images/stimuli/spore_stims/complex_01_A_a.gif","images/stimuli/spore_stims/complex_18_A_b.gif","forced_short","","2","complex_dissimilar","images/stimuli/spore_stims/complex_18_A_b.gif","","","","",""
"","null","html-keyboard-response","33","322841","0.0-13.0-0.1","SS1619739704103","","","null","","","","","","<p><img src= images/blank.png width =""600"" height = ""600"" style=""position:fixed;top:50%; left:50%; transform: translate(-50%, -50%); border:5px solid black"">","","","","","","","",""
"","3943.699999974342","sequential-stimulus-presentation-old","34","327287","0.0-13.0-1.1","SS1619739704103","trial","","40","500","4443.699999974342","images/stimuli/spore_stims/complex_01_A_a.gif","images/stimuli/spore_stims/complex_18_A_b.gif","forced_short","","2","complex_dissimilar","images/stimuli/spore_stims/complex_18_A_b.gif","","","","",""
"","null","html-keyboard-response","35","328474","0.0-13.0-0.2","SS1619739704103","","","null","","","","","","<p><img src= images/blank.png width =""600"" height = ""600"" style=""position:fixed;top:50%; left:50%; transform: translate(-50%, -50%); border:5px solid black"">","","","","","","","",""
"","5749.845000013011","sequential-stimulus-presentation-old","36","334728","0.0-13.0-1.2","SS1619739704103","trial","","40","500","6249.845000013011","images/stimuli/spore_stims/complex_01_A_a.gif","images/stimuli/spore_stims/complex_18_A_b.gif","forced_short","","2","complex_dissimilar","images/stimuli/spore_stims/complex_18_A_b.gif","","","","",""
"","null","html-keyboard-response","37","335779","0.0-13.0-0.3","SS1619739704103","","","null","","","","","","<p><img src= images/blank.png width =""600"" height = ""600"" style=""position:fixed;top:50%; left:50%; transform: translate(-50%, -50%); border:5px solid black"">","","","","","","","",""
"","3735.710000008112","sequential-stimulus-presentation-old","38","340018","0.0-13.0-1.3","SS1619739704103","trial","","40","500","4235.710000008112","images/stimuli/spore_stims/complex_01_A_a.gif","images/stimuli/spore_stims/complex_18_A_b.gif","forced_short","","2","complex_dissimilar","images/stimuli/spore_stims/complex_01_A_a.gif","","","","",""
"","null","html-keyboard-response","39","341083","0.0-13.0-0.4","SS1619739704103","","","null","","","","","","<p><img src= images/blank.png width =""600"" height = ""600"" style=""position:fixed;top:50%; left:50%; transform: translate(-50%, -50%); border:5px solid black"">","","","","","","","",""
"","6379.0249999728985","sequential-stimulus-presentation-old","40","347966","0.0-13.0-1.4","SS1619739704103","trial","","40","500","6879.0249999728985","images/stimuli/spore_stims/complex_01_A_a.gif","images/stimuli/spore_stims/complex_18_A_b.gif","forced_short","","2","complex_dissimilar","images/stimuli/spore_stims/complex_18_A_b.gif","","","","",""
"","null","html-keyboard-response","41","348846","0.0-13.0-0.5","SS1619739704103","","","null","","","","","","<p><img src= images/blank.png width =""600"" height = ""600"" style=""position:fixed;top:50%; left:50%; transform: translate(-50%, -50%); border:5px solid black"">","","","","","","","",""
"","3327.5849999918137","sequential-stimulus-presentation-old","42","352678","0.0-13.0-1.5","SS1619739704103","trial","","40","500","3827.5849999918137","images/stimuli/spore_stims/complex_01_A_a.gif","images/stimuli/spore_stims/complex_18_A_b.gif","forced_short","","2","complex_dissimilar","images/stimuli/spore_stims/complex_01_A_a.gif","","","","",""
"","3487.4199999903794","survey-multi-choice","43","356167","0.0-14.0","SS1619739704103","math_question","","","","","","","","","","","","{""Q0"":""8""}","[0]","8","",""
"","null","html-keyboard-response","44","357118","0.0-15.0-0.0","SS1619739704103","","","null","","","","","","<p><img src= images/blank.png width =""600"" height = ""600"" style=""position:fixed;top:50%; left:50%; transform: translate(-50%, -50%); border:5px solid black"">","","","","","","","",""
"","3965.525000006892","sequential-stimulus-presentation-old","45","361587","0.0-15.0-1.0","SS1619739704103","trial","","40","500","4465.525000006892","images/stimuli/spore_stims/complex_17_A_a.gif","images/stimuli/spore_stims/complex_04_A_b.gif","forced_short","","3","complex_dissimilar","images/stimuli/spore_stims/complex_04_A_b.gif","","","","",""
"","null","html-keyboard-response","46","362681","0.0-15.0-0.1","SS1619739704103","","","null","","","","","","<p><img src= images/blank.png width =""600"" height = ""600"" style=""position:fixed;top:50%; left:50%; transform: translate(-50%, -50%); border:5px solid black"">","","","","","","","",""
"","4381.274999992456","sequential-stimulus-presentation-old","47","367574","0.0-15.0-1.1","SS1619739704103","trial","","40","500","4881.274999992456","images/stimuli/spore_stims/complex_17_A_a.gif","images/stimuli/spore_stims/complex_04_A_b.gif","forced_short","","3","complex_dissimilar","images/stimuli/spore_stims/complex_04_A_b.gif","","","","",""
"","null","html-keyboard-response","48","368624","0.0-15.0-0.2","SS1619739704103","","","null","","","","","","<p><img src= images/blank.png width =""600"" height = ""600"" style=""position:fixed;top:50%; left:50%; transform: translate(-50%, -50%); border:5px solid black"">","","","","","","","",""
"","4954.555000003893","sequential-stimulus-presentation-old","49","374082","0.0-15.0-1.2","SS1619739704103","trial","","40","500","5454.555000003893","images/stimuli/spore_stims/complex_17_A_a.gif","images/stimuli/spore_stims/complex_04_A_b.gif","forced_short","","3","complex_dissimilar","images/stimuli/spore_stims/complex_04_A_b.gif","","","","",""
"","null","html-keyboard-response","50","375378","0.0-15.0-0.3","SS1619739704103","","","null","","","","","","<p><img src= images/blank.png width =""600"" height = ""600"" style=""position:fixed;top:50%; left:50%; transform: translate(-50%, -50%); border:5px solid black"">","","","","","","","",""
"","3220.449999993434","sequential-stimulus-presentation-old","51","379107","0.0-15.0-1.3","SS1619739704103","trial","","40","500","3720.449999993434","images/stimuli/spore_stims/complex_17_A_a.gif","images/stimuli/spore_stims/complex_04_A_b.gif","forced_short","","3","complex_dissimilar","images/stimuli/spore_stims/complex_17_A_a.gif","","","","",""
"","null","html-keyboard-response","52","380027","0.0-15.0-0.4","SS1619739704103","","","null","","","","","","<p><img src= images/blank.png width =""600"" height = ""600"" style=""position:fixed;top:50%; left:50%; transform: translate(-50%, -50%); border:5px solid black"">","","","","","","","",""
"","4261.664999998175","sequential-stimulus-presentation-old","53","384792","0.0-15.0-1.4","SS1619739704103","trial","","40","500","4761.664999998175","images/stimuli/spore_stims/complex_17_A_a.gif","images/stimuli/spore_stims/complex_04_A_b.gif","forced_short","","3","complex_dissimilar","images/stimuli/spore_stims/complex_04_A_b.gif","","","","",""
"","null","html-keyboard-response","54","386031","0.0-15.0-0.5","SS1619739704103","","","null","","","","","","<p><img src= images/blank.png width =""600"" height = ""600"" style=""position:fixed;top:50%; left:50%; transform: translate(-50%, -50%); border:5px solid black"">","","","","","","","",""
"","4748.529999982566","sequential-stimulus-presentation-old","55","391283","0.0-15.0-1.5","SS1619739704103","trial","","40","500","5248.529999982566","images/stimuli/spore_stims/complex_17_A_a.gif","images/stimuli/spore_stims/complex_04_A_b.gif","forced_short","","3","complex_dissimilar","images/stimuli/spore_stims/complex_17_A_a.gif","","","","",""
"","3328.719999990426","survey-multi-choice","56","394614","0.0-16.0","SS1619739704103","math_question","","","","","","","","","","","","{""Q0"":""3""}","[0]","3","",""
"","null","html-keyboard-response","57","395575","0.0-17.0-0.0","SS1619739704103","","","null","","","","","","<p><img src= images/blank.png width =""600"" height = ""600"" style=""position:fixed;top:50%; left:50%; transform: translate(-50%, -50%); border:5px solid black"">","","","","","","","",""
"","6837.555000005523","sequential-stimulus-presentation-old","58","402925","0.0-17.0-1.0","SS1619739704103","trial","","40","500","7337.555000005523","images/stimuli/spore_stims/complex_02_A_a.gif","images/stimuli/spore_stims/complex_14_A_b.gif","self_paced","","4","complex_dissimilar","images/stimuli/spore_stims/complex_14_A_b.gif","","","","",""
"","null","html-keyboard-response","59","404194","0.0-17.0-0.1","SS1619739704103","","","null","","","","","","<p><img src= images/blank.png width =""600"" height = ""600"" style=""position:fixed;top:50%; left:50%; transform: translate(-50%, -50%); border:5px solid black"">","","","","","","","",""
"","6861.639999988256","sequential-stimulus-presentation-old","60","411560","0.0-17.0-1.1","SS1619739704103","trial","","40","500","7361.639999988256","images/stimuli/spore_stims/complex_02_A_a.gif","images/stimuli/spore_stims/complex_14_A_b.gif","self_paced","","4","complex_dissimilar","images/stimuli/spore_stims/complex_14_A_b.gif","","","","",""
"","null","html-keyboard-response","61","412640","0.0-17.0-0.2","SS1619739704103","","","null","","","","","","<p><img src= images/blank.png width =""600"" height = ""600"" style=""position:fixed;top:50%; left:50%; transform: translate(-50%, -50%); border:5px solid black"">","","","","","","","",""
"","4003.484999993816","sequential-stimulus-presentation-old","62","417147","0.0-17.0-1.2","SS1619739704103","trial","","40","500","4503.484999993816","images/stimuli/spore_stims/complex_02_A_a.gif","images/stimuli/spore_stims/complex_14_A_b.gif","self_paced","","4","complex_dissimilar","images/stimuli/spore_stims/complex_02_A_a.gif","","","","",""
"","null","html-keyboard-response","63","418246","0.0-17.0-0.3","SS1619739704103","","","null","","","","","","<p><img src= images/blank.png width =""600"" height = ""600"" style=""position:fixed;top:50%; left:50%; transform: translate(-50%, -50%); border:5px solid black"">","","","","","","","",""
"","4897.064999997383","sequential-stimulus-presentation-old","64","423647","0.0-17.0-1.3","SS1619739704103","trial","","40","500","5397.064999997383","images/stimuli/spore_stims/complex_02_A_a.gif","images/stimuli/spore_stims/complex_14_A_b.gif","self_paced","","4","complex_dissimilar","images/stimuli/spore_stims/complex_02_A_a.gif","","","","",""
"","null","html-keyboard-response","65","424896","0.0-17.0-0.4","SS1619739704103","","","null","","","","","","<p><img src= images/blank.png width =""600"" height = ""600"" style=""position:fixed;top:50%; left:50%; transform: translate(-50%, -50%); border:5px solid black"">","","","","","","","",""
"","12299.360000004526","sequential-stimulus-presentation-old","66","437699","0.0-17.0-1.4","SS1619739704103","trial","","40","500","12799.360000004526","images/stimuli/spore_stims/complex_02_A_a.gif","images/stimuli/spore_stims/complex_14_A_b.gif","self_paced","","4","complex_dissimilar","images/stimuli/spore_stims/complex_14_A_b.gif","","","","",""
"","null","html-keyboard-response","67","438971","0.0-17.0-0.5","SS1619739704103","","","null","","","","","","<p><img src= images/blank.png width =""600"" height = ""600"" style=""position:fixed;top:50%; left:50%; transform: translate(-50%, -50%); border:5px solid black"">","","","","","","","",""
"","701.2699999904726","sequential-stimulus-presentation-old","68","440184","0.0-17.0-1.5","SS1619739704103","trial","","40","500","1201.2699999904726","images/stimuli/spore_stims/complex_02_A_a.gif","images/stimuli/spore_stims/complex_14_A_b.gif","self_paced","","4","complex_dissimilar","images/stimuli/spore_stims/complex_14_A_b.gif","","","","",""
"","6387.764999992214","survey-multi-choice","69","446574","0.0-18.0","SS1619739704103","math_question","","","","","","","","","","","","{""Q0"":""13""}","[0]","13","",""
"","null","html-keyboard-response","70","447768","0.0-19.0-0.0","SS1619739704103","","","null","","","","","","<p><img src= images/blank.png width =""600"" height = ""600"" style=""position:fixed;top:50%; left:50%; transform: translate(-50%, -50%); border:5px solid black"">","","","","","","","",""
"","1677.7599999913946","sequential-stimulus-presentation-old","71","449948","0.0-19.0-1.0","SS1619739704103","trial","","40","500","2177.7599999913946","images/stimuli/spore_stims/simple_03_A_a.gif","images/stimuli/spore_stims/simple_12_A_b.gif","forced_short","","5","simple_dissimilar","images/stimuli/spore_stims/simple_12_A_b.gif","","","","",""
"","null","html-keyboard-response","72","451030","0.0-19.0-0.1","SS1619739704103","","","null","","","","","","<p><img src= images/blank.png width =""600"" height = ""600"" style=""position:fixed;top:50%; left:50%; transform: translate(-50%, -50%); border:5px solid black"">","","","","","","","",""
"","3303.410000022268","sequential-stimulus-presentation-old","73","454841","0.0-19.0-1.1","SS1619739704103","trial","","40","500","3803.410000022268","images/stimuli/spore_stims/simple_03_A_a.gif","images/stimuli/spore_stims/simple_12_A_b.gif","forced_short","","5","simple_dissimilar","images/stimuli/spore_stims/simple_12_A_b.gif","","","","",""
"","null","html-keyboard-response","74","455962","0.0-19.0-0.2","SS1619739704103","","","null","","","","","","<p><img src= images/blank.png width =""600"" height = ""600"" style=""position:fixed;top:50%; left:50%; transform: translate(-50%, -50%); border:5px solid black"">","","","","","","","",""
"","6135.054999991553","sequential-stimulus-presentation-old","75","462602","0.0-19.0-1.2","SS1619739704103","trial","","40","500","6635.054999991553","images/stimuli/spore_stims/simple_03_A_a.gif","images/stimuli/spore_stims/simple_12_A_b.gif","forced_short","","5","simple_dissimilar","images/stimuli/spore_stims/simple_03_A_a.gif","","","","",""
"","null","html-keyboard-response","76","463506","0.0-19.0-0.3","SS1619739704103","","","null","","","","","","<p><img src= images/blank.png width =""600"" height = ""600"" style=""position:fixed;top:50%; left:50%; transform: translate(-50%, -50%); border:5px solid black"">","","","","","","","",""
"","5613.180000014836","sequential-stimulus-presentation-old","77","469623","0.0-19.0-1.3","SS1619739704103","trial","","40","500","6113.180000014836","images/stimuli/spore_stims/simple_03_A_a.gif","images/stimuli/spore_stims/simple_12_A_b.gif","forced_short","","5","simple_dissimilar","images/stimuli/spore_stims/simple_12_A_b.gif","","","","",""
"","null","html-keyboard-response","78","470726","0.0-19.0-0.4","SS1619739704103","","","null","","","","","","<p><img src= images/blank.png width =""600"" height = ""600"" style=""position:fixed;top:50%; left:50%; transform: translate(-50%, -50%); border:5px solid black"">","","","","","","","",""
"","3652.655000012601","sequential-stimulus-presentation-old","79","474891","0.0-19.0-1.4","SS1619739704103","trial","","40","500","4152.655000012601","images/stimuli/spore_stims/simple_03_A_a.gif","images/stimuli/spore_stims/simple_12_A_b.gif","forced_short","","5","simple_dissimilar","images/stimuli/spore_stims/simple_12_A_b.gif","","","","",""
"","null","html-keyboard-response","80","476032","0.0-19.0-0.5","SS1619739704103","","","null","","","","","","<p><img src= images/blank.png width =""600"" height = ""600"" style=""position:fixed;top:50%; left:50%; transform: translate(-50%, -50%); border:5px solid black"">","","","","","","","",""
"","4037.364999996498","sequential-stimulus-presentation-old","81","480573","0.0-19.0-1.5","SS1619739704103","trial","","40","500","4537.364999996498","images/stimuli/spore_stims/simple_03_A_a.gif","images/stimuli/spore_stims/simple_12_A_b.gif","forced_short","","5","simple_dissimilar","images/stimuli/spore_stims/simple_03_A_a.gif","","","","",""
"","3295.8199999993667","survey-multi-choice","82","483870","0.0-20.0","SS1619739704103","math_question","","","","","","","","","","","","{""Q0"":""14""}","[0]","14","",""
"","null","html-keyboard-response","83","485105","0.0-21.0-0.0","SS1619739704103","","","null","","","","","","<p><img src= images/blank.png width =""600"" height = ""600"" style=""position:fixed;top:50%; left:50%; transform: translate(-50%, -50%); border:5px solid black"">","","","","","","","",""
"","646.4299999934155","sequential-stimulus-presentation-old","84","500756","0.0-21.0-1.0","SS1619739704103","trial","","40","500","1146.4299999934155","images/stimuli/spore_stims/simple_18_A_a.gif","images/stimuli/spore_stims/simple_09_A_b.gif","forced_long","","6","simple_dissimilar","images/stimuli/spore_stims/simple_09_A_b.gif","","","","",""
"","null","html-keyboard-response","85","501792","0.0-21.0-0.1","SS1619739704103","","","null","","","","","","<p><img src= images/blank.png width =""600"" height = ""600"" style=""position:fixed;top:50%; left:50%; transform: translate(-50%, -50%); border:5px solid black"">","","","","","","","",""
"","1133.1000000063796","sequential-stimulus-presentation-old","86","503437","0.0-21.0-1.1","SS1619739704103","trial","","40","500","1633.1000000063796","images/stimuli/spore_stims/simple_18_A_a.gif","images/stimuli/spore_stims/simple_09_A_b.gif","forced_long","","6","simple_dissimilar","images/stimuli/spore_stims/simple_09_A_b.gif","","","","",""
"","null","html-keyboard-response","87","504466","0.0-21.0-0.2","SS1619739704103","","","null","","","","","","<p><img src= images/blank.png width =""600"" height = ""600"" style=""position:fixed;top:50%; left:50%; transform: translate(-50%, -50%); border:5px solid black"">","","","","","","","",""
"","7271.015000005718","sequential-stimulus-presentation-old","88","512245","0.0-21.0-1.2","SS1619739704103","trial","","40","500","7771.015000005718","images/stimuli/spore_stims/simple_18_A_a.gif","images/stimuli/spore_stims/simple_09_A_b.gif","forced_long","","6","simple_dissimilar","images/stimuli/spore_stims/simple_09_A_b.gif","","","","",""
"","null","html-keyboard-response","89","513145","0.0-21.0-0.3","SS1619739704103","","","null","","","","","","<p><img src= images/blank.png width =""600"" height = ""600"" style=""position:fixed;top:50%; left:50%; transform: translate(-50%, -50%); border:5px solid black"">","","","","","","","",""
"","5000.669999979436","sequential-stimulus-presentation-old","90","518656","0.0-21.0-1.3","SS1619739704103","trial","","40","500","5500.669999979436","images/stimuli/spore_stims/simple_18_A_a.gif","images/stimuli/spore_stims/simple_09_A_b.gif","forced_long","","6","simple_dissimilar","images/stimuli/spore_stims/simple_09_A_b.gif","","","","",""
"","null","html-keyboard-response","91","519600","0.0-21.0-0.4","SS1619739704103","","","null","","","","","","<p><img src= images/blank.png width =""600"" height = ""600"" style=""position:fixed;top:50%; left:50%; transform: translate(-50%, -50%); border:5px solid black"">","","","","","","","",""
"","2342.2149999823887","sequential-stimulus-presentation-old","92","522455","0.0-21.0-1.4","SS1619739704103","trial","","40","500","2842.2149999823887","images/stimuli/spore_stims/simple_18_A_a.gif","images/stimuli/spore_stims/simple_09_A_b.gif","forced_long","","6","simple_dissimilar","images/stimuli/spore_stims/simple_09_A_b.gif","","","","",""
"","4597.305000002962","survey-multi-choice","93","527055","0.0-22.0","SS1619739704103","math_question","","","","","","","","","","","","{""Q0"":""17""}","[0]","17","",""
"","null","html-keyboard-response","94","528169","0.0-23.0-0.0","SS1619739704103","","","null","","","","","","<p><img src= images/blank.png width =""600"" height = ""600"" style=""position:fixed;top:50%; left:50%; transform: translate(-50%, -50%); border:5px solid black"">","","","","","","","",""
"","3444.980000000214","sequential-stimulus-presentation-old","95","532117","0.0-23.0-1.0","SS1619739704103","trial","","40","500","3944.980000000214","images/stimuli/spore_stims/simple_10_A_b.gif","images/stimuli/spore_stims/simple_11_A_a.gif","self_paced","","7","simple_dissimilar","images/stimuli/spore_stims/simple_11_A_a.gif","","","","",""
"","null","html-keyboard-response","96","533336","0.0-23.0-0.1","SS1619739704103","","","null","","","","","","<p><img src= images/blank.png width =""600"" height = ""600"" style=""position:fixed;top:50%; left:50%; transform: translate(-50%, -50%); border:5px solid black"">","","","","","","","",""
"","1236.8249999999534","sequential-stimulus-presentation-old","97","535078","0.0-23.0-1.1","SS1619739704103","trial","","40","500","1736.8249999999534","images/stimuli/spore_stims/simple_10_A_b.gif","images/stimuli/spore_stims/simple_11_A_a.gif","self_paced","","7","simple_dissimilar","images/stimuli/spore_stims/simple_10_A_b.gif","","","","",""
"","null","html-keyboard-response","98","536374","0.0-23.0-0.2","SS1619739704103","","","null","","","","","","<p><img src= images/blank.png width =""600"" height = ""600"" style=""position:fixed;top:50%; left:50%; transform: translate(-50%, -50%); border:5px solid black"">","","","","","","","",""
"","1057.2850000171456","sequential-stimulus-presentation-old","99","537939","0.0-23.0-1.2","SS1619739704103","trial","","40","500","1557.2850000171456","images/stimuli/spore_stims/simple_10_A_b.gif","images/stimuli/spore_stims/simple_11_A_a.gif","self_paced","","7","simple_dissimilar","images/stimuli/spore_stims/simple_10_A_b.gif","","","","",""
"","null","html-keyboard-response","100","538794","0.0-23.0-0.3","SS1619739704103","","","null","","","","","","<p><img src= images/blank.png width =""600"" height = ""600"" style=""position:fixed;top:50%; left:50%; transform: translate(-50%, -50%); border:5px solid black"">","","","","","","","",""
"","2939.1950000135694","sequential-stimulus-presentation-old","101","542237","0.0-23.0-1.3","SS1619739704103","trial","","40","500","3439.1950000135694","images/stimuli/spore_stims/simple_10_A_b.gif","images/stimuli/spore_stims/simple_11_A_a.gif","self_paced","","7","simple_dissimilar","images/stimuli/spore_stims/simple_11_A_a.gif","","","","",""
"","3351.9950000045355","survey-multi-choice","102","545591","0.0-24.0","SS1619739704103","math_question","","","","","","","","","","","","{""Q0"":""8""}","[0]","8","",""
"","null","html-keyboard-response","103","546532","0.0-25.0-0.0","SS1619739704103","","","null","","","","","","<p><img src= images/blank.png width =""600"" height = ""600"" style=""position:fixed;top:50%; left:50%; transform: translate(-50%, -50%); border:5px solid black"">","","","","","","","",""
"","2920.2750000113156","sequential-stimulus-presentation-old","104","549957","0.0-25.0-1.0","SS1619739704103","trial","","40","500","3420.2750000113156","images/stimuli/spore_stims/complex_17_A_b.gif","images/stimuli/spore_stims/complex_10_A_a.gif","self_paced","","8","complex_dissimilar","images/stimuli/spore_stims/complex_10_A_a.gif","","","","",""
"","null","html-keyboard-response","105","551204","0.0-25.0-0.1","SS1619739704103","","","null","","","","","","<p><img src= images/blank.png width =""600"" height = ""600"" style=""position:fixed;top:50%; left:50%; transform: translate(-50%, -50%); border:5px solid black"">","","","","","","","",""
"","2330.325000017183","sequential-stimulus-presentation-old","106","554044","0.0-25.0-1.1","SS1619739704103","trial","","40","500","2830.325000017183","images/stimuli/spore_stims/complex_17_A_b.gif","images/stimuli/spore_stims/complex_10_A_a.gif","self_paced","","8","complex_dissimilar","images/stimuli/spore_stims/complex_10_A_a.gif","","","","",""
"","null","html-keyboard-response","107","555177","0.0-25.0-0.2","SS1619739704103","","","null","","","","","","<p><img src= images/blank.png width =""600"" height = ""600"" style=""position:fixed;top:50%; left:50%; transform: translate(-50%, -50%); border:5px solid black"">","","","","","","","",""
"","1580.2449999901","sequential-stimulus-presentation-old","108","557273","0.0-25.0-1.2","SS1619739704103","trial","","40","500","2080.2449999901","images/stimuli/spore_stims/complex_17_A_b.gif","images/stimuli/spore_stims/complex_10_A_a.gif","self_paced","","8","complex_dissimilar","images/stimuli/spore_stims/complex_10_A_a.gif","","","","",""
"","null","html-keyboard-response","109","558323","0.0-25.0-0.3","SS1619739704103","","","null","","","","","","<p><img src= images/blank.png width =""600"" height = ""600"" style=""position:fixed;top:50%; left:50%; transform: translate(-50%, -50%); border:5px solid black"">","","","","","","","",""
"","5422.9749999940395","sequential-stimulus-presentation-old","110","564248","0.0-25.0-1.3","SS1619739704103","trial","","40","500","5922.9749999940395","images/stimuli/spore_stims/complex_17_A_b.gif","images/stimuli/spore_stims/complex_10_A_a.gif","self_paced","","8","complex_dissimilar","images/stimuli/spore_stims/complex_17_A_b.gif","","","","",""
"","null","html-keyboard-response","111","565256","0.0-25.0-0.4","SS1619739704103","","","null","","","","","","<p><img src= images/blank.png width =""600"" height = ""600"" style=""position:fixed;top:50%; left:50%; transform: translate(-50%, -50%); border:5px solid black"">","","","","","","","",""
"","4504.350000002887","sequential-stimulus-presentation-old","112","570264","0.0-25.0-1.4","SS1619739704103","trial","","40","500","5004.350000002887","images/stimuli/spore_stims/complex_17_A_b.gif","images/stimuli/spore_stims/complex_10_A_a.gif","self_paced","","8","complex_dissimilar","images/stimuli/spore_stims/complex_17_A_b.gif","","","","",""
"","3939.760000008391","survey-multi-choice","113","574207","0.0-26.0","SS1619739704103","math_question","","","","","","","","","","","","{""Q0"":""5""}","[0]","5","",""
"","null","html-keyboard-response","114","575088","0.0-27.0-0.0","SS1619739704103","","","null","","","","","","<p><img src= images/blank.png width =""600"" height = ""600"" style=""position:fixed;top:50%; left:50%; transform: translate(-50%, -50%); border:5px solid black"">","","","","","","","",""
"","1988.6500000138767","sequential-stimulus-presentation-old","115","577587","0.0-27.0-1.0","SS1619739704103","trial","","40","500","2488.6500000138767","images/stimuli/spore_stims/simple_04_A_b.gif","images/stimuli/spore_stims/simple_17_A_a.gif","forced_short","","9","simple_dissimilar","images/stimuli/spore_stims/simple_17_A_a.gif","","","","",""
"","null","html-keyboard-response","116","578626","0.0-27.0-0.1","SS1619739704103","","","null","","","","","","<p><img src= images/blank.png width =""600"" height = ""600"" style=""position:fixed;top:50%; left:50%; transform: translate(-50%, -50%); border:5px solid black"">","","","","","","","",""
"","1895.9850000101142","sequential-stimulus-presentation-old","117","581025","0.0-27.0-1.1","SS1619739704103","trial","","40","500","2395.985000010114","images/stimuli/spore_stims/simple_04_A_b.gif","images/stimuli/spore_stims/simple_17_A_a.gif","forced_short","","9","simple_dissimilar","images/stimuli/spore_stims/simple_17_A_a.gif","","","","",""
"","null","html-keyboard-response","118","582150","0.0-27.0-0.2","SS1619739704103","","","null","","","","","","<p><img src= images/blank.png width =""600"" height = ""600"" style=""position:fixed;top:50%; left:50%; transform: translate(-50%, -50%); border:5px solid black"">","","","","","","","",""
"","1679.2799999821","sequential-stimulus-presentation-old","119","584342","0.0-27.0-1.2","SS1619739704103","trial","","40","500","2179.2799999821","images/stimuli/spore_stims/simple_04_A_b.gif","images/stimuli/spore_stims/simple_17_A_a.gif","forced_short","","9","simple_dissimilar","images/stimuli/spore_stims/simple_17_A_a.gif","","","","",""
"","null","html-keyboard-response","120","585458","0.0-27.0-0.3","SS1619739704103","","","null","","","","","","<p><img src= images/blank.png width =""600"" height = ""600"" style=""position:fixed;top:50%; left:50%; transform: translate(-50%, -50%); border:5px solid black"">","","","","","","","",""
"","2042.520000017248","sequential-stimulus-presentation-old","121","588004","0.0-27.0-1.3","SS1619739704103","trial","","40","500","2542.520000017248","images/stimuli/spore_stims/simple_04_A_b.gif","images/stimuli/spore_stims/simple_17_A_a.gif","forced_short","","9","simple_dissimilar","images/stimuli/spore_stims/simple_17_A_a.gif","","","","",""
"","null","html-keyboard-response","122","589048","0.0-27.0-0.4","SS1619739704103","","","null","","","","","","<p><img src= images/blank.png width =""600"" height = ""600"" style=""position:fixed;top:50%; left:50%; transform: translate(-50%, -50%); border:5px solid black"">","","","","","","","",""
"","3114.5050000050105","sequential-stimulus-presentation-old","123","592667","0.0-27.0-1.4","SS1619739704103","trial","","40","500","3614.5050000050105","images/stimuli/spore_stims/simple_04_A_b.gif","images/stimuli/spore_stims/simple_17_A_a.gif","forced_short","","9","simple_dissimilar","images/stimuli/spore_stims/simple_04_A_b.gif","","","","",""
"","3289.2749999882653","survey-multi-choice","124","595959","0.0-28.0","SS1619739704103","math_question","","","","","","","","","","","","{""Q0"":""13""}","[0]","13","",""
"","null","html-keyboard-response","125","596879","0.0-29.0-0.0","SS1619739704103","","","null","","","","","","<p><img src= images/blank.png width =""600"" height = ""600"" style=""position:fixed;top:50%; left:50%; transform: translate(-50%, -50%); border:5px solid black"">","","","","","","","",""
"","567.0200000167824","sequential-stimulus-presentation-old","126","612449","0.0-29.0-1.0","SS1619739704103","trial","","40","500","1067.0200000167824","images/stimuli/spore_stims/complex_14_A_a.gif","images/stimuli/spore_stims/complex_20_A_b.gif","forced_long","","10","complex_dissimilar","images/stimuli/spore_stims/complex_20_A_b.gif","","","","",""
"","null","html-keyboard-response","127","613638","0.0-29.0-0.1","SS1619739704103","","","null","","","","","","<p><img src= images/blank.png width =""600"" height = ""600"" style=""position:fixed;top:50%; left:50%; transform: translate(-50%, -50%); border:5px solid black"">","","","","","","","",""
"","1492.0449999917764","sequential-stimulus-presentation-old","128","615633","0.0-29.0-1.1","SS1619739704103","trial","","40","500","1992.0449999917764","images/stimuli/spore_stims/complex_14_A_a.gif","images/stimuli/spore_stims/complex_20_A_b.gif","forced_long","","10","complex_dissimilar","images/stimuli/spore_stims/complex_20_A_b.gif","","","","",""
"","null","html-keyboard-response","129","616518","0.0-29.0-0.2","SS1619739704103","","","null","","","","","","<p><img src= images/blank.png width =""600"" height = ""600"" style=""position:fixed;top:50%; left:50%; transform: translate(-50%, -50%); border:5px solid black"">","","","","","","","",""
"","1281.2850000045728","sequential-stimulus-presentation-old","130","618302","0.0-29.0-1.2","SS1619739704103","trial","","40","500","1781.2850000045728","images/stimuli/spore_stims/complex_14_A_a.gif","images/stimuli/spore_stims/complex_20_A_b.gif","forced_long","","10","complex_dissimilar","images/stimuli/spore_stims/complex_20_A_b.gif","","","","",""
"","null","html-keyboard-response","131","619553","0.0-29.0-0.3","SS1619739704103","","","null","","","","","","<p><img src= images/blank.png width =""600"" height = ""600"" style=""position:fixed;top:50%; left:50%; transform: translate(-50%, -50%); border:5px solid black"">","","","","","","","",""
"","861.5550000104122","sequential-stimulus-presentation-old","132","620924","0.0-29.0-1.3","SS1619739704103","trial","","40","500","1361.5550000104122","images/stimuli/spore_stims/complex_14_A_a.gif","images/stimuli/spore_stims/complex_20_A_b.gif","forced_long","","10","complex_dissimilar","images/stimuli/spore_stims/complex_20_A_b.gif","","","","",""
"","null","html-keyboard-response","133","621859","0.0-29.0-0.4","SS1619739704103","","","null","","","","","","<p><img src= images/blank.png width =""600"" height = ""600"" style=""position:fixed;top:50%; left:50%; transform: translate(-50%, -50%); border:5px solid black"">","","","","","","","",""
"","1512.0149999856949","sequential-stimulus-presentation-old","134","623880","0.0-29.0-1.4","SS1619739704103","trial","","40","500","2012.0149999856949","images/stimuli/spore_stims/complex_14_A_a.gif","images/stimuli/spore_stims/complex_20_A_b.gif","forced_long","","10","complex_dissimilar","images/stimuli/spore_stims/complex_20_A_b.gif","","","","",""
"","3619.9149999883957","survey-multi-choice","135","627503","0.0-30.0","SS1619739704103","math_question","","","","","","","","","","","","{""Q0"":""12""}","[0]","12","",""
"","null","html-keyboard-response","136","628591","0.0-31.0-0.0","SS1619739704103","","","null","","","","","","<p><img src= images/blank.png width =""600"" height = ""600"" style=""position:fixed;top:50%; left:50%; transform: translate(-50%, -50%); border:5px solid black"">","","","","","","","",""
"","2495.965000009164","sequential-stimulus-presentation-old","137","631592","0.0-31.0-1.0","SS1619739704103","trial","","40","500","2995.965000009164","images/stimuli/spore_stims/simple_03_A_b.gif","images/stimuli/spore_stims/simple_09_A_a.gif","self_paced","","11","simple_dissimilar","images/stimuli/spore_stims/simple_09_A_a.gif","","","","",""
"","null","html-keyboard-response","138","632713","0.0-31.0-0.1","SS1619739704103","","","null","","","","","","<p><img src= images/blank.png width =""600"" height = ""600"" style=""position:fixed;top:50%; left:50%; transform: translate(-50%, -50%); border:5px solid black"">","","","","","","","",""
"","570.160000002943","sequential-stimulus-presentation-old","139","633793","0.0-31.0-1.1","SS1619739704103","trial","","40","500","1070.160000002943","images/stimuli/spore_stims/simple_03_A_b.gif","images/stimuli/spore_stims/simple_09_A_a.gif","self_paced","","11","simple_dissimilar","images/stimuli/spore_stims/simple_09_A_a.gif","","","","",""
"","null","html-keyboard-response","140","634901","0.0-31.0-0.2","SS1619739704103","","","null","","","","","","<p><img src= images/blank.png width =""600"" height = ""600"" style=""position:fixed;top:50%; left:50%; transform: translate(-50%, -50%); border:5px solid black"">","","","","","","","",""
"","865.6600000103936","sequential-stimulus-presentation-old","141","636270","0.0-31.0-1.2","SS1619739704103","trial","","40","500","1365.6600000103936","images/stimuli/spore_stims/simple_03_A_b.gif","images/stimuli/spore_stims/simple_09_A_a.gif","self_paced","","11","simple_dissimilar","images/stimuli/spore_stims/simple_03_A_b.gif","","","","",""
"","null","html-keyboard-response","142","637166","0.0-31.0-0.3","SS1619739704103","","","null","","","","","","<p><img src= images/blank.png width =""600"" height = ""600"" style=""position:fixed;top:50%; left:50%; transform: translate(-50%, -50%); border:5px solid black"">","","","","","","","",""
"","856.4250000054017","sequential-stimulus-presentation-old","143","638527","0.0-31.0-1.3","SS1619739704103","trial","","40","500","1356.4250000054017","images/stimuli/spore_stims/simple_03_A_b.gif","images/stimuli/spore_stims/simple_09_A_a.gif","self_paced","","11","simple_dissimilar","images/stimuli/spore_stims/simple_09_A_a.gif","","","","",""
"","null","html-keyboard-response","144","639427","0.0-31.0-0.4","SS1619739704103","","","null","","","","","","<p><img src= images/blank.png width =""600"" height = ""600"" style=""position:fixed;top:50%; left:50%; transform: translate(-50%, -50%); border:5px solid black"">","","","","","","","",""
"","649.0500000072643","sequential-stimulus-presentation-old","145","640581","0.0-31.0-1.4","SS1619739704103","trial","","40","500","1149.0500000072643","images/stimuli/spore_stims/simple_03_A_b.gif","images/stimuli/spore_stims/simple_09_A_a.gif","self_paced","","11","simple_dissimilar","images/stimuli/spore_stims/simple_09_A_a.gif","","","","",""
"","null","html-keyboard-response","146","641662","0.0-31.0-0.5","SS1619739704103","","","null","","","","","","<p><img src= images/blank.png width =""600"" height = ""600"" style=""position:fixed;top:50%; left:50%; transform: translate(-50%, -50%); border:5px solid black"">","","","","","","","",""
"","5655.755000014324","sequential-stimulus-presentation-old","147","647823","0.0-31.0-1.5","SS1619739704103","trial","","40","500","6155.755000014324","images/stimuli/spore_stims/simple_03_A_b.gif","images/stimuli/spore_stims/simple_09_A_a.gif","self_paced","","11","simple_dissimilar","images/stimuli/spore_stims/simple_03_A_b.gif","","","","",""
"[{""page_index"":0,""viewing_time"":8332.224999991013}]","8332.525000005262","instructions","148","656158","0.0-32.0","SS1619739704103","instructions","","","","","","","","","","","","","","","",""
"","6964.934999996331","survey-likert","149","663127","0.0-33.0","SS1619739704103","similarity_question","","","","","","","","","","","","{""Q0"":3}","[0]","","images/stimuli/spore_stims/simple_08_A_b.gif","images/stimuli/spore_stims/simple_12_A_a.gif"
"","9595.88999999687","survey-likert","150","672727","0.0-34.0","SS1619739704103","similarity_question","","","","","","","","","","","","{""Q0"":0}","[0]","","images/stimuli/spore_stims/complex_06_A_a.gif","images/stimuli/spore_stims/complex_12_A_b.gif"
"","4564.715000014985","survey-likert","151","677295","0.0-35.0","SS1619739704103","similarity_question","","","","","","","","","","","","{""Q0"":1}","[0]","","images/stimuli/spore_stims/complex_17_A_a.gif","images/stimuli/spore_stims/complex_04_A_b.gif"
"","3593.4350000170525","survey-likert","152","680894","0.0-36.0","SS1619739704103","similarity_question","","","","","","","","","","","","{""Q0"":0}","[0]","","images/stimuli/spore_stims/simple_09_A_b.gif","images/stimuli/spore_stims/simple_18_A_a.gif"
"","7954.370000021299","survey-likert","153","688855","0.0-37.0","SS1619739704103","similarity_question","","","","","","","","","","","","{""Q0"":3}","[0]","","images/stimuli/spore_stims/complex_10_A_a.gif","images/stimuli/spore_stims/complex_17_A_b.gif"
"","4988.864999992074","survey-likert","154","693847","0.0-38.0","SS1619739704103","similarity_question","","","","","","","","","","","","{""Q0"":2}","[0]","","images/stimuli/spore_stims/complex_01_A_a.gif","images/stimuli/spore_stims/complex_18_A_b.gif"
"","2699.2199999804143","survey-likert","155","696550","0.0-39.0","SS1619739704103","similarity_question","","","","","","","","","","","","{""Q0"":0}","[0]","","images/stimuli/spore_stims/complex_14_A_b.gif","images/stimuli/spore_stims/complex_02_A_a.gif"
"","3052.6300000201445","survey-likert","156","699607","0.0-40.0","SS1619739704103","similarity_question","","","","","","","","","","","","{""Q0"":4}","[0]","","images/stimuli/spore_stims/simple_17_A_a.gif","images/stimuli/spore_stims/simple_04_A_b.gif"
"","2844.1600000078324","survey-likert","157","702454","0.0-41.0","SS1619739704103","similarity_question","","","","","","","","","","","","{""Q0"":5}","[0]","","images/stimuli/spore_stims/simple_11_A_a.gif","images/stimuli/spore_stims/simple_10_A_b.gif"
"","2595.805000019027","survey-likert","158","705054","0.0-42.0","SS1619739704103","similarity_question","","","","","","","","","","","","{""Q0"":6}","[0]","","images/stimuli/spore_stims/simple_12_A_b.gif","images/stimuli/spore_stims/simple_03_A_a.gif"
"","7396.065000008093","survey-likert","159","712454","0.0-43.0","SS1619739704103","similarity_question","","","","","","","","","","","","{""Q0"":4}","[0]","","images/stimuli/spore_stims/complex_20_A_b.gif","images/stimuli/spore_stims/complex_14_A_a.gif"
"","3140.549999981886","survey-likert","160","715598","0.0-44.0","SS1619739704103","similarity_question","","","","","","","","","","","","{""Q0"":4}","[0]","","images/stimuli/spore_stims/simple_09_A_a.gif","images/stimuli/spore_stims/simple_03_A_b.gif"
"[{""page_index"":0,""viewing_time"":7348.75999999349}]","7348.989999998594","instructions","161","722950","0.0-45.0","SS1619739704103","instructions","","","","","","","","","","","","","","","",""
"","9690.810000000056","survey-likert","162","732647","0.0-46.0","SS1619739704103","","","","","","","","","images/stimuli/spore_stims/complex_06_A_a.gif","","","","{""Q0"":4}","[0]","","",""
"","2972.6649999793153","survey-likert","163","735623","0.0-47.0","SS1619739704103","","","","","","","","","images/stimuli/spore_stims/simple_03_A_b.gif","","","","{""Q0"":1}","[0]","","",""
"","2403.13999998034","survey-likert","164","738031","0.0-48.0","SS1619739704103","","","","","","","","","images/stimuli/spore_stims/simple_12_A_b.gif","","","","{""Q0"":1}","[0]","","",""
"","3611.830000008922","survey-likert","165","741648","0.0-49.0","SS1619739704103","","","","","","","","","images/stimuli/spore_stims/complex_17_A_a.gif","","","","{""Q0"":3}","[0]","","",""
"","5483.919999998761","survey-likert","166","747135","0.0-50.0","SS1619739704103","","","","","","","","","images/stimuli/spore_stims/complex_20_A_b.gif","","","","{""Q0"":4}","[0]","","",""
"","5091.515000007348","survey-likert","167","752231","0.0-51.0","SS1619739704103","","","","","","","","","images/stimuli/spore_stims/complex_01_A_a.gif","","","","{""Q0"":2}","[0]","","",""
"","2932.825000025332","survey-likert","168","755168","0.0-52.0","SS1619739704103","","","","","","","","","images/stimuli/spore_stims/simple_09_A_b.gif","","","","{""Q0"":0}","[0]","","",""
"","2843.569999997271","survey-likert","169","758015","0.0-53.0","SS1619739704103","","","","","","","","","images/stimuli/spore_stims/complex_17_A_b.gif","","","","{""Q0"":3}","[0]","","",""
"","2516.0650000034366","survey-likert","170","760535","0.0-54.0","SS1619739704103","","","","","","","","","images/stimuli/spore_stims/simple_08_A_b.gif","","","","{""Q0"":0}","[0]","","",""
"","1828.3550000051036","survey-likert","171","762367","0.0-55.0","SS1619739704103","","","","","","","","","images/stimuli/spore_stims/simple_10_A_b.gif","","","","{""Q0"":0}","[0]","","",""
"","3411.3350000116043","survey-likert","172","765783","0.0-56.0","SS1619739704103","","","","","","","","","images/stimuli/spore_stims/complex_02_A_a.gif","","","","{""Q0"":4}","[0]","","",""
"","3098.9400000253227","survey-likert","173","768887","0.0-57.0","SS1619739704103","","","","","","","","","images/stimuli/spore_stims/simple_17_A_a.gif","","","","{""Q0"":1}","[0]","","",""
"[{""page_index"":0,""viewing_time"":4620.005000004312}]","4620.289999991655","instructions","174","773511","0.0-58.0","SS1619739704103","instructions","","","","","","","","","","","","","","","",""
"","2699.23500000732","demog-age","175","776215","0.0-59.0","SS1619739704103","","","","","","","","","","","","","{""age"":""22""}","","","",""
"","6443.055000010645","demog-ethnic-US","176","782664","0.0-60.0","SS1619739704103","","","","","","","","","","","","","{""ethnicity"":[""Hispanic or Latino""]}","[0]","","",""
"","23379.329999996116","demog-gender-and-education","177","806048","0.0-61.0","SS1619739704103","","","","","","","","","","","","","{""gender"":""Male"",""education"":""High school diploma""}","[0,1]","","",""
"","24825.83500002511","survey-text","178","830879","0.0-62.0","SS1619739704103","feedback","","","","","","","","","","","","{""Q0"":""Didnt have any issue or lag:)""}","","","",""
"[{""page_index"":0,""viewing_time"":5476.419999991776}]","5476.689999981318","instructions","179","836359","0.0-63.0","SS1619739704103","instructions","","","","","","","","","","","","","","","",""
