"view_history","rt","trial_type","trial_index","time_elapsed","internal_node_id","subject","stimulus_type","trial_stimulus","key_press","minimum_viewing_duration","trial_looking_time","block_deviant","block_background","exposure_type","stimulus","block_number","block_type","stimulus_displayed","responses","question_order","math_correct_answer","stimulus_left","stimulus_right"
"[{""page_index"":0,""viewing_time"":16813.52500000503}]","16814.479999942705","instructions","0","16816","0.0-0.0","SS1619739914991","","","","","","","","","","","","","","","","",""
"[{""page_index"":0,""viewing_time"":8060.070000006817},{""page_index"":1,""viewing_time"":3991.5000000037253}]","12051.879999926314","instructions","1","30885","0.0-1.0","SS1619739914991","instructions","","","","","","","","","","","","","","","",""
"","5298.4850000357255","sequential-stimulus-presentation-old","2","36687","0.0-2.0","SS1619739914991","","","40","500","5798.4850000357255","null","null","self_paced","","","","","","","","",""
"","4151.004999992438","sequential-stimulus-presentation-old","3","41342","0.0-3.0","SS1619739914991","","","40","500","4651.004999992438","null","null","self_paced","","","","","","","","",""
"[{""page_index"":0,""viewing_time"":16663.590000011027}]","16663.919999962673","instructions","4","58008","0.0-4.0","SS1619739914991","instructions","","","","","","","","","","","","","","","",""
"","8451.914999983273","sequential-stimulus-presentation-old","5","81462","0.0-5.0","SS1619739914991","","","40","500","8951.914999983273","null","null","forced_long","","","","","","","","",""
"","4951.815000036731","sequential-stimulus-presentation-old","6","86917","0.0-6.0","SS1619739914991","","","40","500","5451.815000036731","null","null","forced_long","","","","","","","","",""
"[{""page_index"":0,""viewing_time"":3266.71500003431}]","3267.0100000686944","instructions","7","90185","0.0-7.0","SS1619739914991","instructions","","","","","","","","","","","","","","","",""
"[{""page_index"":0,""viewing_time"":6691.415000008419},{""page_index"":1,""viewing_time"":4917.010000091977},{""page_index"":2,""viewing_time"":4319.224999984726},{""page_index"":3,""viewing_time"":1783.4749999456108},{""page_index"":4,""viewing_time"":1241.0050000762567}]","18952.44000002276","instructions","8","109139","0.0-8.0","SS1619739914991","instructions","","","","","","","","","","","","","","","",""
"","null","html-keyboard-response","9","110044","0.0-9.0-0.0","SS1619739914991","","","null","","","","","","<p><img src= images/blank.png width =""600"" height = ""600"" style=""position:fixed;top:50%; left:50%; transform: translate(-50%, -50%); border:5px solid black"">","","","","","","","",""
"","1064.7899999748915","sequential-stimulus-presentation-old","10","111612","0.0-9.0-1.0","SS1619739914991","trial","","40","500","1564.7899999748915","images/stimuli/spore_stims/complex_20_A_a.gif","images/stimuli/spore_stims/complex_18_A_b.gif","forced_short","","0","complex_dissimilar","images/stimuli/spore_stims/complex_18_A_b.gif","","","","",""
"","null","html-keyboard-response","11","112809","0.0-9.0-0.1","SS1619739914991","","","null","","","","","","<p><img src= images/blank.png width =""600"" height = ""600"" style=""position:fixed;top:50%; left:50%; transform: translate(-50%, -50%); border:5px solid black"">","","","","","","","",""
"","13564.725000062026","sequential-stimulus-presentation-old","12","126884","0.0-9.0-1.1","SS1619739914991","trial","","40","500","14064.725000062026","images/stimuli/spore_stims/complex_20_A_a.gif","images/stimuli/spore_stims/complex_18_A_b.gif","forced_short","","0","complex_dissimilar","images/stimuli/spore_stims/complex_20_A_a.gif","","","","",""
"","null","html-keyboard-response","13","128187","0.0-9.0-0.2","SS1619739914991","","","null","","","","","","<p><img src= images/blank.png width =""600"" height = ""600"" style=""position:fixed;top:50%; left:50%; transform: translate(-50%, -50%); border:5px solid black"">","","","","","","","",""
"","16820.41499996558","sequential-stimulus-presentation-old","14","145511","0.0-9.0-1.2","SS1619739914991","trial","","40","500","17320.41499996558","images/stimuli/spore_stims/complex_20_A_a.gif","images/stimuli/spore_stims/complex_18_A_b.gif","forced_short","","0","complex_dissimilar","images/stimuli/spore_stims/complex_20_A_a.gif","","","","",""
"","null","html-keyboard-response","15","146719","0.0-9.0-0.3","SS1619739914991","","","null","","","","","","<p><img src= images/blank.png width =""600"" height = ""600"" style=""position:fixed;top:50%; left:50%; transform: translate(-50%, -50%); border:5px solid black"">","","","","","","","",""
"","20735.544999944977","sequential-stimulus-presentation-old","16","167958","0.0-9.0-1.3","SS1619739914991","trial","","40","500","21235.544999944977","images/stimuli/spore_stims/complex_20_A_a.gif","images/stimuli/spore_stims/complex_18_A_b.gif","forced_short","","0","complex_dissimilar","images/stimuli/spore_stims/complex_18_A_b.gif","","","","",""
"","null","html-keyboard-response","17","168884","0.0-9.0-0.4","SS1619739914991","","","null","","","","","","<p><img src= images/blank.png width =""600"" height = ""600"" style=""position:fixed;top:50%; left:50%; transform: translate(-50%, -50%); border:5px solid black"">","","","","","","","",""
"","13149.72999994643","sequential-stimulus-presentation-old","18","182541","0.0-9.0-1.4","SS1619739914991","trial","","40","500","13649.72999994643","images/stimuli/spore_stims/complex_20_A_a.gif","images/stimuli/spore_stims/complex_18_A_b.gif","forced_short","","0","complex_dissimilar","images/stimuli/spore_stims/complex_18_A_b.gif","","","","",""
"","null","html-keyboard-response","19","183826","0.0-9.0-0.5","SS1619739914991","","","null","","","","","","<p><img src= images/blank.png width =""600"" height = ""600"" style=""position:fixed;top:50%; left:50%; transform: translate(-50%, -50%); border:5px solid black"">","","","","","","","",""
"","23231.295000063255","sequential-stimulus-presentation-old","20","207560","0.0-9.0-1.5","SS1619739914991","trial","","40","500","23731.295000063255","images/stimuli/spore_stims/complex_20_A_a.gif","images/stimuli/spore_stims/complex_18_A_b.gif","forced_short","","0","complex_dissimilar","images/stimuli/spore_stims/complex_18_A_b.gif","","","","",""
"","4647.085000062361","survey-multi-choice","21","212265","0.0-10.0","SS1619739914991","math_question","","","","","","","","","","","","{""Q0"":""8""}","[0]","8","",""
"","null","html-keyboard-response","22","213549","0.0-11.0-0.0","SS1619739914991","","","null","","","","","","<p><img src= images/blank.png width =""600"" height = ""600"" style=""position:fixed;top:50%; left:50%; transform: translate(-50%, -50%); border:5px solid black"">","","","","","","","",""
"","1758.254999993369","sequential-stimulus-presentation-old","23","230311","0.0-11.0-1.0","SS1619739914991","trial","","40","500","2258.254999993369","images/stimuli/spore_stims/simple_13_A_b.gif","images/stimuli/spore_stims/simple_04_A_a.gif","forced_long","","1","simple_dissimilar","images/stimuli/spore_stims/simple_04_A_a.gif","","","","",""
"","null","html-keyboard-response","24","231581","0.0-11.0-0.1","SS1619739914991","","","null","","","","","","<p><img src= images/blank.png width =""600"" height = ""600"" style=""position:fixed;top:50%; left:50%; transform: translate(-50%, -50%); border:5px solid black"">","","","","","","","",""
"","34895.219999947585","sequential-stimulus-presentation-old","25","266979","0.0-11.0-1.1","SS1619739914991","trial","","40","500","35395.219999947585","images/stimuli/spore_stims/simple_13_A_b.gif","images/stimuli/spore_stims/simple_04_A_a.gif","forced_long","","1","simple_dissimilar","images/stimuli/spore_stims/simple_04_A_a.gif","","","","",""
"","null","html-keyboard-response","26","268086","0.0-11.0-0.2","SS1619739914991","","","null","","","","","","<p><img src= images/blank.png width =""600"" height = ""600"" style=""position:fixed;top:50%; left:50%; transform: translate(-50%, -50%); border:5px solid black"">","","","","","","","",""
"","52941.13000005018","sequential-stimulus-presentation-old","27","321531","0.0-11.0-1.2","SS1619739914991","trial","","40","500","53441.13000005018","images/stimuli/spore_stims/simple_13_A_b.gif","images/stimuli/spore_stims/simple_04_A_a.gif","forced_long","","1","simple_dissimilar","images/stimuli/spore_stims/simple_04_A_a.gif","","","","",""
"","null","html-keyboard-response","28","322476","0.0-11.0-0.3","SS1619739914991","","","null","","","","","","<p><img src= images/blank.png width =""600"" height = ""600"" style=""position:fixed;top:50%; left:50%; transform: translate(-50%, -50%); border:5px solid black"">","","","","","","","",""
"","23520.194999990053","sequential-stimulus-presentation-old","29","346500","0.0-11.0-1.3","SS1619739914991","trial","","40","500","24020.194999990053","images/stimuli/spore_stims/simple_13_A_b.gif","images/stimuli/spore_stims/simple_04_A_a.gif","forced_long","","1","simple_dissimilar","images/stimuli/spore_stims/simple_04_A_a.gif","","","","",""
"","6645.224999985658","survey-multi-choice","30","353148","0.0-12.0","SS1619739914991","math_question","","","","","","","","","","","","{""Q0"":""14""}","[0]","14","",""
"","null","html-keyboard-response","31","354031","0.0-13.0-0.0","SS1619739914991","","","null","","","","","","<p><img src= images/blank.png width =""600"" height = ""600"" style=""position:fixed;top:50%; left:50%; transform: translate(-50%, -50%); border:5px solid black"">","","","","","","","",""
"","7069.435000070371","sequential-stimulus-presentation-old","32","361607","0.0-13.0-1.0","SS1619739914991","trial","","40","500","7569.435000070371","images/stimuli/spore_stims/complex_20_A_b.gif","images/stimuli/spore_stims/complex_06_A_a.gif","self_paced","","2","complex_dissimilar","images/stimuli/spore_stims/complex_06_A_a.gif","","","","",""
"","null","html-keyboard-response","33","362692","0.0-13.0-0.1","SS1619739914991","","","null","","","","","","<p><img src= images/blank.png width =""600"" height = ""600"" style=""position:fixed;top:50%; left:50%; transform: translate(-50%, -50%); border:5px solid black"">","","","","","","","",""
"","3237.6899999799207","sequential-stimulus-presentation-old","34","366438","0.0-13.0-1.1","SS1619739914991","trial","","40","500","3737.6899999799207","images/stimuli/spore_stims/complex_20_A_b.gif","images/stimuli/spore_stims/complex_06_A_a.gif","self_paced","","2","complex_dissimilar","images/stimuli/spore_stims/complex_06_A_a.gif","","","","",""
"","null","html-keyboard-response","35","367525","0.0-13.0-0.2","SS1619739914991","","","null","","","","","","<p><img src= images/blank.png width =""600"" height = ""600"" style=""position:fixed;top:50%; left:50%; transform: translate(-50%, -50%); border:5px solid black"">","","","","","","","",""
"","7479.564999928698","sequential-stimulus-presentation-old","36","375509","0.0-13.0-1.2","SS1619739914991","trial","","40","500","7979.564999928698","images/stimuli/spore_stims/complex_20_A_b.gif","images/stimuli/spore_stims/complex_06_A_a.gif","self_paced","","2","complex_dissimilar","images/stimuli/spore_stims/complex_06_A_a.gif","","","","",""
"","null","html-keyboard-response","37","376359","0.0-13.0-0.3","SS1619739914991","","","null","","","","","","<p><img src= images/blank.png width =""600"" height = ""600"" style=""position:fixed;top:50%; left:50%; transform: translate(-50%, -50%); border:5px solid black"">","","","","","","","",""
"","9387.58500001859","sequential-stimulus-presentation-old","38","386250","0.0-13.0-1.3","SS1619739914991","trial","","40","500","9887.58500001859","images/stimuli/spore_stims/complex_20_A_b.gif","images/stimuli/spore_stims/complex_06_A_a.gif","self_paced","","2","complex_dissimilar","images/stimuli/spore_stims/complex_06_A_a.gif","","","","",""
"","null","html-keyboard-response","39","387521","0.0-13.0-0.4","SS1619739914991","","","null","","","","","","<p><img src= images/blank.png width =""600"" height = ""600"" style=""position:fixed;top:50%; left:50%; transform: translate(-50%, -50%); border:5px solid black"">","","","","","","","",""
"","13312.855000025593","sequential-stimulus-presentation-old","40","401338","0.0-13.0-1.4","SS1619739914991","trial","","40","500","13812.855000025593","images/stimuli/spore_stims/complex_20_A_b.gif","images/stimuli/spore_stims/complex_06_A_a.gif","self_paced","","2","complex_dissimilar","images/stimuli/spore_stims/complex_06_A_a.gif","","","","",""
"","null","html-keyboard-response","41","402559","0.0-13.0-0.5","SS1619739914991","","","null","","","","","","<p><img src= images/blank.png width =""600"" height = ""600"" style=""position:fixed;top:50%; left:50%; transform: translate(-50%, -50%); border:5px solid black"">","","","","","","","",""
"","9172.290000016801","sequential-stimulus-presentation-old","42","412235","0.0-13.0-1.5","SS1619739914991","trial","","40","500","9672.290000016801","images/stimuli/spore_stims/complex_20_A_b.gif","images/stimuli/spore_stims/complex_06_A_a.gif","self_paced","","2","complex_dissimilar","images/stimuli/spore_stims/complex_06_A_a.gif","","","","",""
"","5325.940000009723","survey-multi-choice","43","417563","0.0-14.0","SS1619739914991","math_question","","","","","","","","","","","","{""Q0"":""11""}","[0]","11","",""
"","null","html-keyboard-response","44","418814","0.0-15.0-0.0","SS1619739914991","","","null","","","","","","<p><img src= images/blank.png width =""600"" height = ""600"" style=""position:fixed;top:50%; left:50%; transform: translate(-50%, -50%); border:5px solid black"">","","","","","","","",""
"","4451.669999980368","sequential-stimulus-presentation-old","45","423777","0.0-15.0-1.0","SS1619739914991","trial","","40","500","4951.669999980368","images/stimuli/spore_stims/complex_11_A_b.gif","images/stimuli/spore_stims/complex_18_A_a.gif","self_paced","","3","complex_dissimilar","images/stimuli/spore_stims/complex_18_A_a.gif","","","","",""
"","null","html-keyboard-response","46","425019","0.0-15.0-0.1","SS1619739914991","","","null","","","","","","<p><img src= images/blank.png width =""600"" height = ""600"" style=""position:fixed;top:50%; left:50%; transform: translate(-50%, -50%); border:5px solid black"">","","","","","","","",""
"","9846.904999925755","sequential-stimulus-presentation-old","47","435369","0.0-15.0-1.1","SS1619739914991","trial","","40","500","10346.904999925755","images/stimuli/spore_stims/complex_11_A_b.gif","images/stimuli/spore_stims/complex_18_A_a.gif","self_paced","","3","complex_dissimilar","images/stimuli/spore_stims/complex_18_A_a.gif","","","","",""
"","null","html-keyboard-response","48","436659","0.0-15.0-0.2","SS1619739914991","","","null","","","","","","<p><img src= images/blank.png width =""600"" height = ""600"" style=""position:fixed;top:50%; left:50%; transform: translate(-50%, -50%); border:5px solid black"">","","","","","","","",""
"","10409.084999933839","sequential-stimulus-presentation-old","49","447581","0.0-15.0-1.2","SS1619739914991","trial","","40","500","10909.084999933839","images/stimuli/spore_stims/complex_11_A_b.gif","images/stimuli/spore_stims/complex_18_A_a.gif","self_paced","","3","complex_dissimilar","images/stimuli/spore_stims/complex_18_A_a.gif","","","","",""
"","null","html-keyboard-response","50","448642","0.0-15.0-0.3","SS1619739914991","","","null","","","","","","<p><img src= images/blank.png width =""600"" height = ""600"" style=""position:fixed;top:50%; left:50%; transform: translate(-50%, -50%); border:5px solid black"">","","","","","","","",""
"","1387.555000022985","sequential-stimulus-presentation-old","51","450533","0.0-15.0-1.3","SS1619739914991","trial","","40","500","1887.555000022985","images/stimuli/spore_stims/complex_11_A_b.gif","images/stimuli/spore_stims/complex_18_A_a.gif","self_paced","","3","complex_dissimilar","images/stimuli/spore_stims/complex_18_A_a.gif","","","","",""
"","5257.85499997437","survey-multi-choice","52","455793","0.0-16.0","SS1619739914991","math_question","","","","","","","","","","","","{""Q0"":""9""}","[0]","9","",""
"","null","html-keyboard-response","53","456954","0.0-17.0-0.0","SS1619739914991","","","null","","","","","","<p><img src= images/blank.png width =""600"" height = ""600"" style=""position:fixed;top:50%; left:50%; transform: translate(-50%, -50%); border:5px solid black"">","","","","","","","",""
"","3530.239999992773","sequential-stimulus-presentation-old","54","460998","0.0-17.0-1.0","SS1619739914991","trial","","40","500","4030.239999992773","images/stimuli/spore_stims/simple_17_A_b.gif","images/stimuli/spore_stims/simple_16_A_a.gif","self_paced","","4","simple_dissimilar","images/stimuli/spore_stims/simple_16_A_a.gif","","","","",""
"","null","html-keyboard-response","55","461884","0.0-17.0-0.1","SS1619739914991","","","null","","","","","","<p><img src= images/blank.png width =""600"" height = ""600"" style=""position:fixed;top:50%; left:50%; transform: translate(-50%, -50%); border:5px solid black"">","","","","","","","",""
"","4119.3249999778345","sequential-stimulus-presentation-old","56","466519","0.0-17.0-1.1","SS1619739914991","trial","","40","500","4619.3249999778345","images/stimuli/spore_stims/simple_17_A_b.gif","images/stimuli/spore_stims/simple_16_A_a.gif","self_paced","","4","simple_dissimilar","images/stimuli/spore_stims/simple_16_A_a.gif","","","","",""
"","null","html-keyboard-response","57","467776","0.0-17.0-0.2","SS1619739914991","","","null","","","","","","<p><img src= images/blank.png width =""600"" height = ""600"" style=""position:fixed;top:50%; left:50%; transform: translate(-50%, -50%); border:5px solid black"">","","","","","","","",""
"","6519.545000046492","sequential-stimulus-presentation-old","58","474799","0.0-17.0-1.2","SS1619739914991","trial","","40","500","7019.545000046492","images/stimuli/spore_stims/simple_17_A_b.gif","images/stimuli/spore_stims/simple_16_A_a.gif","self_paced","","4","simple_dissimilar","images/stimuli/spore_stims/simple_16_A_a.gif","","","","",""
"","null","html-keyboard-response","59","475706","0.0-17.0-0.3","SS1619739914991","","","null","","","","","","<p><img src= images/blank.png width =""600"" height = ""600"" style=""position:fixed;top:50%; left:50%; transform: translate(-50%, -50%); border:5px solid black"">","","","","","","","",""
"","14060.745000024326","sequential-stimulus-presentation-old","60","490271","0.0-17.0-1.3","SS1619739914991","trial","","40","500","14560.745000024326","images/stimuli/spore_stims/simple_17_A_b.gif","images/stimuli/spore_stims/simple_16_A_a.gif","self_paced","","4","simple_dissimilar","images/stimuli/spore_stims/simple_16_A_a.gif","","","","",""
"","null","html-keyboard-response","61","491397","0.0-17.0-0.4","SS1619739914991","","","null","","","","","","<p><img src= images/blank.png width =""600"" height = ""600"" style=""position:fixed;top:50%; left:50%; transform: translate(-50%, -50%); border:5px solid black"">","","","","","","","",""
"","4972.195000038482","sequential-stimulus-presentation-old","62","496874","0.0-17.0-1.4","SS1619739914991","trial","","40","500","5472.195000038482","images/stimuli/spore_stims/simple_17_A_b.gif","images/stimuli/spore_stims/simple_16_A_a.gif","self_paced","","4","simple_dissimilar","images/stimuli/spore_stims/simple_16_A_a.gif","","","","",""
"","null","html-keyboard-response","63","498024","0.0-17.0-0.5","SS1619739914991","","","null","","","","","","<p><img src= images/blank.png width =""600"" height = ""600"" style=""position:fixed;top:50%; left:50%; transform: translate(-50%, -50%); border:5px solid black"">","","","","","","","",""
"","2394.3650000728667","sequential-stimulus-presentation-old","64","500923","0.0-17.0-1.5","SS1619739914991","trial","","40","500","2894.3650000728667","images/stimuli/spore_stims/simple_17_A_b.gif","images/stimuli/spore_stims/simple_16_A_a.gif","self_paced","","4","simple_dissimilar","images/stimuli/spore_stims/simple_16_A_a.gif","","","","",""
"","3974.8799999943003","survey-multi-choice","65","504901","0.0-18.0","SS1619739914991","math_question","","","","","","","","","","","","{""Q0"":""13""}","[0]","13","",""
"","null","html-keyboard-response","66","505864","0.0-19.0-0.0","SS1619739914991","","","null","","","","","","<p><img src= images/blank.png width =""600"" height = ""600"" style=""position:fixed;top:50%; left:50%; transform: translate(-50%, -50%); border:5px solid black"">","","","","","","","",""
"","539.9800000013784","sequential-stimulus-presentation-old","67","521408","0.0-19.0-1.0","SS1619739914991","trial","","40","500","1039.9800000013784","images/stimuli/spore_stims/complex_09_A_b.gif","images/stimuli/spore_stims/complex_19_A_a.gif","forced_long","","5","complex_dissimilar","images/stimuli/spore_stims/complex_19_A_a.gif","","","","",""
"","null","html-keyboard-response","68","522275","0.0-19.0-0.1","SS1619739914991","","","null","","","","","","<p><img src= images/blank.png width =""600"" height = ""600"" style=""position:fixed;top:50%; left:50%; transform: translate(-50%, -50%); border:5px solid black"">","","","","","","","",""
"","1417.2249999828637","sequential-stimulus-presentation-old","69","524201","0.0-19.0-1.1","SS1619739914991","trial","","40","500","1917.2249999828637","images/stimuli/spore_stims/complex_09_A_b.gif","images/stimuli/spore_stims/complex_19_A_a.gif","forced_long","","5","complex_dissimilar","images/stimuli/spore_stims/complex_19_A_a.gif","","","","",""
"","null","html-keyboard-response","70","525210","0.0-19.0-0.2","SS1619739914991","","","null","","","","","","<p><img src= images/blank.png width =""600"" height = ""600"" style=""position:fixed;top:50%; left:50%; transform: translate(-50%, -50%); border:5px solid black"">","","","","","","","",""
"","2766.8099999427795","sequential-stimulus-presentation-old","71","528484","0.0-19.0-1.2","SS1619739914991","trial","","40","500","3266.8099999427795","images/stimuli/spore_stims/complex_09_A_b.gif","images/stimuli/spore_stims/complex_19_A_a.gif","forced_long","","5","complex_dissimilar","images/stimuli/spore_stims/complex_09_A_b.gif","","","","",""
"","null","html-keyboard-response","72","529409","0.0-19.0-0.3","SS1619739914991","","","null","","","","","","<p><img src= images/blank.png width =""600"" height = ""600"" style=""position:fixed;top:50%; left:50%; transform: translate(-50%, -50%); border:5px solid black"">","","","","","","","",""
"","3055.669999914244","sequential-stimulus-presentation-old","73","532968","0.0-19.0-1.3","SS1619739914991","trial","","40","500","3555.669999914244","images/stimuli/spore_stims/complex_09_A_b.gif","images/stimuli/spore_stims/complex_19_A_a.gif","forced_long","","5","complex_dissimilar","images/stimuli/spore_stims/complex_19_A_a.gif","","","","",""
"","null","html-keyboard-response","74","533876","0.0-19.0-0.4","SS1619739914991","","","null","","","","","","<p><img src= images/blank.png width =""600"" height = ""600"" style=""position:fixed;top:50%; left:50%; transform: translate(-50%, -50%); border:5px solid black"">","","","","","","","",""
"","4299.800000037067","sequential-stimulus-presentation-old","75","538681","0.0-19.0-1.4","SS1619739914991","trial","","40","500","4799.800000037067","images/stimuli/spore_stims/complex_09_A_b.gif","images/stimuli/spore_stims/complex_19_A_a.gif","forced_long","","5","complex_dissimilar","images/stimuli/spore_stims/complex_09_A_b.gif","","","","",""
"","null","html-keyboard-response","76","539961","0.0-19.0-0.5","SS1619739914991","","","null","","","","","","<p><img src= images/blank.png width =""600"" height = ""600"" style=""position:fixed;top:50%; left:50%; transform: translate(-50%, -50%); border:5px solid black"">","","","","","","","",""
"","1949.5050000259653","sequential-stimulus-presentation-old","77","542417","0.0-19.0-1.5","SS1619739914991","trial","","40","500","2449.5050000259653","images/stimuli/spore_stims/complex_09_A_b.gif","images/stimuli/spore_stims/complex_19_A_a.gif","forced_long","","5","complex_dissimilar","images/stimuli/spore_stims/complex_19_A_a.gif","","","","",""
"","4089.9249999783933","survey-multi-choice","78","546509","0.0-20.0","SS1619739914991","math_question","","","","","","","","","","","","{""Q0"":""5""}","[0]","5","",""
"","null","html-keyboard-response","79","547604","0.0-21.0-0.0","SS1619739914991","","","null","","","","","","<p><img src= images/blank.png width =""600"" height = ""600"" style=""position:fixed;top:50%; left:50%; transform: translate(-50%, -50%); border:5px solid black"">","","","","","","","",""
"","655.51999991294","sequential-stimulus-presentation-old","80","563264","0.0-21.0-1.0","SS1619739914991","trial","","40","500","1155.51999991294","images/stimuli/spore_stims/simple_12_A_b.gif","images/stimuli/spore_stims/simple_02_A_a.gif","forced_long","","6","simple_dissimilar","images/stimuli/spore_stims/simple_02_A_a.gif","","","","",""
"","null","html-keyboard-response","81","564371","0.0-21.0-0.1","SS1619739914991","","","null","","","","","","<p><img src= images/blank.png width =""600"" height = ""600"" style=""position:fixed;top:50%; left:50%; transform: translate(-50%, -50%); border:5px solid black"">","","","","","","","",""
"","13978.564999997616","sequential-stimulus-presentation-old","82","578855","0.0-21.0-1.1","SS1619739914991","trial","","40","500","14478.564999997616","images/stimuli/spore_stims/simple_12_A_b.gif","images/stimuli/spore_stims/simple_02_A_a.gif","forced_long","","6","simple_dissimilar","images/stimuli/spore_stims/simple_02_A_a.gif","","","","",""
"","null","html-keyboard-response","83","579837","0.0-21.0-0.2","SS1619739914991","","","null","","","","","","<p><img src= images/blank.png width =""600"" height = ""600"" style=""position:fixed;top:50%; left:50%; transform: translate(-50%, -50%); border:5px solid black"">","","","","","","","",""
"","7882.160000037402","sequential-stimulus-presentation-old","84","588224","0.0-21.0-1.2","SS1619739914991","trial","","40","500","8382.160000037402","images/stimuli/spore_stims/simple_12_A_b.gif","images/stimuli/spore_stims/simple_02_A_a.gif","forced_long","","6","simple_dissimilar","images/stimuli/spore_stims/simple_02_A_a.gif","","","","",""
"","null","html-keyboard-response","85","589273","0.0-21.0-0.3","SS1619739914991","","","null","","","","","","<p><img src= images/blank.png width =""600"" height = ""600"" style=""position:fixed;top:50%; left:50%; transform: translate(-50%, -50%); border:5px solid black"">","","","","","","","",""
"","4105.444999993779","sequential-stimulus-presentation-old","86","593883","0.0-21.0-1.3","SS1619739914991","trial","","40","500","4605.444999993779","images/stimuli/spore_stims/simple_12_A_b.gif","images/stimuli/spore_stims/simple_02_A_a.gif","forced_long","","6","simple_dissimilar","images/stimuli/spore_stims/simple_02_A_a.gif","","","","",""
"","null","html-keyboard-response","87","595036","0.0-21.0-0.4","SS1619739914991","","","null","","","","","","<p><img src= images/blank.png width =""600"" height = ""600"" style=""position:fixed;top:50%; left:50%; transform: translate(-50%, -50%); border:5px solid black"">","","","","","","","",""
"","5968.504999997094","sequential-stimulus-presentation-old","88","601509","0.0-21.0-1.4","SS1619739914991","trial","","40","500","6468.504999997094","images/stimuli/spore_stims/simple_12_A_b.gif","images/stimuli/spore_stims/simple_02_A_a.gif","forced_long","","6","simple_dissimilar","images/stimuli/spore_stims/simple_02_A_a.gif","","","","",""
"","null","html-keyboard-response","89","602515","0.0-21.0-0.5","SS1619739914991","","","null","","","","","","<p><img src= images/blank.png width =""600"" height = ""600"" style=""position:fixed;top:50%; left:50%; transform: translate(-50%, -50%); border:5px solid black"">","","","","","","","",""
"","7232.205000007525","sequential-stimulus-presentation-old","90","610252","0.0-21.0-1.5","SS1619739914991","trial","","40","500","7732.205000007525","images/stimuli/spore_stims/simple_12_A_b.gif","images/stimuli/spore_stims/simple_02_A_a.gif","forced_long","","6","simple_dissimilar","images/stimuli/spore_stims/simple_02_A_a.gif","","","","",""
"","11922.054999973625","survey-multi-choice","91","622177","0.0-22.0","SS1619739914991","math_question","","","","","","","","","","","","{""Q0"":""15""}","[0]","15","",""
"","null","html-keyboard-response","92","623377","0.0-23.0-0.0","SS1619739914991","","","null","","","","","","<p><img src= images/blank.png width =""600"" height = ""600"" style=""position:fixed;top:50%; left:50%; transform: translate(-50%, -50%); border:5px solid black"">","","","","","","","",""
"","6636.520000058226","sequential-stimulus-presentation-old","93","630522","0.0-23.0-1.0","SS1619739914991","trial","","40","500","7136.520000058226","images/stimuli/spore_stims/simple_10_A_a.gif","images/stimuli/spore_stims/simple_02_A_b.gif","forced_short","","7","simple_dissimilar","images/stimuli/spore_stims/simple_02_A_b.gif","","","","",""
"","null","html-keyboard-response","94","631457","0.0-23.0-0.1","SS1619739914991","","","null","","","","","","<p><img src= images/blank.png width =""600"" height = ""600"" style=""position:fixed;top:50%; left:50%; transform: translate(-50%, -50%); border:5px solid black"">","","","","","","","",""
"","1054.9400000600144","sequential-stimulus-presentation-old","95","633018","0.0-23.0-1.1","SS1619739914991","trial","","40","500","1554.9400000600144","images/stimuli/spore_stims/simple_10_A_a.gif","images/stimuli/spore_stims/simple_02_A_b.gif","forced_short","","7","simple_dissimilar","images/stimuli/spore_stims/simple_02_A_b.gif","","","","",""
"","null","html-keyboard-response","96","634307","0.0-23.0-0.2","SS1619739914991","","","null","","","","","","<p><img src= images/blank.png width =""600"" height = ""600"" style=""position:fixed;top:50%; left:50%; transform: translate(-50%, -50%); border:5px solid black"">","","","","","","","",""
"","2111.299999989569","sequential-stimulus-presentation-old","97","636923","0.0-23.0-1.2","SS1619739914991","trial","","40","500","2611.299999989569","images/stimuli/spore_stims/simple_10_A_a.gif","images/stimuli/spore_stims/simple_02_A_b.gif","forced_short","","7","simple_dissimilar","images/stimuli/spore_stims/simple_02_A_b.gif","","","","",""
"","null","html-keyboard-response","98","637925","0.0-23.0-0.3","SS1619739914991","","","null","","","","","","<p><img src= images/blank.png width =""600"" height = ""600"" style=""position:fixed;top:50%; left:50%; transform: translate(-50%, -50%); border:5px solid black"">","","","","","","","",""
"","5012.144999927841","sequential-stimulus-presentation-old","99","643444","0.0-23.0-1.3","SS1619739914991","trial","","40","500","5512.144999927841","images/stimuli/spore_stims/simple_10_A_a.gif","images/stimuli/spore_stims/simple_02_A_b.gif","forced_short","","7","simple_dissimilar","images/stimuli/spore_stims/simple_10_A_a.gif","","","","",""
"","null","html-keyboard-response","100","644721","0.0-23.0-0.4","SS1619739914991","","","null","","","","","","<p><img src= images/blank.png width =""600"" height = ""600"" style=""position:fixed;top:50%; left:50%; transform: translate(-50%, -50%); border:5px solid black"">","","","","","","","",""
"","5713.824999984354","sequential-stimulus-presentation-old","101","650944","0.0-23.0-1.4","SS1619739914991","trial","","40","500","6213.824999984354","images/stimuli/spore_stims/simple_10_A_a.gif","images/stimuli/spore_stims/simple_02_A_b.gif","forced_short","","7","simple_dissimilar","images/stimuli/spore_stims/simple_02_A_b.gif","","","","",""
"","null","html-keyboard-response","102","652079","0.0-23.0-0.5","SS1619739914991","","","null","","","","","","<p><img src= images/blank.png width =""600"" height = ""600"" style=""position:fixed;top:50%; left:50%; transform: translate(-50%, -50%); border:5px solid black"">","","","","","","","",""
"","15667.464999947697","sequential-stimulus-presentation-old","103","668252","0.0-23.0-1.5","SS1619739914991","trial","","40","500","16167.464999947697","images/stimuli/spore_stims/simple_10_A_a.gif","images/stimuli/spore_stims/simple_02_A_b.gif","forced_short","","7","simple_dissimilar","images/stimuli/spore_stims/simple_02_A_b.gif","","","","",""
"","8043.154999963008","survey-multi-choice","104","676298","0.0-24.0","SS1619739914991","math_question","","","","","","","","","","","","{""Q0"":""14""}","[0]","14","",""
"","null","html-keyboard-response","105","677188","0.0-25.0-0.0","SS1619739914991","","","null","","","","","","<p><img src= images/blank.png width =""600"" height = ""600"" style=""position:fixed;top:50%; left:50%; transform: translate(-50%, -50%); border:5px solid black"">","","","","","","","",""
"","771.7950000660494","sequential-stimulus-presentation-old","106","678465","0.0-25.0-1.0","SS1619739914991","trial","","40","500","1271.7950000660494","images/stimuli/spore_stims/complex_14_A_a.gif","images/stimuli/spore_stims/complex_03_A_b.gif","forced_short","","8","complex_dissimilar","images/stimuli/spore_stims/complex_03_A_b.gif","","","","",""
"","null","html-keyboard-response","107","679610","0.0-25.0-0.1","SS1619739914991","","","null","","","","","","<p><img src= images/blank.png width =""600"" height = ""600"" style=""position:fixed;top:50%; left:50%; transform: translate(-50%, -50%); border:5px solid black"">","","","","","","","",""
"","1234.070000005886","sequential-stimulus-presentation-old","108","681349","0.0-25.0-1.1","SS1619739914991","trial","","40","500","1734.070000005886","images/stimuli/spore_stims/complex_14_A_a.gif","images/stimuli/spore_stims/complex_03_A_b.gif","forced_short","","8","complex_dissimilar","images/stimuli/spore_stims/complex_14_A_a.gif","","","","",""
"","null","html-keyboard-response","109","682542","0.0-25.0-0.2","SS1619739914991","","","null","","","","","","<p><img src= images/blank.png width =""600"" height = ""600"" style=""position:fixed;top:50%; left:50%; transform: translate(-50%, -50%); border:5px solid black"">","","","","","","","",""
"","1630.4550000932068","sequential-stimulus-presentation-old","110","684679","0.0-25.0-1.2","SS1619739914991","trial","","40","500","2130.4550000932068","images/stimuli/spore_stims/complex_14_A_a.gif","images/stimuli/spore_stims/complex_03_A_b.gif","forced_short","","8","complex_dissimilar","images/stimuli/spore_stims/complex_03_A_b.gif","","","","",""
"","null","html-keyboard-response","111","685622","0.0-25.0-0.3","SS1619739914991","","","null","","","","","","<p><img src= images/blank.png width =""600"" height = ""600"" style=""position:fixed;top:50%; left:50%; transform: translate(-50%, -50%); border:5px solid black"">","","","","","","","",""
"","1378.3500000135973","sequential-stimulus-presentation-old","112","687505","0.0-25.0-1.3","SS1619739914991","trial","","40","500","1878.3500000135973","images/stimuli/spore_stims/complex_14_A_a.gif","images/stimuli/spore_stims/complex_03_A_b.gif","forced_short","","8","complex_dissimilar","images/stimuli/spore_stims/complex_14_A_a.gif","","","","",""
"","null","html-keyboard-response","113","688619","0.0-25.0-0.4","SS1619739914991","","","null","","","","","","<p><img src= images/blank.png width =""600"" height = ""600"" style=""position:fixed;top:50%; left:50%; transform: translate(-50%, -50%); border:5px solid black"">","","","","","","","",""
"","1960.8650000300258","sequential-stimulus-presentation-old","114","691085","0.0-25.0-1.4","SS1619739914991","trial","","40","500","2460.865000030026","images/stimuli/spore_stims/complex_14_A_a.gif","images/stimuli/spore_stims/complex_03_A_b.gif","forced_short","","8","complex_dissimilar","images/stimuli/spore_stims/complex_03_A_b.gif","","","","",""
"","null","html-keyboard-response","115","692275","0.0-25.0-0.5","SS1619739914991","","","null","","","","","","<p><img src= images/blank.png width =""600"" height = ""600"" style=""position:fixed;top:50%; left:50%; transform: translate(-50%, -50%); border:5px solid black"">","","","","","","","",""
"","1584.6499999752268","sequential-stimulus-presentation-old","116","694366","0.0-25.0-1.5","SS1619739914991","trial","","40","500","2084.649999975227","images/stimuli/spore_stims/complex_14_A_a.gif","images/stimuli/spore_stims/complex_03_A_b.gif","forced_short","","8","complex_dissimilar","images/stimuli/spore_stims/complex_03_A_b.gif","","","","",""
"","3642.115000053309","survey-multi-choice","117","698011","0.0-26.0","SS1619739914991","math_question","","","","","","","","","","","","{""Q0"":""12""}","[0]","12","",""
"","null","html-keyboard-response","118","699076","0.0-27.0-0.0","SS1619739914991","","","null","","","","","","<p><img src= images/blank.png width =""600"" height = ""600"" style=""position:fixed;top:50%; left:50%; transform: translate(-50%, -50%); border:5px solid black"">","","","","","","","",""
"","2287.999999942258","sequential-stimulus-presentation-old","119","701868","0.0-27.0-1.0","SS1619739914991","trial","","40","500","2787.999999942258","images/stimuli/spore_stims/simple_03_A_a.gif","images/stimuli/spore_stims/simple_09_A_b.gif","self_paced","","9","simple_dissimilar","images/stimuli/spore_stims/simple_09_A_b.gif","","","","",""
"","null","html-keyboard-response","120","702915","0.0-27.0-0.1","SS1619739914991","","","null","","","","","","<p><img src= images/blank.png width =""600"" height = ""600"" style=""position:fixed;top:50%; left:50%; transform: translate(-50%, -50%); border:5px solid black"">","","","","","","","",""
"","8318.115000030957","sequential-stimulus-presentation-old","121","711738","0.0-27.0-1.1","SS1619739914991","trial","","40","500","8818.115000030957","images/stimuli/spore_stims/simple_03_A_a.gif","images/stimuli/spore_stims/simple_09_A_b.gif","self_paced","","9","simple_dissimilar","images/stimuli/spore_stims/simple_03_A_a.gif","","","","",""
"","null","html-keyboard-response","122","712919","0.0-27.0-0.2","SS1619739914991","","","null","","","","","","<p><img src= images/blank.png width =""600"" height = ""600"" style=""position:fixed;top:50%; left:50%; transform: translate(-50%, -50%); border:5px solid black"">","","","","","","","",""
"","3041.380000067875","sequential-stimulus-presentation-old","123","716466","0.0-27.0-1.2","SS1619739914991","trial","","40","500","3541.380000067875","images/stimuli/spore_stims/simple_03_A_a.gif","images/stimuli/spore_stims/simple_09_A_b.gif","self_paced","","9","simple_dissimilar","images/stimuli/spore_stims/simple_09_A_b.gif","","","","",""
"","null","html-keyboard-response","124","717579","0.0-27.0-0.3","SS1619739914991","","","null","","","","","","<p><img src= images/blank.png width =""600"" height = ""600"" style=""position:fixed;top:50%; left:50%; transform: translate(-50%, -50%); border:5px solid black"">","","","","","","","",""
"","7386.034999974072","sequential-stimulus-presentation-old","125","725470","0.0-27.0-1.3","SS1619739914991","trial","","40","500","7886.034999974072","images/stimuli/spore_stims/simple_03_A_a.gif","images/stimuli/spore_stims/simple_09_A_b.gif","self_paced","","9","simple_dissimilar","images/stimuli/spore_stims/simple_09_A_b.gif","","","","",""
"","5198.284999933094","survey-multi-choice","126","730672","0.0-28.0","SS1619739914991","math_question","","","","","","","","","","","","{""Q0"":""15""}","[0]","15","",""
"","null","html-keyboard-response","127","731939","0.0-29.0-0.0","SS1619739914991","","","null","","","","","","<p><img src= images/blank.png width =""600"" height = ""600"" style=""position:fixed;top:50%; left:50%; transform: translate(-50%, -50%); border:5px solid black"">","","","","","","","",""
"","987.9649999784306","sequential-stimulus-presentation-old","128","747933","0.0-29.0-1.0","SS1619739914991","trial","","40","500","1487.9649999784306","images/stimuli/spore_stims/complex_10_A_b.gif","images/stimuli/spore_stims/complex_13_A_a.gif","forced_long","","10","complex_dissimilar","images/stimuli/spore_stims/complex_13_A_a.gif","","","","",""
"","null","html-keyboard-response","129","749227","0.0-29.0-0.1","SS1619739914991","","","null","","","","","","<p><img src= images/blank.png width =""600"" height = ""600"" style=""position:fixed;top:50%; left:50%; transform: translate(-50%, -50%); border:5px solid black"">","","","","","","","",""
"","6869.985000113957","sequential-stimulus-presentation-old","130","756610","0.0-29.0-1.1","SS1619739914991","trial","","40","500","7369.985000113957","images/stimuli/spore_stims/complex_10_A_b.gif","images/stimuli/spore_stims/complex_13_A_a.gif","forced_long","","10","complex_dissimilar","images/stimuli/spore_stims/complex_10_A_b.gif","","","","",""
"","null","html-keyboard-response","131","757445","0.0-29.0-0.2","SS1619739914991","","","null","","","","","","<p><img src= images/blank.png width =""600"" height = ""600"" style=""position:fixed;top:50%; left:50%; transform: translate(-50%, -50%); border:5px solid black"">","","","","","","","",""
"","5795.259999926202","sequential-stimulus-presentation-old","132","763746","0.0-29.0-1.2","SS1619739914991","trial","","40","500","6295.259999926202","images/stimuli/spore_stims/complex_10_A_b.gif","images/stimuli/spore_stims/complex_13_A_a.gif","forced_long","","10","complex_dissimilar","images/stimuli/spore_stims/complex_13_A_a.gif","","","","",""
"","null","html-keyboard-response","133","764577","0.0-29.0-0.3","SS1619739914991","","","null","","","","","","<p><img src= images/blank.png width =""600"" height = ""600"" style=""position:fixed;top:50%; left:50%; transform: translate(-50%, -50%); border:5px solid black"">","","","","","","","",""
"","392.4349999288097","sequential-stimulus-presentation-old","134","765481","0.0-29.0-1.3","SS1619739914991","trial","","40","500","892.4349999288097","images/stimuli/spore_stims/complex_10_A_b.gif","images/stimuli/spore_stims/complex_13_A_a.gif","forced_long","","10","complex_dissimilar","images/stimuli/spore_stims/complex_13_A_a.gif","","","","",""
"","null","html-keyboard-response","135","766590","0.0-29.0-0.4","SS1619739914991","","","null","","","","","","<p><img src= images/blank.png width =""600"" height = ""600"" style=""position:fixed;top:50%; left:50%; transform: translate(-50%, -50%); border:5px solid black"">","","","","","","","",""
"","121.61999999079853","sequential-stimulus-presentation-old","136","767226","0.0-29.0-1.4","SS1619739914991","trial","","40","500","621.6199999907985","images/stimuli/spore_stims/complex_10_A_b.gif","images/stimuli/spore_stims/complex_13_A_a.gif","forced_long","","10","complex_dissimilar","images/stimuli/spore_stims/complex_10_A_b.gif","","","","",""
"","3317.8400000324473","survey-multi-choice","137","770547","0.0-30.0","SS1619739914991","math_question","","","","","","","","","","","","{""Q0"":""5""}","[0]","5","",""
"","null","html-keyboard-response","138","771553","0.0-31.0-0.0","SS1619739914991","","","null","","","","","","<p><img src= images/blank.png width =""600"" height = ""600"" style=""position:fixed;top:50%; left:50%; transform: translate(-50%, -50%); border:5px solid black"">","","","","","","","",""
"","865.3450000565499","sequential-stimulus-presentation-old","139","772937","0.0-31.0-1.0","SS1619739914991","trial","","40","500","1365.34500005655","images/stimuli/spore_stims/simple_13_A_a.gif","images/stimuli/spore_stims/simple_15_A_b.gif","forced_short","","11","simple_dissimilar","images/stimuli/spore_stims/simple_15_A_b.gif","","","","",""
"","null","html-keyboard-response","140","774133","0.0-31.0-0.1","SS1619739914991","","","null","","","","","","<p><img src= images/blank.png width =""600"" height = ""600"" style=""position:fixed;top:50%; left:50%; transform: translate(-50%, -50%); border:5px solid black"">","","","","","","","",""
"","86770.98999998998","sequential-stimulus-presentation-old","141","861409","0.0-31.0-1.1","SS1619739914991","trial","","40","500","87270.98999998998","images/stimuli/spore_stims/simple_13_A_a.gif","images/stimuli/spore_stims/simple_15_A_b.gif","forced_short","","11","simple_dissimilar","images/stimuli/spore_stims/simple_15_A_b.gif","","","","",""
"","null","html-keyboard-response","142","862287","0.0-31.0-0.2","SS1619739914991","","","null","","","","","","<p><img src= images/blank.png width =""600"" height = ""600"" style=""position:fixed;top:50%; left:50%; transform: translate(-50%, -50%); border:5px solid black"">","","","","","","","",""
"","2681.3550000078976","sequential-stimulus-presentation-old","143","865474","0.0-31.0-1.2","SS1619739914991","trial","","40","500","3181.3550000078976","images/stimuli/spore_stims/simple_13_A_a.gif","images/stimuli/spore_stims/simple_15_A_b.gif","forced_short","","11","simple_dissimilar","images/stimuli/spore_stims/simple_13_A_a.gif","","","","",""
"","null","html-keyboard-response","144","866647","0.0-31.0-0.3","SS1619739914991","","","null","","","","","","<p><img src= images/blank.png width =""600"" height = ""600"" style=""position:fixed;top:50%; left:50%; transform: translate(-50%, -50%); border:5px solid black"">","","","","","","","",""
"","2352.130000013858","sequential-stimulus-presentation-old","145","869505","0.0-31.0-1.3","SS1619739914991","trial","","40","500","2852.130000013858","images/stimuli/spore_stims/simple_13_A_a.gif","images/stimuli/spore_stims/simple_15_A_b.gif","forced_short","","11","simple_dissimilar","images/stimuli/spore_stims/simple_13_A_a.gif","","","","",""
"[{""page_index"":0,""viewing_time"":3484.745000023395}]","3485.0550000555813","instructions","146","872993","0.0-32.0","SS1619739914991","instructions","","","","","","","","","","","","","","","",""
"","7187.22500000149","survey-likert","147","880185","0.0-33.0","SS1619739914991","similarity_question","","","","","","","","","","","","{""Q0"":4}","[0]","","images/stimuli/spore_stims/complex_13_A_a.gif","images/stimuli/spore_stims/complex_10_A_b.gif"
"","4495.564999990165","survey-likert","148","884691","0.0-34.0","SS1619739914991","similarity_question","","","","","","","","","","","","{""Q0"":4}","[0]","","images/stimuli/spore_stims/simple_12_A_b.gif","images/stimuli/spore_stims/simple_02_A_a.gif"
"","4274.650000035763","survey-likert","149","888996","0.0-35.0","SS1619739914991","similarity_question","","","","","","","","","","","","{""Q0"":5}","[0]","","images/stimuli/spore_stims/simple_16_A_a.gif","images/stimuli/spore_stims/simple_17_A_b.gif"
"","3175.7249999791384","survey-likert","150","892182","0.0-36.0","SS1619739914991","similarity_question","","","","","","","","","","","","{""Q0"":5}","[0]","","images/stimuli/spore_stims/simple_10_A_a.gif","images/stimuli/spore_stims/simple_02_A_b.gif"
"","4639.079999993555","survey-likert","151","896831","0.0-37.0","SS1619739914991","similarity_question","","","","","","","","","","","","{""Q0"":5}","[0]","","images/stimuli/spore_stims/complex_06_A_a.gif","images/stimuli/spore_stims/complex_20_A_b.gif"
"","4637.539999908768","survey-likert","152","901476","0.0-38.0","SS1619739914991","similarity_question","","","","","","","","","","","","{""Q0"":2}","[0]","","images/stimuli/spore_stims/complex_18_A_a.gif","images/stimuli/spore_stims/complex_11_A_b.gif"
"","5152.364999987185","survey-likert","153","906638","0.0-39.0","SS1619739914991","similarity_question","","","","","","","","","","","","{""Q0"":2}","[0]","","images/stimuli/spore_stims/complex_20_A_a.gif","images/stimuli/spore_stims/complex_18_A_b.gif"
"","4178.9349999744445","survey-likert","154","910826","0.0-40.0","SS1619739914991","similarity_question","","","","","","","","","","","","{""Q0"":4}","[0]","","images/stimuli/spore_stims/complex_14_A_a.gif","images/stimuli/spore_stims/complex_03_A_b.gif"
"","3895.615000044927","survey-likert","155","914732","0.0-41.0","SS1619739914991","similarity_question","","","","","","","","","","","","{""Q0"":4}","[0]","","images/stimuli/spore_stims/simple_03_A_a.gif","images/stimuli/spore_stims/simple_09_A_b.gif"
"","3848.4700000844896","survey-likert","156","918590","0.0-42.0","SS1619739914991","similarity_question","","","","","","","","","","","","{""Q0"":6}","[0]","","images/stimuli/spore_stims/simple_13_A_b.gif","images/stimuli/spore_stims/simple_04_A_a.gif"
"","3571.7999999178573","survey-likert","157","922171","0.0-43.0","SS1619739914991","similarity_question","","","","","","","","","","","","{""Q0"":6}","[0]","","images/stimuli/spore_stims/simple_13_A_a.gif","images/stimuli/spore_stims/simple_15_A_b.gif"
"","6305.6349999969825","survey-likert","158","928487","0.0-44.0","SS1619739914991","similarity_question","","","","","","","","","","","","{""Q0"":4}","[0]","","images/stimuli/spore_stims/complex_09_A_b.gif","images/stimuli/spore_stims/complex_19_A_a.gif"
"[{""page_index"":0,""viewing_time"":4200.369999976829}]","4200.685000047088","instructions","159","932696","0.0-45.0","SS1619739914991","instructions","","","","","","","","","","","","","","","",""
"","4253.220000071451","survey-likert","160","936955","0.0-46.0","SS1619739914991","","","","","","","","","images/stimuli/spore_stims/complex_20_A_b.gif","","","","{""Q0"":5}","[0]","","",""
"","6339.539999957196","survey-likert","161","943304","0.0-47.0","SS1619739914991","","","","","","","","","images/stimuli/spore_stims/complex_20_A_a.gif","","","","{""Q0"":4}","[0]","","",""
"","4239.5650000544265","survey-likert","162","947553","0.0-48.0","SS1619739914991","","","","","","","","","images/stimuli/spore_stims/simple_04_A_a.gif","","","","{""Q0"":1}","[0]","","",""
"","5372.210000059567","survey-likert","163","952936","0.0-49.0","SS1619739914991","","","","","","","","","images/stimuli/spore_stims/complex_14_A_a.gif","","","","{""Q0"":5}","[0]","","",""
"","3572.609999915585","survey-likert","164","956518","0.0-50.0","SS1619739914991","","","","","","","","","images/stimuli/spore_stims/simple_03_A_a.gif","","","","{""Q0"":1}","[0]","","",""
"","8700.919999973848","survey-likert","165","965228","0.0-51.0","SS1619739914991","","","","","","","","","images/stimuli/spore_stims/complex_10_A_b.gif","","","","{""Q0"":5}","[0]","","",""
"","20701.660000020638","survey-likert","166","985940","0.0-52.0","SS1619739914991","","","","","","","","","images/stimuli/spore_stims/simple_13_A_a.gif","","","","{""Q0"":5}","[0]","","",""
"","34014.03500000015","survey-likert","167","1019963","0.0-53.0","SS1619739914991","","","","","","","","","images/stimuli/spore_stims/simple_10_A_a.gif","","","","{""Q0"":0}","[0]","","",""
"","4284.779999987222","survey-likert","168","1024258","0.0-54.0","SS1619739914991","","","","","","","","","images/stimuli/spore_stims/simple_12_A_b.gif","","","","{""Q0"":1}","[0]","","",""
"","5432.039999985136","survey-likert","169","1029699","0.0-55.0","SS1619739914991","","","","","","","","","images/stimuli/spore_stims/complex_18_A_a.gif","","","","{""Q0"":5}","[0]","","",""
"","4473.379999981262","survey-likert","170","1034183","0.0-56.0","SS1619739914991","","","","","","","","","images/stimuli/spore_stims/complex_09_A_b.gif","","","","{""Q0"":5}","[0]","","",""
"","6442.6649999804795","survey-likert","171","1040635","0.0-57.0","SS1619739914991","","","","","","","","","images/stimuli/spore_stims/simple_16_A_a.gif","","","","{""Q0"":2}","[0]","","",""
"[{""page_index"":0,""viewing_time"":1965.0299999630079}]","1965.3249999973923","instructions","172","1042609","0.0-58.0","SS1619739914991","instructions","","","","","","","","","","","","","","","",""
"","3541.105000069365","demog-age","173","1046159","0.0-59.0","SS1619739914991","","","","","","","","","","","","","{""age"":""23""}","","","",""
"","3438.85500007309","demog-ethnic-US","174","1049605","0.0-60.0","SS1619739914991","","","","","","","","","","","","","{""ethnicity"":[""Hispanic or Latino""]}","[0]","","",""
"","13706.13000006415","demog-gender-and-education","175","1063321","0.0-61.0","SS1619739914991","","","","","","","","","","","","","{""gender"":""Female"",""education"":""Bachelor's Degree""}","[0,1]","","",""
"","11553.835000027902","survey-text","176","1074886","0.0-62.0","SS1619739914991","feedback","","","","","","","","","","","","{""Q0"":""Everything was fine""}","","","",""
"[{""page_index"":0,""viewing_time"":1792.530000093393}]","1792.8600000450388","instructions","177","1076685","0.0-63.0","SS1619739914991","instructions","","","","","","","","","","","","","","","",""
