"view_history","rt","trial_type","trial_index","time_elapsed","internal_node_id","subject","stimulus_type","trial_stimulus","key_press","minimum_viewing_duration","trial_looking_time","block_deviant","block_background","exposure_type","stimulus","block_number","block_type","stimulus_displayed","responses","question_order","math_correct_answer","stimulus_left","stimulus_right"
"[{""page_index"":0,""viewing_time"":28054.650000005495}]","28055.380000005243","instructions","0","28058","0.0-0.0","SS1619740143704","","","","","","","","","","","","","","","","",""
"[{""page_index"":0,""viewing_time"":15054.994999984046},{""page_index"":1,""viewing_time"":7127.9350000259}]","22183.149999997113","instructions","1","52248","0.0-1.0","SS1619740143704","instructions","","","","","","","","","","","","","","","",""
"","11568.474999978207","sequential-stimulus-presentation-old","2","64334","0.0-2.0","SS1619740143704","","","40","500","12068.474999978207","null","null","self_paced","","","","","","","","",""
"","33006.88500000979","sequential-stimulus-presentation-old","3","97844","0.0-3.0","SS1619740143704","","","40","500","33506.88500000979","null","null","self_paced","","","","","","","","",""
"[{""page_index"":0,""viewing_time"":55606.89499997534}]","55607.12000000058","instructions","4","153453","0.0-4.0","SS1619740143704","instructions","","","","","","","","","","","","","","","",""
"","13977.294999989681","sequential-stimulus-presentation-old","5","182435","0.0-5.0","SS1619740143704","","","40","500","14477.294999989681","null","null","forced_long","","","","","","","","",""
"","43016.929999983404","sequential-stimulus-presentation-old","6","225970","0.0-6.0","SS1619740143704","","","40","500","43516.929999983404","null","null","forced_long","","","","","","","","",""
"[{""page_index"":0,""viewing_time"":21727.14500001166}]","21727.335000003222","instructions","7","247699","0.0-7.0","SS1619740143704","instructions","","","","","","","","","","","","","","","",""
"[{""page_index"":0,""viewing_time"":13069.090000004508},{""page_index"":1,""viewing_time"":77663.53999997955},{""page_index"":2,""viewing_time"":10671.835000015562},{""page_index"":3,""viewing_time"":1775.46999999322},{""page_index"":4,""viewing_time"":1311.199999996461}]","104491.24999999185","instructions","8","352193","0.0-8.0","SS1619740143704","instructions","","","","","","","","","","","","","","","",""
"","null","html-keyboard-response","9","353404","0.0-9.0-0.0","SS1619740143704","","","null","","","","","","<p><img src= images/blank.png width =""600"" height = ""600"" style=""position:fixed;top:50%; left:50%; transform: translate(-50%, -50%); border:5px solid black"">","","","","","","","",""
"","10355.815000017174","sequential-stimulus-presentation-old","10","364266","0.0-9.0-1.0","SS1619740143704","trial","","40","500","10855.815000017174","images/stimuli/spore_stims/simple_04_A_b.gif","images/stimuli/spore_stims/simple_19_A_a.gif","self_paced","","0","simple_dissimilar","images/stimuli/spore_stims/simple_19_A_a.gif","","","","",""
"","null","html-keyboard-response","11","365375","0.0-9.0-0.1","SS1619740143704","","","null","","","","","","<p><img src= images/blank.png width =""600"" height = ""600"" style=""position:fixed;top:50%; left:50%; transform: translate(-50%, -50%); border:5px solid black"">","","","","","","","",""
"","9765.77499997802","sequential-stimulus-presentation-old","12","375649","0.0-9.0-1.1","SS1619740143704","trial","","40","500","10265.77499997802","images/stimuli/spore_stims/simple_04_A_b.gif","images/stimuli/spore_stims/simple_19_A_a.gif","self_paced","","0","simple_dissimilar","images/stimuli/spore_stims/simple_19_A_a.gif","","","","",""
"","null","html-keyboard-response","13","376556","0.0-9.0-0.2","SS1619740143704","","","null","","","","","","<p><img src= images/blank.png width =""600"" height = ""600"" style=""position:fixed;top:50%; left:50%; transform: translate(-50%, -50%); border:5px solid black"">","","","","","","","",""
"","9031.320000009146","sequential-stimulus-presentation-old","14","386096","0.0-9.0-1.2","SS1619740143704","trial","","40","500","9531.320000009146","images/stimuli/spore_stims/simple_04_A_b.gif","images/stimuli/spore_stims/simple_19_A_a.gif","self_paced","","0","simple_dissimilar","images/stimuli/spore_stims/simple_04_A_b.gif","","","","",""
"","null","html-keyboard-response","15","386970","0.0-9.0-0.3","SS1619740143704","","","null","","","","","","<p><img src= images/blank.png width =""600"" height = ""600"" style=""position:fixed;top:50%; left:50%; transform: translate(-50%, -50%); border:5px solid black"">","","","","","","","",""
"","8996.675000002142","sequential-stimulus-presentation-old","16","396473","0.0-9.0-1.3","SS1619740143704","trial","","40","500","9496.675000002142","images/stimuli/spore_stims/simple_04_A_b.gif","images/stimuli/spore_stims/simple_19_A_a.gif","self_paced","","0","simple_dissimilar","images/stimuli/spore_stims/simple_19_A_a.gif","","","","",""
"","null","html-keyboard-response","17","397492","0.0-9.0-0.4","SS1619740143704","","","null","","","","","","<p><img src= images/blank.png width =""600"" height = ""600"" style=""position:fixed;top:50%; left:50%; transform: translate(-50%, -50%); border:5px solid black"">","","","","","","","",""
"","4978.234999987762","sequential-stimulus-presentation-old","18","402985","0.0-9.0-1.4","SS1619740143704","trial","","40","500","5478.234999987762","images/stimuli/spore_stims/simple_04_A_b.gif","images/stimuli/spore_stims/simple_19_A_a.gif","self_paced","","0","simple_dissimilar","images/stimuli/spore_stims/simple_19_A_a.gif","","","","",""
"","null","html-keyboard-response","19","404152","0.0-9.0-0.5","SS1619740143704","","","null","","","","","","<p><img src= images/blank.png width =""600"" height = ""600"" style=""position:fixed;top:50%; left:50%; transform: translate(-50%, -50%); border:5px solid black"">","","","","","","","",""
"","6318.4800000162795","sequential-stimulus-presentation-old","20","410977","0.0-9.0-1.5","SS1619740143704","trial","","40","500","6818.4800000162795","images/stimuli/spore_stims/simple_04_A_b.gif","images/stimuli/spore_stims/simple_19_A_a.gif","self_paced","","0","simple_dissimilar","images/stimuli/spore_stims/simple_04_A_b.gif","","","","",""
"","5740.325000020675","survey-multi-choice","21","416724","0.0-10.0","SS1619740143704","math_question","","","","","","","","","","","","{""Q0"":""10""}","[0]","10","",""
"","null","html-keyboard-response","22","417831","0.0-11.0-0.0","SS1619740143704","","","null","","","","","","<p><img src= images/blank.png width =""600"" height = ""600"" style=""position:fixed;top:50%; left:50%; transform: translate(-50%, -50%); border:5px solid black"">","","","","","","","",""
"","1134.2949999962002","sequential-stimulus-presentation-old","23","419481","0.0-11.0-1.0","SS1619740143704","trial","","40","500","1634.2949999962002","images/stimuli/spore_stims/simple_02_A_b.gif","images/stimuli/spore_stims/simple_01_A_a.gif","forced_short","","1","simple_dissimilar","images/stimuli/spore_stims/simple_01_A_a.gif","","","","",""
"","null","html-keyboard-response","24","420667","0.0-11.0-0.1","SS1619740143704","","","null","","","","","","<p><img src= images/blank.png width =""600"" height = ""600"" style=""position:fixed;top:50%; left:50%; transform: translate(-50%, -50%); border:5px solid black"">","","","","","","","",""
"","2009.6149999881163","sequential-stimulus-presentation-old","25","423185","0.0-11.0-1.1","SS1619740143704","trial","","40","500","2509.6149999881163","images/stimuli/spore_stims/simple_02_A_b.gif","images/stimuli/spore_stims/simple_01_A_a.gif","forced_short","","1","simple_dissimilar","images/stimuli/spore_stims/simple_01_A_a.gif","","","","",""
"","null","html-keyboard-response","26","424367","0.0-11.0-0.2","SS1619740143704","","","null","","","","","","<p><img src= images/blank.png width =""600"" height = ""600"" style=""position:fixed;top:50%; left:50%; transform: translate(-50%, -50%); border:5px solid black"">","","","","","","","",""
"","6251.194999989821","sequential-stimulus-presentation-old","27","431128","0.0-11.0-1.2","SS1619740143704","trial","","40","500","6751.194999989821","images/stimuli/spore_stims/simple_02_A_b.gif","images/stimuli/spore_stims/simple_01_A_a.gif","forced_short","","1","simple_dissimilar","images/stimuli/spore_stims/simple_02_A_b.gif","","","","",""
"","null","html-keyboard-response","28","432429","0.0-11.0-0.3","SS1619740143704","","","null","","","","","","<p><img src= images/blank.png width =""600"" height = ""600"" style=""position:fixed;top:50%; left:50%; transform: translate(-50%, -50%); border:5px solid black"">","","","","","","","",""
"","12298.045000003185","sequential-stimulus-presentation-old","29","445232","0.0-11.0-1.3","SS1619740143704","trial","","40","500","12798.045000003185","images/stimuli/spore_stims/simple_02_A_b.gif","images/stimuli/spore_stims/simple_01_A_a.gif","forced_short","","1","simple_dissimilar","images/stimuli/spore_stims/simple_01_A_a.gif","","","","",""
"","null","html-keyboard-response","30","446060","0.0-11.0-0.4","SS1619740143704","","","null","","","","","","<p><img src= images/blank.png width =""600"" height = ""600"" style=""position:fixed;top:50%; left:50%; transform: translate(-50%, -50%); border:5px solid black"">","","","","","","","",""
"","4216.249999997672","sequential-stimulus-presentation-old","31","450783","0.0-11.0-1.4","SS1619740143704","trial","","40","500","4716.249999997672","images/stimuli/spore_stims/simple_02_A_b.gif","images/stimuli/spore_stims/simple_01_A_a.gif","forced_short","","1","simple_dissimilar","images/stimuli/spore_stims/simple_01_A_a.gif","","","","",""
"","4673.555000015767","survey-multi-choice","32","455460","0.0-12.0","SS1619740143704","math_question","","","","","","","","","","","","{""Q0"":""10""}","[0]","10","",""
"","null","html-keyboard-response","33","456446","0.0-13.0-0.0","SS1619740143704","","","null","","","","","","<p><img src= images/blank.png width =""600"" height = ""600"" style=""position:fixed;top:50%; left:50%; transform: translate(-50%, -50%); border:5px solid black"">","","","","","","","",""
"","1392.9500000085682","sequential-stimulus-presentation-old","34","472848","0.0-13.0-1.0","SS1619740143704","trial","","40","500","1892.9500000085682","images/stimuli/spore_stims/simple_14_A_a.gif","images/stimuli/spore_stims/simple_15_A_b.gif","forced_long","","2","simple_dissimilar","images/stimuli/spore_stims/simple_15_A_b.gif","","","","",""
"","null","html-keyboard-response","35","474023","0.0-13.0-0.1","SS1619740143704","","","null","","","","","","<p><img src= images/blank.png width =""600"" height = ""600"" style=""position:fixed;top:50%; left:50%; transform: translate(-50%, -50%); border:5px solid black"">","","","","","","","",""
"","7192.394999990938","sequential-stimulus-presentation-old","36","481727","0.0-13.0-1.1","SS1619740143704","trial","","40","500","7692.394999990938","images/stimuli/spore_stims/simple_14_A_a.gif","images/stimuli/spore_stims/simple_15_A_b.gif","forced_long","","2","simple_dissimilar","images/stimuli/spore_stims/simple_15_A_b.gif","","","","",""
"","null","html-keyboard-response","37","482636","0.0-13.0-0.2","SS1619740143704","","","null","","","","","","<p><img src= images/blank.png width =""600"" height = ""600"" style=""position:fixed;top:50%; left:50%; transform: translate(-50%, -50%); border:5px solid black"">","","","","","","","",""
"","7719.920000003185","sequential-stimulus-presentation-old","38","490864","0.0-13.0-1.2","SS1619740143704","trial","","40","500","8219.920000003185","images/stimuli/spore_stims/simple_14_A_a.gif","images/stimuli/spore_stims/simple_15_A_b.gif","forced_long","","2","simple_dissimilar","images/stimuli/spore_stims/simple_15_A_b.gif","","","","",""
"","null","html-keyboard-response","39","491754","0.0-13.0-0.3","SS1619740143704","","","null","","","","","","<p><img src= images/blank.png width =""600"" height = ""600"" style=""position:fixed;top:50%; left:50%; transform: translate(-50%, -50%); border:5px solid black"">","","","","","","","",""
"","16412.55999999703","sequential-stimulus-presentation-old","40","508671","0.0-13.0-1.3","SS1619740143704","trial","","40","500","16912.55999999703","images/stimuli/spore_stims/simple_14_A_a.gif","images/stimuli/spore_stims/simple_15_A_b.gif","forced_long","","2","simple_dissimilar","images/stimuli/spore_stims/simple_14_A_a.gif","","","","",""
"","null","html-keyboard-response","41","509843","0.0-13.0-0.4","SS1619740143704","","","null","","","","","","<p><img src= images/blank.png width =""600"" height = ""600"" style=""position:fixed;top:50%; left:50%; transform: translate(-50%, -50%); border:5px solid black"">","","","","","","","",""
"","4910.405000002356","sequential-stimulus-presentation-old","42","515263","0.0-13.0-1.4","SS1619740143704","trial","","40","500","5410.405000002356","images/stimuli/spore_stims/simple_14_A_a.gif","images/stimuli/spore_stims/simple_15_A_b.gif","forced_long","","2","simple_dissimilar","images/stimuli/spore_stims/simple_14_A_a.gif","","","","",""
"","3348.870000016177","survey-multi-choice","43","518618","0.0-14.0","SS1619740143704","math_question","","","","","","","","","","","","{""Q0"":""4""}","[0]","4","",""
"","null","html-keyboard-response","44","519567","0.0-15.0-0.0","SS1619740143704","","","null","","","","","","<p><img src= images/blank.png width =""600"" height = ""600"" style=""position:fixed;top:50%; left:50%; transform: translate(-50%, -50%); border:5px solid black"">","","","","","","","",""
"","695.3700000012759","sequential-stimulus-presentation-old","45","535271","0.0-15.0-1.0","SS1619740143704","trial","","40","500","1195.370000001276","images/stimuli/spore_stims/simple_16_A_b.gif","images/stimuli/spore_stims/simple_18_A_a.gif","forced_long","","3","simple_dissimilar","images/stimuli/spore_stims/simple_18_A_a.gif","","","","",""
"","null","html-keyboard-response","46","536517","0.0-15.0-0.1","SS1619740143704","","","null","","","","","","<p><img src= images/blank.png width =""600"" height = ""600"" style=""position:fixed;top:50%; left:50%; transform: translate(-50%, -50%); border:5px solid black"">","","","","","","","",""
"","5675.870000006398","sequential-stimulus-presentation-old","47","542703","0.0-15.0-1.1","SS1619740143704","trial","","40","500","6175.870000006398","images/stimuli/spore_stims/simple_16_A_b.gif","images/stimuli/spore_stims/simple_18_A_a.gif","forced_long","","3","simple_dissimilar","images/stimuli/spore_stims/simple_18_A_a.gif","","","","",""
"","null","html-keyboard-response","48","543599","0.0-15.0-0.2","SS1619740143704","","","null","","","","","","<p><img src= images/blank.png width =""600"" height = ""600"" style=""position:fixed;top:50%; left:50%; transform: translate(-50%, -50%); border:5px solid black"">","","","","","","","",""
"","4658.534999995027","sequential-stimulus-presentation-old","49","548767","0.0-15.0-1.2","SS1619740143704","trial","","40","500","5158.534999995027","images/stimuli/spore_stims/simple_16_A_b.gif","images/stimuli/spore_stims/simple_18_A_a.gif","forced_long","","3","simple_dissimilar","images/stimuli/spore_stims/simple_18_A_a.gif","","","","",""
"","null","html-keyboard-response","50","549845","0.0-15.0-0.3","SS1619740143704","","","null","","","","","","<p><img src= images/blank.png width =""600"" height = ""600"" style=""position:fixed;top:50%; left:50%; transform: translate(-50%, -50%); border:5px solid black"">","","","","","","","",""
"","3996.93500000285","sequential-stimulus-presentation-old","51","554351","0.0-15.0-1.3","SS1619740143704","trial","","40","500","4496.93500000285","images/stimuli/spore_stims/simple_16_A_b.gif","images/stimuli/spore_stims/simple_18_A_a.gif","forced_long","","3","simple_dissimilar","images/stimuli/spore_stims/simple_18_A_a.gif","","","","",""
"","null","html-keyboard-response","52","555207","0.0-15.0-0.4","SS1619740143704","","","null","","","","","","<p><img src= images/blank.png width =""600"" height = ""600"" style=""position:fixed;top:50%; left:50%; transform: translate(-50%, -50%); border:5px solid black"">","","","","","","","",""
"","14197.799999994459","sequential-stimulus-presentation-old","53","569911","0.0-15.0-1.4","SS1619740143704","trial","","40","500","14697.799999994459","images/stimuli/spore_stims/simple_16_A_b.gif","images/stimuli/spore_stims/simple_18_A_a.gif","forced_long","","3","simple_dissimilar","images/stimuli/spore_stims/simple_18_A_a.gif","","","","",""
"","6276.350000000093","survey-multi-choice","54","576194","0.0-16.0","SS1619740143704","math_question","","","","","","","","","","","","{""Q0"":""13""}","[0]","14","",""
"","null","html-keyboard-response","55","577195","0.0-17.0-0.0","SS1619740143704","","","null","","","","","","<p><img src= images/blank.png width =""600"" height = ""600"" style=""position:fixed;top:50%; left:50%; transform: translate(-50%, -50%); border:5px solid black"">","","","","","","","",""
"","7030.729999998584","sequential-stimulus-presentation-old","56","584735","0.0-17.0-1.0","SS1619740143704","trial","","40","500","7530.729999998584","images/stimuli/spore_stims/simple_13_A_a.gif","images/stimuli/spore_stims/simple_09_A_b.gif","self_paced","","4","simple_dissimilar","images/stimuli/spore_stims/simple_09_A_b.gif","","","","",""
"","null","html-keyboard-response","57","585973","0.0-17.0-0.1","SS1619740143704","","","null","","","","","","<p><img src= images/blank.png width =""600"" height = ""600"" style=""position:fixed;top:50%; left:50%; transform: translate(-50%, -50%); border:5px solid black"">","","","","","","","",""
"","2349.3650000018533","sequential-stimulus-presentation-old","58","588847","0.0-17.0-1.1","SS1619740143704","trial","","40","500","2849.3650000018533","images/stimuli/spore_stims/simple_13_A_a.gif","images/stimuli/spore_stims/simple_09_A_b.gif","self_paced","","4","simple_dissimilar","images/stimuli/spore_stims/simple_09_A_b.gif","","","","",""
"","null","html-keyboard-response","59","589764","0.0-17.0-0.2","SS1619740143704","","","null","","","","","","<p><img src= images/blank.png width =""600"" height = ""600"" style=""position:fixed;top:50%; left:50%; transform: translate(-50%, -50%); border:5px solid black"">","","","","","","","",""
"","3180.0700000021607","sequential-stimulus-presentation-old","60","593454","0.0-17.0-1.2","SS1619740143704","trial","","40","500","3680.0700000021607","images/stimuli/spore_stims/simple_13_A_a.gif","images/stimuli/spore_stims/simple_09_A_b.gif","self_paced","","4","simple_dissimilar","images/stimuli/spore_stims/simple_09_A_b.gif","","","","",""
"","null","html-keyboard-response","61","594765","0.0-17.0-0.3","SS1619740143704","","","null","","","","","","<p><img src= images/blank.png width =""600"" height = ""600"" style=""position:fixed;top:50%; left:50%; transform: translate(-50%, -50%); border:5px solid black"">","","","","","","","",""
"","6206.715000007534","sequential-stimulus-presentation-old","62","601487","0.0-17.0-1.3","SS1619740143704","trial","","40","500","6706.715000007534","images/stimuli/spore_stims/simple_13_A_a.gif","images/stimuli/spore_stims/simple_09_A_b.gif","self_paced","","4","simple_dissimilar","images/stimuli/spore_stims/simple_09_A_b.gif","","","","",""
"","null","html-keyboard-response","63","602448","0.0-17.0-0.4","SS1619740143704","","","null","","","","","","<p><img src= images/blank.png width =""600"" height = ""600"" style=""position:fixed;top:50%; left:50%; transform: translate(-50%, -50%); border:5px solid black"">","","","","","","","",""
"","9044.190000015078","sequential-stimulus-presentation-old","64","612015","0.0-17.0-1.4","SS1619740143704","trial","","40","500","9544.190000015078","images/stimuli/spore_stims/simple_13_A_a.gif","images/stimuli/spore_stims/simple_09_A_b.gif","self_paced","","4","simple_dissimilar","images/stimuli/spore_stims/simple_13_A_a.gif","","","","",""
"","null","html-keyboard-response","65","612927","0.0-17.0-0.5","SS1619740143704","","","null","","","","","","<p><img src= images/blank.png width =""600"" height = ""600"" style=""position:fixed;top:50%; left:50%; transform: translate(-50%, -50%); border:5px solid black"">","","","","","","","",""
"","5872.175000025891","sequential-stimulus-presentation-old","66","619310","0.0-17.0-1.5","SS1619740143704","trial","","40","500","6372.175000025891","images/stimuli/spore_stims/simple_13_A_a.gif","images/stimuli/spore_stims/simple_09_A_b.gif","self_paced","","4","simple_dissimilar","images/stimuli/spore_stims/simple_09_A_b.gif","","","","",""
"","4483.37500001071","survey-multi-choice","67","623801","0.0-18.0","SS1619740143704","math_question","","","","","","","","","","","","{""Q0"":""4""}","[0]","4","",""
"","null","html-keyboard-response","68","624765","0.0-19.0-0.0","SS1619740143704","","","null","","","","","","<p><img src= images/blank.png width =""600"" height = ""600"" style=""position:fixed;top:50%; left:50%; transform: translate(-50%, -50%); border:5px solid black"">","","","","","","","",""
"","3842.3900000052527","sequential-stimulus-presentation-old","69","629118","0.0-19.0-1.0","SS1619740143704","trial","","40","500","4342.390000005253","images/stimuli/spore_stims/complex_05_A_b.gif","images/stimuli/spore_stims/complex_03_A_a.gif","forced_short","","5","complex_dissimilar","images/stimuli/spore_stims/complex_03_A_a.gif","","","","",""
"","null","html-keyboard-response","70","630401","0.0-19.0-0.1","SS1619740143704","","","null","","","","","","<p><img src= images/blank.png width =""600"" height = ""600"" style=""position:fixed;top:50%; left:50%; transform: translate(-50%, -50%); border:5px solid black"">","","","","","","","",""
"","8663.260000001173","sequential-stimulus-presentation-old","71","639574","0.0-19.0-1.1","SS1619740143704","trial","","40","500","9163.260000001173","images/stimuli/spore_stims/complex_05_A_b.gif","images/stimuli/spore_stims/complex_03_A_a.gif","forced_short","","5","complex_dissimilar","images/stimuli/spore_stims/complex_03_A_a.gif","","","","",""
"","null","html-keyboard-response","72","640668","0.0-19.0-0.2","SS1619740143704","","","null","","","","","","<p><img src= images/blank.png width =""600"" height = ""600"" style=""position:fixed;top:50%; left:50%; transform: translate(-50%, -50%); border:5px solid black"">","","","","","","","",""
"","5684.640000021318","sequential-stimulus-presentation-old","73","646870","0.0-19.0-1.2","SS1619740143704","trial","","40","500","6184.640000021318","images/stimuli/spore_stims/complex_05_A_b.gif","images/stimuli/spore_stims/complex_03_A_a.gif","forced_short","","5","complex_dissimilar","images/stimuli/spore_stims/complex_03_A_a.gif","","","","",""
"","null","html-keyboard-response","74","647768","0.0-19.0-0.3","SS1619740143704","","","null","","","","","","<p><img src= images/blank.png width =""600"" height = ""600"" style=""position:fixed;top:50%; left:50%; transform: translate(-50%, -50%); border:5px solid black"">","","","","","","","",""
"","6840.669999975944","sequential-stimulus-presentation-old","75","655134","0.0-19.0-1.3","SS1619740143704","trial","","40","500","7340.669999975944","images/stimuli/spore_stims/complex_05_A_b.gif","images/stimuli/spore_stims/complex_03_A_a.gif","forced_short","","5","complex_dissimilar","images/stimuli/spore_stims/complex_03_A_a.gif","","","","",""
"","null","html-keyboard-response","76","656037","0.0-19.0-0.4","SS1619740143704","","","null","","","","","","<p><img src= images/blank.png width =""600"" height = ""600"" style=""position:fixed;top:50%; left:50%; transform: translate(-50%, -50%); border:5px solid black"">","","","","","","","",""
"","5145.630000013625","sequential-stimulus-presentation-old","77","661694","0.0-19.0-1.4","SS1619740143704","trial","","40","500","5645.630000013625","images/stimuli/spore_stims/complex_05_A_b.gif","images/stimuli/spore_stims/complex_03_A_a.gif","forced_short","","5","complex_dissimilar","images/stimuli/spore_stims/complex_03_A_a.gif","","","","",""
"","null","html-keyboard-response","78","662704","0.0-19.0-0.5","SS1619740143704","","","null","","","","","","<p><img src= images/blank.png width =""600"" height = ""600"" style=""position:fixed;top:50%; left:50%; transform: translate(-50%, -50%); border:5px solid black"">","","","","","","","",""
"","3417.9299999959767","sequential-stimulus-presentation-old","79","666637","0.0-19.0-1.5","SS1619740143704","trial","","40","500","3917.9299999959767","images/stimuli/spore_stims/complex_05_A_b.gif","images/stimuli/spore_stims/complex_03_A_a.gif","forced_short","","5","complex_dissimilar","images/stimuli/spore_stims/complex_03_A_a.gif","","","","",""
"","3398.415000003297","survey-multi-choice","80","670041","0.0-20.0","SS1619740143704","math_question","","","","","","","","","","","","{""Q0"":""8""}","[0]","8","",""
"","null","html-keyboard-response","81","671117","0.0-21.0-0.0","SS1619740143704","","","null","","","","","","<p><img src= images/blank.png width =""600"" height = ""600"" style=""position:fixed;top:50%; left:50%; transform: translate(-50%, -50%); border:5px solid black"">","","","","","","","",""
"","6394.034999975702","sequential-stimulus-presentation-old","82","678029","0.0-21.0-1.0","SS1619740143704","trial","","40","500","6894.034999975702","images/stimuli/spore_stims/complex_13_A_a.gif","images/stimuli/spore_stims/complex_18_A_b.gif","self_paced","","6","complex_dissimilar","images/stimuli/spore_stims/complex_18_A_b.gif","","","","",""
"","null","html-keyboard-response","83","679241","0.0-21.0-0.1","SS1619740143704","","","null","","","","","","<p><img src= images/blank.png width =""600"" height = ""600"" style=""position:fixed;top:50%; left:50%; transform: translate(-50%, -50%); border:5px solid black"">","","","","","","","",""
"","8699.579999985872","sequential-stimulus-presentation-old","84","688453","0.0-21.0-1.1","SS1619740143704","trial","","40","500","9199.579999985872","images/stimuli/spore_stims/complex_13_A_a.gif","images/stimuli/spore_stims/complex_18_A_b.gif","self_paced","","6","complex_dissimilar","images/stimuli/spore_stims/complex_13_A_a.gif","","","","",""
"","null","html-keyboard-response","85","689629","0.0-21.0-0.2","SS1619740143704","","","null","","","","","","<p><img src= images/blank.png width =""600"" height = ""600"" style=""position:fixed;top:50%; left:50%; transform: translate(-50%, -50%); border:5px solid black"">","","","","","","","",""
"","24846.710000012536","sequential-stimulus-presentation-old","86","714989","0.0-21.0-1.2","SS1619740143704","trial","","40","500","25346.710000012536","images/stimuli/spore_stims/complex_13_A_a.gif","images/stimuli/spore_stims/complex_18_A_b.gif","self_paced","","6","complex_dissimilar","images/stimuli/spore_stims/complex_18_A_b.gif","","","","",""
"","null","html-keyboard-response","87","715821","0.0-21.0-0.3","SS1619740143704","","","null","","","","","","<p><img src= images/blank.png width =""600"" height = ""600"" style=""position:fixed;top:50%; left:50%; transform: translate(-50%, -50%); border:5px solid black"">","","","","","","","",""
"","5065.589999983786","sequential-stimulus-presentation-old","88","721404","0.0-21.0-1.3","SS1619740143704","trial","","40","500","5565.589999983786","images/stimuli/spore_stims/complex_13_A_a.gif","images/stimuli/spore_stims/complex_18_A_b.gif","self_paced","","6","complex_dissimilar","images/stimuli/spore_stims/complex_18_A_b.gif","","","","",""
"","4841.820000001462","survey-multi-choice","89","726255","0.0-22.0","SS1619740143704","math_question","","","","","","","","","","","","{""Q0"":""12""}","[0]","12","",""
"","null","html-keyboard-response","90","727167","0.0-23.0-0.0","SS1619740143704","","","null","","","","","","<p><img src= images/blank.png width =""600"" height = ""600"" style=""position:fixed;top:50%; left:50%; transform: translate(-50%, -50%); border:5px solid black"">","","","","","","","",""
"","5639.785000006668","sequential-stimulus-presentation-old","91","747821","0.0-23.0-1.0","SS1619740143704","trial","","40","500","6139.785000006668","images/stimuli/spore_stims/complex_11_A_a.gif","images/stimuli/spore_stims/complex_15_A_b.gif","forced_long","","7","complex_dissimilar","images/stimuli/spore_stims/complex_15_A_b.gif","","","","",""
"","null","html-keyboard-response","92","748740","0.0-23.0-0.1","SS1619740143704","","","null","","","","","","<p><img src= images/blank.png width =""600"" height = ""600"" style=""position:fixed;top:50%; left:50%; transform: translate(-50%, -50%); border:5px solid black"">","","","","","","","",""
"","59061.74999999348","sequential-stimulus-presentation-old","93","808316","0.0-23.0-1.1","SS1619740143704","trial","","40","500","59561.74999999348","images/stimuli/spore_stims/complex_11_A_a.gif","images/stimuli/spore_stims/complex_15_A_b.gif","forced_long","","7","complex_dissimilar","images/stimuli/spore_stims/complex_15_A_b.gif","","","","",""
"","null","html-keyboard-response","94","809610","0.0-23.0-0.2","SS1619740143704","","","null","","","","","","<p><img src= images/blank.png width =""600"" height = ""600"" style=""position:fixed;top:50%; left:50%; transform: translate(-50%, -50%); border:5px solid black"">","","","","","","","",""
"","3559.580000001006","sequential-stimulus-presentation-old","95","813683","0.0-23.0-1.2","SS1619740143704","trial","","40","500","4059.580000001006","images/stimuli/spore_stims/complex_11_A_a.gif","images/stimuli/spore_stims/complex_15_A_b.gif","forced_long","","7","complex_dissimilar","images/stimuli/spore_stims/complex_15_A_b.gif","","","","",""
"","null","html-keyboard-response","96","814628","0.0-23.0-0.3","SS1619740143704","","","null","","","","","","<p><img src= images/blank.png width =""600"" height = ""600"" style=""position:fixed;top:50%; left:50%; transform: translate(-50%, -50%); border:5px solid black"">","","","","","","","",""
"","2716.519999987213","sequential-stimulus-presentation-old","97","817859","0.0-23.0-1.3","SS1619740143704","trial","","40","500","3216.519999987213","images/stimuli/spore_stims/complex_11_A_a.gif","images/stimuli/spore_stims/complex_15_A_b.gif","forced_long","","7","complex_dissimilar","images/stimuli/spore_stims/complex_11_A_a.gif","","","","",""
"","null","html-keyboard-response","98","818773","0.0-23.0-0.4","SS1619740143704","","","null","","","","","","<p><img src= images/blank.png width =""600"" height = ""600"" style=""position:fixed;top:50%; left:50%; transform: translate(-50%, -50%); border:5px solid black"">","","","","","","","",""
"","2436.485000012908","sequential-stimulus-presentation-old","99","821723","0.0-23.0-1.4","SS1619740143704","trial","","40","500","2936.485000012908","images/stimuli/spore_stims/complex_11_A_a.gif","images/stimuli/spore_stims/complex_15_A_b.gif","forced_long","","7","complex_dissimilar","images/stimuli/spore_stims/complex_15_A_b.gif","","","","",""
"","6115.609999978915","survey-multi-choice","100","827851","0.0-24.0","SS1619740143704","math_question","","","","","","","","","","","","{""Q0"":""7""}","[0]","7","",""
"","null","html-keyboard-response","101","828715","0.0-25.0-0.0","SS1619740143704","","","null","","","","","","<p><img src= images/blank.png width =""600"" height = ""600"" style=""position:fixed;top:50%; left:50%; transform: translate(-50%, -50%); border:5px solid black"">","","","","","","","",""
"","4110.385000007227","sequential-stimulus-presentation-old","102","833340","0.0-25.0-1.0","SS1619740143704","trial","","40","500","4610.385000007227","images/stimuli/spore_stims/complex_14_A_a.gif","images/stimuli/spore_stims/complex_16_A_b.gif","forced_short","","8","complex_dissimilar","images/stimuli/spore_stims/complex_16_A_b.gif","","","","",""
"","null","html-keyboard-response","103","834266","0.0-25.0-0.1","SS1619740143704","","","null","","","","","","<p><img src= images/blank.png width =""600"" height = ""600"" style=""position:fixed;top:50%; left:50%; transform: translate(-50%, -50%); border:5px solid black"">","","","","","","","",""
"","4109.954999992624","sequential-stimulus-presentation-old","104","838891","0.0-25.0-1.1","SS1619740143704","trial","","40","500","4609.954999992624","images/stimuli/spore_stims/complex_14_A_a.gif","images/stimuli/spore_stims/complex_16_A_b.gif","forced_short","","8","complex_dissimilar","images/stimuli/spore_stims/complex_16_A_b.gif","","","","",""
"","null","html-keyboard-response","105","840049","0.0-25.0-0.2","SS1619740143704","","","null","","","","","","<p><img src= images/blank.png width =""600"" height = ""600"" style=""position:fixed;top:50%; left:50%; transform: translate(-50%, -50%); border:5px solid black"">","","","","","","","",""
"","359.25000000861473","sequential-stimulus-presentation-old","106","840923","0.0-25.0-1.2","SS1619740143704","trial","","40","500","859.2500000086147","images/stimuli/spore_stims/complex_14_A_a.gif","images/stimuli/spore_stims/complex_16_A_b.gif","forced_short","","8","complex_dissimilar","images/stimuli/spore_stims/complex_16_A_b.gif","","","","",""
"","null","html-keyboard-response","107","842136","0.0-25.0-0.3","SS1619740143704","","","null","","","","","","<p><img src= images/blank.png width =""600"" height = ""600"" style=""position:fixed;top:50%; left:50%; transform: translate(-50%, -50%); border:5px solid black"">","","","","","","","",""
"","7964.424999983748","sequential-stimulus-presentation-old","108","850627","0.0-25.0-1.3","SS1619740143704","trial","","40","500","8464.424999983748","images/stimuli/spore_stims/complex_14_A_a.gif","images/stimuli/spore_stims/complex_16_A_b.gif","forced_short","","8","complex_dissimilar","images/stimuli/spore_stims/complex_16_A_b.gif","","","","",""
"","null","html-keyboard-response","109","851549","0.0-25.0-0.4","SS1619740143704","","","null","","","","","","<p><img src= images/blank.png width =""600"" height = ""600"" style=""position:fixed;top:50%; left:50%; transform: translate(-50%, -50%); border:5px solid black"">","","","","","","","",""
"","6875.644999992801","sequential-stimulus-presentation-old","110","858939","0.0-25.0-1.4","SS1619740143704","trial","","40","500","7375.644999992801","images/stimuli/spore_stims/complex_14_A_a.gif","images/stimuli/spore_stims/complex_16_A_b.gif","forced_short","","8","complex_dissimilar","images/stimuli/spore_stims/complex_14_A_a.gif","","","","",""
"","9811.255000007804","survey-multi-choice","111","868763","0.0-26.0","SS1619740143704","math_question","","","","","","","","","","","","{""Q0"":""8""}","[0]","8","",""
"","null","html-keyboard-response","112","869847","0.0-27.0-0.0","SS1619740143704","","","null","","","","","","<p><img src= images/blank.png width =""600"" height = ""600"" style=""position:fixed;top:50%; left:50%; transform: translate(-50%, -50%); border:5px solid black"">","","","","","","","",""
"","5802.540000004228","sequential-stimulus-presentation-old","113","876179","0.0-27.0-1.0","SS1619740143704","trial","","40","500","6302.540000004228","images/stimuli/spore_stims/complex_08_A_a.gif","images/stimuli/spore_stims/complex_20_A_b.gif","self_paced","","9","complex_dissimilar","images/stimuli/spore_stims/complex_20_A_b.gif","","","","",""
"","null","html-keyboard-response","114","877419","0.0-27.0-0.1","SS1619740143704","","","null","","","","","","<p><img src= images/blank.png width =""600"" height = ""600"" style=""position:fixed;top:50%; left:50%; transform: translate(-50%, -50%); border:5px solid black"">","","","","","","","",""
"","3309.1199999907985","sequential-stimulus-presentation-old","115","881243","0.0-27.0-1.1","SS1619740143704","trial","","40","500","3809.1199999907985","images/stimuli/spore_stims/complex_08_A_a.gif","images/stimuli/spore_stims/complex_20_A_b.gif","self_paced","","9","complex_dissimilar","images/stimuli/spore_stims/complex_08_A_a.gif","","","","",""
"","null","html-keyboard-response","116","882560","0.0-27.0-0.2","SS1619740143704","","","null","","","","","","<p><img src= images/blank.png width =""600"" height = ""600"" style=""position:fixed;top:50%; left:50%; transform: translate(-50%, -50%); border:5px solid black"">","","","","","","","",""
"","423.5499999776948","sequential-stimulus-presentation-old","117","883499","0.0-27.0-1.2","SS1619740143704","trial","","40","500","923.5499999776948","images/stimuli/spore_stims/complex_08_A_a.gif","images/stimuli/spore_stims/complex_20_A_b.gif","self_paced","","9","complex_dissimilar","images/stimuli/spore_stims/complex_08_A_a.gif","","","","",""
"","null","html-keyboard-response","118","884720","0.0-27.0-0.3","SS1619740143704","","","null","","","","","","<p><img src= images/blank.png width =""600"" height = ""600"" style=""position:fixed;top:50%; left:50%; transform: translate(-50%, -50%); border:5px solid black"">","","","","","","","",""
"","1547.3900000215508","sequential-stimulus-presentation-old","119","886787","0.0-27.0-1.3","SS1619740143704","trial","","40","500","2047.3900000215508","images/stimuli/spore_stims/complex_08_A_a.gif","images/stimuli/spore_stims/complex_20_A_b.gif","self_paced","","9","complex_dissimilar","images/stimuli/spore_stims/complex_20_A_b.gif","","","","",""
"","7442.28999997722","survey-multi-choice","120","894243","0.0-28.0","SS1619740143704","math_question","","","","","","","","","","","","{""Q0"":""11""}","[0]","11","",""
"","null","html-keyboard-response","121","895116","0.0-29.0-0.0","SS1619740143704","","","null","","","","","","<p><img src= images/blank.png width =""600"" height = ""600"" style=""position:fixed;top:50%; left:50%; transform: translate(-50%, -50%); border:5px solid black"">","","","","","","","",""
"","752.7399999962654","sequential-stimulus-presentation-old","122","910883","0.0-29.0-1.0","SS1619740143704","trial","","40","500","1252.7399999962654","images/stimuli/spore_stims/complex_02_A_a.gif","images/stimuli/spore_stims/complex_01_A_b.gif","forced_long","","10","complex_dissimilar","images/stimuli/spore_stims/complex_01_A_b.gif","","","","",""
"","null","html-keyboard-response","123","911807","0.0-29.0-0.1","SS1619740143704","","","null","","","","","","<p><img src= images/blank.png width =""600"" height = ""600"" style=""position:fixed;top:50%; left:50%; transform: translate(-50%, -50%); border:5px solid black"">","","","","","","","",""
"","1558.7799999921117","sequential-stimulus-presentation-old","124","913882","0.0-29.0-1.1","SS1619740143704","trial","","40","500","2058.7799999921117","images/stimuli/spore_stims/complex_02_A_a.gif","images/stimuli/spore_stims/complex_01_A_b.gif","forced_long","","10","complex_dissimilar","images/stimuli/spore_stims/complex_01_A_b.gif","","","","",""
"","null","html-keyboard-response","125","914981","0.0-29.0-0.2","SS1619740143704","","","null","","","","","","<p><img src= images/blank.png width =""600"" height = ""600"" style=""position:fixed;top:50%; left:50%; transform: translate(-50%, -50%); border:5px solid black"">","","","","","","","",""
"","1849.3599999928847","sequential-stimulus-presentation-old","126","917346","0.0-29.0-1.2","SS1619740143704","trial","","40","500","2349.3599999928847","images/stimuli/spore_stims/complex_02_A_a.gif","images/stimuli/spore_stims/complex_01_A_b.gif","forced_long","","10","complex_dissimilar","images/stimuli/spore_stims/complex_01_A_b.gif","","","","",""
"","null","html-keyboard-response","127","918501","0.0-29.0-0.3","SS1619740143704","","","null","","","","","","<p><img src= images/blank.png width =""600"" height = ""600"" style=""position:fixed;top:50%; left:50%; transform: translate(-50%, -50%); border:5px solid black"">","","","","","","","",""
"","4897.385000018403","sequential-stimulus-presentation-old","128","923915","0.0-29.0-1.3","SS1619740143704","trial","","40","500","5397.385000018403","images/stimuli/spore_stims/complex_02_A_a.gif","images/stimuli/spore_stims/complex_01_A_b.gif","forced_long","","10","complex_dissimilar","images/stimuli/spore_stims/complex_01_A_b.gif","","","","",""
"","null","html-keyboard-response","129","925144","0.0-29.0-0.4","SS1619740143704","","","null","","","","","","<p><img src= images/blank.png width =""600"" height = ""600"" style=""position:fixed;top:50%; left:50%; transform: translate(-50%, -50%); border:5px solid black"">","","","","","","","",""
"","247.45500000426546","sequential-stimulus-presentation-old","130","925914","0.0-29.0-1.4","SS1619740143704","trial","","40","500","747.4550000042655","images/stimuli/spore_stims/complex_02_A_a.gif","images/stimuli/spore_stims/complex_01_A_b.gif","forced_long","","10","complex_dissimilar","images/stimuli/spore_stims/complex_01_A_b.gif","","","","",""
"","3050.295000022743","survey-multi-choice","131","928978","0.0-30.0","SS1619740143704","math_question","","","","","","","","","","","","{""Q0"":""11""}","[0]","11","",""
"","null","html-keyboard-response","132","930133","0.0-31.0-0.0","SS1619740143704","","","null","","","","","","<p><img src= images/blank.png width =""600"" height = ""600"" style=""position:fixed;top:50%; left:50%; transform: translate(-50%, -50%); border:5px solid black"">","","","","","","","",""
"","1027.2399999957997","sequential-stimulus-presentation-old","133","931690","0.0-31.0-1.0","SS1619740143704","trial","","40","500","1527.2399999957997","images/stimuli/spore_stims/simple_10_A_b.gif","images/stimuli/spore_stims/simple_15_A_a.gif","forced_short","","11","simple_dissimilar","images/stimuli/spore_stims/simple_15_A_a.gif","","","","",""
"","null","html-keyboard-response","134","932608","0.0-31.0-0.1","SS1619740143704","","","null","","","","","","<p><img src= images/blank.png width =""600"" height = ""600"" style=""position:fixed;top:50%; left:50%; transform: translate(-50%, -50%); border:5px solid black"">","","","","","","","",""
"","3979.2799999995623","sequential-stimulus-presentation-old","135","937114","0.0-31.0-1.1","SS1619740143704","trial","","40","500","4479.279999999562","images/stimuli/spore_stims/simple_10_A_b.gif","images/stimuli/spore_stims/simple_15_A_a.gif","forced_short","","11","simple_dissimilar","images/stimuli/spore_stims/simple_15_A_a.gif","","","","",""
"","null","html-keyboard-response","136","937976","0.0-31.0-0.2","SS1619740143704","","","null","","","","","","<p><img src= images/blank.png width =""600"" height = ""600"" style=""position:fixed;top:50%; left:50%; transform: translate(-50%, -50%); border:5px solid black"">","","","","","","","",""
"","1923.7650000141002","sequential-stimulus-presentation-old","137","940418","0.0-31.0-1.2","SS1619740143704","trial","","40","500","2423.7650000141","images/stimuli/spore_stims/simple_10_A_b.gif","images/stimuli/spore_stims/simple_15_A_a.gif","forced_short","","11","simple_dissimilar","images/stimuli/spore_stims/simple_15_A_a.gif","","","","",""
"","null","html-keyboard-response","138","941290","0.0-31.0-0.3","SS1619740143704","","","null","","","","","","<p><img src= images/blank.png width =""600"" height = ""600"" style=""position:fixed;top:50%; left:50%; transform: translate(-50%, -50%); border:5px solid black"">","","","","","","","",""
"","1313.6900000099558","sequential-stimulus-presentation-old","139","943122","0.0-31.0-1.3","SS1619740143704","trial","","40","500","1813.6900000099558","images/stimuli/spore_stims/simple_10_A_b.gif","images/stimuli/spore_stims/simple_15_A_a.gif","forced_short","","11","simple_dissimilar","images/stimuli/spore_stims/simple_15_A_a.gif","","","","",""
"","null","html-keyboard-response","140","944134","0.0-31.0-0.4","SS1619740143704","","","null","","","","","","<p><img src= images/blank.png width =""600"" height = ""600"" style=""position:fixed;top:50%; left:50%; transform: translate(-50%, -50%); border:5px solid black"">","","","","","","","",""
"","3046.6750000196043","sequential-stimulus-presentation-old","141","947698","0.0-31.0-1.4","SS1619740143704","trial","","40","500","3546.6750000196043","images/stimuli/spore_stims/simple_10_A_b.gif","images/stimuli/spore_stims/simple_15_A_a.gif","forced_short","","11","simple_dissimilar","images/stimuli/spore_stims/simple_15_A_a.gif","","","","",""
"","null","html-keyboard-response","142","948704","0.0-31.0-0.5","SS1619740143704","","","null","","","","","","<p><img src= images/blank.png width =""600"" height = ""600"" style=""position:fixed;top:50%; left:50%; transform: translate(-50%, -50%); border:5px solid black"">","","","","","","","",""
"","17388.544999994338","sequential-stimulus-presentation-old","143","966610","0.0-31.0-1.5","SS1619740143704","trial","","40","500","17888.544999994338","images/stimuli/spore_stims/simple_10_A_b.gif","images/stimuli/spore_stims/simple_15_A_a.gif","forced_short","","11","simple_dissimilar","images/stimuli/spore_stims/simple_15_A_a.gif","","","","",""
"[{""page_index"":0,""viewing_time"":447310.1949999982}]","447310.43499999214","instructions","144","1413935","0.0-32.0","SS1619740143704","instructions","","","","","","","","","","","","","","","",""
"","18061.4250000217","survey-likert","145","1432008","0.0-33.0","SS1619740143704","similarity_question","","","","","","","","","","","","{""Q0"":4}","[0]","","images/stimuli/spore_stims/simple_13_A_a.gif","images/stimuli/spore_stims/simple_09_A_b.gif"
"","9758.785000012722","survey-likert","146","1441776","0.0-34.0","SS1619740143704","similarity_question","","","","","","","","","","","","{""Q0"":0}","[0]","","images/stimuli/spore_stims/simple_04_A_b.gif","images/stimuli/spore_stims/simple_19_A_a.gif"
"","18527.18000000459","survey-likert","147","1460311","0.0-35.0","SS1619740143704","similarity_question","","","","","","","","","","","","{""Q0"":5}","[0]","","images/stimuli/spore_stims/complex_20_A_b.gif","images/stimuli/spore_stims/complex_08_A_a.gif"
"","13695.219999994151","survey-likert","148","1474015","0.0-36.0","SS1619740143704","similarity_question","","","","","","","","","","","","{""Q0"":4}","[0]","","images/stimuli/spore_stims/complex_16_A_b.gif","images/stimuli/spore_stims/complex_14_A_a.gif"
"","21287.21000000951","survey-likert","149","1495311","0.0-37.0","SS1619740143704","similarity_question","","","","","","","","","","","","{""Q0"":4}","[0]","","images/stimuli/spore_stims/complex_02_A_a.gif","images/stimuli/spore_stims/complex_01_A_b.gif"
"","6399.345000012545","survey-likert","150","1501719","0.0-38.0","SS1619740143704","similarity_question","","","","","","","","","","","","{""Q0"":0}","[0]","","images/stimuli/spore_stims/simple_10_A_b.gif","images/stimuli/spore_stims/simple_15_A_a.gif"
"","6178.299999999581","survey-likert","151","1507910","0.0-39.0","SS1619740143704","similarity_question","","","","","","","","","","","","{""Q0"":0}","[0]","","images/stimuli/spore_stims/complex_15_A_b.gif","images/stimuli/spore_stims/complex_11_A_a.gif"
"","4198.9250000042375","survey-likert","152","1512118","0.0-40.0","SS1619740143704","similarity_question","","","","","","","","","","","","{""Q0"":0}","[0]","","images/stimuli/spore_stims/simple_15_A_b.gif","images/stimuli/spore_stims/simple_14_A_a.gif"
"","6701.05999999214","survey-likert","153","1518830","0.0-41.0","SS1619740143704","similarity_question","","","","","","","","","","","","{""Q0"":0}","[0]","","images/stimuli/spore_stims/complex_05_A_b.gif","images/stimuli/spore_stims/complex_03_A_a.gif"
"","8815.815000009025","survey-likert","154","1527654","0.0-42.0","SS1619740143704","similarity_question","","","","","","","","","","","","{""Q0"":2}","[0]","","images/stimuli/spore_stims/complex_13_A_a.gif","images/stimuli/spore_stims/complex_18_A_b.gif"
"","7014.965000009397","survey-likert","155","1534678","0.0-43.0","SS1619740143704","similarity_question","","","","","","","","","","","","{""Q0"":2}","[0]","","images/stimuli/spore_stims/simple_02_A_b.gif","images/stimuli/spore_stims/simple_01_A_a.gif"
"","3062.900000018999","survey-likert","156","1537750","0.0-44.0","SS1619740143704","similarity_question","","","","","","","","","","","","{""Q0"":0}","[0]","","images/stimuli/spore_stims/simple_16_A_b.gif","images/stimuli/spore_stims/simple_18_A_a.gif"
"[{""page_index"":0,""viewing_time"":9454.945000004955}]","9455.2150000236","instructions","157","1547213","0.0-45.0","SS1619740143704","instructions","","","","","","","","","","","","","","","",""
"","5311.359999992419","survey-likert","158","1552533","0.0-46.0","SS1619740143704","","","","","","","","","images/stimuli/spore_stims/simple_15_A_b.gif","","","","{""Q0"":0}","[0]","","",""
"","3245.870000013383","survey-likert","159","1555789","0.0-47.0","SS1619740143704","","","","","","","","","images/stimuli/spore_stims/simple_02_A_b.gif","","","","{""Q0"":0}","[0]","","",""
"","1991.0649999801535","survey-likert","160","1557789","0.0-48.0","SS1619740143704","","","","","","","","","images/stimuli/spore_stims/simple_15_A_a.gif","","","","{""Q0"":0}","[0]","","",""
"","7446.915000007721","survey-likert","161","1565245","0.0-49.0","SS1619740143704","","","","","","","","","images/stimuli/spore_stims/complex_15_A_b.gif","","","","{""Q0"":5}","[0]","","",""
"","2678.72999998508","survey-likert","162","1567933","0.0-50.0","SS1619740143704","","","","","","","","","images/stimuli/spore_stims/simple_18_A_a.gif","","","","{""Q0"":1}","[0]","","",""
"","5814.584999985527","survey-likert","163","1573757","0.0-51.0","SS1619740143704","","","","","","","","","images/stimuli/spore_stims/complex_14_A_a.gif","","","","{""Q0"":5}","[0]","","",""
"","2343.2550000143237","survey-likert","164","1576109","0.0-52.0","SS1619740143704","","","","","","","","","images/stimuli/spore_stims/complex_13_A_a.gif","","","","{""Q0"":6}","[0]","","",""
"","3846.900000004098","survey-likert","165","1579965","0.0-53.0","SS1619740143704","","","","","","","","","images/stimuli/spore_stims/complex_20_A_b.gif","","","","{""Q0"":6}","[0]","","",""
"","2782.890000002226","survey-likert","166","1582757","0.0-54.0","SS1619740143704","","","","","","","","","images/stimuli/spore_stims/simple_09_A_b.gif","","","","{""Q0"":0}","[0]","","",""
"","4702.450000011595","survey-likert","167","1587469","0.0-55.0","SS1619740143704","","","","","","","","","images/stimuli/spore_stims/complex_01_A_b.gif","","","","{""Q0"":4}","[0]","","",""
"","6926.53500000597","survey-likert","168","1594405","0.0-56.0","SS1619740143704","","","","","","","","","images/stimuli/spore_stims/complex_03_A_a.gif","","","","{""Q0"":4}","[0]","","",""
"","4246.664999984205","survey-likert","169","1598661","0.0-57.0","SS1619740143704","","","","","","","","","images/stimuli/spore_stims/simple_04_A_b.gif","","","","{""Q0"":0}","[0]","","",""
"[{""page_index"":0,""viewing_time"":4214.715000009164}]","4214.945000014268","instructions","170","1602885","0.0-58.0","SS1619740143704","instructions","","","","","","","","","","","","","","","",""
"","3869.8250000015832","demog-age","171","1606765","0.0-59.0","SS1619740143704","","","","","","","","","","","","","{""age"":""32""}","","","",""
"","4373.005000001285","demog-ethnic-US","172","1611149","0.0-60.0","SS1619740143704","","","","","","","","","","","","","{""ethnicity"":[""Hispanic or Latino""]}","[0]","","",""
"","12189.220000000205","demog-gender-and-education","173","1623349","0.0-61.0","SS1619740143704","","","","","","","","","","","","","{""gender"":""Male"",""education"":""Bachelor's Degree""}","[0,1]","","",""
"","14557.2449999745","survey-text","174","1637917","0.0-62.0","SS1619740143704","feedback","","","","","","","","","","","","{""Q0"":""Any problem""}","","","",""
"[{""page_index"":0,""viewing_time"":3070.6049999862444}]","3070.864999986952","instructions","175","1640996","0.0-63.0","SS1619740143704","instructions","","","","","","","","","","","","","","","",""
