"view_history","rt","trial_type","trial_index","time_elapsed","internal_node_id","subject","stimulus_type","trial_stimulus","key_press","minimum_viewing_duration","trial_looking_time","block_deviant","block_background","exposure_type","stimulus","block_number","block_type","stimulus_displayed","responses","question_order","math_correct_answer","stimulus_left","stimulus_right"
"[{""page_index"":0,""viewing_time"":13788}]","13788","instructions","0","13789","0.0-0.0","SS1619739584196","","","","","","","","","","","","","","","","",""
"[{""page_index"":0,""viewing_time"":19581},{""page_index"":1,""viewing_time"":8352}]","27933","instructions","1","43729","0.0-1.0","SS1619739584196","instructions","","","","","","","","","","","","","","","",""
"","11795","sequential-stimulus-presentation-old","2","56028","0.0-2.0","SS1619739584196","","","40","500","12295","null","null","self_paced","","","","","","","","",""
"","8654","sequential-stimulus-presentation-old","3","65186","0.0-3.0","SS1619739584196","","","40","500","9154","null","null","self_paced","","","","","","","","",""
"[{""page_index"":0,""viewing_time"":25531}]","25531","instructions","4","90719","0.0-4.0","SS1619739584196","instructions","","","","","","","","","","","","","","","",""
"","1792","sequential-stimulus-presentation-old","5","107527","0.0-5.0","SS1619739584196","","","40","500","2292","null","null","forced_long","","","","","","","","",""
"","2932","sequential-stimulus-presentation-old","6","110971","0.0-6.0","SS1619739584196","","","40","500","3432","null","null","forced_long","","","","","","","","",""
"[{""page_index"":0,""viewing_time"":4799}]","4799","instructions","7","115770","0.0-7.0","SS1619739584196","instructions","","","","","","","","","","","","","","","",""
"[{""page_index"":0,""viewing_time"":13244},{""page_index"":1,""viewing_time"":10530},{""page_index"":2,""viewing_time"":43},{""page_index"":3,""viewing_time"":905},{""page_index"":2,""viewing_time"":5457},{""page_index"":3,""viewing_time"":1613},{""page_index"":4,""viewing_time"":1106}]","32898","instructions","8","148669","0.0-8.0","SS1619739584196","instructions","","","","","","","","","","","","","","","",""
"","null","html-keyboard-response","9","149623","0.0-9.0-0.0","SS1619739584196","","","null","","","","","","<p><img src= images/blank.png width =""600"" height = ""600"" style=""position:fixed;top:50%; left:50%; transform: translate(-50%, -50%); border:5px solid black"">","","","","","","","",""
"","6695","sequential-stimulus-presentation-old","10","156826","0.0-9.0-1.0","SS1619739584196","trial","","40","500","7195","images/stimuli/spore_stims/simple_03_A_a.gif","images/stimuli/spore_stims/simple_04_A_b.gif","self_paced","","0","simple_dissimilar","images/stimuli/spore_stims/simple_04_A_b.gif","","","","",""
"","null","html-keyboard-response","11","157722","0.0-9.0-0.1","SS1619739584196","","","null","","","","","","<p><img src= images/blank.png width =""600"" height = ""600"" style=""position:fixed;top:50%; left:50%; transform: translate(-50%, -50%); border:5px solid black"">","","","","","","","",""
"","8321","sequential-stimulus-presentation-old","12","166547","0.0-9.0-1.1","SS1619739584196","trial","","40","500","8821","images/stimuli/spore_stims/simple_03_A_a.gif","images/stimuli/spore_stims/simple_04_A_b.gif","self_paced","","0","simple_dissimilar","images/stimuli/spore_stims/simple_04_A_b.gif","","","","",""
"","null","html-keyboard-response","13","167477","0.0-9.0-0.2","SS1619739584196","","","null","","","","","","<p><img src= images/blank.png width =""600"" height = ""600"" style=""position:fixed;top:50%; left:50%; transform: translate(-50%, -50%); border:5px solid black"">","","","","","","","",""
"","7707","sequential-stimulus-presentation-old","14","175689","0.0-9.0-1.2","SS1619739584196","trial","","40","500","8207","images/stimuli/spore_stims/simple_03_A_a.gif","images/stimuli/spore_stims/simple_04_A_b.gif","self_paced","","0","simple_dissimilar","images/stimuli/spore_stims/simple_04_A_b.gif","","","","",""
"","null","html-keyboard-response","15","176766","0.0-9.0-0.3","SS1619739584196","","","null","","","","","","<p><img src= images/blank.png width =""600"" height = ""600"" style=""position:fixed;top:50%; left:50%; transform: translate(-50%, -50%); border:5px solid black"">","","","","","","","",""
"","7964","sequential-stimulus-presentation-old","16","185232","0.0-9.0-1.3","SS1619739584196","trial","","40","500","8464","images/stimuli/spore_stims/simple_03_A_a.gif","images/stimuli/spore_stims/simple_04_A_b.gif","self_paced","","0","simple_dissimilar","images/stimuli/spore_stims/simple_03_A_a.gif","","","","",""
"","6234","survey-multi-choice","17","191470","0.0-10.0","SS1619739584196","math_question","","","","","","","","","","","","{""Q0"":""17""}","[0]","17","",""
"","null","html-keyboard-response","18","192574","0.0-11.0-0.0","SS1619739584196","","","null","","","","","","<p><img src= images/blank.png width =""600"" height = ""600"" style=""position:fixed;top:50%; left:50%; transform: translate(-50%, -50%); border:5px solid black"">","","","","","","","",""
"","6900","sequential-stimulus-presentation-old","19","199978","0.0-11.0-1.0","SS1619739584196","trial","","40","500","7400","images/stimuli/spore_stims/complex_16_A_a.gif","images/stimuli/spore_stims/complex_13_A_b.gif","self_paced","","1","complex_dissimilar","images/stimuli/spore_stims/complex_13_A_b.gif","","","","",""
"","null","html-keyboard-response","20","201057","0.0-11.0-0.1","SS1619739584196","","","null","","","","","","<p><img src= images/blank.png width =""600"" height = ""600"" style=""position:fixed;top:50%; left:50%; transform: translate(-50%, -50%); border:5px solid black"">","","","","","","","",""
"","6255","sequential-stimulus-presentation-old","21","207827","0.0-11.0-1.1","SS1619739584196","trial","","40","500","6755","images/stimuli/spore_stims/complex_16_A_a.gif","images/stimuli/spore_stims/complex_13_A_b.gif","self_paced","","1","complex_dissimilar","images/stimuli/spore_stims/complex_13_A_b.gif","","","","",""
"","null","html-keyboard-response","22","209107","0.0-11.0-0.2","SS1619739584196","","","null","","","","","","<p><img src= images/blank.png width =""600"" height = ""600"" style=""position:fixed;top:50%; left:50%; transform: translate(-50%, -50%); border:5px solid black"">","","","","","","","",""
"","14176","sequential-stimulus-presentation-old","23","223788","0.0-11.0-1.2","SS1619739584196","trial","","40","500","14676","images/stimuli/spore_stims/complex_16_A_a.gif","images/stimuli/spore_stims/complex_13_A_b.gif","self_paced","","1","complex_dissimilar","images/stimuli/spore_stims/complex_13_A_b.gif","","","","",""
"","null","html-keyboard-response","24","224725","0.0-11.0-0.3","SS1619739584196","","","null","","","","","","<p><img src= images/blank.png width =""600"" height = ""600"" style=""position:fixed;top:50%; left:50%; transform: translate(-50%, -50%); border:5px solid black"">","","","","","","","",""
"","6180","sequential-stimulus-presentation-old","25","231408","0.0-11.0-1.3","SS1619739584196","trial","","40","500","6680","images/stimuli/spore_stims/complex_16_A_a.gif","images/stimuli/spore_stims/complex_13_A_b.gif","self_paced","","1","complex_dissimilar","images/stimuli/spore_stims/complex_13_A_b.gif","","","","",""
"","null","html-keyboard-response","26","232472","0.0-11.0-0.4","SS1619739584196","","","null","","","","","","<p><img src= images/blank.png width =""600"" height = ""600"" style=""position:fixed;top:50%; left:50%; transform: translate(-50%, -50%); border:5px solid black"">","","","","","","","",""
"","7167","sequential-stimulus-presentation-old","27","240145","0.0-11.0-1.4","SS1619739584196","trial","","40","500","7667","images/stimuli/spore_stims/complex_16_A_a.gif","images/stimuli/spore_stims/complex_13_A_b.gif","self_paced","","1","complex_dissimilar","images/stimuli/spore_stims/complex_13_A_b.gif","","","","",""
"","3276","survey-multi-choice","28","243423","0.0-12.0","SS1619739584196","math_question","","","","","","","","","","","","{""Q0"":""6""}","[0]","6","",""
"","null","html-keyboard-response","29","244556","0.0-13.0-0.0","SS1619739584196","","","null","","","","","","<p><img src= images/blank.png width =""600"" height = ""600"" style=""position:fixed;top:50%; left:50%; transform: translate(-50%, -50%); border:5px solid black"">","","","","","","","",""
"","1847","sequential-stimulus-presentation-old","30","246917","0.0-13.0-1.0","SS1619739584196","trial","","40","500","2347","images/stimuli/spore_stims/simple_13_A_b.gif","images/stimuli/spore_stims/simple_18_A_a.gif","forced_short","","2","simple_dissimilar","images/stimuli/spore_stims/simple_18_A_a.gif","","","","",""
"","null","html-keyboard-response","31","247948","0.0-13.0-0.1","SS1619739584196","","","null","","","","","","<p><img src= images/blank.png width =""600"" height = ""600"" style=""position:fixed;top:50%; left:50%; transform: translate(-50%, -50%); border:5px solid black"">","","","","","","","",""
"","6647","sequential-stimulus-presentation-old","32","255101","0.0-13.0-1.1","SS1619739584196","trial","","40","500","7147","images/stimuli/spore_stims/simple_13_A_b.gif","images/stimuli/spore_stims/simple_18_A_a.gif","forced_short","","2","simple_dissimilar","images/stimuli/spore_stims/simple_18_A_a.gif","","","","",""
"","null","html-keyboard-response","33","256237","0.0-13.0-0.2","SS1619739584196","","","null","","","","","","<p><img src= images/blank.png width =""600"" height = ""600"" style=""position:fixed;top:50%; left:50%; transform: translate(-50%, -50%); border:5px solid black"">","","","","","","","",""
"","5377","sequential-stimulus-presentation-old","34","262131","0.0-13.0-1.2","SS1619739584196","trial","","40","500","5877","images/stimuli/spore_stims/simple_13_A_b.gif","images/stimuli/spore_stims/simple_18_A_a.gif","forced_short","","2","simple_dissimilar","images/stimuli/spore_stims/simple_18_A_a.gif","","","","",""
"","null","html-keyboard-response","35","262987","0.0-13.0-0.3","SS1619739584196","","","null","","","","","","<p><img src= images/blank.png width =""600"" height = ""600"" style=""position:fixed;top:50%; left:50%; transform: translate(-50%, -50%); border:5px solid black"">","","","","","","","",""
"","4459","sequential-stimulus-presentation-old","36","267952","0.0-13.0-1.3","SS1619739584196","trial","","40","500","4959","images/stimuli/spore_stims/simple_13_A_b.gif","images/stimuli/spore_stims/simple_18_A_a.gif","forced_short","","2","simple_dissimilar","images/stimuli/spore_stims/simple_18_A_a.gif","","","","",""
"","2908","survey-multi-choice","37","270863","0.0-14.0","SS1619739584196","math_question","","","","","","","","","","","","{""Q0"":""7""}","[0]","7","",""
"","null","html-keyboard-response","38","271884","0.0-15.0-0.0","SS1619739584196","","","null","","","","","","<p><img src= images/blank.png width =""600"" height = ""600"" style=""position:fixed;top:50%; left:50%; transform: translate(-50%, -50%); border:5px solid black"">","","","","","","","",""
"","6762","sequential-stimulus-presentation-old","39","279149","0.0-15.0-1.0","SS1619739584196","trial","","40","500","7262","images/stimuli/spore_stims/complex_04_A_b.gif","images/stimuli/spore_stims/complex_05_A_a.gif","self_paced","","3","complex_dissimilar","images/stimuli/spore_stims/complex_05_A_a.gif","","","","",""
"","null","html-keyboard-response","40","280371","0.0-15.0-0.1","SS1619739584196","","","null","","","","","","<p><img src= images/blank.png width =""600"" height = ""600"" style=""position:fixed;top:50%; left:50%; transform: translate(-50%, -50%); border:5px solid black"">","","","","","","","",""
"","5138","sequential-stimulus-presentation-old","41","286015","0.0-15.0-1.1","SS1619739584196","trial","","40","500","5638","images/stimuli/spore_stims/complex_04_A_b.gif","images/stimuli/spore_stims/complex_05_A_a.gif","self_paced","","3","complex_dissimilar","images/stimuli/spore_stims/complex_05_A_a.gif","","","","",""
"","null","html-keyboard-response","42","287303","0.0-15.0-0.2","SS1619739584196","","","null","","","","","","<p><img src= images/blank.png width =""600"" height = ""600"" style=""position:fixed;top:50%; left:50%; transform: translate(-50%, -50%); border:5px solid black"">","","","","","","","",""
"","8279","sequential-stimulus-presentation-old","43","296088","0.0-15.0-1.2","SS1619739584196","trial","","40","500","8779","images/stimuli/spore_stims/complex_04_A_b.gif","images/stimuli/spore_stims/complex_05_A_a.gif","self_paced","","3","complex_dissimilar","images/stimuli/spore_stims/complex_04_A_b.gif","","","","",""
"","null","html-keyboard-response","44","297017","0.0-15.0-0.3","SS1619739584196","","","null","","","","","","<p><img src= images/blank.png width =""600"" height = ""600"" style=""position:fixed;top:50%; left:50%; transform: translate(-50%, -50%); border:5px solid black"">","","","","","","","",""
"","6309","sequential-stimulus-presentation-old","45","303831","0.0-15.0-1.3","SS1619739584196","trial","","40","500","6809","images/stimuli/spore_stims/complex_04_A_b.gif","images/stimuli/spore_stims/complex_05_A_a.gif","self_paced","","3","complex_dissimilar","images/stimuli/spore_stims/complex_05_A_a.gif","","","","",""
"","null","html-keyboard-response","46","305043","0.0-15.0-0.4","SS1619739584196","","","null","","","","","","<p><img src= images/blank.png width =""600"" height = ""600"" style=""position:fixed;top:50%; left:50%; transform: translate(-50%, -50%); border:5px solid black"">","","","","","","","",""
"","3583","sequential-stimulus-presentation-old","47","309131","0.0-15.0-1.4","SS1619739584196","trial","","40","500","4083","images/stimuli/spore_stims/complex_04_A_b.gif","images/stimuli/spore_stims/complex_05_A_a.gif","self_paced","","3","complex_dissimilar","images/stimuli/spore_stims/complex_05_A_a.gif","","","","",""
"","null","html-keyboard-response","48","310364","0.0-15.0-0.5","SS1619739584196","","","null","","","","","","<p><img src= images/blank.png width =""600"" height = ""600"" style=""position:fixed;top:50%; left:50%; transform: translate(-50%, -50%); border:5px solid black"">","","","","","","","",""
"","5657","sequential-stimulus-presentation-old","49","316527","0.0-15.0-1.5","SS1619739584196","trial","","40","500","6157","images/stimuli/spore_stims/complex_04_A_b.gif","images/stimuli/spore_stims/complex_05_A_a.gif","self_paced","","3","complex_dissimilar","images/stimuli/spore_stims/complex_04_A_b.gif","","","","",""
"","4463","survey-multi-choice","50","320992","0.0-16.0","SS1619739584196","math_question","","","","","","","","","","","","{""Q0"":""13""}","[0]","13","",""
"","null","html-keyboard-response","51","321986","0.0-17.0-0.0","SS1619739584196","","","null","","","","","","<p><img src= images/blank.png width =""600"" height = ""600"" style=""position:fixed;top:50%; left:50%; transform: translate(-50%, -50%); border:5px solid black"">","","","","","","","",""
"","1332","sequential-stimulus-presentation-old","52","323821","0.0-17.0-1.0","SS1619739584196","trial","","40","500","1832","images/stimuli/spore_stims/complex_10_A_b.gif","images/stimuli/spore_stims/complex_20_A_a.gif","forced_short","","4","complex_dissimilar","images/stimuli/spore_stims/complex_20_A_a.gif","","","","",""
"","null","html-keyboard-response","53","325125","0.0-17.0-0.1","SS1619739584196","","","null","","","","","","<p><img src= images/blank.png width =""600"" height = ""600"" style=""position:fixed;top:50%; left:50%; transform: translate(-50%, -50%); border:5px solid black"">","","","","","","","",""
"","5889","sequential-stimulus-presentation-old","54","331518","0.0-17.0-1.1","SS1619739584196","trial","","40","500","6389","images/stimuli/spore_stims/complex_10_A_b.gif","images/stimuli/spore_stims/complex_20_A_a.gif","forced_short","","4","complex_dissimilar","images/stimuli/spore_stims/complex_20_A_a.gif","","","","",""
"","null","html-keyboard-response","55","332630","0.0-17.0-0.2","SS1619739584196","","","null","","","","","","<p><img src= images/blank.png width =""600"" height = ""600"" style=""position:fixed;top:50%; left:50%; transform: translate(-50%, -50%); border:5px solid black"">","","","","","","","",""
"","8967","sequential-stimulus-presentation-old","56","342104","0.0-17.0-1.2","SS1619739584196","trial","","40","500","9467","images/stimuli/spore_stims/complex_10_A_b.gif","images/stimuli/spore_stims/complex_20_A_a.gif","forced_short","","4","complex_dissimilar","images/stimuli/spore_stims/complex_10_A_b.gif","","","","",""
"","null","html-keyboard-response","57","343183","0.0-17.0-0.3","SS1619739584196","","","null","","","","","","<p><img src= images/blank.png width =""600"" height = ""600"" style=""position:fixed;top:50%; left:50%; transform: translate(-50%, -50%); border:5px solid black"">","","","","","","","",""
"","4667","sequential-stimulus-presentation-old","58","348355","0.0-17.0-1.3","SS1619739584196","trial","","40","500","5167","images/stimuli/spore_stims/complex_10_A_b.gif","images/stimuli/spore_stims/complex_20_A_a.gif","forced_short","","4","complex_dissimilar","images/stimuli/spore_stims/complex_20_A_a.gif","","","","",""
"","null","html-keyboard-response","59","349212","0.0-17.0-0.4","SS1619739584196","","","null","","","","","","<p><img src= images/blank.png width =""600"" height = ""600"" style=""position:fixed;top:50%; left:50%; transform: translate(-50%, -50%); border:5px solid black"">","","","","","","","",""
"","1549","sequential-stimulus-presentation-old","60","351263","0.0-17.0-1.4","SS1619739584196","trial","","40","500","2049","images/stimuli/spore_stims/complex_10_A_b.gif","images/stimuli/spore_stims/complex_20_A_a.gif","forced_short","","4","complex_dissimilar","images/stimuli/spore_stims/complex_20_A_a.gif","","","","",""
"","null","html-keyboard-response","61","352515","0.0-17.0-0.5","SS1619739584196","","","null","","","","","","<p><img src= images/blank.png width =""600"" height = ""600"" style=""position:fixed;top:50%; left:50%; transform: translate(-50%, -50%); border:5px solid black"">","","","","","","","",""
"","3183","sequential-stimulus-presentation-old","62","356204","0.0-17.0-1.5","SS1619739584196","trial","","40","500","3683","images/stimuli/spore_stims/complex_10_A_b.gif","images/stimuli/spore_stims/complex_20_A_a.gif","forced_short","","4","complex_dissimilar","images/stimuli/spore_stims/complex_20_A_a.gif","","","","",""
"","2844","survey-multi-choice","63","359049","0.0-18.0","SS1619739584196","math_question","","","","","","","","","","","","{""Q0"":""6""}","[0]","6","",""
"","null","html-keyboard-response","64","360282","0.0-19.0-0.0","SS1619739584196","","","null","","","","","","<p><img src= images/blank.png width =""600"" height = ""600"" style=""position:fixed;top:50%; left:50%; transform: translate(-50%, -50%); border:5px solid black"">","","","","","","","",""
"","749","sequential-stimulus-presentation-old","65","376046","0.0-19.0-1.0","SS1619739584196","trial","","40","500","1249","images/stimuli/spore_stims/complex_06_A_a.gif","images/stimuli/spore_stims/complex_19_A_b.gif","forced_long","","5","complex_dissimilar","images/stimuli/spore_stims/complex_19_A_b.gif","","","","",""
"","null","html-keyboard-response","66","377196","0.0-19.0-0.1","SS1619739584196","","","null","","","","","","<p><img src= images/blank.png width =""600"" height = ""600"" style=""position:fixed;top:50%; left:50%; transform: translate(-50%, -50%); border:5px solid black"">","","","","","","","",""
"","1936","sequential-stimulus-presentation-old","67","379651","0.0-19.0-1.1","SS1619739584196","trial","","40","500","2436","images/stimuli/spore_stims/complex_06_A_a.gif","images/stimuli/spore_stims/complex_19_A_b.gif","forced_long","","5","complex_dissimilar","images/stimuli/spore_stims/complex_19_A_b.gif","","","","",""
"","null","html-keyboard-response","68","380480","0.0-19.0-0.2","SS1619739584196","","","null","","","","","","<p><img src= images/blank.png width =""600"" height = ""600"" style=""position:fixed;top:50%; left:50%; transform: translate(-50%, -50%); border:5px solid black"">","","","","","","","",""
"","5526","sequential-stimulus-presentation-old","69","386509","0.0-19.0-1.2","SS1619739584196","trial","","40","500","6026","images/stimuli/spore_stims/complex_06_A_a.gif","images/stimuli/spore_stims/complex_19_A_b.gif","forced_long","","5","complex_dissimilar","images/stimuli/spore_stims/complex_19_A_b.gif","","","","",""
"","null","html-keyboard-response","70","387583","0.0-19.0-0.3","SS1619739584196","","","null","","","","","","<p><img src= images/blank.png width =""600"" height = ""600"" style=""position:fixed;top:50%; left:50%; transform: translate(-50%, -50%); border:5px solid black"">","","","","","","","",""
"","6532","sequential-stimulus-presentation-old","71","394621","0.0-19.0-1.3","SS1619739584196","trial","","40","500","7032","images/stimuli/spore_stims/complex_06_A_a.gif","images/stimuli/spore_stims/complex_19_A_b.gif","forced_long","","5","complex_dissimilar","images/stimuli/spore_stims/complex_06_A_a.gif","","","","",""
"","2980","survey-multi-choice","72","397602","0.0-20.0","SS1619739584196","math_question","","","","","","","","","","","","{""Q0"":""6""}","[0]","6","",""
"","null","html-keyboard-response","73","398641","0.0-21.0-0.0","SS1619739584196","","","null","","","","","","<p><img src= images/blank.png width =""600"" height = ""600"" style=""position:fixed;top:50%; left:50%; transform: translate(-50%, -50%); border:5px solid black"">","","","","","","","",""
"","2587","sequential-stimulus-presentation-old","74","416243","0.0-21.0-1.0","SS1619739584196","trial","","40","500","3087","images/stimuli/spore_stims/simple_20_A_a.gif","images/stimuli/spore_stims/simple_09_A_b.gif","forced_long","","6","simple_dissimilar","images/stimuli/spore_stims/simple_09_A_b.gif","","","","",""
"","null","html-keyboard-response","75","417065","0.0-21.0-0.1","SS1619739584196","","","null","","","","","","<p><img src= images/blank.png width =""600"" height = ""600"" style=""position:fixed;top:50%; left:50%; transform: translate(-50%, -50%); border:5px solid black"">","","","","","","","",""
"","11908","sequential-stimulus-presentation-old","76","429481","0.0-21.0-1.1","SS1619739584196","trial","","40","500","12408","images/stimuli/spore_stims/simple_20_A_a.gif","images/stimuli/spore_stims/simple_09_A_b.gif","forced_long","","6","simple_dissimilar","images/stimuli/spore_stims/simple_09_A_b.gif","","","","",""
"","null","html-keyboard-response","77","430516","0.0-21.0-0.2","SS1619739584196","","","null","","","","","","<p><img src= images/blank.png width =""600"" height = ""600"" style=""position:fixed;top:50%; left:50%; transform: translate(-50%, -50%); border:5px solid black"">","","","","","","","",""
"","16768","sequential-stimulus-presentation-old","78","447791","0.0-21.0-1.2","SS1619739584196","trial","","40","500","17268","images/stimuli/spore_stims/simple_20_A_a.gif","images/stimuli/spore_stims/simple_09_A_b.gif","forced_long","","6","simple_dissimilar","images/stimuli/spore_stims/simple_09_A_b.gif","","","","",""
"","null","html-keyboard-response","79","448619","0.0-21.0-0.3","SS1619739584196","","","null","","","","","","<p><img src= images/blank.png width =""600"" height = ""600"" style=""position:fixed;top:50%; left:50%; transform: translate(-50%, -50%); border:5px solid black"">","","","","","","","",""
"","20395","sequential-stimulus-presentation-old","80","469532","0.0-21.0-1.3","SS1619739584196","trial","","40","500","20895","images/stimuli/spore_stims/simple_20_A_a.gif","images/stimuli/spore_stims/simple_09_A_b.gif","forced_long","","6","simple_dissimilar","images/stimuli/spore_stims/simple_20_A_a.gif","","","","",""
"","null","html-keyboard-response","81","470726","0.0-21.0-0.4","SS1619739584196","","","null","","","","","","<p><img src= images/blank.png width =""600"" height = ""600"" style=""position:fixed;top:50%; left:50%; transform: translate(-50%, -50%); border:5px solid black"">","","","","","","","",""
"","10188","sequential-stimulus-presentation-old","82","481419","0.0-21.0-1.4","SS1619739584196","trial","","40","500","10688","images/stimuli/spore_stims/simple_20_A_a.gif","images/stimuli/spore_stims/simple_09_A_b.gif","forced_long","","6","simple_dissimilar","images/stimuli/spore_stims/simple_09_A_b.gif","","","","",""
"","2829","survey-multi-choice","83","484250","0.0-22.0","SS1619739584196","math_question","","","","","","","","","","","","{""Q0"":""14""}","[0]","14","",""
"","null","html-keyboard-response","84","485192","0.0-23.0-0.0","SS1619739584196","","","null","","","","","","<p><img src= images/blank.png width =""600"" height = ""600"" style=""position:fixed;top:50%; left:50%; transform: translate(-50%, -50%); border:5px solid black"">","","","","","","","",""
"","5873","sequential-stimulus-presentation-old","85","491572","0.0-23.0-1.0","SS1619739584196","trial","","40","500","6373","images/stimuli/spore_stims/simple_07_A_a.gif","images/stimuli/spore_stims/simple_08_A_b.gif","self_paced","","7","simple_dissimilar","images/stimuli/spore_stims/simple_08_A_b.gif","","","","",""
"","null","html-keyboard-response","86","492796","0.0-23.0-0.1","SS1619739584196","","","null","","","","","","<p><img src= images/blank.png width =""600"" height = ""600"" style=""position:fixed;top:50%; left:50%; transform: translate(-50%, -50%); border:5px solid black"">","","","","","","","",""
"","4631","sequential-stimulus-presentation-old","87","497937","0.0-23.0-1.1","SS1619739584196","trial","","40","500","5131","images/stimuli/spore_stims/simple_07_A_a.gif","images/stimuli/spore_stims/simple_08_A_b.gif","self_paced","","7","simple_dissimilar","images/stimuli/spore_stims/simple_08_A_b.gif","","","","",""
"","null","html-keyboard-response","88","498842","0.0-23.0-0.2","SS1619739584196","","","null","","","","","","<p><img src= images/blank.png width =""600"" height = ""600"" style=""position:fixed;top:50%; left:50%; transform: translate(-50%, -50%); border:5px solid black"">","","","","","","","",""
"","5722","sequential-stimulus-presentation-old","89","505067","0.0-23.0-1.2","SS1619739584196","trial","","40","500","6222","images/stimuli/spore_stims/simple_07_A_a.gif","images/stimuli/spore_stims/simple_08_A_b.gif","self_paced","","7","simple_dissimilar","images/stimuli/spore_stims/simple_08_A_b.gif","","","","",""
"","null","html-keyboard-response","90","506131","0.0-23.0-0.3","SS1619739584196","","","null","","","","","","<p><img src= images/blank.png width =""600"" height = ""600"" style=""position:fixed;top:50%; left:50%; transform: translate(-50%, -50%); border:5px solid black"">","","","","","","","",""
"","2541","sequential-stimulus-presentation-old","91","509183","0.0-23.0-1.3","SS1619739584196","trial","","40","500","3041","images/stimuli/spore_stims/simple_07_A_a.gif","images/stimuli/spore_stims/simple_08_A_b.gif","self_paced","","7","simple_dissimilar","images/stimuli/spore_stims/simple_08_A_b.gif","","","","",""
"","null","html-keyboard-response","92","510236","0.0-23.0-0.4","SS1619739584196","","","null","","","","","","<p><img src= images/blank.png width =""600"" height = ""600"" style=""position:fixed;top:50%; left:50%; transform: translate(-50%, -50%); border:5px solid black"">","","","","","","","",""
"","5591","sequential-stimulus-presentation-old","93","516341","0.0-23.0-1.4","SS1619739584196","trial","","40","500","6091","images/stimuli/spore_stims/simple_07_A_a.gif","images/stimuli/spore_stims/simple_08_A_b.gif","self_paced","","7","simple_dissimilar","images/stimuli/spore_stims/simple_08_A_b.gif","","","","",""
"","null","html-keyboard-response","94","517407","0.0-23.0-0.5","SS1619739584196","","","null","","","","","","<p><img src= images/blank.png width =""600"" height = ""600"" style=""position:fixed;top:50%; left:50%; transform: translate(-50%, -50%); border:5px solid black"">","","","","","","","",""
"","8687","sequential-stimulus-presentation-old","95","526597","0.0-23.0-1.5","SS1619739584196","trial","","40","500","9187","images/stimuli/spore_stims/simple_07_A_a.gif","images/stimuli/spore_stims/simple_08_A_b.gif","self_paced","","7","simple_dissimilar","images/stimuli/spore_stims/simple_07_A_a.gif","","","","",""
"","40434","survey-multi-choice","96","567035","0.0-24.0","SS1619739584196","math_question","","","","","","","","","","","","{""Q0"":""11""}","[0]","11","",""
"","null","html-keyboard-response","97","568005","0.0-25.0-0.0","SS1619739584196","","","null","","","","","","<p><img src= images/blank.png width =""600"" height = ""600"" style=""position:fixed;top:50%; left:50%; transform: translate(-50%, -50%); border:5px solid black"">","","","","","","","",""
"","1342","sequential-stimulus-presentation-old","98","584363","0.0-25.0-1.0","SS1619739584196","trial","","40","500","1842","images/stimuli/spore_stims/simple_10_A_a.gif","images/stimuli/spore_stims/simple_06_A_b.gif","forced_long","","8","simple_dissimilar","images/stimuli/spore_stims/simple_06_A_b.gif","","","","",""
"","null","html-keyboard-response","99","585333","0.0-25.0-0.1","SS1619739584196","","","null","","","","","","<p><img src= images/blank.png width =""600"" height = ""600"" style=""position:fixed;top:50%; left:50%; transform: translate(-50%, -50%); border:5px solid black"">","","","","","","","",""
"","36280","sequential-stimulus-presentation-old","100","622119","0.0-25.0-1.1","SS1619739584196","trial","","40","500","36780","images/stimuli/spore_stims/simple_10_A_a.gif","images/stimuli/spore_stims/simple_06_A_b.gif","forced_long","","8","simple_dissimilar","images/stimuli/spore_stims/simple_10_A_a.gif","","","","",""
"","null","html-keyboard-response","101","622973","0.0-25.0-0.2","SS1619739584196","","","null","","","","","","<p><img src= images/blank.png width =""600"" height = ""600"" style=""position:fixed;top:50%; left:50%; transform: translate(-50%, -50%); border:5px solid black"">","","","","","","","",""
"","20714","sequential-stimulus-presentation-old","102","644195","0.0-25.0-1.2","SS1619739584196","trial","","40","500","21214","images/stimuli/spore_stims/simple_10_A_a.gif","images/stimuli/spore_stims/simple_06_A_b.gif","forced_long","","8","simple_dissimilar","images/stimuli/spore_stims/simple_06_A_b.gif","","","","",""
"","null","html-keyboard-response","103","645309","0.0-25.0-0.3","SS1619739584196","","","null","","","","","","<p><img src= images/blank.png width =""600"" height = ""600"" style=""position:fixed;top:50%; left:50%; transform: translate(-50%, -50%); border:5px solid black"">","","","","","","","",""
"","12565","sequential-stimulus-presentation-old","104","658383","0.0-25.0-1.3","SS1619739584196","trial","","40","500","13065","images/stimuli/spore_stims/simple_10_A_a.gif","images/stimuli/spore_stims/simple_06_A_b.gif","forced_long","","8","simple_dissimilar","images/stimuli/spore_stims/simple_10_A_a.gif","","","","",""
"","null","html-keyboard-response","105","659441","0.0-25.0-0.4","SS1619739584196","","","null","","","","","","<p><img src= images/blank.png width =""600"" height = ""600"" style=""position:fixed;top:50%; left:50%; transform: translate(-50%, -50%); border:5px solid black"">","","","","","","","",""
"","4397","sequential-stimulus-presentation-old","106","664346","0.0-25.0-1.4","SS1619739584196","trial","","40","500","4897","images/stimuli/spore_stims/simple_10_A_a.gif","images/stimuli/spore_stims/simple_06_A_b.gif","forced_long","","8","simple_dissimilar","images/stimuli/spore_stims/simple_06_A_b.gif","","","","",""
"","3690","survey-multi-choice","107","668039","0.0-26.0","SS1619739584196","math_question","","","","","","","","","","","","{""Q0"":""14""}","[0]","14","",""
"","null","html-keyboard-response","108","669194","0.0-27.0-0.0","SS1619739584196","","","null","","","","","","<p><img src= images/blank.png width =""600"" height = ""600"" style=""position:fixed;top:50%; left:50%; transform: translate(-50%, -50%); border:5px solid black"">","","","","","","","",""
"","1277","sequential-stimulus-presentation-old","109","670974","0.0-27.0-1.0","SS1619739584196","trial","","40","500","1777","images/stimuli/spore_stims/simple_02_A_a.gif","images/stimuli/spore_stims/simple_20_A_b.gif","forced_short","","9","simple_dissimilar","images/stimuli/spore_stims/simple_20_A_b.gif","","","","",""
"","null","html-keyboard-response","110","671868","0.0-27.0-0.1","SS1619739584196","","","null","","","","","","<p><img src= images/blank.png width =""600"" height = ""600"" style=""position:fixed;top:50%; left:50%; transform: translate(-50%, -50%); border:5px solid black"">","","","","","","","",""
"","3303","sequential-stimulus-presentation-old","111","675676","0.0-27.0-1.1","SS1619739584196","trial","","40","500","3803","images/stimuli/spore_stims/simple_02_A_a.gif","images/stimuli/spore_stims/simple_20_A_b.gif","forced_short","","9","simple_dissimilar","images/stimuli/spore_stims/simple_02_A_a.gif","","","","",""
"","null","html-keyboard-response","112","676821","0.0-27.0-0.2","SS1619739584196","","","null","","","","","","<p><img src= images/blank.png width =""600"" height = ""600"" style=""position:fixed;top:50%; left:50%; transform: translate(-50%, -50%); border:5px solid black"">","","","","","","","",""
"","4236","sequential-stimulus-presentation-old","113","681561","0.0-27.0-1.2","SS1619739584196","trial","","40","500","4736","images/stimuli/spore_stims/simple_02_A_a.gif","images/stimuli/spore_stims/simple_20_A_b.gif","forced_short","","9","simple_dissimilar","images/stimuli/spore_stims/simple_20_A_b.gif","","","","",""
"","null","html-keyboard-response","114","682571","0.0-27.0-0.3","SS1619739584196","","","null","","","","","","<p><img src= images/blank.png width =""600"" height = ""600"" style=""position:fixed;top:50%; left:50%; transform: translate(-50%, -50%); border:5px solid black"">","","","","","","","",""
"","4983","sequential-stimulus-presentation-old","115","688061","0.0-27.0-1.3","SS1619739584196","trial","","40","500","5483","images/stimuli/spore_stims/simple_02_A_a.gif","images/stimuli/spore_stims/simple_20_A_b.gif","forced_short","","9","simple_dissimilar","images/stimuli/spore_stims/simple_20_A_b.gif","","","","",""
"","null","html-keyboard-response","116","689129","0.0-27.0-0.4","SS1619739584196","","","null","","","","","","<p><img src= images/blank.png width =""600"" height = ""600"" style=""position:fixed;top:50%; left:50%; transform: translate(-50%, -50%); border:5px solid black"">","","","","","","","",""
"","4316","sequential-stimulus-presentation-old","117","693951","0.0-27.0-1.4","SS1619739584196","trial","","40","500","4816","images/stimuli/spore_stims/simple_02_A_a.gif","images/stimuli/spore_stims/simple_20_A_b.gif","forced_short","","9","simple_dissimilar","images/stimuli/spore_stims/simple_02_A_a.gif","","","","",""
"","4221","survey-multi-choice","118","698176","0.0-28.0","SS1619739584196","math_question","","","","","","","","","","","","{""Q0"":""12""}","[0]","12","",""
"","null","html-keyboard-response","119","699362","0.0-29.0-0.0","SS1619739584196","","","null","","","","","","<p><img src= images/blank.png width =""600"" height = ""600"" style=""position:fixed;top:50%; left:50%; transform: translate(-50%, -50%); border:5px solid black"">","","","","","","","",""
"","1836","sequential-stimulus-presentation-old","120","701701","0.0-29.0-1.0","SS1619739584196","trial","","40","500","2336","images/stimuli/spore_stims/complex_15_A_b.gif","images/stimuli/spore_stims/complex_08_A_a.gif","forced_short","","10","complex_dissimilar","images/stimuli/spore_stims/complex_08_A_a.gif","","","","",""
"","null","html-keyboard-response","121","702788","0.0-29.0-0.1","SS1619739584196","","","null","","","","","","<p><img src= images/blank.png width =""600"" height = ""600"" style=""position:fixed;top:50%; left:50%; transform: translate(-50%, -50%); border:5px solid black"">","","","","","","","",""
"","3627","sequential-stimulus-presentation-old","122","706931","0.0-29.0-1.1","SS1619739584196","trial","","40","500","4127","images/stimuli/spore_stims/complex_15_A_b.gif","images/stimuli/spore_stims/complex_08_A_a.gif","forced_short","","10","complex_dissimilar","images/stimuli/spore_stims/complex_08_A_a.gif","","","","",""
"","null","html-keyboard-response","123","707821","0.0-29.0-0.2","SS1619739584196","","","null","","","","","","<p><img src= images/blank.png width =""600"" height = ""600"" style=""position:fixed;top:50%; left:50%; transform: translate(-50%, -50%); border:5px solid black"">","","","","","","","",""
"","2911","sequential-stimulus-presentation-old","124","711235","0.0-29.0-1.2","SS1619739584196","trial","","40","500","3411","images/stimuli/spore_stims/complex_15_A_b.gif","images/stimuli/spore_stims/complex_08_A_a.gif","forced_short","","10","complex_dissimilar","images/stimuli/spore_stims/complex_08_A_a.gif","","","","",""
"","null","html-keyboard-response","125","712072","0.0-29.0-0.3","SS1619739584196","","","null","","","","","","<p><img src= images/blank.png width =""600"" height = ""600"" style=""position:fixed;top:50%; left:50%; transform: translate(-50%, -50%); border:5px solid black"">","","","","","","","",""
"","3390","sequential-stimulus-presentation-old","126","715980","0.0-29.0-1.3","SS1619739584196","trial","","40","500","3890","images/stimuli/spore_stims/complex_15_A_b.gif","images/stimuli/spore_stims/complex_08_A_a.gif","forced_short","","10","complex_dissimilar","images/stimuli/spore_stims/complex_08_A_a.gif","","","","",""
"","null","html-keyboard-response","127","717057","0.0-29.0-0.4","SS1619739584196","","","null","","","","","","<p><img src= images/blank.png width =""600"" height = ""600"" style=""position:fixed;top:50%; left:50%; transform: translate(-50%, -50%); border:5px solid black"">","","","","","","","",""
"","4561","sequential-stimulus-presentation-old","128","722123","0.0-29.0-1.4","SS1619739584196","trial","","40","500","5061","images/stimuli/spore_stims/complex_15_A_b.gif","images/stimuli/spore_stims/complex_08_A_a.gif","forced_short","","10","complex_dissimilar","images/stimuli/spore_stims/complex_15_A_b.gif","","","","",""
"","2943","survey-multi-choice","129","725069","0.0-30.0","SS1619739584196","math_question","","","","","","","","","","","","{""Q0"":""6""}","[0]","6","",""
"","null","html-keyboard-response","130","726088","0.0-31.0-0.0","SS1619739584196","","","null","","","","","","<p><img src= images/blank.png width =""600"" height = ""600"" style=""position:fixed;top:50%; left:50%; transform: translate(-50%, -50%); border:5px solid black"">","","","","","","","",""
"","973","sequential-stimulus-presentation-old","131","742065","0.0-31.0-1.0","SS1619739584196","trial","","40","500","1473","images/stimuli/spore_stims/complex_09_A_a.gif","images/stimuli/spore_stims/complex_08_A_b.gif","forced_long","","11","complex_dissimilar","images/stimuli/spore_stims/complex_08_A_b.gif","","","","",""
"","null","html-keyboard-response","132","742948","0.0-31.0-0.1","SS1619739584196","","","null","","","","","","<p><img src= images/blank.png width =""600"" height = ""600"" style=""position:fixed;top:50%; left:50%; transform: translate(-50%, -50%); border:5px solid black"">","","","","","","","",""
"","1420","sequential-stimulus-presentation-old","133","744874","0.0-31.0-1.1","SS1619739584196","trial","","40","500","1920","images/stimuli/spore_stims/complex_09_A_a.gif","images/stimuli/spore_stims/complex_08_A_b.gif","forced_long","","11","complex_dissimilar","images/stimuli/spore_stims/complex_08_A_b.gif","","","","",""
"","null","html-keyboard-response","134","745692","0.0-31.0-0.2","SS1619739584196","","","null","","","","","","<p><img src= images/blank.png width =""600"" height = ""600"" style=""position:fixed;top:50%; left:50%; transform: translate(-50%, -50%); border:5px solid black"">","","","","","","","",""
"","1318","sequential-stimulus-presentation-old","135","747524","0.0-31.0-1.2","SS1619739584196","trial","","40","500","1818","images/stimuli/spore_stims/complex_09_A_a.gif","images/stimuli/spore_stims/complex_08_A_b.gif","forced_long","","11","complex_dissimilar","images/stimuli/spore_stims/complex_08_A_b.gif","","","","",""
"","null","html-keyboard-response","136","748817","0.0-31.0-0.3","SS1619739584196","","","null","","","","","","<p><img src= images/blank.png width =""600"" height = ""600"" style=""position:fixed;top:50%; left:50%; transform: translate(-50%, -50%); border:5px solid black"">","","","","","","","",""
"","2344","sequential-stimulus-presentation-old","137","751669","0.0-31.0-1.3","SS1619739584196","trial","","40","500","2844","images/stimuli/spore_stims/complex_09_A_a.gif","images/stimuli/spore_stims/complex_08_A_b.gif","forced_long","","11","complex_dissimilar","images/stimuli/spore_stims/complex_08_A_b.gif","","","","",""
"","null","html-keyboard-response","138","752626","0.0-31.0-0.4","SS1619739584196","","","null","","","","","","<p><img src= images/blank.png width =""600"" height = ""600"" style=""position:fixed;top:50%; left:50%; transform: translate(-50%, -50%); border:5px solid black"">","","","","","","","",""
"","1798","sequential-stimulus-presentation-old","139","754931","0.0-31.0-1.4","SS1619739584196","trial","","40","500","2298","images/stimuli/spore_stims/complex_09_A_a.gif","images/stimuli/spore_stims/complex_08_A_b.gif","forced_long","","11","complex_dissimilar","images/stimuli/spore_stims/complex_08_A_b.gif","","","","",""
"","null","html-keyboard-response","140","755993","0.0-31.0-0.5","SS1619739584196","","","null","","","","","","<p><img src= images/blank.png width =""600"" height = ""600"" style=""position:fixed;top:50%; left:50%; transform: translate(-50%, -50%); border:5px solid black"">","","","","","","","",""
"","983","sequential-stimulus-presentation-old","141","757481","0.0-31.0-1.5","SS1619739584196","trial","","40","500","1483","images/stimuli/spore_stims/complex_09_A_a.gif","images/stimuli/spore_stims/complex_08_A_b.gif","forced_long","","11","complex_dissimilar","images/stimuli/spore_stims/complex_08_A_b.gif","","","","",""
"[{""page_index"":0,""viewing_time"":5577}]","5577","instructions","142","763060","0.0-32.0","SS1619739584196","instructions","","","","","","","","","","","","","","","",""
"","10824","survey-likert","143","773888","0.0-33.0","SS1619739584196","similarity_question","","","","","","","","","","","","{""Q0"":0}","[0]","","images/stimuli/spore_stims/complex_04_A_b.gif","images/stimuli/spore_stims/complex_05_A_a.gif"
"","7147","survey-likert","144","781038","0.0-34.0","SS1619739584196","similarity_question","","","","","","","","","","","","{""Q0"":2}","[0]","","images/stimuli/spore_stims/complex_20_A_a.gif","images/stimuli/spore_stims/complex_10_A_b.gif"
"","4543","survey-likert","145","785585","0.0-35.0","SS1619739584196","similarity_question","","","","","","","","","","","","{""Q0"":4}","[0]","","images/stimuli/spore_stims/simple_10_A_a.gif","images/stimuli/spore_stims/simple_06_A_b.gif"
"","5085","survey-likert","146","790673","0.0-36.0","SS1619739584196","similarity_question","","","","","","","","","","","","{""Q0"":5}","[0]","","images/stimuli/spore_stims/complex_19_A_b.gif","images/stimuli/spore_stims/complex_06_A_a.gif"
"","3575","survey-likert","147","794250","0.0-37.0","SS1619739584196","similarity_question","","","","","","","","","","","","{""Q0"":4}","[0]","","images/stimuli/spore_stims/simple_07_A_a.gif","images/stimuli/spore_stims/simple_08_A_b.gif"
"","4080","survey-likert","148","798335","0.0-38.0","SS1619739584196","similarity_question","","","","","","","","","","","","{""Q0"":2}","[0]","","images/stimuli/spore_stims/complex_13_A_b.gif","images/stimuli/spore_stims/complex_16_A_a.gif"
"","2102","survey-likert","149","800444","0.0-39.0","SS1619739584196","similarity_question","","","","","","","","","","","","{""Q0"":5}","[0]","","images/stimuli/spore_stims/simple_02_A_a.gif","images/stimuli/spore_stims/simple_20_A_b.gif"
"","5559","survey-likert","150","806006","0.0-40.0","SS1619739584196","similarity_question","","","","","","","","","","","","{""Q0"":4}","[0]","","images/stimuli/spore_stims/complex_08_A_a.gif","images/stimuli/spore_stims/complex_15_A_b.gif"
"","2602","survey-likert","151","808611","0.0-41.0","SS1619739584196","similarity_question","","","","","","","","","","","","{""Q0"":2}","[0]","","images/stimuli/spore_stims/simple_13_A_b.gif","images/stimuli/spore_stims/simple_18_A_a.gif"
"","3362","survey-likert","152","811976","0.0-42.0","SS1619739584196","similarity_question","","","","","","","","","","","","{""Q0"":4}","[0]","","images/stimuli/spore_stims/simple_04_A_b.gif","images/stimuli/spore_stims/simple_03_A_a.gif"
"","4074","survey-likert","153","816056","0.0-43.0","SS1619739584196","similarity_question","","","","","","","","","","","","{""Q0"":1}","[0]","","images/stimuli/spore_stims/complex_08_A_b.gif","images/stimuli/spore_stims/complex_09_A_a.gif"
"","3169","survey-likert","154","819228","0.0-44.0","SS1619739584196","similarity_question","","","","","","","","","","","","{""Q0"":4}","[0]","","images/stimuli/spore_stims/simple_09_A_b.gif","images/stimuli/spore_stims/simple_20_A_a.gif"
"[{""page_index"":0,""viewing_time"":4406}]","4406","instructions","155","823637","0.0-45.0","SS1619739584196","instructions","","","","","","","","","","","","","","","",""
"","3061","survey-likert","156","826701","0.0-46.0","SS1619739584196","","","","","","","","","images/stimuli/spore_stims/simple_03_A_a.gif","","","","{""Q0"":0}","[0]","","",""
"","2821","survey-likert","157","829525","0.0-47.0","SS1619739584196","","","","","","","","","images/stimuli/spore_stims/complex_13_A_b.gif","","","","{""Q0"":2}","[0]","","",""
"","2928","survey-likert","158","832456","0.0-48.0","SS1619739584196","","","","","","","","","images/stimuli/spore_stims/complex_04_A_b.gif","","","","{""Q0"":2}","[0]","","",""
"","1871","survey-likert","159","834333","0.0-49.0","SS1619739584196","","","","","","","","","images/stimuli/spore_stims/simple_08_A_b.gif","","","","{""Q0"":0}","[0]","","",""
"","1573","survey-likert","160","835909","0.0-50.0","SS1619739584196","","","","","","","","","images/stimuli/spore_stims/simple_02_A_a.gif","","","","{""Q0"":0}","[0]","","",""
"","1324","survey-likert","161","837238","0.0-51.0","SS1619739584196","","","","","","","","","images/stimuli/spore_stims/simple_20_A_a.gif","","","","{""Q0"":0}","[0]","","",""
"","3505","survey-likert","162","840747","0.0-52.0","SS1619739584196","","","","","","","","","images/stimuli/spore_stims/complex_09_A_a.gif","","","","{""Q0"":4}","[0]","","",""
"","3569","survey-likert","163","844319","0.0-53.0","SS1619739584196","","","","","","","","","images/stimuli/spore_stims/complex_15_A_b.gif","","","","{""Q0"":2}","[0]","","",""
"","2628","survey-likert","164","846951","0.0-54.0","SS1619739584196","","","","","","","","","images/stimuli/spore_stims/complex_10_A_b.gif","","","","{""Q0"":1}","[0]","","",""
"","1804","survey-likert","165","848761","0.0-55.0","SS1619739584196","","","","","","","","","images/stimuli/spore_stims/simple_10_A_a.gif","","","","{""Q0"":0}","[0]","","",""
"","3339","survey-likert","166","852103","0.0-56.0","SS1619739584196","","","","","","","","","images/stimuli/spore_stims/complex_19_A_b.gif","","","","{""Q0"":2}","[0]","","",""
"","1620","survey-likert","167","853726","0.0-57.0","SS1619739584196","","","","","","","","","images/stimuli/spore_stims/simple_13_A_b.gif","","","","{""Q0"":0}","[0]","","",""
"[{""page_index"":0,""viewing_time"":2781}]","2781","instructions","168","856510","0.0-58.0","SS1619739584196","instructions","","","","","","","","","","","","","","","",""
"","1723","demog-age","169","858238","0.0-59.0","SS1619739584196","","","","","","","","","","","","","{""age"":""20""}","","","",""
"","4178","demog-ethnic-US","170","862423","0.0-60.0","SS1619739584196","","","","","","","","","","","","","{""ethnicity"":[""White""]}","[0]","","",""
"","4643","demog-gender-and-education","171","867071","0.0-61.0","SS1619739584196","","","","","","","","","","","","","{""gender"":""Male"",""education"":""Bachelor's Degree""}","[0,1]","","",""
"","20704","survey-text","172","887780","0.0-62.0","SS1619739584196","feedback","","","","","","","","","","","","{""Q0"":""This was fun, thanks for letting me participate!""}","","","",""
"[{""page_index"":0,""viewing_time"":3806}]","3806","instructions","173","891589","0.0-63.0","SS1619739584196","instructions","","","","","","","","","","","","","","","",""
