"view_history","rt","trial_type","trial_index","time_elapsed","internal_node_id","subject","stimulus_type","trial_stimulus","key_press","minimum_viewing_duration","trial_looking_time","block_deviant","block_background","exposure_type","stimulus","block_number","block_type","stimulus_displayed","responses","question_order","math_correct_answer","stimulus_left","stimulus_right"
"[{""page_index"":0,""viewing_time"":43313.210000000254}]","43314.10499999765","instructions","0","43316","0.0-0.0","SS1619739988927","","","","","","","","","","","","","","","","",""
"[{""page_index"":0,""viewing_time"":33866.894999999204},{""page_index"":1,""viewing_time"":9936.01000000126}]","43803.15999999948","instructions","1","89122","0.0-1.0","SS1619739988927","instructions","","","","","","","","","","","","","","","",""
"","7894.819999997708","sequential-stimulus-presentation-old","2","97521","0.0-2.0","SS1619739988927","","","40","500","8394.819999997708","null","null","self_paced","","","","","","","","",""
"","6528.060000000551","sequential-stimulus-presentation-old","3","104551","0.0-3.0","SS1619739988927","","","40","500","7028.060000000551","null","null","self_paced","","","","","","","","",""
"[{""page_index"":0,""viewing_time"":28684.919999999693}]","28685.1800000004","instructions","4","133237","0.0-4.0","SS1619739988927","instructions","","","","","","","","","","","","","","","",""
"","1924.1999999976542","sequential-stimulus-presentation-old","5","150164","0.0-5.0","SS1619739988927","","","40","500","2424.1999999976542","null","null","forced_long","","","","","","","","",""
"","7135.309999997844","sequential-stimulus-presentation-old","6","157801","0.0-6.0","SS1619739988927","","","40","500","7635.309999997844","null","null","forced_long","","","","","","","","",""
"[{""page_index"":0,""viewing_time"":3205.069999999978}]","3205.2850000000035","instructions","7","161007","0.0-7.0","SS1619739988927","instructions","","","","","","","","","","","","","","","",""
"[{""page_index"":0,""viewing_time"":20349.050000000716},{""page_index"":1,""viewing_time"":15857.844999998633},{""page_index"":2,""viewing_time"":8349.699999998847},{""page_index"":3,""viewing_time"":1540.145000002667},{""page_index"":4,""viewing_time"":1035.714999998163}]","47132.68999999855","instructions","8","208140","0.0-8.0","SS1619739988927","instructions","","","","","","","","","","","","","","","",""
"","null","html-keyboard-response","9","209362","0.0-9.0-0.0","SS1619739988927","","","null","","","","","","<p><img src= images/blank.png width =""600"" height = ""600"" style=""position:fixed;top:50%; left:50%; transform: translate(-50%, -50%); border:5px solid black"">","","","","","","","",""
"","24107.72999999969","sequential-stimulus-presentation-old","10","233973","0.0-9.0-1.0","SS1619739988927","trial","","40","500","24607.72999999969","images/stimuli/spore_stims/complex_14_A_b.gif","images/stimuli/spore_stims/complex_18_A_a.gif","self_paced","","0","complex_dissimilar","images/stimuli/spore_stims/complex_18_A_a.gif","","","","",""
"","null","html-keyboard-response","11","234874","0.0-9.0-0.1","SS1619739988927","","","null","","","","","","<p><img src= images/blank.png width =""600"" height = ""600"" style=""position:fixed;top:50%; left:50%; transform: translate(-50%, -50%); border:5px solid black"">","","","","","","","",""
"","19169.80500000133","sequential-stimulus-presentation-old","12","254547","0.0-9.0-1.1","SS1619739988927","trial","","40","500","19669.80500000133","images/stimuli/spore_stims/complex_14_A_b.gif","images/stimuli/spore_stims/complex_18_A_a.gif","self_paced","","0","complex_dissimilar","images/stimuli/spore_stims/complex_14_A_b.gif","","","","",""
"","null","html-keyboard-response","13","255530","0.0-9.0-0.2","SS1619739988927","","","null","","","","","","<p><img src= images/blank.png width =""600"" height = ""600"" style=""position:fixed;top:50%; left:50%; transform: translate(-50%, -50%); border:5px solid black"">","","","","","","","",""
"","15827.81999999861","sequential-stimulus-presentation-old","14","271861","0.0-9.0-1.2","SS1619739988927","trial","","40","500","16327.81999999861","images/stimuli/spore_stims/complex_14_A_b.gif","images/stimuli/spore_stims/complex_18_A_a.gif","self_paced","","0","complex_dissimilar","images/stimuli/spore_stims/complex_18_A_a.gif","","","","",""
"","null","html-keyboard-response","15","272849","0.0-9.0-0.3","SS1619739988927","","","null","","","","","","<p><img src= images/blank.png width =""600"" height = ""600"" style=""position:fixed;top:50%; left:50%; transform: translate(-50%, -50%); border:5px solid black"">","","","","","","","",""
"","7666.150000000896","sequential-stimulus-presentation-old","16","281018","0.0-9.0-1.3","SS1619739988927","trial","","40","500","8166.150000000896","images/stimuli/spore_stims/complex_14_A_b.gif","images/stimuli/spore_stims/complex_18_A_a.gif","self_paced","","0","complex_dissimilar","images/stimuli/spore_stims/complex_18_A_a.gif","","","","",""
"","null","html-keyboard-response","17","281856","0.0-9.0-0.4","SS1619739988927","","","null","","","","","","<p><img src= images/blank.png width =""600"" height = ""600"" style=""position:fixed;top:50%; left:50%; transform: translate(-50%, -50%); border:5px solid black"">","","","","","","","",""
"","8770.980000001146","sequential-stimulus-presentation-old","18","291131","0.0-9.0-1.4","SS1619739988927","trial","","40","500","9270.980000001146","images/stimuli/spore_stims/complex_14_A_b.gif","images/stimuli/spore_stims/complex_18_A_a.gif","self_paced","","0","complex_dissimilar","images/stimuli/spore_stims/complex_18_A_a.gif","","","","",""
"","null","html-keyboard-response","19","292237","0.0-9.0-0.5","SS1619739988927","","","null","","","","","","<p><img src= images/blank.png width =""600"" height = ""600"" style=""position:fixed;top:50%; left:50%; transform: translate(-50%, -50%); border:5px solid black"">","","","","","","","",""
"","13622.080000001006","sequential-stimulus-presentation-old","20","306362","0.0-9.0-1.5","SS1619739988927","trial","","40","500","14122.080000001006","images/stimuli/spore_stims/complex_14_A_b.gif","images/stimuli/spore_stims/complex_18_A_a.gif","self_paced","","0","complex_dissimilar","images/stimuli/spore_stims/complex_18_A_a.gif","","","","",""
"","5911.645000000135","survey-multi-choice","21","312276","0.0-10.0","SS1619739988927","math_question","","","","","","","","","","","","{""Q0"":""9""}","[0]","9","",""
"","null","html-keyboard-response","22","313138","0.0-11.0-0.0","SS1619739988927","","","null","","","","","","<p><img src= images/blank.png width =""600"" height = ""600"" style=""position:fixed;top:50%; left:50%; transform: translate(-50%, -50%); border:5px solid black"">","","","","","","","",""
"","3426.6399999978603","sequential-stimulus-presentation-old","23","317067","0.0-11.0-1.0","SS1619739988927","trial","","40","500","3926.6399999978603","images/stimuli/spore_stims/simple_14_A_b.gif","images/stimuli/spore_stims/simple_18_A_a.gif","forced_short","","1","simple_dissimilar","images/stimuli/spore_stims/simple_18_A_a.gif","","","","",""
"","null","html-keyboard-response","24","317883","0.0-11.0-0.1","SS1619739988927","","","null","","","","","","<p><img src= images/blank.png width =""600"" height = ""600"" style=""position:fixed;top:50%; left:50%; transform: translate(-50%, -50%); border:5px solid black"">","","","","","","","",""
"","16679.004999998142","sequential-stimulus-presentation-old","25","335064","0.0-11.0-1.1","SS1619739988927","trial","","40","500","17179.004999998142","images/stimuli/spore_stims/simple_14_A_b.gif","images/stimuli/spore_stims/simple_18_A_a.gif","forced_short","","1","simple_dissimilar","images/stimuli/spore_stims/simple_18_A_a.gif","","","","",""
"","null","html-keyboard-response","26","336208","0.0-11.0-0.2","SS1619739988927","","","null","","","","","","<p><img src= images/blank.png width =""600"" height = ""600"" style=""position:fixed;top:50%; left:50%; transform: translate(-50%, -50%); border:5px solid black"">","","","","","","","",""
"","9290.850000001199","sequential-stimulus-presentation-old","27","346002","0.0-11.0-1.2","SS1619739988927","trial","","40","500","9790.850000001199","images/stimuli/spore_stims/simple_14_A_b.gif","images/stimuli/spore_stims/simple_18_A_a.gif","forced_short","","1","simple_dissimilar","images/stimuli/spore_stims/simple_14_A_b.gif","","","","",""
"","null","html-keyboard-response","28","346909","0.0-11.0-0.3","SS1619739988927","","","null","","","","","","<p><img src= images/blank.png width =""600"" height = ""600"" style=""position:fixed;top:50%; left:50%; transform: translate(-50%, -50%); border:5px solid black"">","","","","","","","",""
"","8574.680000001565","sequential-stimulus-presentation-old","29","355987","0.0-11.0-1.3","SS1619739988927","trial","","40","500","9074.680000001565","images/stimuli/spore_stims/simple_14_A_b.gif","images/stimuli/spore_stims/simple_18_A_a.gif","forced_short","","1","simple_dissimilar","images/stimuli/spore_stims/simple_18_A_a.gif","","","","",""
"","null","html-keyboard-response","30","357011","0.0-11.0-0.4","SS1619739988927","","","null","","","","","","<p><img src= images/blank.png width =""600"" height = ""600"" style=""position:fixed;top:50%; left:50%; transform: translate(-50%, -50%); border:5px solid black"">","","","","","","","",""
"","10866.845000000438","sequential-stimulus-presentation-old","31","368381","0.0-11.0-1.4","SS1619739988927","trial","","40","500","11366.845000000438","images/stimuli/spore_stims/simple_14_A_b.gif","images/stimuli/spore_stims/simple_18_A_a.gif","forced_short","","1","simple_dissimilar","images/stimuli/spore_stims/simple_14_A_b.gif","","","","",""
"","4707.82500000135","survey-multi-choice","32","373090","0.0-12.0","SS1619739988927","math_question","","","","","","","","","","","","{""Q0"":""7""}","[0]","7","",""
"","null","html-keyboard-response","33","374397","0.0-13.0-0.0","SS1619739988927","","","null","","","","","","<p><img src= images/blank.png width =""600"" height = ""600"" style=""position:fixed;top:50%; left:50%; transform: translate(-50%, -50%); border:5px solid black"">","","","","","","","",""
"","11953.144999999495","sequential-stimulus-presentation-old","34","401354","0.0-13.0-1.0","SS1619739988927","trial","","40","500","12453.144999999495","images/stimuli/spore_stims/simple_05_A_a.gif","images/stimuli/spore_stims/simple_09_A_b.gif","forced_long","","2","simple_dissimilar","images/stimuli/spore_stims/simple_09_A_b.gif","","","","",""
"","null","html-keyboard-response","35","402172","0.0-13.0-0.1","SS1619739988927","","","null","","","","","","<p><img src= images/blank.png width =""600"" height = ""600"" style=""position:fixed;top:50%; left:50%; transform: translate(-50%, -50%); border:5px solid black"">","","","","","","","",""
"","14734.929999998654","sequential-stimulus-presentation-old","36","417410","0.0-13.0-1.1","SS1619739988927","trial","","40","500","15234.929999998654","images/stimuli/spore_stims/simple_05_A_a.gif","images/stimuli/spore_stims/simple_09_A_b.gif","forced_long","","2","simple_dissimilar","images/stimuli/spore_stims/simple_05_A_a.gif","","","","",""
"","null","html-keyboard-response","37","418450","0.0-13.0-0.2","SS1619739988927","","","null","","","","","","<p><img src= images/blank.png width =""600"" height = ""600"" style=""position:fixed;top:50%; left:50%; transform: translate(-50%, -50%); border:5px solid black"">","","","","","","","",""
"","12726.005000000412","sequential-stimulus-presentation-old","38","431679","0.0-13.0-1.2","SS1619739988927","trial","","40","500","13226.005000000412","images/stimuli/spore_stims/simple_05_A_a.gif","images/stimuli/spore_stims/simple_09_A_b.gif","forced_long","","2","simple_dissimilar","images/stimuli/spore_stims/simple_09_A_b.gif","","","","",""
"","null","html-keyboard-response","39","432835","0.0-13.0-0.3","SS1619739988927","","","null","","","","","","<p><img src= images/blank.png width =""600"" height = ""600"" style=""position:fixed;top:50%; left:50%; transform: translate(-50%, -50%); border:5px solid black"">","","","","","","","",""
"","8361.864999998943","sequential-stimulus-presentation-old","40","441701","0.0-13.0-1.3","SS1619739988927","trial","","40","500","8861.864999998943","images/stimuli/spore_stims/simple_05_A_a.gif","images/stimuli/spore_stims/simple_09_A_b.gif","forced_long","","2","simple_dissimilar","images/stimuli/spore_stims/simple_09_A_b.gif","","","","",""
"","2640.8399999999674","survey-multi-choice","41","444343","0.0-14.0","SS1619739988927","math_question","","","","","","","","","","","","{""Q0"":""6""}","[0]","6","",""
"","null","html-keyboard-response","42","445176","0.0-15.0-0.0","SS1619739988927","","","null","","","","","","<p><img src= images/blank.png width =""600"" height = ""600"" style=""position:fixed;top:50%; left:50%; transform: translate(-50%, -50%); border:5px solid black"">","","","","","","","",""
"","1542.8050000009243","sequential-stimulus-presentation-old","43","461723","0.0-15.0-1.0","SS1619739988927","trial","","40","500","2042.8050000009243","images/stimuli/spore_stims/complex_12_A_a.gif","images/stimuli/spore_stims/complex_03_A_b.gif","forced_long","","3","complex_dissimilar","images/stimuli/spore_stims/complex_03_A_b.gif","","","","",""
"","null","html-keyboard-response","44","462589","0.0-15.0-0.1","SS1619739988927","","","null","","","","","","<p><img src= images/blank.png width =""600"" height = ""600"" style=""position:fixed;top:50%; left:50%; transform: translate(-50%, -50%); border:5px solid black"">","","","","","","","",""
"","15376.079999998154","sequential-stimulus-presentation-old","45","478469","0.0-15.0-1.1","SS1619739988927","trial","","40","500","15876.079999998154","images/stimuli/spore_stims/complex_12_A_a.gif","images/stimuli/spore_stims/complex_03_A_b.gif","forced_long","","3","complex_dissimilar","images/stimuli/spore_stims/complex_12_A_a.gif","","","","",""
"","null","html-keyboard-response","46","479696","0.0-15.0-0.2","SS1619739988927","","","null","","","","","","<p><img src= images/blank.png width =""600"" height = ""600"" style=""position:fixed;top:50%; left:50%; transform: translate(-50%, -50%); border:5px solid black"">","","","","","","","",""
"","12489.935000001453","sequential-stimulus-presentation-old","47","492689","0.0-15.0-1.2","SS1619739988927","trial","","40","500","12989.935000001453","images/stimuli/spore_stims/complex_12_A_a.gif","images/stimuli/spore_stims/complex_03_A_b.gif","forced_long","","3","complex_dissimilar","images/stimuli/spore_stims/complex_03_A_b.gif","","","","",""
"","null","html-keyboard-response","48","493977","0.0-15.0-0.3","SS1619739988927","","","null","","","","","","<p><img src= images/blank.png width =""600"" height = ""600"" style=""position:fixed;top:50%; left:50%; transform: translate(-50%, -50%); border:5px solid black"">","","","","","","","",""
"","5710.190000001574","sequential-stimulus-presentation-old","49","500191","0.0-15.0-1.3","SS1619739988927","trial","","40","500","6210.190000001574","images/stimuli/spore_stims/complex_12_A_a.gif","images/stimuli/spore_stims/complex_03_A_b.gif","forced_long","","3","complex_dissimilar","images/stimuli/spore_stims/complex_03_A_b.gif","","","","",""
"","null","html-keyboard-response","50","501222","0.0-15.0-0.4","SS1619739988927","","","null","","","","","","<p><img src= images/blank.png width =""600"" height = ""600"" style=""position:fixed;top:50%; left:50%; transform: translate(-50%, -50%); border:5px solid black"">","","","","","","","",""
"","7190.920000000857","sequential-stimulus-presentation-old","51","508916","0.0-15.0-1.4","SS1619739988927","trial","","40","500","7690.920000000857","images/stimuli/spore_stims/complex_12_A_a.gif","images/stimuli/spore_stims/complex_03_A_b.gif","forced_long","","3","complex_dissimilar","images/stimuli/spore_stims/complex_12_A_a.gif","","","","",""
"","null","html-keyboard-response","52","510217","0.0-15.0-0.5","SS1619739988927","","","null","","","","","","<p><img src= images/blank.png width =""600"" height = ""600"" style=""position:fixed;top:50%; left:50%; transform: translate(-50%, -50%); border:5px solid black"">","","","","","","","",""
"","7470.819999998668","sequential-stimulus-presentation-old","53","518192","0.0-15.0-1.5","SS1619739988927","trial","","40","500","7970.819999998668","images/stimuli/spore_stims/complex_12_A_a.gif","images/stimuli/spore_stims/complex_03_A_b.gif","forced_long","","3","complex_dissimilar","images/stimuli/spore_stims/complex_03_A_b.gif","","","","",""
"","3875.7100000001956","survey-multi-choice","54","522069","0.0-16.0","SS1619739988927","math_question","","","","","","","","","","","","{""Q0"":""10""}","[0]","10","",""
"","null","html-keyboard-response","55","522878","0.0-17.0-0.0","SS1619739988927","","","null","","","","","","<p><img src= images/blank.png width =""600"" height = ""600"" style=""position:fixed;top:50%; left:50%; transform: translate(-50%, -50%); border:5px solid black"">","","","","","","","",""
"","9032.09000000055","sequential-stimulus-presentation-old","56","532414","0.0-17.0-1.0","SS1619739988927","trial","","40","500","9532.09000000055","images/stimuli/spore_stims/complex_16_A_a.gif","images/stimuli/spore_stims/complex_17_A_b.gif","self_paced","","4","complex_dissimilar","images/stimuli/spore_stims/complex_17_A_b.gif","","","","",""
"","null","html-keyboard-response","57","533671","0.0-17.0-0.1","SS1619739988927","","","null","","","","","","<p><img src= images/blank.png width =""600"" height = ""600"" style=""position:fixed;top:50%; left:50%; transform: translate(-50%, -50%); border:5px solid black"">","","","","","","","",""
"","6215.239999997779","sequential-stimulus-presentation-old","58","540388","0.0-17.0-1.1","SS1619739988927","trial","","40","500","6715.239999997779","images/stimuli/spore_stims/complex_16_A_a.gif","images/stimuli/spore_stims/complex_17_A_b.gif","self_paced","","4","complex_dissimilar","images/stimuli/spore_stims/complex_17_A_b.gif","","","","",""
"","null","html-keyboard-response","59","541605","0.0-17.0-0.2","SS1619739988927","","","null","","","","","","<p><img src= images/blank.png width =""600"" height = ""600"" style=""position:fixed;top:50%; left:50%; transform: translate(-50%, -50%); border:5px solid black"">","","","","","","","",""
"","7389.255000001867","sequential-stimulus-presentation-old","60","549497","0.0-17.0-1.2","SS1619739988927","trial","","40","500","7889.255000001867","images/stimuli/spore_stims/complex_16_A_a.gif","images/stimuli/spore_stims/complex_17_A_b.gif","self_paced","","4","complex_dissimilar","images/stimuli/spore_stims/complex_17_A_b.gif","","","","",""
"","null","html-keyboard-response","61","550528","0.0-17.0-0.3","SS1619739988927","","","null","","","","","","<p><img src= images/blank.png width =""600"" height = ""600"" style=""position:fixed;top:50%; left:50%; transform: translate(-50%, -50%); border:5px solid black"">","","","","","","","",""
"","5389.58999999892","sequential-stimulus-presentation-old","62","556420","0.0-17.0-1.3","SS1619739988927","trial","","40","500","5889.58999999892","images/stimuli/spore_stims/complex_16_A_a.gif","images/stimuli/spore_stims/complex_17_A_b.gif","self_paced","","4","complex_dissimilar","images/stimuli/spore_stims/complex_17_A_b.gif","","","","",""
"","null","html-keyboard-response","63","557312","0.0-17.0-0.4","SS1619739988927","","","null","","","","","","<p><img src= images/blank.png width =""600"" height = ""600"" style=""position:fixed;top:50%; left:50%; transform: translate(-50%, -50%); border:5px solid black"">","","","","","","","",""
"","6031.124999997672","sequential-stimulus-presentation-old","64","563846","0.0-17.0-1.4","SS1619739988927","trial","","40","500","6531.124999997672","images/stimuli/spore_stims/complex_16_A_a.gif","images/stimuli/spore_stims/complex_17_A_b.gif","self_paced","","4","complex_dissimilar","images/stimuli/spore_stims/complex_17_A_b.gif","","","","",""
"","null","html-keyboard-response","65","564717","0.0-17.0-0.5","SS1619739988927","","","null","","","","","","<p><img src= images/blank.png width =""600"" height = ""600"" style=""position:fixed;top:50%; left:50%; transform: translate(-50%, -50%); border:5px solid black"">","","","","","","","",""
"","17854.035000000265","sequential-stimulus-presentation-old","66","583075","0.0-17.0-1.5","SS1619739988927","trial","","40","500","18354.035000000265","images/stimuli/spore_stims/complex_16_A_a.gif","images/stimuli/spore_stims/complex_17_A_b.gif","self_paced","","4","complex_dissimilar","images/stimuli/spore_stims/complex_17_A_b.gif","","","","",""
"","3468.4549999983283","survey-multi-choice","67","586545","0.0-18.0","SS1619739988927","math_question","","","","","","","","","","","","{""Q0"":""10""}","[0]","10","",""
"","null","html-keyboard-response","68","587510","0.0-19.0-0.0","SS1619739988927","","","null","","","","","","<p><img src= images/blank.png width =""600"" height = ""600"" style=""position:fixed;top:50%; left:50%; transform: translate(-50%, -50%); border:5px solid black"">","","","","","","","",""
"","1412.6900000009919","sequential-stimulus-presentation-old","69","603926","0.0-19.0-1.0","SS1619739988927","trial","","40","500","1912.6900000009919","images/stimuli/spore_stims/simple_19_A_a.gif","images/stimuli/spore_stims/simple_17_A_b.gif","forced_long","","5","simple_dissimilar","images/stimuli/spore_stims/simple_17_A_b.gif","","","","",""
"","null","html-keyboard-response","70","605167","0.0-19.0-0.1","SS1619739988927","","","null","","","","","","<p><img src= images/blank.png width =""600"" height = ""600"" style=""position:fixed;top:50%; left:50%; transform: translate(-50%, -50%); border:5px solid black"">","","","","","","","",""
"","19032.319999998435","sequential-stimulus-presentation-old","71","624702","0.0-19.0-1.1","SS1619739988927","trial","","40","500","19532.319999998435","images/stimuli/spore_stims/simple_19_A_a.gif","images/stimuli/spore_stims/simple_17_A_b.gif","forced_long","","5","simple_dissimilar","images/stimuli/spore_stims/simple_19_A_a.gif","","","","",""
"","null","html-keyboard-response","72","625800","0.0-19.0-0.2","SS1619739988927","","","null","","","","","","<p><img src= images/blank.png width =""600"" height = ""600"" style=""position:fixed;top:50%; left:50%; transform: translate(-50%, -50%); border:5px solid black"">","","","","","","","",""
"","6295.829999999027","sequential-stimulus-presentation-old","73","632599","0.0-19.0-1.2","SS1619739988927","trial","","40","500","6795.829999999027","images/stimuli/spore_stims/simple_19_A_a.gif","images/stimuli/spore_stims/simple_17_A_b.gif","forced_long","","5","simple_dissimilar","images/stimuli/spore_stims/simple_17_A_b.gif","","","","",""
"","null","html-keyboard-response","74","633513","0.0-19.0-0.3","SS1619739988927","","","null","","","","","","<p><img src= images/blank.png width =""600"" height = ""600"" style=""position:fixed;top:50%; left:50%; transform: translate(-50%, -50%); border:5px solid black"">","","","","","","","",""
"","5922.579999998445","sequential-stimulus-presentation-old","75","639938","0.0-19.0-1.3","SS1619739988927","trial","","40","500","6422.579999998445","images/stimuli/spore_stims/simple_19_A_a.gif","images/stimuli/spore_stims/simple_17_A_b.gif","forced_long","","5","simple_dissimilar","images/stimuli/spore_stims/simple_17_A_b.gif","","","","",""
"","null","html-keyboard-response","76","641040","0.0-19.0-0.4","SS1619739988927","","","null","","","","","","<p><img src= images/blank.png width =""600"" height = ""600"" style=""position:fixed;top:50%; left:50%; transform: translate(-50%, -50%); border:5px solid black"">","","","","","","","",""
"","6437.6349999983795","sequential-stimulus-presentation-old","77","647981","0.0-19.0-1.4","SS1619739988927","trial","","40","500","6937.6349999983795","images/stimuli/spore_stims/simple_19_A_a.gif","images/stimuli/spore_stims/simple_17_A_b.gif","forced_long","","5","simple_dissimilar","images/stimuli/spore_stims/simple_19_A_a.gif","","","","",""
"","null","html-keyboard-response","78","649218","0.0-19.0-0.5","SS1619739988927","","","null","","","","","","<p><img src= images/blank.png width =""600"" height = ""600"" style=""position:fixed;top:50%; left:50%; transform: translate(-50%, -50%); border:5px solid black"">","","","","","","","",""
"","4895.389999997802","sequential-stimulus-presentation-old","79","654617","0.0-19.0-1.5","SS1619739988927","trial","","40","500","5395.389999997802","images/stimuli/spore_stims/simple_19_A_a.gif","images/stimuli/spore_stims/simple_17_A_b.gif","forced_long","","5","simple_dissimilar","images/stimuli/spore_stims/simple_17_A_b.gif","","","","",""
"","3031.490000001155","survey-multi-choice","80","657651","0.0-20.0","SS1619739988927","math_question","","","","","","","","","","","","{""Q0"":""9""}","[0]","9","",""
"","null","html-keyboard-response","81","658944","0.0-21.0-0.0","SS1619739988927","","","null","","","","","","<p><img src= images/blank.png width =""600"" height = ""600"" style=""position:fixed;top:50%; left:50%; transform: translate(-50%, -50%); border:5px solid black"">","","","","","","","",""
"","1456.880000001518","sequential-stimulus-presentation-old","82","660905","0.0-21.0-1.0","SS1619739988927","trial","","40","500","1956.880000001518","images/stimuli/spore_stims/simple_10_A_a.gif","images/stimuli/spore_stims/simple_18_A_b.gif","forced_short","","6","simple_dissimilar","images/stimuli/spore_stims/simple_18_A_b.gif","","","","",""
"","null","html-keyboard-response","83","661751","0.0-21.0-0.1","SS1619739988927","","","null","","","","","","<p><img src= images/blank.png width =""600"" height = ""600"" style=""position:fixed;top:50%; left:50%; transform: translate(-50%, -50%); border:5px solid black"">","","","","","","","",""
"","6424.380000000354","sequential-stimulus-presentation-old","84","668678","0.0-21.0-1.1","SS1619739988927","trial","","40","500","6924.380000000354","images/stimuli/spore_stims/simple_10_A_a.gif","images/stimuli/spore_stims/simple_18_A_b.gif","forced_short","","6","simple_dissimilar","images/stimuli/spore_stims/simple_18_A_b.gif","","","","",""
"","null","html-keyboard-response","85","669524","0.0-21.0-0.2","SS1619739988927","","","null","","","","","","<p><img src= images/blank.png width =""600"" height = ""600"" style=""position:fixed;top:50%; left:50%; transform: translate(-50%, -50%); border:5px solid black"">","","","","","","","",""
"","4793.140000001527","sequential-stimulus-presentation-old","86","674821","0.0-21.0-1.2","SS1619739988927","trial","","40","500","5293.140000001527","images/stimuli/spore_stims/simple_10_A_a.gif","images/stimuli/spore_stims/simple_18_A_b.gif","forced_short","","6","simple_dissimilar","images/stimuli/spore_stims/simple_10_A_a.gif","","","","",""
"","null","html-keyboard-response","87","675901","0.0-21.0-0.3","SS1619739988927","","","null","","","","","","<p><img src= images/blank.png width =""600"" height = ""600"" style=""position:fixed;top:50%; left:50%; transform: translate(-50%, -50%); border:5px solid black"">","","","","","","","",""
"","5099.759999997332","sequential-stimulus-presentation-old","88","681505","0.0-21.0-1.3","SS1619739988927","trial","","40","500","5599.759999997332","images/stimuli/spore_stims/simple_10_A_a.gif","images/stimuli/spore_stims/simple_18_A_b.gif","forced_short","","6","simple_dissimilar","images/stimuli/spore_stims/simple_10_A_a.gif","","","","",""
"","null","html-keyboard-response","89","682483","0.0-21.0-0.4","SS1619739988927","","","null","","","","","","<p><img src= images/blank.png width =""600"" height = ""600"" style=""position:fixed;top:50%; left:50%; transform: translate(-50%, -50%); border:5px solid black"">","","","","","","","",""
"","4633.470000000671","sequential-stimulus-presentation-old","90","687620","0.0-21.0-1.4","SS1619739988927","trial","","40","500","5133.470000000671","images/stimuli/spore_stims/simple_10_A_a.gif","images/stimuli/spore_stims/simple_18_A_b.gif","forced_short","","6","simple_dissimilar","images/stimuli/spore_stims/simple_18_A_b.gif","","","","",""
"","3402.880000001518","survey-multi-choice","91","691025","0.0-22.0","SS1619739988927","math_question","","","","","","","","","","","","{""Q0"":""3""}","[0]","3","",""
"","null","html-keyboard-response","92","692131","0.0-23.0-0.0","SS1619739988927","","","null","","","","","","<p><img src= images/blank.png width =""600"" height = ""600"" style=""position:fixed;top:50%; left:50%; transform: translate(-50%, -50%); border:5px solid black"">","","","","","","","",""
"","1833.9749999976484","sequential-stimulus-presentation-old","93","708968","0.0-23.0-1.0","SS1619739988927","trial","","40","500","2333.9749999976484","images/stimuli/spore_stims/complex_15_A_b.gif","images/stimuli/spore_stims/complex_08_A_a.gif","forced_long","","7","complex_dissimilar","images/stimuli/spore_stims/complex_08_A_a.gif","","","","",""
"","null","html-keyboard-response","94","710046","0.0-23.0-0.1","SS1619739988927","","","null","","","","","","<p><img src= images/blank.png width =""600"" height = ""600"" style=""position:fixed;top:50%; left:50%; transform: translate(-50%, -50%); border:5px solid black"">","","","","","","","",""
"","6107.359999998123","sequential-stimulus-presentation-old","95","716657","0.0-23.0-1.1","SS1619739988927","trial","","40","500","6607.359999998123","images/stimuli/spore_stims/complex_15_A_b.gif","images/stimuli/spore_stims/complex_08_A_a.gif","forced_long","","7","complex_dissimilar","images/stimuli/spore_stims/complex_08_A_a.gif","","","","",""
"","null","html-keyboard-response","96","717918","0.0-23.0-0.2","SS1619739988927","","","null","","","","","","<p><img src= images/blank.png width =""600"" height = ""600"" style=""position:fixed;top:50%; left:50%; transform: translate(-50%, -50%); border:5px solid black"">","","","","","","","",""
"","5419.18000000075","sequential-stimulus-presentation-old","97","723841","0.0-23.0-1.2","SS1619739988927","trial","","40","500","5919.18000000075","images/stimuli/spore_stims/complex_15_A_b.gif","images/stimuli/spore_stims/complex_08_A_a.gif","forced_long","","7","complex_dissimilar","images/stimuli/spore_stims/complex_08_A_a.gif","","","","",""
"","null","html-keyboard-response","98","725015","0.0-23.0-0.3","SS1619739988927","","","null","","","","","","<p><img src= images/blank.png width =""600"" height = ""600"" style=""position:fixed;top:50%; left:50%; transform: translate(-50%, -50%); border:5px solid black"">","","","","","","","",""
"","3817.275000001304","sequential-stimulus-presentation-old","99","729336","0.0-23.0-1.3","SS1619739988927","trial","","40","500","4317.275000001304","images/stimuli/spore_stims/complex_15_A_b.gif","images/stimuli/spore_stims/complex_08_A_a.gif","forced_long","","7","complex_dissimilar","images/stimuli/spore_stims/complex_08_A_a.gif","","","","",""
"","null","html-keyboard-response","100","730184","0.0-23.0-0.4","SS1619739988927","","","null","","","","","","<p><img src= images/blank.png width =""600"" height = ""600"" style=""position:fixed;top:50%; left:50%; transform: translate(-50%, -50%); border:5px solid black"">","","","","","","","",""
"","6748.4949999997625","sequential-stimulus-presentation-old","101","737436","0.0-23.0-1.4","SS1619739988927","trial","","40","500","7248.4949999997625","images/stimuli/spore_stims/complex_15_A_b.gif","images/stimuli/spore_stims/complex_08_A_a.gif","forced_long","","7","complex_dissimilar","images/stimuli/spore_stims/complex_08_A_a.gif","","","","",""
"","null","html-keyboard-response","102","738541","0.0-23.0-0.5","SS1619739988927","","","null","","","","","","<p><img src= images/blank.png width =""600"" height = ""600"" style=""position:fixed;top:50%; left:50%; transform: translate(-50%, -50%); border:5px solid black"">","","","","","","","",""
"","6846.340000000084","sequential-stimulus-presentation-old","103","745890","0.0-23.0-1.5","SS1619739988927","trial","","40","500","7346.340000000084","images/stimuli/spore_stims/complex_15_A_b.gif","images/stimuli/spore_stims/complex_08_A_a.gif","forced_long","","7","complex_dissimilar","images/stimuli/spore_stims/complex_08_A_a.gif","","","","",""
"","10596.13000000175","survey-multi-choice","104","756490","0.0-24.0","SS1619739988927","math_question","","","","","","","","","","","","{""Q0"":""4""}","[0]","4","",""
"","null","html-keyboard-response","105","757533","0.0-25.0-0.0","SS1619739988927","","","null","","","","","","<p><img src= images/blank.png width =""600"" height = ""600"" style=""position:fixed;top:50%; left:50%; transform: translate(-50%, -50%); border:5px solid black"">","","","","","","","",""
"","5867.1099999992875","sequential-stimulus-presentation-old","106","763905","0.0-25.0-1.0","SS1619739988927","trial","","40","500","6367.1099999992875","images/stimuli/spore_stims/simple_13_A_b.gif","images/stimuli/spore_stims/simple_07_A_a.gif","self_paced","","8","simple_dissimilar","images/stimuli/spore_stims/simple_07_A_a.gif","","","","",""
"","null","html-keyboard-response","107","765019","0.0-25.0-0.1","SS1619739988927","","","null","","","","","","<p><img src= images/blank.png width =""600"" height = ""600"" style=""position:fixed;top:50%; left:50%; transform: translate(-50%, -50%); border:5px solid black"">","","","","","","","",""
"","5555.984999999055","sequential-stimulus-presentation-old","108","771079","0.0-25.0-1.1","SS1619739988927","trial","","40","500","6055.984999999055","images/stimuli/spore_stims/simple_13_A_b.gif","images/stimuli/spore_stims/simple_07_A_a.gif","self_paced","","8","simple_dissimilar","images/stimuli/spore_stims/simple_07_A_a.gif","","","","",""
"","null","html-keyboard-response","109","772267","0.0-25.0-0.2","SS1619739988927","","","null","","","","","","<p><img src= images/blank.png width =""600"" height = ""600"" style=""position:fixed;top:50%; left:50%; transform: translate(-50%, -50%); border:5px solid black"">","","","","","","","",""
"","8097.260000002338","sequential-stimulus-presentation-old","110","780868","0.0-25.0-1.2","SS1619739988927","trial","","40","500","8597.260000002338","images/stimuli/spore_stims/simple_13_A_b.gif","images/stimuli/spore_stims/simple_07_A_a.gif","self_paced","","8","simple_dissimilar","images/stimuli/spore_stims/simple_13_A_b.gif","","","","",""
"","null","html-keyboard-response","111","781976","0.0-25.0-0.3","SS1619739988927","","","null","","","","","","<p><img src= images/blank.png width =""600"" height = ""600"" style=""position:fixed;top:50%; left:50%; transform: translate(-50%, -50%); border:5px solid black"">","","","","","","","",""
"","6386.8599999987055","sequential-stimulus-presentation-old","112","788868","0.0-25.0-1.3","SS1619739988927","trial","","40","500","6886.8599999987055","images/stimuli/spore_stims/simple_13_A_b.gif","images/stimuli/spore_stims/simple_07_A_a.gif","self_paced","","8","simple_dissimilar","images/stimuli/spore_stims/simple_07_A_a.gif","","","","",""
"","5525.0249999989755","survey-multi-choice","113","794396","0.0-26.0","SS1619739988927","math_question","","","","","","","","","","","","{""Q0"":""13""}","[0]","13","",""
"","null","html-keyboard-response","114","795258","0.0-27.0-0.0","SS1619739988927","","","null","","","","","","<p><img src= images/blank.png width =""600"" height = ""600"" style=""position:fixed;top:50%; left:50%; transform: translate(-50%, -50%); border:5px solid black"">","","","","","","","",""
"","986.6449999972247","sequential-stimulus-presentation-old","115","796750","0.0-27.0-1.0","SS1619739988927","trial","","40","500","1486.6449999972247","images/stimuli/spore_stims/complex_05_A_b.gif","images/stimuli/spore_stims/complex_17_A_a.gif","forced_short","","9","complex_dissimilar","images/stimuli/spore_stims/complex_17_A_a.gif","","","","",""
"","null","html-keyboard-response","116","797956","0.0-27.0-0.1","SS1619739988927","","","null","","","","","","<p><img src= images/blank.png width =""600"" height = ""600"" style=""position:fixed;top:50%; left:50%; transform: translate(-50%, -50%); border:5px solid black"">","","","","","","","",""
"","4005.830000001937","sequential-stimulus-presentation-old","117","802467","0.0-27.0-1.1","SS1619739988927","trial","","40","500","4505.830000001937","images/stimuli/spore_stims/complex_05_A_b.gif","images/stimuli/spore_stims/complex_17_A_a.gif","forced_short","","9","complex_dissimilar","images/stimuli/spore_stims/complex_17_A_a.gif","","","","",""
"","null","html-keyboard-response","118","803312","0.0-27.0-0.2","SS1619739988927","","","null","","","","","","<p><img src= images/blank.png width =""600"" height = ""600"" style=""position:fixed;top:50%; left:50%; transform: translate(-50%, -50%); border:5px solid black"">","","","","","","","",""
"","5334.715000000782","sequential-stimulus-presentation-old","119","809151","0.0-27.0-1.2","SS1619739988927","trial","","40","500","5834.715000000782","images/stimuli/spore_stims/complex_05_A_b.gif","images/stimuli/spore_stims/complex_17_A_a.gif","forced_short","","9","complex_dissimilar","images/stimuli/spore_stims/complex_17_A_a.gif","","","","",""
"","null","html-keyboard-response","120","810060","0.0-27.0-0.3","SS1619739988927","","","null","","","","","","<p><img src= images/blank.png width =""600"" height = ""600"" style=""position:fixed;top:50%; left:50%; transform: translate(-50%, -50%); border:5px solid black"">","","","","","","","",""
"","8420.39000000304","sequential-stimulus-presentation-old","121","818985","0.0-27.0-1.3","SS1619739988927","trial","","40","500","8920.39000000304","images/stimuli/spore_stims/complex_05_A_b.gif","images/stimuli/spore_stims/complex_17_A_a.gif","forced_short","","9","complex_dissimilar","images/stimuli/spore_stims/complex_05_A_b.gif","","","","",""
"","5022.290000000736","survey-multi-choice","122","824010","0.0-28.0","SS1619739988927","math_question","","","","","","","","","","","","{""Q0"":""13""}","[0]","13","",""
"","null","html-keyboard-response","123","824837","0.0-29.0-0.0","SS1619739988927","","","null","","","","","","<p><img src= images/blank.png width =""600"" height = ""600"" style=""position:fixed;top:50%; left:50%; transform: translate(-50%, -50%); border:5px solid black"">","","","","","","","",""
"","2709.7350000003353","sequential-stimulus-presentation-old","124","828051","0.0-29.0-1.0","SS1619739988927","trial","","40","500","3209.7350000003353","images/stimuli/spore_stims/complex_14_A_a.gif","images/stimuli/spore_stims/complex_08_A_b.gif","forced_short","","10","complex_dissimilar","images/stimuli/spore_stims/complex_08_A_b.gif","","","","",""
"","null","html-keyboard-response","125","829298","0.0-29.0-0.1","SS1619739988927","","","null","","","","","","<p><img src= images/blank.png width =""600"" height = ""600"" style=""position:fixed;top:50%; left:50%; transform: translate(-50%, -50%); border:5px solid black"">","","","","","","","",""
"","7963.799999997718","sequential-stimulus-presentation-old","126","837765","0.0-29.0-1.1","SS1619739988927","trial","","40","500","8463.799999997718","images/stimuli/spore_stims/complex_14_A_a.gif","images/stimuli/spore_stims/complex_08_A_b.gif","forced_short","","10","complex_dissimilar","images/stimuli/spore_stims/complex_08_A_b.gif","","","","",""
"","null","html-keyboard-response","127","838773","0.0-29.0-0.2","SS1619739988927","","","null","","","","","","<p><img src= images/blank.png width =""600"" height = ""600"" style=""position:fixed;top:50%; left:50%; transform: translate(-50%, -50%); border:5px solid black"">","","","","","","","",""
"","6265.5899999991525","sequential-stimulus-presentation-old","128","845542","0.0-29.0-1.2","SS1619739988927","trial","","40","500","6765.5899999991525","images/stimuli/spore_stims/complex_14_A_a.gif","images/stimuli/spore_stims/complex_08_A_b.gif","forced_short","","10","complex_dissimilar","images/stimuli/spore_stims/complex_08_A_b.gif","","","","",""
"","null","html-keyboard-response","129","846782","0.0-29.0-0.3","SS1619739988927","","","null","","","","","","<p><img src= images/blank.png width =""600"" height = ""600"" style=""position:fixed;top:50%; left:50%; transform: translate(-50%, -50%); border:5px solid black"">","","","","","","","",""
"","8946.19500000053","sequential-stimulus-presentation-old","130","856232","0.0-29.0-1.3","SS1619739988927","trial","","40","500","9446.19500000053","images/stimuli/spore_stims/complex_14_A_a.gif","images/stimuli/spore_stims/complex_08_A_b.gif","forced_short","","10","complex_dissimilar","images/stimuli/spore_stims/complex_14_A_a.gif","","","","",""
"","null","html-keyboard-response","131","857519","0.0-29.0-0.4","SS1619739988927","","","null","","","","","","<p><img src= images/blank.png width =""600"" height = ""600"" style=""position:fixed;top:50%; left:50%; transform: translate(-50%, -50%); border:5px solid black"">","","","","","","","",""
"","3870.419999999227","sequential-stimulus-presentation-old","132","861893","0.0-29.0-1.4","SS1619739988927","trial","","40","500","4370.419999999227","images/stimuli/spore_stims/complex_14_A_a.gif","images/stimuli/spore_stims/complex_08_A_b.gif","forced_short","","10","complex_dissimilar","images/stimuli/spore_stims/complex_08_A_b.gif","","","","",""
"","null","html-keyboard-response","133","863176","0.0-29.0-0.5","SS1619739988927","","","null","","","","","","<p><img src= images/blank.png width =""600"" height = ""600"" style=""position:fixed;top:50%; left:50%; transform: translate(-50%, -50%); border:5px solid black"">","","","","","","","",""
"","4988.030000000377","sequential-stimulus-presentation-old","134","868670","0.0-29.0-1.5","SS1619739988927","trial","","40","500","5488.030000000377","images/stimuli/spore_stims/complex_14_A_a.gif","images/stimuli/spore_stims/complex_08_A_b.gif","forced_short","","10","complex_dissimilar","images/stimuli/spore_stims/complex_14_A_a.gif","","","","",""
"","2668.675000000745","survey-multi-choice","135","871342","0.0-30.0","SS1619739988927","math_question","","","","","","","","","","","","{""Q0"":""4""}","[0]","4","",""
"","null","html-keyboard-response","136","872425","0.0-31.0-0.0","SS1619739988927","","","null","","","","","","<p><img src= images/blank.png width =""600"" height = ""600"" style=""position:fixed;top:50%; left:50%; transform: translate(-50%, -50%); border:5px solid black"">","","","","","","","",""
"","16592.694999999367","sequential-stimulus-presentation-old","137","889521","0.0-31.0-1.0","SS1619739988927","trial","","40","500","17092.694999999367","images/stimuli/spore_stims/simple_08_A_a.gif","images/stimuli/spore_stims/simple_11_A_b.gif","self_paced","","11","simple_dissimilar","images/stimuli/spore_stims/simple_11_A_b.gif","","","","",""
"","null","html-keyboard-response","138","890663","0.0-31.0-0.1","SS1619739988927","","","null","","","","","","<p><img src= images/blank.png width =""600"" height = ""600"" style=""position:fixed;top:50%; left:50%; transform: translate(-50%, -50%); border:5px solid black"">","","","","","","","",""
"","5008.610000000801","sequential-stimulus-presentation-old","139","896175","0.0-31.0-1.1","SS1619739988927","trial","","40","500","5508.610000000801","images/stimuli/spore_stims/simple_08_A_a.gif","images/stimuli/spore_stims/simple_11_A_b.gif","self_paced","","11","simple_dissimilar","images/stimuli/spore_stims/simple_11_A_b.gif","","","","",""
"","null","html-keyboard-response","140","896992","0.0-31.0-0.2","SS1619739988927","","","null","","","","","","<p><img src= images/blank.png width =""600"" height = ""600"" style=""position:fixed;top:50%; left:50%; transform: translate(-50%, -50%); border:5px solid black"">","","","","","","","",""
"","2925.470000001951","sequential-stimulus-presentation-old","141","900422","0.0-31.0-1.2","SS1619739988927","trial","","40","500","3425.470000001951","images/stimuli/spore_stims/simple_08_A_a.gif","images/stimuli/spore_stims/simple_11_A_b.gif","self_paced","","11","simple_dissimilar","images/stimuli/spore_stims/simple_08_A_a.gif","","","","",""
"","null","html-keyboard-response","142","901512","0.0-31.0-0.3","SS1619739988927","","","null","","","","","","<p><img src= images/blank.png width =""600"" height = ""600"" style=""position:fixed;top:50%; left:50%; transform: translate(-50%, -50%); border:5px solid black"">","","","","","","","",""
"","4573.440000000177","sequential-stimulus-presentation-old","143","906591","0.0-31.0-1.3","SS1619739988927","trial","","40","500","5073.440000000177","images/stimuli/spore_stims/simple_08_A_a.gif","images/stimuli/spore_stims/simple_11_A_b.gif","self_paced","","11","simple_dissimilar","images/stimuli/spore_stims/simple_11_A_b.gif","","","","",""
"[{""page_index"":0,""viewing_time"":4575.385000000009}]","4575.619999999646","instructions","144","911169","0.0-32.0","SS1619739988927","instructions","","","","","","","","","","","","","","","",""
"","19471.99999999802","survey-likert","145","930645","0.0-33.0","SS1619739988927","similarity_question","","","","","","","","","","","","{""Q0"":1}","[0]","","images/stimuli/spore_stims/simple_14_A_b.gif","images/stimuli/spore_stims/simple_18_A_a.gif"
"","10765.890000002342","survey-likert","146","941415","0.0-34.0","SS1619739988927","similarity_question","","","","","","","","","","","","{""Q0"":3}","[0]","","images/stimuli/spore_stims/simple_11_A_b.gif","images/stimuli/spore_stims/simple_08_A_a.gif"
"","22544.620000000577","survey-likert","147","963963","0.0-35.0","SS1619739988927","similarity_question","","","","","","","","","","","","{""Q0"":2}","[0]","","images/stimuli/spore_stims/complex_18_A_a.gif","images/stimuli/spore_stims/complex_14_A_b.gif"
"","7289.694999999483","survey-likert","148","971256","0.0-36.0","SS1619739988927","similarity_question","","","","","","","","","","","","{""Q0"":0}","[0]","","images/stimuli/spore_stims/simple_07_A_a.gif","images/stimuli/spore_stims/simple_13_A_b.gif"
"","6400.304999999236","survey-likert","149","977660","0.0-37.0","SS1619739988927","similarity_question","","","","","","","","","","","","{""Q0"":4}","[0]","","images/stimuli/spore_stims/simple_19_A_a.gif","images/stimuli/spore_stims/simple_17_A_b.gif"
"","3945.0099999995437","survey-likert","150","981608","0.0-38.0","SS1619739988927","similarity_question","","","","","","","","","","","","{""Q0"":4}","[0]","","images/stimuli/spore_stims/simple_05_A_a.gif","images/stimuli/spore_stims/simple_09_A_b.gif"
"","9270.88499999803","survey-likert","151","990883","0.0-39.0","SS1619739988927","similarity_question","","","","","","","","","","","","{""Q0"":2}","[0]","","images/stimuli/spore_stims/complex_15_A_b.gif","images/stimuli/spore_stims/complex_08_A_a.gif"
"","9249.86500000162","survey-likert","152","1000136","0.0-40.0","SS1619739988927","similarity_question","","","","","","","","","","","","{""Q0"":4}","[0]","","images/stimuli/spore_stims/complex_14_A_a.gif","images/stimuli/spore_stims/complex_08_A_b.gif"
"","5195.120000000228","survey-likert","153","1005334","0.0-41.0","SS1619739988927","similarity_question","","","","","","","","","","","","{""Q0"":0}","[0]","","images/stimuli/spore_stims/complex_17_A_a.gif","images/stimuli/spore_stims/complex_05_A_b.gif"
"","8452.555000003427","survey-likert","154","1013791","0.0-42.0","SS1619739988927","similarity_question","","","","","","","","","","","","{""Q0"":2}","[0]","","images/stimuli/spore_stims/complex_16_A_a.gif","images/stimuli/spore_stims/complex_17_A_b.gif"
"","2741.7850000018952","survey-likert","155","1016537","0.0-43.0","SS1619739988927","similarity_question","","","","","","","","","","","","{""Q0"":0}","[0]","","images/stimuli/spore_stims/simple_18_A_b.gif","images/stimuli/spore_stims/simple_10_A_a.gif"
"","7669.439999997849","survey-likert","156","1024211","0.0-44.0","SS1619739988927","similarity_question","","","","","","","","","","","","{""Q0"":2}","[0]","","images/stimuli/spore_stims/complex_03_A_b.gif","images/stimuli/spore_stims/complex_12_A_a.gif"
"[{""page_index"":0,""viewing_time"":4280.660000000382}]","4280.900000001537","instructions","157","1028495","0.0-45.0","SS1619739988927","instructions","","","","","","","","","","","","","","","",""
"","6340.850000000326","survey-likert","158","1034839","0.0-46.0","SS1619739988927","","","","","","","","","images/stimuli/spore_stims/simple_14_A_b.gif","","","","{""Q0"":1}","[0]","","",""
"","5792.164999998873","survey-likert","159","1040634","0.0-47.0","SS1619739988927","","","","","","","","","images/stimuli/spore_stims/simple_11_A_b.gif","","","","{""Q0"":2}","[0]","","",""
"","4715.335000000894","survey-likert","160","1045354","0.0-48.0","SS1619739988927","","","","","","","","","images/stimuli/spore_stims/complex_14_A_b.gif","","","","{""Q0"":4}","[0]","","",""
"","5840.345000000671","survey-likert","161","1051198","0.0-49.0","SS1619739988927","","","","","","","","","images/stimuli/spore_stims/complex_17_A_b.gif","","","","{""Q0"":4}","[0]","","",""
"","3144.505000000121","survey-likert","162","1054347","0.0-50.0","SS1619739988927","","","","","","","","","images/stimuli/spore_stims/complex_12_A_a.gif","","","","{""Q0"":5}","[0]","","",""
"","5166.090000002412","survey-likert","163","1059517","0.0-51.0","SS1619739988927","","","","","","","","","images/stimuli/spore_stims/simple_17_A_b.gif","","","","{""Q0"":2}","[0]","","",""
"","4370.459999998333","survey-likert","164","1063891","0.0-52.0","SS1619739988927","","","","","","","","","images/stimuli/spore_stims/simple_07_A_a.gif","","","","{""Q0"":0}","[0]","","",""
"","29038.145000002347","survey-likert","165","1092932","0.0-53.0","SS1619739988927","","","","","","","","","images/stimuli/spore_stims/simple_09_A_b.gif","","","","{""Q0"":2}","[0]","","",""
"","6520.809999998193","survey-likert","166","1099456","0.0-54.0","SS1619739988927","","","","","","","","","images/stimuli/spore_stims/complex_15_A_b.gif","","","","{""Q0"":4}","[0]","","",""
"","3106.064999999944","survey-likert","167","1102566","0.0-55.0","SS1619739988927","","","","","","","","","images/stimuli/spore_stims/complex_05_A_b.gif","","","","{""Q0"":4}","[0]","","",""
"","3892.2700000002515","survey-likert","168","1106462","0.0-56.0","SS1619739988927","","","","","","","","","images/stimuli/spore_stims/complex_14_A_a.gif","","","","{""Q0"":4}","[0]","","",""
"","5606.255000002449","survey-likert","169","1112072","0.0-57.0","SS1619739988927","","","","","","","","","images/stimuli/spore_stims/simple_18_A_b.gif","","","","{""Q0"":3}","[0]","","",""
"[{""page_index"":0,""viewing_time"":2333.26999999932}]","2333.510000000475","instructions","170","1114408","0.0-58.0","SS1619739988927","instructions","","","","","","","","","","","","","","","",""
"","2436.7300000013784","demog-age","171","1116850","0.0-59.0","SS1619739988927","","","","","","","","","","","","","{""age"":""22""}","","","",""
"","7774.280000001658","demog-ethnic-US","172","1124630","0.0-60.0","SS1619739988927","","","","","","","","","","","","","{""ethnicity"":[""Hispanic or Latino"",""White""]}","[0]","","",""
"","40204.64500000165","demog-gender-and-education","173","1164840","0.0-61.0","SS1619739988927","","","","","","","","","","","","","{""gender"":""Male"",""education"":""Bachelor's Degree""}","[0,1]","","",""
"","50280.97500000149","survey-text","174","1215128","0.0-62.0","SS1619739988927","feedback","","","","","","","","","","","","{""Q0"":""Animations were a bit pixeled. Also, I thought the monochromatic figures looked like dog's toys or sexual toys.""}","","","",""
"[{""page_index"":0,""viewing_time"":1926.3849999988452}]","1926.704999997979","instructions","175","1217058","0.0-63.0","SS1619739988927","instructions","","","","","","","","","","","","","","","",""
