"view_history","rt","trial_type","trial_index","time_elapsed","internal_node_id","subject","stimulus_type","trial_stimulus","key_press","minimum_viewing_duration","trial_looking_time","block_deviant","block_background","exposure_type","stimulus","block_number","block_type","stimulus_displayed","responses","question_order","math_correct_answer","stimulus_left","stimulus_right"
"[{""page_index"":0,""viewing_time"":21840.89499991387}]","21842.255000025034","instructions","0","21845","0.0-0.0","SS1619740102026","","","","","","","","","","","","","","","","",""
"[{""page_index"":0,""viewing_time"":20291.5600000415},{""page_index"":1,""viewing_time"":4279.8349999357015}]","24571.780000114813","instructions","1","49068","0.0-1.0","SS1619740102026","instructions","","","","","","","","","","","","","","","",""
"","10822.064999956638","sequential-stimulus-presentation-old","2","60399","0.0-2.0","SS1619740102026","","","40","500","11322.064999956638","null","null","self_paced","","","","","","","","",""
"","4557.054999982938","sequential-stimulus-presentation-old","3","65459","0.0-3.0","SS1619740102026","","","40","500","5057.054999982938","null","null","self_paced","","","","","","","","",""
"[{""page_index"":0,""viewing_time"":27102.17999992892}]","27102.590000024065","instructions","4","92563","0.0-4.0","SS1619740102026","instructions","","","","","","","","","","","","","","","",""
"","1429.594999877736","sequential-stimulus-presentation-old","5","108996","0.0-5.0","SS1619740102026","","","40","500","1929.594999877736","null","null","forced_long","","","","","","","","",""
"","3009.5550001133233","sequential-stimulus-presentation-old","6","112509","0.0-6.0","SS1619740102026","","","40","500","3509.5550001133233","null","null","forced_long","","","","","","","","",""
"[{""page_index"":0,""viewing_time"":3620.084999827668}]","3620.579999871552","instructions","7","116132","0.0-7.0","SS1619740102026","instructions","","","","","","","","","","","","","","","",""
"[{""page_index"":0,""viewing_time"":21013.664999976754},{""page_index"":1,""viewing_time"":10600.029999855906},{""page_index"":2,""viewing_time"":6383.970000082627},{""page_index"":3,""viewing_time"":1519.9400000274181},{""page_index"":4,""viewing_time"":815.9649998415262}]","40334.07499990426","instructions","8","156468","0.0-8.0","SS1619740102026","instructions","","","","","","","","","","","","","","","",""
"","null","html-keyboard-response","9","157326","0.0-9.0-0.0","SS1619740102026","","","null","","","","","","<p><img src= images/blank.png width =""600"" height = ""600"" style=""position:fixed;top:50%; left:50%; transform: translate(-50%, -50%); border:5px solid black"">","","","","","","","",""
"","641.6100000496954","sequential-stimulus-presentation-old","10","172976","0.0-9.0-1.0","SS1619740102026","trial","","40","500","1141.6100000496954","images/stimuli/spore_stims/complex_07_A_b.gif","images/stimuli/spore_stims/complex_09_A_a.gif","forced_long","","0","complex_dissimilar","images/stimuli/spore_stims/complex_09_A_a.gif","","","","",""
"","null","html-keyboard-response","11","174090","0.0-9.0-0.1","SS1619740102026","","","null","","","","","","<p><img src= images/blank.png width =""600"" height = ""600"" style=""position:fixed;top:50%; left:50%; transform: translate(-50%, -50%); border:5px solid black"">","","","","","","","",""
"","32161.24999988824","sequential-stimulus-presentation-old","12","206756","0.0-9.0-1.1","SS1619740102026","trial","","40","500","32661.24999988824","images/stimuli/spore_stims/complex_07_A_b.gif","images/stimuli/spore_stims/complex_09_A_a.gif","forced_long","","0","complex_dissimilar","images/stimuli/spore_stims/complex_07_A_b.gif","","","","",""
"","null","html-keyboard-response","13","207850","0.0-9.0-0.2","SS1619740102026","","","null","","","","","","<p><img src= images/blank.png width =""600"" height = ""600"" style=""position:fixed;top:50%; left:50%; transform: translate(-50%, -50%); border:5px solid black"">","","","","","","","",""
"","2909.1500001959503","sequential-stimulus-presentation-old","14","211267","0.0-9.0-1.2","SS1619740102026","trial","","40","500","3409.1500001959503","images/stimuli/spore_stims/complex_07_A_b.gif","images/stimuli/spore_stims/complex_09_A_a.gif","forced_long","","0","complex_dissimilar","images/stimuli/spore_stims/complex_07_A_b.gif","","","","",""
"","null","html-keyboard-response","15","212151","0.0-9.0-0.3","SS1619740102026","","","null","","","","","","<p><img src= images/blank.png width =""600"" height = ""600"" style=""position:fixed;top:50%; left:50%; transform: translate(-50%, -50%); border:5px solid black"">","","","","","","","",""
"","2380.8399999979883","sequential-stimulus-presentation-old","16","215037","0.0-9.0-1.3","SS1619740102026","trial","","40","500","2880.8399999979883","images/stimuli/spore_stims/complex_07_A_b.gif","images/stimuli/spore_stims/complex_09_A_a.gif","forced_long","","0","complex_dissimilar","images/stimuli/spore_stims/complex_09_A_a.gif","","","","",""
"","4194.904999807477","survey-multi-choice","17","219236","0.0-10.0","SS1619740102026","math_question","","","","","","","","","","","","{""Q0"":""7""}","[0]","7","",""
"","null","html-keyboard-response","18","220252","0.0-11.0-0.0","SS1619740102026","","","null","","","","","","<p><img src= images/blank.png width =""600"" height = ""600"" style=""position:fixed;top:50%; left:50%; transform: translate(-50%, -50%); border:5px solid black"">","","","","","","","",""
"","2059.699999867007","sequential-stimulus-presentation-old","19","222823","0.0-11.0-1.0","SS1619740102026","trial","","40","500","2559.699999867007","images/stimuli/spore_stims/simple_02_A_a.gif","images/stimuli/spore_stims/simple_14_A_b.gif","forced_short","","1","simple_dissimilar","images/stimuli/spore_stims/simple_14_A_b.gif","","","","",""
"","null","html-keyboard-response","20","223734","0.0-11.0-0.1","SS1619740102026","","","null","","","","","","<p><img src= images/blank.png width =""600"" height = ""600"" style=""position:fixed;top:50%; left:50%; transform: translate(-50%, -50%); border:5px solid black"">","","","","","","","",""
"","3972.360000014305","sequential-stimulus-presentation-old","21","228212","0.0-11.0-1.1","SS1619740102026","trial","","40","500","4472.360000014305","images/stimuli/spore_stims/simple_02_A_a.gif","images/stimuli/spore_stims/simple_14_A_b.gif","forced_short","","1","simple_dissimilar","images/stimuli/spore_stims/simple_14_A_b.gif","","","","",""
"","null","html-keyboard-response","22","229043","0.0-11.0-0.2","SS1619740102026","","","null","","","","","","<p><img src= images/blank.png width =""600"" height = ""600"" style=""position:fixed;top:50%; left:50%; transform: translate(-50%, -50%); border:5px solid black"">","","","","","","","",""
"","4268.739999970421","sequential-stimulus-presentation-old","23","233821","0.0-11.0-1.2","SS1619740102026","trial","","40","500","4768.739999970421","images/stimuli/spore_stims/simple_02_A_a.gif","images/stimuli/spore_stims/simple_14_A_b.gif","forced_short","","1","simple_dissimilar","images/stimuli/spore_stims/simple_14_A_b.gif","","","","",""
"","null","html-keyboard-response","24","234661","0.0-11.0-0.3","SS1619740102026","","","null","","","","","","<p><img src= images/blank.png width =""600"" height = ""600"" style=""position:fixed;top:50%; left:50%; transform: translate(-50%, -50%); border:5px solid black"">","","","","","","","",""
"","3397.415000014007","sequential-stimulus-presentation-old","25","238566","0.0-11.0-1.3","SS1619740102026","trial","","40","500","3897.415000014007","images/stimuli/spore_stims/simple_02_A_a.gif","images/stimuli/spore_stims/simple_14_A_b.gif","forced_short","","1","simple_dissimilar","images/stimuli/spore_stims/simple_02_A_a.gif","","","","",""
"","null","html-keyboard-response","26","239658","0.0-11.0-0.4","SS1619740102026","","","null","","","","","","<p><img src= images/blank.png width =""600"" height = ""600"" style=""position:fixed;top:50%; left:50%; transform: translate(-50%, -50%); border:5px solid black"">","","","","","","","",""
"","5052.550000138581","sequential-stimulus-presentation-old","27","245218","0.0-11.0-1.4","SS1619740102026","trial","","40","500","5552.550000138581","images/stimuli/spore_stims/simple_02_A_a.gif","images/stimuli/spore_stims/simple_14_A_b.gif","forced_short","","1","simple_dissimilar","images/stimuli/spore_stims/simple_14_A_b.gif","","","","",""
"","null","html-keyboard-response","28","246308","0.0-11.0-0.5","SS1619740102026","","","null","","","","","","<p><img src= images/blank.png width =""600"" height = ""600"" style=""position:fixed;top:50%; left:50%; transform: translate(-50%, -50%); border:5px solid black"">","","","","","","","",""
"","2228.6950000561774","sequential-stimulus-presentation-old","29","249061","0.0-11.0-1.5","SS1619740102026","trial","","40","500","2728.6950000561774","images/stimuli/spore_stims/simple_02_A_a.gif","images/stimuli/spore_stims/simple_14_A_b.gif","forced_short","","1","simple_dissimilar","images/stimuli/spore_stims/simple_02_A_a.gif","","","","",""
"","5291.8799999170005","survey-multi-choice","30","254356","0.0-12.0","SS1619740102026","math_question","","","","","","","","","","","","{""Q0"":""14""}","[0]","14","",""
"","null","html-keyboard-response","31","255378","0.0-13.0-0.0","SS1619740102026","","","null","","","","","","<p><img src= images/blank.png width =""600"" height = ""600"" style=""position:fixed;top:50%; left:50%; transform: translate(-50%, -50%); border:5px solid black"">","","","","","","","",""
"","10882.299999939278","sequential-stimulus-presentation-old","32","266765","0.0-13.0-1.0","SS1619740102026","trial","","40","500","11382.299999939278","images/stimuli/spore_stims/complex_13_A_a.gif","images/stimuli/spore_stims/complex_15_A_b.gif","self_paced","","2","complex_dissimilar","images/stimuli/spore_stims/complex_15_A_b.gif","","","","",""
"","null","html-keyboard-response","33","267856","0.0-13.0-0.1","SS1619740102026","","","null","","","","","","<p><img src= images/blank.png width =""600"" height = ""600"" style=""position:fixed;top:50%; left:50%; transform: translate(-50%, -50%); border:5px solid black"">","","","","","","","",""
"","4289.190000155941","sequential-stimulus-presentation-old","34","272653","0.0-13.0-1.1","SS1619740102026","trial","","40","500","4789.190000155941","images/stimuli/spore_stims/complex_13_A_a.gif","images/stimuli/spore_stims/complex_15_A_b.gif","self_paced","","2","complex_dissimilar","images/stimuli/spore_stims/complex_15_A_b.gif","","","","",""
"","null","html-keyboard-response","35","273644","0.0-13.0-0.2","SS1619740102026","","","null","","","","","","<p><img src= images/blank.png width =""600"" height = ""600"" style=""position:fixed;top:50%; left:50%; transform: translate(-50%, -50%); border:5px solid black"">","","","","","","","",""
"","663.3549998514354","sequential-stimulus-presentation-old","36","274815","0.0-13.0-1.2","SS1619740102026","trial","","40","500","1163.3549998514354","images/stimuli/spore_stims/complex_13_A_a.gif","images/stimuli/spore_stims/complex_15_A_b.gif","self_paced","","2","complex_dissimilar","images/stimuli/spore_stims/complex_15_A_b.gif","","","","",""
"","null","html-keyboard-response","37","275735","0.0-13.0-0.3","SS1619740102026","","","null","","","","","","<p><img src= images/blank.png width =""600"" height = ""600"" style=""position:fixed;top:50%; left:50%; transform: translate(-50%, -50%); border:5px solid black"">","","","","","","","",""
"","1519.0249998122454","sequential-stimulus-presentation-old","38","277759","0.0-13.0-1.3","SS1619740102026","trial","","40","500","2019.0249998122454","images/stimuli/spore_stims/complex_13_A_a.gif","images/stimuli/spore_stims/complex_15_A_b.gif","self_paced","","2","complex_dissimilar","images/stimuli/spore_stims/complex_15_A_b.gif","","","","",""
"","null","html-keyboard-response","39","278846","0.0-13.0-0.4","SS1619740102026","","","null","","","","","","<p><img src= images/blank.png width =""600"" height = ""600"" style=""position:fixed;top:50%; left:50%; transform: translate(-50%, -50%); border:5px solid black"">","","","","","","","",""
"","3206.55500004068","sequential-stimulus-presentation-old","40","282559","0.0-13.0-1.4","SS1619740102026","trial","","40","500","3706.55500004068","images/stimuli/spore_stims/complex_13_A_a.gif","images/stimuli/spore_stims/complex_15_A_b.gif","self_paced","","2","complex_dissimilar","images/stimuli/spore_stims/complex_13_A_a.gif","","","","",""
"","3345.8949998021126","survey-multi-choice","41","285907","0.0-14.0","SS1619740102026","math_question","","","","","","","","","","","","{""Q0"":""5""}","[0]","5","",""
"","null","html-keyboard-response","42","287166","0.0-15.0-0.0","SS1619740102026","","","null","","","","","","<p><img src= images/blank.png width =""600"" height = ""600"" style=""position:fixed;top:50%; left:50%; transform: translate(-50%, -50%); border:5px solid black"">","","","","","","","",""
"","1381.7549999803305","sequential-stimulus-presentation-old","43","303553","0.0-15.0-1.0","SS1619740102026","trial","","40","500","1881.7549999803305","images/stimuli/spore_stims/complex_08_A_b.gif","images/stimuli/spore_stims/complex_15_A_a.gif","forced_long","","3","complex_dissimilar","images/stimuli/spore_stims/complex_15_A_a.gif","","","","",""
"","null","html-keyboard-response","44","304680","0.0-15.0-0.1","SS1619740102026","","","null","","","","","","<p><img src= images/blank.png width =""600"" height = ""600"" style=""position:fixed;top:50%; left:50%; transform: translate(-50%, -50%); border:5px solid black"">","","","","","","","",""
"","14486.460000043735","sequential-stimulus-presentation-old","45","319675","0.0-15.0-1.1","SS1619740102026","trial","","40","500","14986.460000043735","images/stimuli/spore_stims/complex_08_A_b.gif","images/stimuli/spore_stims/complex_15_A_a.gif","forced_long","","3","complex_dissimilar","images/stimuli/spore_stims/complex_08_A_b.gif","","","","",""
"","null","html-keyboard-response","46","320761","0.0-15.0-0.2","SS1619740102026","","","null","","","","","","<p><img src= images/blank.png width =""600"" height = ""600"" style=""position:fixed;top:50%; left:50%; transform: translate(-50%, -50%); border:5px solid black"">","","","","","","","",""
"","595.2149999793619","sequential-stimulus-presentation-old","47","321861","0.0-15.0-1.2","SS1619740102026","trial","","40","500","1095.214999979362","images/stimuli/spore_stims/complex_08_A_b.gif","images/stimuli/spore_stims/complex_15_A_a.gif","forced_long","","3","complex_dissimilar","images/stimuli/spore_stims/complex_15_A_a.gif","","","","",""
"","null","html-keyboard-response","48","322906","0.0-15.0-0.3","SS1619740102026","","","null","","","","","","<p><img src= images/blank.png width =""600"" height = ""600"" style=""position:fixed;top:50%; left:50%; transform: translate(-50%, -50%); border:5px solid black"">","","","","","","","",""
"","1176.065000006929","sequential-stimulus-presentation-old","49","324586","0.0-15.0-1.3","SS1619740102026","trial","","40","500","1676.065000006929","images/stimuli/spore_stims/complex_08_A_b.gif","images/stimuli/spore_stims/complex_15_A_a.gif","forced_long","","3","complex_dissimilar","images/stimuli/spore_stims/complex_08_A_b.gif","","","","",""
"","null","html-keyboard-response","50","325771","0.0-15.0-0.4","SS1619740102026","","","null","","","","","","<p><img src= images/blank.png width =""600"" height = ""600"" style=""position:fixed;top:50%; left:50%; transform: translate(-50%, -50%); border:5px solid black"">","","","","","","","",""
"","3631.974999792874","sequential-stimulus-presentation-old","51","329910","0.0-15.0-1.4","SS1619740102026","trial","","40","500","4131.974999792874","images/stimuli/spore_stims/complex_08_A_b.gif","images/stimuli/spore_stims/complex_15_A_a.gif","forced_long","","3","complex_dissimilar","images/stimuli/spore_stims/complex_15_A_a.gif","","","","",""
"","null","html-keyboard-response","52","331172","0.0-15.0-0.5","SS1619740102026","","","null","","","","","","<p><img src= images/blank.png width =""600"" height = ""600"" style=""position:fixed;top:50%; left:50%; transform: translate(-50%, -50%); border:5px solid black"">","","","","","","","",""
"","2478.8549998775125","sequential-stimulus-presentation-old","53","334158","0.0-15.0-1.5","SS1619740102026","trial","","40","500","2978.8549998775125","images/stimuli/spore_stims/complex_08_A_b.gif","images/stimuli/spore_stims/complex_15_A_a.gif","forced_long","","3","complex_dissimilar","images/stimuli/spore_stims/complex_15_A_a.gif","","","","",""
"","2986.750000156462","survey-multi-choice","54","337148","0.0-16.0","SS1619740102026","math_question","","","","","","","","","","","","{""Q0"":""10""}","[0]","10","",""
"","null","html-keyboard-response","55","338137","0.0-17.0-0.0","SS1619740102026","","","null","","","","","","<p><img src= images/blank.png width =""600"" height = ""600"" style=""position:fixed;top:50%; left:50%; transform: translate(-50%, -50%); border:5px solid black"">","","","","","","","",""
"","1797.6050002034754","sequential-stimulus-presentation-old","56","340445","0.0-17.0-1.0","SS1619740102026","trial","","40","500","2297.6050002034754","images/stimuli/spore_stims/complex_17_A_a.gif","images/stimuli/spore_stims/complex_11_A_b.gif","forced_short","","4","complex_dissimilar","images/stimuli/spore_stims/complex_11_A_b.gif","","","","",""
"","null","html-keyboard-response","57","341554","0.0-17.0-0.1","SS1619740102026","","","null","","","","","","<p><img src= images/blank.png width =""600"" height = ""600"" style=""position:fixed;top:50%; left:50%; transform: translate(-50%, -50%); border:5px solid black"">","","","","","","","",""
"","5587.509999983013","sequential-stimulus-presentation-old","58","347648","0.0-17.0-1.1","SS1619740102026","trial","","40","500","6087.509999983013","images/stimuli/spore_stims/complex_17_A_a.gif","images/stimuli/spore_stims/complex_11_A_b.gif","forced_short","","4","complex_dissimilar","images/stimuli/spore_stims/complex_11_A_b.gif","","","","",""
"","null","html-keyboard-response","59","348564","0.0-17.0-0.2","SS1619740102026","","","null","","","","","","<p><img src= images/blank.png width =""600"" height = ""600"" style=""position:fixed;top:50%; left:50%; transform: translate(-50%, -50%); border:5px solid black"">","","","","","","","",""
"","3041.515000164509","sequential-stimulus-presentation-old","60","352111","0.0-17.0-1.2","SS1619740102026","trial","","40","500","3541.515000164509","images/stimuli/spore_stims/complex_17_A_a.gif","images/stimuli/spore_stims/complex_11_A_b.gif","forced_short","","4","complex_dissimilar","images/stimuli/spore_stims/complex_17_A_a.gif","","","","",""
"","null","html-keyboard-response","61","353296","0.0-17.0-0.3","SS1619740102026","","","null","","","","","","<p><img src= images/blank.png width =""600"" height = ""600"" style=""position:fixed;top:50%; left:50%; transform: translate(-50%, -50%); border:5px solid black"">","","","","","","","",""
"","1764.869999838993","sequential-stimulus-presentation-old","62","355564","0.0-17.0-1.3","SS1619740102026","trial","","40","500","2264.869999838993","images/stimuli/spore_stims/complex_17_A_a.gif","images/stimuli/spore_stims/complex_11_A_b.gif","forced_short","","4","complex_dissimilar","images/stimuli/spore_stims/complex_17_A_a.gif","","","","",""
"","3155.479999957606","survey-multi-choice","63","358723","0.0-18.0","SS1619740102026","math_question","","","","","","","","","","","","{""Q0"":""9""}","[0]","9","",""
"","null","html-keyboard-response","64","359663","0.0-19.0-0.0","SS1619740102026","","","null","","","","","","<p><img src= images/blank.png width =""600"" height = ""600"" style=""position:fixed;top:50%; left:50%; transform: translate(-50%, -50%); border:5px solid black"">","","","","","","","",""
"","2691.9599999673665","sequential-stimulus-presentation-old","65","362863","0.0-19.0-1.0","SS1619740102026","trial","","40","500","3191.9599999673665","images/stimuli/spore_stims/simple_03_A_a.gif","images/stimuli/spore_stims/simple_18_A_b.gif","self_paced","","5","simple_dissimilar","images/stimuli/spore_stims/simple_18_A_b.gif","","","","",""
"","null","html-keyboard-response","66","363868","0.0-19.0-0.1","SS1619740102026","","","null","","","","","","<p><img src= images/blank.png width =""600"" height = ""600"" style=""position:fixed;top:50%; left:50%; transform: translate(-50%, -50%); border:5px solid black"">","","","","","","","",""
"","527.5399999227375","sequential-stimulus-presentation-old","67","364901","0.0-19.0-1.1","SS1619740102026","trial","","40","500","1027.5399999227375","images/stimuli/spore_stims/simple_03_A_a.gif","images/stimuli/spore_stims/simple_18_A_b.gif","self_paced","","5","simple_dissimilar","images/stimuli/spore_stims/simple_18_A_b.gif","","","","",""
"","null","html-keyboard-response","68","366110","0.0-19.0-0.2","SS1619740102026","","","null","","","","","","<p><img src= images/blank.png width =""600"" height = ""600"" style=""position:fixed;top:50%; left:50%; transform: translate(-50%, -50%); border:5px solid black"">","","","","","","","",""
"","1486.0849999822676","sequential-stimulus-presentation-old","69","368104","0.0-19.0-1.2","SS1619740102026","trial","","40","500","1986.0849999822676","images/stimuli/spore_stims/simple_03_A_a.gif","images/stimuli/spore_stims/simple_18_A_b.gif","self_paced","","5","simple_dissimilar","images/stimuli/spore_stims/simple_18_A_b.gif","","","","",""
"","null","html-keyboard-response","70","368998","0.0-19.0-0.3","SS1619740102026","","","null","","","","","","<p><img src= images/blank.png width =""600"" height = ""600"" style=""position:fixed;top:50%; left:50%; transform: translate(-50%, -50%); border:5px solid black"">","","","","","","","",""
"","577.6049999985844","sequential-stimulus-presentation-old","71","370085","0.0-19.0-1.3","SS1619740102026","trial","","40","500","1077.6049999985844","images/stimuli/spore_stims/simple_03_A_a.gif","images/stimuli/spore_stims/simple_18_A_b.gif","self_paced","","5","simple_dissimilar","images/stimuli/spore_stims/simple_18_A_b.gif","","","","",""
"","null","html-keyboard-response","72","370980","0.0-19.0-0.4","SS1619740102026","","","null","","","","","","<p><img src= images/blank.png width =""600"" height = ""600"" style=""position:fixed;top:50%; left:50%; transform: translate(-50%, -50%); border:5px solid black"">","","","","","","","",""
"","669.9050001334399","sequential-stimulus-presentation-old","73","372155","0.0-19.0-1.4","SS1619740102026","trial","","40","500","1169.90500013344","images/stimuli/spore_stims/simple_03_A_a.gif","images/stimuli/spore_stims/simple_18_A_b.gif","self_paced","","5","simple_dissimilar","images/stimuli/spore_stims/simple_18_A_b.gif","","","","",""
"","5533.6000001989305","survey-multi-choice","74","377691","0.0-20.0","SS1619740102026","math_question","","","","","","","","","","","","{""Q0"":""12""}","[0]","12","",""
"","null","html-keyboard-response","75","378632","0.0-21.0-0.0","SS1619740102026","","","null","","","","","","<p><img src= images/blank.png width =""600"" height = ""600"" style=""position:fixed;top:50%; left:50%; transform: translate(-50%, -50%); border:5px solid black"">","","","","","","","",""
"","785.2499999571592","sequential-stimulus-presentation-old","76","394424","0.0-21.0-1.0","SS1619740102026","trial","","40","500","1285.2499999571592","images/stimuli/spore_stims/simple_15_A_a.gif","images/stimuli/spore_stims/simple_17_A_b.gif","forced_long","","6","simple_dissimilar","images/stimuli/spore_stims/simple_17_A_b.gif","","","","",""
"","null","html-keyboard-response","77","395320","0.0-21.0-0.1","SS1619740102026","","","null","","","","","","<p><img src= images/blank.png width =""600"" height = ""600"" style=""position:fixed;top:50%; left:50%; transform: translate(-50%, -50%); border:5px solid black"">","","","","","","","",""
"","1888.329999987036","sequential-stimulus-presentation-old","78","397734","0.0-21.0-1.1","SS1619740102026","trial","","40","500","2388.329999987036","images/stimuli/spore_stims/simple_15_A_a.gif","images/stimuli/spore_stims/simple_17_A_b.gif","forced_long","","6","simple_dissimilar","images/stimuli/spore_stims/simple_17_A_b.gif","","","","",""
"","null","html-keyboard-response","79","398973","0.0-21.0-0.2","SS1619740102026","","","null","","","","","","<p><img src= images/blank.png width =""600"" height = ""600"" style=""position:fixed;top:50%; left:50%; transform: translate(-50%, -50%); border:5px solid black"">","","","","","","","",""
"","2525.3350001294166","sequential-stimulus-presentation-old","80","402007","0.0-21.0-1.2","SS1619740102026","trial","","40","500","3025.3350001294166","images/stimuli/spore_stims/simple_15_A_a.gif","images/stimuli/spore_stims/simple_17_A_b.gif","forced_long","","6","simple_dissimilar","images/stimuli/spore_stims/simple_15_A_a.gif","","","","",""
"","null","html-keyboard-response","81","402953","0.0-21.0-0.3","SS1619740102026","","","null","","","","","","<p><img src= images/blank.png width =""600"" height = ""600"" style=""position:fixed;top:50%; left:50%; transform: translate(-50%, -50%); border:5px solid black"">","","","","","","","",""
"","3002.6150001212955","sequential-stimulus-presentation-old","82","406474","0.0-21.0-1.3","SS1619740102026","trial","","40","500","3502.6150001212955","images/stimuli/spore_stims/simple_15_A_a.gif","images/stimuli/spore_stims/simple_17_A_b.gif","forced_long","","6","simple_dissimilar","images/stimuli/spore_stims/simple_17_A_b.gif","","","","",""
"","null","html-keyboard-response","83","407622","0.0-21.0-0.4","SS1619740102026","","","null","","","","","","<p><img src= images/blank.png width =""600"" height = ""600"" style=""position:fixed;top:50%; left:50%; transform: translate(-50%, -50%); border:5px solid black"">","","","","","","","",""
"","201.48000004701316","sequential-stimulus-presentation-old","84","408331","0.0-21.0-1.4","SS1619740102026","trial","","40","500","701.4800000470132","images/stimuli/spore_stims/simple_15_A_a.gif","images/stimuli/spore_stims/simple_17_A_b.gif","forced_long","","6","simple_dissimilar","images/stimuli/spore_stims/simple_17_A_b.gif","","","","",""
"","3012.6949998084456","survey-multi-choice","85","411347","0.0-22.0","SS1619740102026","math_question","","","","","","","","","","","","{""Q0"":""2""}","[0]","2","",""
"","null","html-keyboard-response","86","412477","0.0-23.0-0.0","SS1619740102026","","","null","","","","","","<p><img src= images/blank.png width =""600"" height = ""600"" style=""position:fixed;top:50%; left:50%; transform: translate(-50%, -50%); border:5px solid black"">","","","","","","","",""
"","3234.639999922365","sequential-stimulus-presentation-old","87","416222","0.0-23.0-1.0","SS1619740102026","trial","","40","500","3734.639999922365","images/stimuli/spore_stims/simple_10_A_b.gif","images/stimuli/spore_stims/simple_09_A_a.gif","self_paced","","7","simple_dissimilar","images/stimuli/spore_stims/simple_09_A_a.gif","","","","",""
"","null","html-keyboard-response","88","417443","0.0-23.0-0.1","SS1619740102026","","","null","","","","","","<p><img src= images/blank.png width =""600"" height = ""600"" style=""position:fixed;top:50%; left:50%; transform: translate(-50%, -50%); border:5px solid black"">","","","","","","","",""
"","733.0699998419732","sequential-stimulus-presentation-old","89","418683","0.0-23.0-1.1","SS1619740102026","trial","","40","500","1233.0699998419732","images/stimuli/spore_stims/simple_10_A_b.gif","images/stimuli/spore_stims/simple_09_A_a.gif","self_paced","","7","simple_dissimilar","images/stimuli/spore_stims/simple_09_A_a.gif","","","","",""
"","null","html-keyboard-response","90","419883","0.0-23.0-0.2","SS1619740102026","","","null","","","","","","<p><img src= images/blank.png width =""600"" height = ""600"" style=""position:fixed;top:50%; left:50%; transform: translate(-50%, -50%); border:5px solid black"">","","","","","","","",""
"","2138.425000011921","sequential-stimulus-presentation-old","91","422528","0.0-23.0-1.2","SS1619740102026","trial","","40","500","2638.425000011921","images/stimuli/spore_stims/simple_10_A_b.gif","images/stimuli/spore_stims/simple_09_A_a.gif","self_paced","","7","simple_dissimilar","images/stimuli/spore_stims/simple_10_A_b.gif","","","","",""
"","null","html-keyboard-response","92","423484","0.0-23.0-0.3","SS1619740102026","","","null","","","","","","<p><img src= images/blank.png width =""600"" height = ""600"" style=""position:fixed;top:50%; left:50%; transform: translate(-50%, -50%); border:5px solid black"">","","","","","","","",""
"","444.25499998033047","sequential-stimulus-presentation-old","93","424439","0.0-23.0-1.3","SS1619740102026","trial","","40","500","944.2549999803305","images/stimuli/spore_stims/simple_10_A_b.gif","images/stimuli/spore_stims/simple_09_A_a.gif","self_paced","","7","simple_dissimilar","images/stimuli/spore_stims/simple_09_A_a.gif","","","","",""
"","null","html-keyboard-response","94","425577","0.0-23.0-0.4","SS1619740102026","","","null","","","","","","<p><img src= images/blank.png width =""600"" height = ""600"" style=""position:fixed;top:50%; left:50%; transform: translate(-50%, -50%); border:5px solid black"">","","","","","","","",""
"","242.80999996699393","sequential-stimulus-presentation-old","95","426326","0.0-23.0-1.4","SS1619740102026","trial","","40","500","742.8099999669939","images/stimuli/spore_stims/simple_10_A_b.gif","images/stimuli/spore_stims/simple_09_A_a.gif","self_paced","","7","simple_dissimilar","images/stimuli/spore_stims/simple_09_A_a.gif","","","","",""
"","3160.0350001826882","survey-multi-choice","96","429492","0.0-24.0","SS1619740102026","math_question","","","","","","","","","","","","{""Q0"":""4""}","[0]","4","",""
"","null","html-keyboard-response","97","430697","0.0-25.0-0.0","SS1619740102026","","","null","","","","","","<p><img src= images/blank.png width =""600"" height = ""600"" style=""position:fixed;top:50%; left:50%; transform: translate(-50%, -50%); border:5px solid black"">","","","","","","","",""
"","1185.7549999840558","sequential-stimulus-presentation-old","98","432396","0.0-25.0-1.0","SS1619740102026","trial","","40","500","1685.7549999840558","images/stimuli/spore_stims/simple_18_A_a.gif","images/stimuli/spore_stims/simple_05_A_b.gif","forced_short","","8","simple_dissimilar","images/stimuli/spore_stims/simple_05_A_b.gif","","","","",""
"","null","html-keyboard-response","99","433353","0.0-25.0-0.1","SS1619740102026","","","null","","","","","","<p><img src= images/blank.png width =""600"" height = ""600"" style=""position:fixed;top:50%; left:50%; transform: translate(-50%, -50%); border:5px solid black"">","","","","","","","",""
"","2205.5299999192357","sequential-stimulus-presentation-old","100","436069","0.0-25.0-1.1","SS1619740102026","trial","","40","500","2705.5299999192357","images/stimuli/spore_stims/simple_18_A_a.gif","images/stimuli/spore_stims/simple_05_A_b.gif","forced_short","","8","simple_dissimilar","images/stimuli/spore_stims/simple_05_A_b.gif","","","","",""
"","null","html-keyboard-response","101","437003","0.0-25.0-0.2","SS1619740102026","","","null","","","","","","<p><img src= images/blank.png width =""600"" height = ""600"" style=""position:fixed;top:50%; left:50%; transform: translate(-50%, -50%); border:5px solid black"">","","","","","","","",""
"","1961.0349999275059","sequential-stimulus-presentation-old","102","439474","0.0-25.0-1.2","SS1619740102026","trial","","40","500","2461.034999927506","images/stimuli/spore_stims/simple_18_A_a.gif","images/stimuli/spore_stims/simple_05_A_b.gif","forced_short","","8","simple_dissimilar","images/stimuli/spore_stims/simple_05_A_b.gif","","","","",""
"","null","html-keyboard-response","103","440362","0.0-25.0-0.3","SS1619740102026","","","null","","","","","","<p><img src= images/blank.png width =""600"" height = ""600"" style=""position:fixed;top:50%; left:50%; transform: translate(-50%, -50%); border:5px solid black"">","","","","","","","",""
"","3949.1700001526624","sequential-stimulus-presentation-old","104","444817","0.0-25.0-1.3","SS1619740102026","trial","","40","500","4449.170000152662","images/stimuli/spore_stims/simple_18_A_a.gif","images/stimuli/spore_stims/simple_05_A_b.gif","forced_short","","8","simple_dissimilar","images/stimuli/spore_stims/simple_05_A_b.gif","","","","",""
"","null","html-keyboard-response","105","445841","0.0-25.0-0.4","SS1619740102026","","","null","","","","","","<p><img src= images/blank.png width =""600"" height = ""600"" style=""position:fixed;top:50%; left:50%; transform: translate(-50%, -50%); border:5px solid black"">","","","","","","","",""
"","2373.609999893233","sequential-stimulus-presentation-old","106","448726","0.0-25.0-1.4","SS1619740102026","trial","","40","500","2873.609999893233","images/stimuli/spore_stims/simple_18_A_a.gif","images/stimuli/spore_stims/simple_05_A_b.gif","forced_short","","8","simple_dissimilar","images/stimuli/spore_stims/simple_05_A_b.gif","","","","",""
"","2808.7499998509884","survey-multi-choice","107","451540","0.0-26.0","SS1619740102026","math_question","","","","","","","","","","","","{""Q0"":""4""}","[0]","4","",""
"","null","html-keyboard-response","108","452442","0.0-27.0-0.0","SS1619740102026","","","null","","","","","","<p><img src= images/blank.png width =""600"" height = ""600"" style=""position:fixed;top:50%; left:50%; transform: translate(-50%, -50%); border:5px solid black"">","","","","","","","",""
"","544.7200001217425","sequential-stimulus-presentation-old","109","467993","0.0-27.0-1.0","SS1619740102026","trial","","40","500","1044.7200001217425","images/stimuli/spore_stims/simple_01_A_b.gif","images/stimuli/spore_stims/simple_16_A_a.gif","forced_long","","9","simple_dissimilar","images/stimuli/spore_stims/simple_16_A_a.gif","","","","",""
"","null","html-keyboard-response","110","468878","0.0-27.0-0.1","SS1619740102026","","","null","","","","","","<p><img src= images/blank.png width =""600"" height = ""600"" style=""position:fixed;top:50%; left:50%; transform: translate(-50%, -50%); border:5px solid black"">","","","","","","","",""
"","1489.1549998428673","sequential-stimulus-presentation-old","111","470873","0.0-27.0-1.1","SS1619740102026","trial","","40","500","1989.1549998428673","images/stimuli/spore_stims/simple_01_A_b.gif","images/stimuli/spore_stims/simple_16_A_a.gif","forced_long","","9","simple_dissimilar","images/stimuli/spore_stims/simple_16_A_a.gif","","","","",""
"","null","html-keyboard-response","112","471818","0.0-27.0-0.2","SS1619740102026","","","null","","","","","","<p><img src= images/blank.png width =""600"" height = ""600"" style=""position:fixed;top:50%; left:50%; transform: translate(-50%, -50%); border:5px solid black"">","","","","","","","",""
"","1466.7950000148267","sequential-stimulus-presentation-old","113","473795","0.0-27.0-1.2","SS1619740102026","trial","","40","500","1966.7950000148267","images/stimuli/spore_stims/simple_01_A_b.gif","images/stimuli/spore_stims/simple_16_A_a.gif","forced_long","","9","simple_dissimilar","images/stimuli/spore_stims/simple_16_A_a.gif","","","","",""
"","null","html-keyboard-response","114","474626","0.0-27.0-0.3","SS1619740102026","","","null","","","","","","<p><img src= images/blank.png width =""600"" height = ""600"" style=""position:fixed;top:50%; left:50%; transform: translate(-50%, -50%); border:5px solid black"">","","","","","","","",""
"","722.5799998268485","sequential-stimulus-presentation-old","115","475861","0.0-27.0-1.3","SS1619740102026","trial","","40","500","1222.5799998268485","images/stimuli/spore_stims/simple_01_A_b.gif","images/stimuli/spore_stims/simple_16_A_a.gif","forced_long","","9","simple_dissimilar","images/stimuli/spore_stims/simple_16_A_a.gif","","","","",""
"","null","html-keyboard-response","116","476751","0.0-27.0-0.4","SS1619740102026","","","null","","","","","","<p><img src= images/blank.png width =""600"" height = ""600"" style=""position:fixed;top:50%; left:50%; transform: translate(-50%, -50%); border:5px solid black"">","","","","","","","",""
"","3321.2550000753254","sequential-stimulus-presentation-old","117","480578","0.0-27.0-1.4","SS1619740102026","trial","","40","500","3821.2550000753254","images/stimuli/spore_stims/simple_01_A_b.gif","images/stimuli/spore_stims/simple_16_A_a.gif","forced_long","","9","simple_dissimilar","images/stimuli/spore_stims/simple_01_A_b.gif","","","","",""
"","3124.8350001405925","survey-multi-choice","118","483707","0.0-28.0","SS1619740102026","math_question","","","","","","","","","","","","{""Q0"":""9""}","[0]","9","",""
"","null","html-keyboard-response","119","484665","0.0-29.0-0.0","SS1619740102026","","","null","","","","","","<p><img src= images/blank.png width =""600"" height = ""600"" style=""position:fixed;top:50%; left:50%; transform: translate(-50%, -50%); border:5px solid black"">","","","","","","","",""
"","683.3899999037385","sequential-stimulus-presentation-old","120","485861","0.0-29.0-1.0","SS1619740102026","trial","","40","500","1183.3899999037385","images/stimuli/spore_stims/complex_11_A_a.gif","images/stimuli/spore_stims/complex_16_A_b.gif","forced_short","","10","complex_dissimilar","images/stimuli/spore_stims/complex_16_A_b.gif","","","","",""
"","null","html-keyboard-response","121","487006","0.0-29.0-0.1","SS1619740102026","","","null","","","","","","<p><img src= images/blank.png width =""600"" height = ""600"" style=""position:fixed;top:50%; left:50%; transform: translate(-50%, -50%); border:5px solid black"">","","","","","","","",""
"","3207.4800000991672","sequential-stimulus-presentation-old","122","490725","0.0-29.0-1.1","SS1619740102026","trial","","40","500","3707.4800000991672","images/stimuli/spore_stims/complex_11_A_a.gif","images/stimuli/spore_stims/complex_16_A_b.gif","forced_short","","10","complex_dissimilar","images/stimuli/spore_stims/complex_11_A_a.gif","","","","",""
"","null","html-keyboard-response","123","491721","0.0-29.0-0.2","SS1619740102026","","","null","","","","","","<p><img src= images/blank.png width =""600"" height = ""600"" style=""position:fixed;top:50%; left:50%; transform: translate(-50%, -50%); border:5px solid black"">","","","","","","","",""
"","3045.255000004545","sequential-stimulus-presentation-old","124","495280","0.0-29.0-1.2","SS1619740102026","trial","","40","500","3545.255000004545","images/stimuli/spore_stims/complex_11_A_a.gif","images/stimuli/spore_stims/complex_16_A_b.gif","forced_short","","10","complex_dissimilar","images/stimuli/spore_stims/complex_16_A_b.gif","","","","",""
"","null","html-keyboard-response","125","496263","0.0-29.0-0.3","SS1619740102026","","","null","","","","","","<p><img src= images/blank.png width =""600"" height = ""600"" style=""position:fixed;top:50%; left:50%; transform: translate(-50%, -50%); border:5px solid black"">","","","","","","","",""
"","922.1850000321865","sequential-stimulus-presentation-old","126","497697","0.0-29.0-1.3","SS1619740102026","trial","","40","500","1422.1850000321865","images/stimuli/spore_stims/complex_11_A_a.gif","images/stimuli/spore_stims/complex_16_A_b.gif","forced_short","","10","complex_dissimilar","images/stimuli/spore_stims/complex_16_A_b.gif","","","","",""
"","3606.110000051558","survey-multi-choice","127","501307","0.0-30.0","SS1619740102026","math_question","","","","","","","","","","","","{""Q0"":""5""}","[0]","5","",""
"","null","html-keyboard-response","128","502306","0.0-31.0-0.0","SS1619740102026","","","null","","","","","","<p><img src= images/blank.png width =""600"" height = ""600"" style=""position:fixed;top:50%; left:50%; transform: translate(-50%, -50%); border:5px solid black"">","","","","","","","",""
"","4207.055000122637","sequential-stimulus-presentation-old","129","507022","0.0-31.0-1.0","SS1619740102026","trial","","40","500","4707.055000122637","images/stimuli/spore_stims/complex_16_A_a.gif","images/stimuli/spore_stims/complex_04_A_b.gif","self_paced","","11","complex_dissimilar","images/stimuli/spore_stims/complex_04_A_b.gif","","","","",""
"","null","html-keyboard-response","130","508332","0.0-31.0-0.1","SS1619740102026","","","null","","","","","","<p><img src= images/blank.png width =""600"" height = ""600"" style=""position:fixed;top:50%; left:50%; transform: translate(-50%, -50%); border:5px solid black"">","","","","","","","",""
"","799.5449998416007","sequential-stimulus-presentation-old","131","509639","0.0-31.0-1.1","SS1619740102026","trial","","40","500","1299.5449998416007","images/stimuli/spore_stims/complex_16_A_a.gif","images/stimuli/spore_stims/complex_04_A_b.gif","self_paced","","11","complex_dissimilar","images/stimuli/spore_stims/complex_04_A_b.gif","","","","",""
"","null","html-keyboard-response","132","510898","0.0-31.0-0.2","SS1619740102026","","","null","","","","","","<p><img src= images/blank.png width =""600"" height = ""600"" style=""position:fixed;top:50%; left:50%; transform: translate(-50%, -50%); border:5px solid black"">","","","","","","","",""
"","428.2400000374764","sequential-stimulus-presentation-old","133","511832","0.0-31.0-1.2","SS1619740102026","trial","","40","500","928.2400000374764","images/stimuli/spore_stims/complex_16_A_a.gif","images/stimuli/spore_stims/complex_04_A_b.gif","self_paced","","11","complex_dissimilar","images/stimuli/spore_stims/complex_04_A_b.gif","","","","",""
"","null","html-keyboard-response","134","513125","0.0-31.0-0.3","SS1619740102026","","","null","","","","","","<p><img src= images/blank.png width =""600"" height = ""600"" style=""position:fixed;top:50%; left:50%; transform: translate(-50%, -50%); border:5px solid black"">","","","","","","","",""
"","1491.2749999202788","sequential-stimulus-presentation-old","135","515124","0.0-31.0-1.3","SS1619740102026","trial","","40","500","1991.2749999202788","images/stimuli/spore_stims/complex_16_A_a.gif","images/stimuli/spore_stims/complex_04_A_b.gif","self_paced","","11","complex_dissimilar","images/stimuli/spore_stims/complex_16_A_a.gif","","","","",""
"","null","html-keyboard-response","136","516137","0.0-31.0-0.4","SS1619740102026","","","null","","","","","","<p><img src= images/blank.png width =""600"" height = ""600"" style=""position:fixed;top:50%; left:50%; transform: translate(-50%, -50%); border:5px solid black"">","","","","","","","",""
"","477.99000004306436","sequential-stimulus-presentation-old","137","517124","0.0-31.0-1.4","SS1619740102026","trial","","40","500","977.9900000430644","images/stimuli/spore_stims/complex_16_A_a.gif","images/stimuli/spore_stims/complex_04_A_b.gif","self_paced","","11","complex_dissimilar","images/stimuli/spore_stims/complex_04_A_b.gif","","","","",""
"","null","html-keyboard-response","138","517980","0.0-31.0-0.5","SS1619740102026","","","null","","","","","","<p><img src= images/blank.png width =""600"" height = ""600"" style=""position:fixed;top:50%; left:50%; transform: translate(-50%, -50%); border:5px solid black"">","","","","","","","",""
"","894.6149998810142","sequential-stimulus-presentation-old","139","519385","0.0-31.0-1.5","SS1619740102026","trial","","40","500","1394.6149998810142","images/stimuli/spore_stims/complex_16_A_a.gif","images/stimuli/spore_stims/complex_04_A_b.gif","self_paced","","11","complex_dissimilar","images/stimuli/spore_stims/complex_16_A_a.gif","","","","",""
"[{""page_index"":0,""viewing_time"":3718.9650000073016}]","3719.3350000306964","instructions","140","523107","0.0-32.0","SS1619740102026","instructions","","","","","","","","","","","","","","","",""
"","9433.680000016466","survey-likert","141","532548","0.0-33.0","SS1619740102026","similarity_question","","","","","","","","","","","","{""Q0"":1}","[0]","","images/stimuli/spore_stims/complex_11_A_b.gif","images/stimuli/spore_stims/complex_17_A_a.gif"
"","6113.065000157803","survey-likert","142","538668","0.0-34.0","SS1619740102026","similarity_question","","","","","","","","","","","","{""Q0"":2}","[0]","","images/stimuli/spore_stims/simple_01_A_b.gif","images/stimuli/spore_stims/simple_16_A_a.gif"
"","3560.770000098273","survey-likert","143","542236","0.0-35.0","SS1619740102026","similarity_question","","","","","","","","","","","","{""Q0"":4}","[0]","","images/stimuli/spore_stims/simple_17_A_b.gif","images/stimuli/spore_stims/simple_15_A_a.gif"
"","3289.7449999582022","survey-likert","144","545533","0.0-36.0","SS1619740102026","similarity_question","","","","","","","","","","","","{""Q0"":1}","[0]","","images/stimuli/spore_stims/simple_14_A_b.gif","images/stimuli/spore_stims/simple_02_A_a.gif"
"","2729.8549998085946","survey-likert","145","548268","0.0-37.0","SS1619740102026","similarity_question","","","","","","","","","","","","{""Q0"":0}","[0]","","images/stimuli/spore_stims/simple_18_A_b.gif","images/stimuli/spore_stims/simple_03_A_a.gif"
"","5809.034999925643","survey-likert","146","554085","0.0-38.0","SS1619740102026","similarity_question","","","","","","","","","","","","{""Q0"":4}","[0]","","images/stimuli/spore_stims/simple_09_A_a.gif","images/stimuli/spore_stims/simple_10_A_b.gif"
"","5521.650000009686","survey-likert","147","559613","0.0-39.0","SS1619740102026","similarity_question","","","","","","","","","","","","{""Q0"":5}","[0]","","images/stimuli/spore_stims/complex_13_A_a.gif","images/stimuli/spore_stims/complex_15_A_b.gif"
"","5896.699999924749","survey-likert","148","565516","0.0-40.0","SS1619740102026","similarity_question","","","","","","","","","","","","{""Q0"":2}","[0]","","images/stimuli/spore_stims/complex_11_A_a.gif","images/stimuli/spore_stims/complex_16_A_b.gif"
"","5602.350000059232","survey-likert","149","571124","0.0-41.0","SS1619740102026","similarity_question","","","","","","","","","","","","{""Q0"":2}","[0]","","images/stimuli/spore_stims/complex_08_A_b.gif","images/stimuli/spore_stims/complex_15_A_a.gif"
"","2905.8650000952184","survey-likert","150","574036","0.0-42.0","SS1619740102026","similarity_question","","","","","","","","","","","","{""Q0"":1}","[0]","","images/stimuli/spore_stims/simple_18_A_a.gif","images/stimuli/spore_stims/simple_05_A_b.gif"
"","3615.890000015497","survey-likert","151","577660","0.0-43.0","SS1619740102026","similarity_question","","","","","","","","","","","","{""Q0"":4}","[0]","","images/stimuli/spore_stims/complex_09_A_a.gif","images/stimuli/spore_stims/complex_07_A_b.gif"
"","3113.935000030324","survey-likert","152","580780","0.0-44.0","SS1619740102026","similarity_question","","","","","","","","","","","","{""Q0"":4}","[0]","","images/stimuli/spore_stims/complex_04_A_b.gif","images/stimuli/spore_stims/complex_16_A_a.gif"
"[{""page_index"":0,""viewing_time"":3377.600000007078}]","3378.1300000846386","instructions","153","584164","0.0-45.0","SS1619740102026","instructions","","","","","","","","","","","","","","","",""
"","3649.7899999376386","survey-likert","154","587820","0.0-46.0","SS1619740102026","","","","","","","","","images/stimuli/spore_stims/simple_01_A_b.gif","","","","{""Q0"":1}","[0]","","",""
"","3425.7849999703467","survey-likert","155","591252","0.0-47.0","SS1619740102026","","","","","","","","","images/stimuli/spore_stims/simple_18_A_a.gif","","","","{""Q0"":2}","[0]","","",""
"","3713.1199999712408","survey-likert","156","594972","0.0-48.0","SS1619740102026","","","","","","","","","images/stimuli/spore_stims/complex_17_A_a.gif","","","","{""Q0"":5}","[0]","","",""
"","3192.845000186935","survey-likert","157","598172","0.0-49.0","SS1619740102026","","","","","","","","","images/stimuli/spore_stims/simple_03_A_a.gif","","","","{""Q0"":1}","[0]","","",""
"","5417.7649999037385","survey-likert","158","603596","0.0-50.0","SS1619740102026","","","","","","","","","images/stimuli/spore_stims/complex_15_A_b.gif","","","","{""Q0"":4}","[0]","","",""
"","2792.570000048727","survey-likert","159","606395","0.0-51.0","SS1619740102026","","","","","","","","","images/stimuli/spore_stims/simple_15_A_a.gif","","","","{""Q0"":0}","[0]","","",""
"","2832.494999980554","survey-likert","160","609235","0.0-52.0","SS1619740102026","","","","","","","","","images/stimuli/spore_stims/complex_08_A_b.gif","","","","{""Q0"":5}","[0]","","",""
"","3185.5450000148267","survey-likert","161","612427","0.0-53.0","SS1619740102026","","","","","","","","","images/stimuli/spore_stims/complex_11_A_a.gif","","","","{""Q0"":6}","[0]","","",""
"","2424.4999999646097","survey-likert","162","614859","0.0-54.0","SS1619740102026","","","","","","","","","images/stimuli/spore_stims/simple_02_A_a.gif","","","","{""Q0"":0}","[0]","","",""
"","2064.9599998723716","survey-likert","163","616932","0.0-55.0","SS1619740102026","","","","","","","","","images/stimuli/spore_stims/simple_10_A_b.gif","","","","{""Q0"":1}","[0]","","",""
"","2929.679999826476","survey-likert","164","619867","0.0-56.0","SS1619740102026","","","","","","","","","images/stimuli/spore_stims/complex_07_A_b.gif","","","","{""Q0"":5}","[0]","","",""
"","2288.7200000695884","survey-likert","165","622163","0.0-57.0","SS1619740102026","","","","","","","","","images/stimuli/spore_stims/complex_04_A_b.gif","","","","{""Q0"":6}","[0]","","",""
"[{""page_index"":0,""viewing_time"":1362.3549998737872}]","1362.8699998371303","instructions","166","623531","0.0-58.0","SS1619740102026","instructions","","","","","","","","","","","","","","","",""
"","2580.470000160858","demog-age","167","626124","0.0-59.0","SS1619740102026","","","","","","","","","","","","","{""age"":""26""}","","","",""
"","3212.8800000064075","demog-ethnic-US","168","629348","0.0-60.0","SS1619740102026","","","","","","","","","","","","","{""ethnicity"":[""Hispanic or Latino""]}","[0]","","",""
"","8742.680000141263","demog-gender-and-education","169","638100","0.0-61.0","SS1619740102026","","","","","","","","","","","","","{""gender"":""Male"",""education"":""High school diploma""}","[0,1]","","",""
"","9756.844999967143","survey-text","170","647868","0.0-62.0","SS1619740102026","feedback","","","","","","","","","","","","{""Q0"":""Everything was fine""}","","","",""
"[{""page_index"":0,""viewing_time"":1313.2249999325722}]","1313.7149999383837","instructions","171","649187","0.0-63.0","SS1619740102026","instructions","","","","","","","","","","","","","","","",""
