"view_history","rt","trial_type","trial_index","time_elapsed","internal_node_id","subject","stimulus_type","trial_stimulus","key_press","minimum_viewing_duration","trial_looking_time","block_deviant","block_background","exposure_type","stimulus","block_number","block_type","stimulus_displayed","responses","question_order","math_correct_answer","stimulus_left","stimulus_right"
"[{""page_index"":0,""viewing_time"":13096.269999979995}]","13096.699999994598","instructions","0","13097","0.0-0.0","SS1619739526305","","","","","","","","","","","","","","","","",""
"[{""page_index"":0,""viewing_time"":26100.774999998976},{""page_index"":1,""viewing_time"":6975.730000005569}]","33076.87500002794","instructions","1","48177","0.0-1.0","SS1619739526305","instructions","","","","","","","","","","","","","","","",""
"","6703.340000007302","sequential-stimulus-presentation-old","2","55383","0.0-2.0","SS1619739526305","","","40","500","7203.340000007302","null","null","self_paced","","","","","","","","",""
"","5751.359999994747","sequential-stimulus-presentation-old","3","61637","0.0-3.0","SS1619739526305","","","40","500","6251.359999994747","null","null","self_paced","","","","","","","","",""
"[{""page_index"":0,""viewing_time"":27997.929999954067}]","27998.23500000639","instructions","4","89636","0.0-4.0","SS1619739526305","instructions","","","","","","","","","","","","","","","",""
"","1123.8000000012107","sequential-stimulus-presentation-old","5","105762","0.0-5.0","SS1619739526305","","","40","500","1623.8000000012107","null","null","forced_long","","","","","","","","",""
"","4458.680000039749","sequential-stimulus-presentation-old","6","110737","0.0-6.0","SS1619739526305","","","40","500","4958.680000039749","null","null","forced_long","","","","","","","","",""
"[{""page_index"":0,""viewing_time"":5846.844999992754}]","5847.074999997858","instructions","7","116584","0.0-7.0","SS1619739526305","instructions","","","","","","","","","","","","","","","",""
"[{""page_index"":0,""viewing_time"":10438.105000008363},{""page_index"":1,""viewing_time"":8440.200000011828},{""page_index"":2,""viewing_time"":6490.16499996651},{""page_index"":3,""viewing_time"":2022.1500000334345},{""page_index"":4,""viewing_time"":1607.5999999884516}]","28998.490000027232","instructions","8","145584","0.0-8.0","SS1619739526305","instructions","","","","","","","","","","","","","","","",""
"","null","html-keyboard-response","9","146673","0.0-9.0-0.0","SS1619739526305","","","null","","","","","","<p><img src= images/blank.png width =""600"" height = ""600"" style=""position:fixed;top:50%; left:50%; transform: translate(-50%, -50%); border:5px solid black"">","","","","","","","",""
"","2998.7200000323355","sequential-stimulus-presentation-old","10","150176","0.0-9.0-1.0","SS1619739526305","trial","","40","500","3498.7200000323355","images/stimuli/spore_stims/simple_12_A_a.gif","images/stimuli/spore_stims/simple_09_A_b.gif","self_paced","","0","simple_dissimilar","images/stimuli/spore_stims/simple_09_A_b.gif","","","","",""
"","null","html-keyboard-response","11","151054","0.0-9.0-0.1","SS1619739526305","","","null","","","","","","<p><img src= images/blank.png width =""600"" height = ""600"" style=""position:fixed;top:50%; left:50%; transform: translate(-50%, -50%); border:5px solid black"">","","","","","","","",""
"","4995.454999967478","sequential-stimulus-presentation-old","12","156568","0.0-9.0-1.1","SS1619739526305","trial","","40","500","5495.454999967478","images/stimuli/spore_stims/simple_12_A_a.gif","images/stimuli/spore_stims/simple_09_A_b.gif","self_paced","","0","simple_dissimilar","images/stimuli/spore_stims/simple_09_A_b.gif","","","","",""
"","null","html-keyboard-response","13","157404","0.0-9.0-0.2","SS1619739526305","","","null","","","","","","<p><img src= images/blank.png width =""600"" height = ""600"" style=""position:fixed;top:50%; left:50%; transform: translate(-50%, -50%); border:5px solid black"">","","","","","","","",""
"","6953.945000015665","sequential-stimulus-presentation-old","14","164862","0.0-9.0-1.2","SS1619739526305","trial","","40","500","7453.945000015665","images/stimuli/spore_stims/simple_12_A_a.gif","images/stimuli/spore_stims/simple_09_A_b.gif","self_paced","","0","simple_dissimilar","images/stimuli/spore_stims/simple_12_A_a.gif","","","","",""
"","null","html-keyboard-response","15","165678","0.0-9.0-0.3","SS1619739526305","","","null","","","","","","<p><img src= images/blank.png width =""600"" height = ""600"" style=""position:fixed;top:50%; left:50%; transform: translate(-50%, -50%); border:5px solid black"">","","","","","","","",""
"","6379.309999989346","sequential-stimulus-presentation-old","16","172560","0.0-9.0-1.3","SS1619739526305","trial","","40","500","6879.309999989346","images/stimuli/spore_stims/simple_12_A_a.gif","images/stimuli/spore_stims/simple_09_A_b.gif","self_paced","","0","simple_dissimilar","images/stimuli/spore_stims/simple_09_A_b.gif","","","","",""
"","3541.650000028312","survey-multi-choice","17","176104","0.0-10.0","SS1619739526305","math_question","","","","","","","","","","","","{""Q0"":""8""}","[0]","8","",""
"","null","html-keyboard-response","18","177324","0.0-11.0-0.0","SS1619739526305","","","null","","","","","","<p><img src= images/blank.png width =""600"" height = ""600"" style=""position:fixed;top:50%; left:50%; transform: translate(-50%, -50%); border:5px solid black"">","","","","","","","",""
"","509.699999995064","sequential-stimulus-presentation-old","19","192840","0.0-11.0-1.0","SS1619739526305","trial","","40","500","1009.699999995064","images/stimuli/spore_stims/simple_10_A_b.gif","images/stimuli/spore_stims/simple_20_A_a.gif","forced_long","","1","simple_dissimilar","images/stimuli/spore_stims/simple_20_A_a.gif","","","","",""
"","null","html-keyboard-response","20","194132","0.0-11.0-0.1","SS1619739526305","","","null","","","","","","<p><img src= images/blank.png width =""600"" height = ""600"" style=""position:fixed;top:50%; left:50%; transform: translate(-50%, -50%); border:5px solid black"">","","","","","","","",""
"","1806.7150000133552","sequential-stimulus-presentation-old","21","196454","0.0-11.0-1.1","SS1619739526305","trial","","40","500","2306.715000013355","images/stimuli/spore_stims/simple_10_A_b.gif","images/stimuli/spore_stims/simple_20_A_a.gif","forced_long","","1","simple_dissimilar","images/stimuli/spore_stims/simple_20_A_a.gif","","","","",""
"","null","html-keyboard-response","22","197614","0.0-11.0-0.2","SS1619739526305","","","null","","","","","","<p><img src= images/blank.png width =""600"" height = ""600"" style=""position:fixed;top:50%; left:50%; transform: translate(-50%, -50%); border:5px solid black"">","","","","","","","",""
"","1761.6200000047684","sequential-stimulus-presentation-old","23","199880","0.0-11.0-1.2","SS1619739526305","trial","","40","500","2261.6200000047684","images/stimuli/spore_stims/simple_10_A_b.gif","images/stimuli/spore_stims/simple_20_A_a.gif","forced_long","","1","simple_dissimilar","images/stimuli/spore_stims/simple_20_A_a.gif","","","","",""
"","null","html-keyboard-response","24","201033","0.0-11.0-0.3","SS1619739526305","","","null","","","","","","<p><img src= images/blank.png width =""600"" height = ""600"" style=""position:fixed;top:50%; left:50%; transform: translate(-50%, -50%); border:5px solid black"">","","","","","","","",""
"","5595.059999963269","sequential-stimulus-presentation-old","25","207132","0.0-11.0-1.3","SS1619739526305","trial","","40","500","6095.059999963269","images/stimuli/spore_stims/simple_10_A_b.gif","images/stimuli/spore_stims/simple_20_A_a.gif","forced_long","","1","simple_dissimilar","images/stimuli/spore_stims/simple_20_A_a.gif","","","","",""
"","7570.109999971464","survey-multi-choice","26","214705","0.0-12.0","SS1619739526305","math_question","","","","","","","","","","","","{""Q0"":""10""}","[0]","10","",""
"","null","html-keyboard-response","27","215654","0.0-13.0-0.0","SS1619739526305","","","null","","","","","","<p><img src= images/blank.png width =""600"" height = ""600"" style=""position:fixed;top:50%; left:50%; transform: translate(-50%, -50%); border:5px solid black"">","","","","","","","",""
"","1145.8349999738857","sequential-stimulus-presentation-old","28","217311","0.0-13.0-1.0","SS1619739526305","trial","","40","500","1645.8349999738857","images/stimuli/spore_stims/simple_13_A_a.gif","images/stimuli/spore_stims/simple_02_A_b.gif","forced_short","","2","simple_dissimilar","images/stimuli/spore_stims/simple_02_A_b.gif","","","","",""
"","null","html-keyboard-response","29","218612","0.0-13.0-0.1","SS1619739526305","","","null","","","","","","<p><img src= images/blank.png width =""600"" height = ""600"" style=""position:fixed;top:50%; left:50%; transform: translate(-50%, -50%); border:5px solid black"">","","","","","","","",""
"","5903.404999990016","sequential-stimulus-presentation-old","30","225020","0.0-13.0-1.1","SS1619739526305","trial","","40","500","6403.404999990016","images/stimuli/spore_stims/simple_13_A_a.gif","images/stimuli/spore_stims/simple_02_A_b.gif","forced_short","","2","simple_dissimilar","images/stimuli/spore_stims/simple_02_A_b.gif","","","","",""
"","null","html-keyboard-response","31","226193","0.0-13.0-0.2","SS1619739526305","","","null","","","","","","<p><img src= images/blank.png width =""600"" height = ""600"" style=""position:fixed;top:50%; left:50%; transform: translate(-50%, -50%); border:5px solid black"">","","","","","","","",""
"","7356.805000046734","sequential-stimulus-presentation-old","32","234054","0.0-13.0-1.2","SS1619739526305","trial","","40","500","7856.805000046734","images/stimuli/spore_stims/simple_13_A_a.gif","images/stimuli/spore_stims/simple_02_A_b.gif","forced_short","","2","simple_dissimilar","images/stimuli/spore_stims/simple_02_A_b.gif","","","","",""
"","null","html-keyboard-response","33","235168","0.0-13.0-0.3","SS1619739526305","","","null","","","","","","<p><img src= images/blank.png width =""600"" height = ""600"" style=""position:fixed;top:50%; left:50%; transform: translate(-50%, -50%); border:5px solid black"">","","","","","","","",""
"","5893.920000002254","sequential-stimulus-presentation-old","34","241567","0.0-13.0-1.3","SS1619739526305","trial","","40","500","6393.920000002254","images/stimuli/spore_stims/simple_13_A_a.gif","images/stimuli/spore_stims/simple_02_A_b.gif","forced_short","","2","simple_dissimilar","images/stimuli/spore_stims/simple_02_A_b.gif","","","","",""
"","3295.3899999847636","survey-multi-choice","35","244865","0.0-14.0","SS1619739526305","math_question","","","","","","","","","","","","{""Q0"":""16""}","[0]","16","",""
"","null","html-keyboard-response","36","246299","0.0-15.0-0.0","SS1619739526305","","","null","","","","","","<p><img src= images/blank.png width =""600"" height = ""600"" style=""position:fixed;top:50%; left:50%; transform: translate(-50%, -50%); border:5px solid black"">","","","","","","","",""
"","3569.1749999532476","sequential-stimulus-presentation-old","37","264874","0.0-15.0-1.0","SS1619739526305","trial","","40","500","4069.1749999532476","images/stimuli/spore_stims/simple_14_A_b.gif","images/stimuli/spore_stims/simple_18_A_a.gif","forced_long","","3","simple_dissimilar","images/stimuli/spore_stims/simple_18_A_a.gif","","","","",""
"","null","html-keyboard-response","38","266045","0.0-15.0-0.1","SS1619739526305","","","null","","","","","","<p><img src= images/blank.png width =""600"" height = ""600"" style=""position:fixed;top:50%; left:50%; transform: translate(-50%, -50%); border:5px solid black"">","","","","","","","",""
"","816.675000009127","sequential-stimulus-presentation-old","39","267366","0.0-15.0-1.1","SS1619739526305","trial","","40","500","1316.675000009127","images/stimuli/spore_stims/simple_14_A_b.gif","images/stimuli/spore_stims/simple_18_A_a.gif","forced_long","","3","simple_dissimilar","images/stimuli/spore_stims/simple_18_A_a.gif","","","","",""
"","null","html-keyboard-response","40","268475","0.0-15.0-0.2","SS1619739526305","","","null","","","","","","<p><img src= images/blank.png width =""600"" height = ""600"" style=""position:fixed;top:50%; left:50%; transform: translate(-50%, -50%); border:5px solid black"">","","","","","","","",""
"","1552.2850000415929","sequential-stimulus-presentation-old","41","270535","0.0-15.0-1.2","SS1619739526305","trial","","40","500","2052.285000041593","images/stimuli/spore_stims/simple_14_A_b.gif","images/stimuli/spore_stims/simple_18_A_a.gif","forced_long","","3","simple_dissimilar","images/stimuli/spore_stims/simple_18_A_a.gif","","","","",""
"","null","html-keyboard-response","42","271594","0.0-15.0-0.3","SS1619739526305","","","null","","","","","","<p><img src= images/blank.png width =""600"" height = ""600"" style=""position:fixed;top:50%; left:50%; transform: translate(-50%, -50%); border:5px solid black"">","","","","","","","",""
"","3653.404999990016","sequential-stimulus-presentation-old","43","275751","0.0-15.0-1.3","SS1619739526305","trial","","40","500","4153.404999990016","images/stimuli/spore_stims/simple_14_A_b.gif","images/stimuli/spore_stims/simple_18_A_a.gif","forced_long","","3","simple_dissimilar","images/stimuli/spore_stims/simple_18_A_a.gif","","","","",""
"","2367.2549999901094","survey-multi-choice","44","278121","0.0-16.0","SS1619739526305","math_question","","","","","","","","","","","","{""Q0"":""12""}","[0]","12","",""
"","null","html-keyboard-response","45","279273","0.0-17.0-0.0","SS1619739526305","","","null","","","","","","<p><img src= images/blank.png width =""600"" height = ""600"" style=""position:fixed;top:50%; left:50%; transform: translate(-50%, -50%); border:5px solid black"">","","","","","","","",""
"","3269.7749999933876","sequential-stimulus-presentation-old","46","283047","0.0-17.0-1.0","SS1619739526305","trial","","40","500","3769.7749999933876","images/stimuli/spore_stims/simple_08_A_a.gif","images/stimuli/spore_stims/simple_07_A_b.gif","self_paced","","4","simple_dissimilar","images/stimuli/spore_stims/simple_07_A_b.gif","","","","",""
"","null","html-keyboard-response","47","284023","0.0-17.0-0.1","SS1619739526305","","","null","","","","","","<p><img src= images/blank.png width =""600"" height = ""600"" style=""position:fixed;top:50%; left:50%; transform: translate(-50%, -50%); border:5px solid black"">","","","","","","","",""
"","3054.1899999952875","sequential-stimulus-presentation-old","48","287587","0.0-17.0-1.1","SS1619739526305","trial","","40","500","3554.1899999952875","images/stimuli/spore_stims/simple_08_A_a.gif","images/stimuli/spore_stims/simple_07_A_b.gif","self_paced","","4","simple_dissimilar","images/stimuli/spore_stims/simple_07_A_b.gif","","","","",""
"","null","html-keyboard-response","49","288713","0.0-17.0-0.2","SS1619739526305","","","null","","","","","","<p><img src= images/blank.png width =""600"" height = ""600"" style=""position:fixed;top:50%; left:50%; transform: translate(-50%, -50%); border:5px solid black"">","","","","","","","",""
"","5587.854999990668","sequential-stimulus-presentation-old","50","294807","0.0-17.0-1.2","SS1619739526305","trial","","40","500","6087.854999990668","images/stimuli/spore_stims/simple_08_A_a.gif","images/stimuli/spore_stims/simple_07_A_b.gif","self_paced","","4","simple_dissimilar","images/stimuli/spore_stims/simple_07_A_b.gif","","","","",""
"","null","html-keyboard-response","51","296075","0.0-17.0-0.3","SS1619739526305","","","null","","","","","","<p><img src= images/blank.png width =""600"" height = ""600"" style=""position:fixed;top:50%; left:50%; transform: translate(-50%, -50%); border:5px solid black"">","","","","","","","",""
"","6565.65500004217","sequential-stimulus-presentation-old","52","303145","0.0-17.0-1.3","SS1619739526305","trial","","40","500","7065.65500004217","images/stimuli/spore_stims/simple_08_A_a.gif","images/stimuli/spore_stims/simple_07_A_b.gif","self_paced","","4","simple_dissimilar","images/stimuli/spore_stims/simple_07_A_b.gif","","","","",""
"","null","html-keyboard-response","53","304156","0.0-17.0-0.4","SS1619739526305","","","null","","","","","","<p><img src= images/blank.png width =""600"" height = ""600"" style=""position:fixed;top:50%; left:50%; transform: translate(-50%, -50%); border:5px solid black"">","","","","","","","",""
"","455.2350000012666","sequential-stimulus-presentation-old","54","305134","0.0-17.0-1.4","SS1619739526305","trial","","40","500","955.2350000012666","images/stimuli/spore_stims/simple_08_A_a.gif","images/stimuli/spore_stims/simple_07_A_b.gif","self_paced","","4","simple_dissimilar","images/stimuli/spore_stims/simple_07_A_b.gif","","","","",""
"","2724.400000006426","survey-multi-choice","55","307861","0.0-18.0","SS1619739526305","math_question","","","","","","","","","","","","{""Q0"":""8""}","[0]","8","",""
"","null","html-keyboard-response","56","308898","0.0-19.0-0.0","SS1619739526305","","","null","","","","","","<p><img src= images/blank.png width =""600"" height = ""600"" style=""position:fixed;top:50%; left:50%; transform: translate(-50%, -50%); border:5px solid black"">","","","","","","","",""
"","7152.654999983497","sequential-stimulus-presentation-old","57","317459","0.0-19.0-1.0","SS1619739526305","trial","","40","500","7652.654999983497","images/stimuli/spore_stims/complex_17_A_a.gif","images/stimuli/spore_stims/complex_18_A_b.gif","self_paced","","5","complex_dissimilar","images/stimuli/spore_stims/complex_18_A_b.gif","","","","",""
"","null","html-keyboard-response","58","318419","0.0-19.0-0.1","SS1619739526305","","","null","","","","","","<p><img src= images/blank.png width =""600"" height = ""600"" style=""position:fixed;top:50%; left:50%; transform: translate(-50%, -50%); border:5px solid black"">","","","","","","","",""
"","6279.574999993201","sequential-stimulus-presentation-old","59","325203","0.0-19.0-1.1","SS1619739526305","trial","","40","500","6779.574999993201","images/stimuli/spore_stims/complex_17_A_a.gif","images/stimuli/spore_stims/complex_18_A_b.gif","self_paced","","5","complex_dissimilar","images/stimuli/spore_stims/complex_18_A_b.gif","","","","",""
"","null","html-keyboard-response","60","326047","0.0-19.0-0.2","SS1619739526305","","","null","","","","","","<p><img src= images/blank.png width =""600"" height = ""600"" style=""position:fixed;top:50%; left:50%; transform: translate(-50%, -50%); border:5px solid black"">","","","","","","","",""
"","1574.8949999688193","sequential-stimulus-presentation-old","61","328127","0.0-19.0-1.2","SS1619739526305","trial","","40","500","2074.8949999688193","images/stimuli/spore_stims/complex_17_A_a.gif","images/stimuli/spore_stims/complex_18_A_b.gif","self_paced","","5","complex_dissimilar","images/stimuli/spore_stims/complex_17_A_a.gif","","","","",""
"","null","html-keyboard-response","62","329168","0.0-19.0-0.3","SS1619739526305","","","null","","","","","","<p><img src= images/blank.png width =""600"" height = ""600"" style=""position:fixed;top:50%; left:50%; transform: translate(-50%, -50%); border:5px solid black"">","","","","","","","",""
"","1189.3900000141002","sequential-stimulus-presentation-old","63","330862","0.0-19.0-1.3","SS1619739526305","trial","","40","500","1689.3900000141002","images/stimuli/spore_stims/complex_17_A_a.gif","images/stimuli/spore_stims/complex_18_A_b.gif","self_paced","","5","complex_dissimilar","images/stimuli/spore_stims/complex_17_A_a.gif","","","","",""
"","2435.3350000455976","survey-multi-choice","64","333300","0.0-20.0","SS1619739526305","math_question","","","","","","","","","","","","{""Q0"":""8""}","[0]","8","",""
"","null","html-keyboard-response","65","334401","0.0-21.0-0.0","SS1619739526305","","","null","","","","","","<p><img src= images/blank.png width =""600"" height = ""600"" style=""position:fixed;top:50%; left:50%; transform: translate(-50%, -50%); border:5px solid black"">","","","","","","","",""
"","5320.660000026692","sequential-stimulus-presentation-old","66","340228","0.0-21.0-1.0","SS1619739526305","trial","","40","500","5820.660000026692","images/stimuli/spore_stims/simple_11_A_b.gif","images/stimuli/spore_stims/simple_14_A_a.gif","forced_short","","6","simple_dissimilar","images/stimuli/spore_stims/simple_14_A_a.gif","","","","",""
"","null","html-keyboard-response","67","341238","0.0-21.0-0.1","SS1619739526305","","","null","","","","","","<p><img src= images/blank.png width =""600"" height = ""600"" style=""position:fixed;top:50%; left:50%; transform: translate(-50%, -50%); border:5px solid black"">","","","","","","","",""
"","1541.0549999796785","sequential-stimulus-presentation-old","68","343284","0.0-21.0-1.1","SS1619739526305","trial","","40","500","2041.0549999796785","images/stimuli/spore_stims/simple_11_A_b.gif","images/stimuli/spore_stims/simple_14_A_a.gif","forced_short","","6","simple_dissimilar","images/stimuli/spore_stims/simple_14_A_a.gif","","","","",""
"","null","html-keyboard-response","69","344248","0.0-21.0-0.2","SS1619739526305","","","null","","","","","","<p><img src= images/blank.png width =""600"" height = ""600"" style=""position:fixed;top:50%; left:50%; transform: translate(-50%, -50%); border:5px solid black"">","","","","","","","",""
"","255.7649999507703","sequential-stimulus-presentation-old","70","345010","0.0-21.0-1.2","SS1619739526305","trial","","40","500","755.7649999507703","images/stimuli/spore_stims/simple_11_A_b.gif","images/stimuli/spore_stims/simple_14_A_a.gif","forced_short","","6","simple_dissimilar","images/stimuli/spore_stims/simple_14_A_a.gif","","","","",""
"","null","html-keyboard-response","71","346216","0.0-21.0-0.3","SS1619739526305","","","null","","","","","","<p><img src= images/blank.png width =""600"" height = ""600"" style=""position:fixed;top:50%; left:50%; transform: translate(-50%, -50%); border:5px solid black"">","","","","","","","",""
"","74.67000000178814","sequential-stimulus-presentation-old","72","346796","0.0-21.0-1.3","SS1619739526305","trial","","40","500","574.6700000017881","images/stimuli/spore_stims/simple_11_A_b.gif","images/stimuli/spore_stims/simple_14_A_a.gif","forced_short","","6","simple_dissimilar","images/stimuli/spore_stims/simple_14_A_a.gif","","","","",""
"","null","html-keyboard-response","73","347991","0.0-21.0-0.4","SS1619739526305","","","null","","","","","","<p><img src= images/blank.png width =""600"" height = ""600"" style=""position:fixed;top:50%; left:50%; transform: translate(-50%, -50%); border:5px solid black"">","","","","","","","",""
"","1100.5700000096112","sequential-stimulus-presentation-old","74","349619","0.0-21.0-1.4","SS1619739526305","trial","","40","500","1600.5700000096112","images/stimuli/spore_stims/simple_11_A_b.gif","images/stimuli/spore_stims/simple_14_A_a.gif","forced_short","","6","simple_dissimilar","images/stimuli/spore_stims/simple_14_A_a.gif","","","","",""
"","2774.494999961462","survey-multi-choice","75","352397","0.0-22.0","SS1619739526305","math_question","","","","","","","","","","","","{""Q0"":""8""}","[0]","8","",""
"","null","html-keyboard-response","76","353545","0.0-23.0-0.0","SS1619739526305","","","null","","","","","","<p><img src= images/blank.png width =""600"" height = ""600"" style=""position:fixed;top:50%; left:50%; transform: translate(-50%, -50%); border:5px solid black"">","","","","","","","",""
"","5133.440000005066","sequential-stimulus-presentation-old","77","359184","0.0-23.0-1.0","SS1619739526305","trial","","40","500","5633.440000005066","images/stimuli/spore_stims/complex_04_A_b.gif","images/stimuli/spore_stims/complex_01_A_a.gif","self_paced","","7","complex_dissimilar","images/stimuli/spore_stims/complex_01_A_a.gif","","","","",""
"","null","html-keyboard-response","78","360058","0.0-23.0-0.1","SS1619739526305","","","null","","","","","","<p><img src= images/blank.png width =""600"" height = ""600"" style=""position:fixed;top:50%; left:50%; transform: translate(-50%, -50%); border:5px solid black"">","","","","","","","",""
"","1421.5749999857508","sequential-stimulus-presentation-old","79","361985","0.0-23.0-1.1","SS1619739526305","trial","","40","500","1921.5749999857508","images/stimuli/spore_stims/complex_04_A_b.gif","images/stimuli/spore_stims/complex_01_A_a.gif","self_paced","","7","complex_dissimilar","images/stimuli/spore_stims/complex_01_A_a.gif","","","","",""
"","null","html-keyboard-response","80","363015","0.0-23.0-0.2","SS1619739526305","","","null","","","","","","<p><img src= images/blank.png width =""600"" height = ""600"" style=""position:fixed;top:50%; left:50%; transform: translate(-50%, -50%); border:5px solid black"">","","","","","","","",""
"","1508.67000001017","sequential-stimulus-presentation-old","81","365820","0.0-23.0-1.2","SS1619739526305","trial","","40","500","2008.67000001017","images/stimuli/spore_stims/complex_04_A_b.gif","images/stimuli/spore_stims/complex_01_A_a.gif","self_paced","","7","complex_dissimilar","images/stimuli/spore_stims/complex_01_A_a.gif","","","","",""
"","null","html-keyboard-response","82","366700","0.0-23.0-0.3","SS1619739526305","","","null","","","","","","<p><img src= images/blank.png width =""600"" height = ""600"" style=""position:fixed;top:50%; left:50%; transform: translate(-50%, -50%); border:5px solid black"">","","","","","","","",""
"","30.26500000851229","sequential-stimulus-presentation-old","83","367236","0.0-23.0-1.3","SS1619739526305","trial","","40","500","530.2650000085123","images/stimuli/spore_stims/complex_04_A_b.gif","images/stimuli/spore_stims/complex_01_A_a.gif","self_paced","","7","complex_dissimilar","images/stimuli/spore_stims/complex_01_A_a.gif","","","","",""
"","2128.8000000058673","survey-multi-choice","84","369369","0.0-24.0","SS1619739526305","math_question","","","","","","","","","","","","{""Q0"":""16""}","[0]","16","",""
"","null","html-keyboard-response","85","370532","0.0-25.0-0.0","SS1619739526305","","","null","","","","","","<p><img src= images/blank.png width =""600"" height = ""600"" style=""position:fixed;top:50%; left:50%; transform: translate(-50%, -50%); border:5px solid black"">","","","","","","","",""
"","352.8449999867007","sequential-stimulus-presentation-old","86","385903","0.0-25.0-1.0","SS1619739526305","trial","","40","500","852.8449999867007","images/stimuli/spore_stims/complex_06_A_a.gif","images/stimuli/spore_stims/complex_02_A_b.gif","forced_long","","8","complex_dissimilar","images/stimuli/spore_stims/complex_02_A_b.gif","","","","",""
"","null","html-keyboard-response","87","387202","0.0-25.0-0.1","SS1619739526305","","","null","","","","","","<p><img src= images/blank.png width =""600"" height = ""600"" style=""position:fixed;top:50%; left:50%; transform: translate(-50%, -50%); border:5px solid black"">","","","","","","","",""
"","211.63500001421198","sequential-stimulus-presentation-old","88","387920","0.0-25.0-1.1","SS1619739526305","trial","","40","500","711.635000014212","images/stimuli/spore_stims/complex_06_A_a.gif","images/stimuli/spore_stims/complex_02_A_b.gif","forced_long","","8","complex_dissimilar","images/stimuli/spore_stims/complex_02_A_b.gif","","","","",""
"","null","html-keyboard-response","89","389062","0.0-25.0-0.2","SS1619739526305","","","null","","","","","","<p><img src= images/blank.png width =""600"" height = ""600"" style=""position:fixed;top:50%; left:50%; transform: translate(-50%, -50%); border:5px solid black"">","","","","","","","",""
"","140.91499999631196","sequential-stimulus-presentation-old","90","389710","0.0-25.0-1.2","SS1619739526305","trial","","40","500","640.914999996312","images/stimuli/spore_stims/complex_06_A_a.gif","images/stimuli/spore_stims/complex_02_A_b.gif","forced_long","","8","complex_dissimilar","images/stimuli/spore_stims/complex_02_A_b.gif","","","","",""
"","null","html-keyboard-response","91","390622","0.0-25.0-0.3","SS1619739526305","","","null","","","","","","<p><img src= images/blank.png width =""600"" height = ""600"" style=""position:fixed;top:50%; left:50%; transform: translate(-50%, -50%); border:5px solid black"">","","","","","","","",""
"","201.17000001482666","sequential-stimulus-presentation-old","92","391334","0.0-25.0-1.3","SS1619739526305","trial","","40","500","701.1700000148267","images/stimuli/spore_stims/complex_06_A_a.gif","images/stimuli/spore_stims/complex_02_A_b.gif","forced_long","","8","complex_dissimilar","images/stimuli/spore_stims/complex_06_A_a.gif","","","","",""
"","null","html-keyboard-response","93","392224","0.0-25.0-0.4","SS1619739526305","","","null","","","","","","<p><img src= images/blank.png width =""600"" height = ""600"" style=""position:fixed;top:50%; left:50%; transform: translate(-50%, -50%); border:5px solid black"">","","","","","","","",""
"","6227.284999971744","sequential-stimulus-presentation-old","94","398960","0.0-25.0-1.4","SS1619739526305","trial","","40","500","6727.284999971744","images/stimuli/spore_stims/complex_06_A_a.gif","images/stimuli/spore_stims/complex_02_A_b.gif","forced_long","","8","complex_dissimilar","images/stimuli/spore_stims/complex_06_A_a.gif","","","","",""
"","3105.4450000519864","survey-multi-choice","95","402073","0.0-26.0","SS1619739526305","math_question","","","","","","","","","","","","{""Q0"":""9""}","[0]","9","",""
"","null","html-keyboard-response","96","403326","0.0-27.0-0.0","SS1619739526305","","","null","","","","","","<p><img src= images/blank.png width =""600"" height = ""600"" style=""position:fixed;top:50%; left:50%; transform: translate(-50%, -50%); border:5px solid black"">","","","","","","","",""
"","0.7699999841861427","sequential-stimulus-presentation-old","97","418332","0.0-27.0-1.0","SS1619739526305","trial","","40","500","500.76999998418614","images/stimuli/spore_stims/complex_11_A_a.gif","images/stimuli/spore_stims/complex_13_A_b.gif","forced_long","","9","complex_dissimilar","images/stimuli/spore_stims/complex_13_A_b.gif","","","","",""
"","null","html-keyboard-response","98","419263","0.0-27.0-0.1","SS1619739526305","","","null","","","","","","<p><img src= images/blank.png width =""600"" height = ""600"" style=""position:fixed;top:50%; left:50%; transform: translate(-50%, -50%); border:5px solid black"">","","","","","","","",""
"","138.9199999975972","sequential-stimulus-presentation-old","99","419908","0.0-27.0-1.1","SS1619739526305","trial","","40","500","638.9199999975972","images/stimuli/spore_stims/complex_11_A_a.gif","images/stimuli/spore_stims/complex_13_A_b.gif","forced_long","","9","complex_dissimilar","images/stimuli/spore_stims/complex_13_A_b.gif","","","","",""
"","null","html-keyboard-response","100","420862","0.0-27.0-0.2","SS1619739526305","","","null","","","","","","<p><img src= images/blank.png width =""600"" height = ""600"" style=""position:fixed;top:50%; left:50%; transform: translate(-50%, -50%); border:5px solid black"">","","","","","","","",""
"","586.5449999691918","sequential-stimulus-presentation-old","101","421957","0.0-27.0-1.2","SS1619739526305","trial","","40","500","1086.5449999691918","images/stimuli/spore_stims/complex_11_A_a.gif","images/stimuli/spore_stims/complex_13_A_b.gif","forced_long","","9","complex_dissimilar","images/stimuli/spore_stims/complex_13_A_b.gif","","","","",""
"","null","html-keyboard-response","102","423112","0.0-27.0-0.3","SS1619739526305","","","null","","","","","","<p><img src= images/blank.png width =""600"" height = ""600"" style=""position:fixed;top:50%; left:50%; transform: translate(-50%, -50%); border:5px solid black"">","","","","","","","",""
"","336.3699999754317","sequential-stimulus-presentation-old","103","423956","0.0-27.0-1.3","SS1619739526305","trial","","40","500","836.3699999754317","images/stimuli/spore_stims/complex_11_A_a.gif","images/stimuli/spore_stims/complex_13_A_b.gif","forced_long","","9","complex_dissimilar","images/stimuli/spore_stims/complex_13_A_b.gif","","","","",""
"","null","html-keyboard-response","104","425012","0.0-27.0-0.4","SS1619739526305","","","null","","","","","","<p><img src= images/blank.png width =""600"" height = ""600"" style=""position:fixed;top:50%; left:50%; transform: translate(-50%, -50%); border:5px solid black"">","","","","","","","",""
"","134.10000002477318","sequential-stimulus-presentation-old","105","425657","0.0-27.0-1.4","SS1619739526305","trial","","40","500","634.1000000247732","images/stimuli/spore_stims/complex_11_A_a.gif","images/stimuli/spore_stims/complex_13_A_b.gif","forced_long","","9","complex_dissimilar","images/stimuli/spore_stims/complex_13_A_b.gif","","","","",""
"","null","html-keyboard-response","106","426582","0.0-27.0-0.5","SS1619739526305","","","null","","","","","","<p><img src= images/blank.png width =""600"" height = ""600"" style=""position:fixed;top:50%; left:50%; transform: translate(-50%, -50%); border:5px solid black"">","","","","","","","",""
"","67.04499997431412","sequential-stimulus-presentation-old","107","427155","0.0-27.0-1.5","SS1619739526305","trial","","40","500","567.0449999743141","images/stimuli/spore_stims/complex_11_A_a.gif","images/stimuli/spore_stims/complex_13_A_b.gif","forced_long","","9","complex_dissimilar","images/stimuli/spore_stims/complex_13_A_b.gif","","","","",""
"","2630.684999981895","survey-multi-choice","108","429793","0.0-28.0","SS1619739526305","math_question","","","","","","","","","","","","{""Q0"":""15""}","[0]","15","",""
"","null","html-keyboard-response","109","430605","0.0-29.0-0.0","SS1619739526305","","","null","","","","","","<p><img src= images/blank.png width =""600"" height = ""600"" style=""position:fixed;top:50%; left:50%; transform: translate(-50%, -50%); border:5px solid black"">","","","","","","","",""
"","5507.7649999875575","sequential-stimulus-presentation-old","110","436620","0.0-29.0-1.0","SS1619739526305","trial","","40","500","6007.7649999875575","images/stimuli/spore_stims/complex_07_A_a.gif","images/stimuli/spore_stims/complex_09_A_b.gif","forced_short","","10","complex_dissimilar","images/stimuli/spore_stims/complex_09_A_b.gif","","","","",""
"","null","html-keyboard-response","111","437552","0.0-29.0-0.1","SS1619739526305","","","null","","","","","","<p><img src= images/blank.png width =""600"" height = ""600"" style=""position:fixed;top:50%; left:50%; transform: translate(-50%, -50%); border:5px solid black"">","","","","","","","",""
"","173.73999999836087","sequential-stimulus-presentation-old","112","438234","0.0-29.0-1.1","SS1619739526305","trial","","40","500","673.7399999983609","images/stimuli/spore_stims/complex_07_A_a.gif","images/stimuli/spore_stims/complex_09_A_b.gif","forced_short","","10","complex_dissimilar","images/stimuli/spore_stims/complex_09_A_b.gif","","","","",""
"","null","html-keyboard-response","113","439269","0.0-29.0-0.2","SS1619739526305","","","null","","","","","","<p><img src= images/blank.png width =""600"" height = ""600"" style=""position:fixed;top:50%; left:50%; transform: translate(-50%, -50%); border:5px solid black"">","","","","","","","",""
"","108.59499999787658","sequential-stimulus-presentation-old","114","439890","0.0-29.0-1.2","SS1619739526305","trial","","40","500","608.5949999978766","images/stimuli/spore_stims/complex_07_A_a.gif","images/stimuli/spore_stims/complex_09_A_b.gif","forced_short","","10","complex_dissimilar","images/stimuli/spore_stims/complex_09_A_b.gif","","","","",""
"","null","html-keyboard-response","115","440978","0.0-29.0-0.3","SS1619739526305","","","null","","","","","","<p><img src= images/blank.png width =""600"" height = ""600"" style=""position:fixed;top:50%; left:50%; transform: translate(-50%, -50%); border:5px solid black"">","","","","","","","",""
"","143.8450000132434","sequential-stimulus-presentation-old","116","441629","0.0-29.0-1.3","SS1619739526305","trial","","40","500","643.8450000132434","images/stimuli/spore_stims/complex_07_A_a.gif","images/stimuli/spore_stims/complex_09_A_b.gif","forced_short","","10","complex_dissimilar","images/stimuli/spore_stims/complex_09_A_b.gif","","","","",""
"","null","html-keyboard-response","117","442597","0.0-29.0-0.4","SS1619739526305","","","null","","","","","","<p><img src= images/blank.png width =""600"" height = ""600"" style=""position:fixed;top:50%; left:50%; transform: translate(-50%, -50%); border:5px solid black"">","","","","","","","",""
"","2.7099999715574086","sequential-stimulus-presentation-old","118","443106","0.0-29.0-1.4","SS1619739526305","trial","","40","500","502.7099999715574","images/stimuli/spore_stims/complex_07_A_a.gif","images/stimuli/spore_stims/complex_09_A_b.gif","forced_short","","10","complex_dissimilar","images/stimuli/spore_stims/complex_09_A_b.gif","","","","",""
"","null","html-keyboard-response","119","444232","0.0-29.0-0.5","SS1619739526305","","","null","","","","","","<p><img src= images/blank.png width =""600"" height = ""600"" style=""position:fixed;top:50%; left:50%; transform: translate(-50%, -50%); border:5px solid black"">","","","","","","","",""
"","128.2150000333786","sequential-stimulus-presentation-old","120","444872","0.0-29.0-1.5","SS1619739526305","trial","","40","500","628.2150000333786","images/stimuli/spore_stims/complex_07_A_a.gif","images/stimuli/spore_stims/complex_09_A_b.gif","forced_short","","10","complex_dissimilar","images/stimuli/spore_stims/complex_07_A_a.gif","","","","",""
"","2139.245000027586","survey-multi-choice","121","447017","0.0-30.0","SS1619739526305","math_question","","","","","","","","","","","","{""Q0"":""7""}","[0]","7","",""
"","null","html-keyboard-response","122","448243","0.0-31.0-0.0","SS1619739526305","","","null","","","","","","<p><img src= images/blank.png width =""600"" height = ""600"" style=""position:fixed;top:50%; left:50%; transform: translate(-50%, -50%); border:5px solid black"">","","","","","","","",""
"","1434.0949999750592","sequential-stimulus-presentation-old","123","450196","0.0-31.0-1.0","SS1619739526305","trial","","40","500","1934.0949999750592","images/stimuli/spore_stims/complex_12_A_a.gif","images/stimuli/spore_stims/complex_19_A_b.gif","forced_short","","11","complex_dissimilar","images/stimuli/spore_stims/complex_19_A_b.gif","","","","",""
"","null","html-keyboard-response","124","451061","0.0-31.0-0.1","SS1619739526305","","","null","","","","","","<p><img src= images/blank.png width =""600"" height = ""600"" style=""position:fixed;top:50%; left:50%; transform: translate(-50%, -50%); border:5px solid black"">","","","","","","","",""
"","322.04499997897074","sequential-stimulus-presentation-old","125","451889","0.0-31.0-1.1","SS1619739526305","trial","","40","500","822.0449999789707","images/stimuli/spore_stims/complex_12_A_a.gif","images/stimuli/spore_stims/complex_19_A_b.gif","forced_short","","11","complex_dissimilar","images/stimuli/spore_stims/complex_19_A_b.gif","","","","",""
"","null","html-keyboard-response","126","453182","0.0-31.0-0.2","SS1619739526305","","","null","","","","","","<p><img src= images/blank.png width =""600"" height = ""600"" style=""position:fixed;top:50%; left:50%; transform: translate(-50%, -50%); border:5px solid black"">","","","","","","","",""
"","754.3900000164285","sequential-stimulus-presentation-old","127","454443","0.0-31.0-1.2","SS1619739526305","trial","","40","500","1254.3900000164285","images/stimuli/spore_stims/complex_12_A_a.gif","images/stimuli/spore_stims/complex_19_A_b.gif","forced_short","","11","complex_dissimilar","images/stimuli/spore_stims/complex_19_A_b.gif","","","","",""
"","null","html-keyboard-response","128","455452","0.0-31.0-0.3","SS1619739526305","","","null","","","","","","<p><img src= images/blank.png width =""600"" height = ""600"" style=""position:fixed;top:50%; left:50%; transform: translate(-50%, -50%); border:5px solid black"">","","","","","","","",""
"","196.77500001853332","sequential-stimulus-presentation-old","129","456156","0.0-31.0-1.3","SS1619739526305","trial","","40","500","696.7750000185333","images/stimuli/spore_stims/complex_12_A_a.gif","images/stimuli/spore_stims/complex_19_A_b.gif","forced_short","","11","complex_dissimilar","images/stimuli/spore_stims/complex_12_A_a.gif","","","","",""
"[{""page_index"":0,""viewing_time"":3087.9950000089593}]","3088.3749999920838","instructions","130","459249","0.0-32.0","SS1619739526305","instructions","","","","","","","","","","","","","","","",""
"","4722.08999999566","survey-likert","131","463977","0.0-33.0","SS1619739526305","similarity_question","","","","","","","","","","","","{""Q0"":2}","[0]","","images/stimuli/spore_stims/complex_18_A_b.gif","images/stimuli/spore_stims/complex_17_A_a.gif"
"","3110.7450000126846","survey-likert","132","467097","0.0-34.0","SS1619739526305","similarity_question","","","","","","","","","","","","{""Q0"":2}","[0]","","images/stimuli/spore_stims/complex_02_A_b.gif","images/stimuli/spore_stims/complex_06_A_a.gif"
"","5046.839999966323","survey-likert","133","472153","0.0-35.0","SS1619739526305","similarity_question","","","","","","","","","","","","{""Q0"":4}","[0]","","images/stimuli/spore_stims/simple_11_A_b.gif","images/stimuli/spore_stims/simple_14_A_a.gif"
"","3106.0399999842048","survey-likert","134","475273","0.0-36.0","SS1619739526305","similarity_question","","","","","","","","","","","","{""Q0"":1}","[0]","","images/stimuli/spore_stims/complex_11_A_a.gif","images/stimuli/spore_stims/complex_13_A_b.gif"
"","1681.2749999808148","survey-likert","135","476963","0.0-37.0","SS1619739526305","similarity_question","","","","","","","","","","","","{""Q0"":4}","[0]","","images/stimuli/spore_stims/simple_12_A_a.gif","images/stimuli/spore_stims/simple_09_A_b.gif"
"","58028.0700000003","survey-likert","136","535000","0.0-38.0","SS1619739526305","similarity_question","","","","","","","","","","","","{""Q0"":1}","[0]","","images/stimuli/spore_stims/simple_18_A_a.gif","images/stimuli/spore_stims/simple_14_A_b.gif"
"","1983.4200000041164","survey-likert","137","536993","0.0-39.0","SS1619739526305","similarity_question","","","","","","","","","","","","{""Q0"":4}","[0]","","images/stimuli/spore_stims/simple_13_A_a.gif","images/stimuli/spore_stims/simple_02_A_b.gif"
"","7926.644999999553","survey-likert","138","544929","0.0-40.0","SS1619739526305","similarity_question","","","","","","","","","","","","{""Q0"":3}","[0]","","images/stimuli/spore_stims/complex_07_A_a.gif","images/stimuli/spore_stims/complex_09_A_b.gif"
"","11990.454999962822","survey-likert","139","556929","0.0-41.0","SS1619739526305","similarity_question","","","","","","","","","","","","{""Q0"":3}","[0]","","images/stimuli/spore_stims/complex_19_A_b.gif","images/stimuli/spore_stims/complex_12_A_a.gif"
"","2086.8049999698997","survey-likert","140","559024","0.0-42.0","SS1619739526305","similarity_question","","","","","","","","","","","","{""Q0"":4}","[0]","","images/stimuli/spore_stims/simple_10_A_b.gif","images/stimuli/spore_stims/simple_20_A_a.gif"
"","1718.5150000150315","survey-likert","141","560753","0.0-43.0","SS1619739526305","similarity_question","","","","","","","","","","","","{""Q0"":4}","[0]","","images/stimuli/spore_stims/simple_07_A_b.gif","images/stimuli/spore_stims/simple_08_A_a.gif"
"","4182.08500003675","survey-likert","142","564945","0.0-44.0","SS1619739526305","similarity_question","","","","","","","","","","","","{""Q0"":3}","[0]","","images/stimuli/spore_stims/complex_04_A_b.gif","images/stimuli/spore_stims/complex_01_A_a.gif"
"[{""page_index"":0,""viewing_time"":4076.630000025034}]","4076.965000014752","instructions","143","569033","0.0-45.0","SS1619739526305","instructions","","","","","","","","","","","","","","","",""
"","3561.8549999780953","survey-likert","144","572601","0.0-46.0","SS1619739526305","","","","","","","","","images/stimuli/spore_stims/complex_17_A_a.gif","","","","{""Q0"":5}","[0]","","",""
"","3526.335000002291","survey-likert","145","576137","0.0-47.0","SS1619739526305","","","","","","","","","images/stimuli/spore_stims/simple_09_A_b.gif","","","","{""Q0"":1}","[0]","","",""
"","1462.2699999599718","survey-likert","146","577609","0.0-48.0","SS1619739526305","","","","","","","","","images/stimuli/spore_stims/simple_11_A_b.gif","","","","{""Q0"":1}","[0]","","",""
"","2815.21500000963","survey-likert","147","580433","0.0-49.0","SS1619739526305","","","","","","","","","images/stimuli/spore_stims/complex_11_A_a.gif","","","","{""Q0"":4}","[0]","","",""
"","2132.370000006631","survey-likert","148","582577","0.0-50.0","SS1619739526305","","","","","","","","","images/stimuli/spore_stims/simple_18_A_a.gif","","","","{""Q0"":0}","[0]","","",""
"","2382.824999978766","survey-likert","149","584969","0.0-51.0","SS1619739526305","","","","","","","","","images/stimuli/spore_stims/simple_13_A_a.gif","","","","{""Q0"":1}","[0]","","",""
"","3054.569999978412","survey-likert","150","588033","0.0-52.0","SS1619739526305","","","","","","","","","images/stimuli/spore_stims/complex_12_A_a.gif","","","","{""Q0"":5}","[0]","","",""
"","1686.1250000074506","survey-likert","151","589729","0.0-53.0","SS1619739526305","","","","","","","","","images/stimuli/spore_stims/complex_09_A_b.gif","","","","{""Q0"":4}","[0]","","",""
"","1485.2299999911338","survey-likert","152","591225","0.0-54.0","SS1619739526305","","","","","","","","","images/stimuli/spore_stims/simple_07_A_b.gif","","","","{""Q0"":3}","[0]","","",""
"","2126.7400000360794","survey-likert","153","593361","0.0-55.0","SS1619739526305","","","","","","","","","images/stimuli/spore_stims/complex_01_A_a.gif","","","","{""Q0"":4}","[0]","","",""
"","1534.1699999989942","survey-likert","154","594905","0.0-56.0","SS1619739526305","","","","","","","","","images/stimuli/spore_stims/simple_10_A_b.gif","","","","{""Q0"":2}","[0]","","",""
"","1959.2549999943003","survey-likert","155","596874","0.0-57.0","SS1619739526305","","","","","","","","","images/stimuli/spore_stims/complex_02_A_b.gif","","","","{""Q0"":4}","[0]","","",""
"[{""page_index"":0,""viewing_time"":1004.5349999563769}]","1005.0399999599904","instructions","156","597889","0.0-58.0","SS1619739526305","instructions","","","","","","","","","","","","","","","",""
"","2166.0850000334904","demog-age","157","600065","0.0-59.0","SS1619739526305","","","","","","","","","","","","","{""age"":""23""}","","","",""
"","5398.309999960475","demog-ethnic-US","158","605473","0.0-60.0","SS1619739526305","","","","","","","","","","","","","{""ethnicity"":[""White""]}","[0]","","",""
"","8068.665000027977","demog-gender-and-education","159","613553","0.0-61.0","SS1619739526305","","","","","","","","","","","","","{""gender"":""Male"",""education"":""High school diploma""}","[0,1]","","",""
"","8444.019999995362","survey-text","160","622009","0.0-62.0","SS1619739526305","feedback","","","","","","","","","","","","{""Q0"":""no, all good""}","","","",""
"[{""page_index"":0,""viewing_time"":1097.3149999626912}]","1097.6249999948777","instructions","161","623112","0.0-63.0","SS1619739526305","instructions","","","","","","","","","","","","","","","",""
