"view_history","rt","trial_type","trial_index","time_elapsed","internal_node_id","subject","stimulus_type","trial_stimulus","key_press","minimum_viewing_duration","trial_looking_time","block_deviant","block_background","exposure_type","stimulus","block_number","block_type","stimulus_displayed","responses","question_order","math_correct_answer","stimulus_left","stimulus_right"
"[{""page_index"":0,""viewing_time"":2252.7550000231713}]","2253.0850000912324","instructions","0","2254","0.0-0.0","SS1619739825744","","","","","","","","","","","","","","","","",""
"[{""page_index"":0,""viewing_time"":13125.884999986738},{""page_index"":1,""viewing_time"":5754.350000061095}]","18880.490000010468","instructions","1","23137","0.0-1.0","SS1619739825744","instructions","","","","","","","","","","","","","","","",""
"","5860.329999937676","sequential-stimulus-presentation-old","2","29501","0.0-2.0","SS1619739825744","","","40","500","6360.329999937676","null","null","self_paced","","","","","","","","",""
"","3447.8899999521673","sequential-stimulus-presentation-old","3","33452","0.0-3.0","SS1619739825744","","","40","500","3947.8899999521673","null","null","self_paced","","","","","","","","",""
"[{""page_index"":0,""viewing_time"":17442.735000047833}]","17442.984999972396","instructions","4","50896","0.0-4.0","SS1619739825744","instructions","","","","","","","","","","","","","","","",""
"","2720.564999966882","sequential-stimulus-presentation-old","5","68619","0.0-5.0","SS1619739825744","","","40","500","3220.564999966882","null","null","forced_long","","","","","","","","",""
"","3609.0600000461563","sequential-stimulus-presentation-old","6","72731","0.0-6.0","SS1619739825744","","","40","500","4109.060000046156","null","null","forced_long","","","","","","","","",""
"[{""page_index"":0,""viewing_time"":3808.2749999593943}]","3808.4849999286234","instructions","7","76541","0.0-7.0","SS1619739825744","instructions","","","","","","","","","","","","","","","",""
"[{""page_index"":0,""viewing_time"":10923.190000001341},{""page_index"":1,""viewing_time"":9910.975000006147},{""page_index"":2,""viewing_time"":5560.590000008233},{""page_index"":3,""viewing_time"":1483.9449999853969},{""page_index"":4,""viewing_time"":781.9649999728426}]","28661.05500003323","instructions","8","105203","0.0-8.0","SS1619739825744","instructions","","","","","","","","","","","","","","","",""
"","null","html-keyboard-response","9","106414","0.0-9.0-0.0","SS1619739825744","","","null","","","","","","<p><img src= images/blank.png width =""600"" height = ""600"" style=""position:fixed;top:50%; left:50%; transform: translate(-50%, -50%); border:5px solid black"">","","","","","","","",""
"","4511.115000001155","sequential-stimulus-presentation-old","10","125931","0.0-9.0-1.0","SS1619739825744","trial","","40","500","5011.115000001155","images/stimuli/spore_stims/simple_14_A_b.gif","images/stimuli/spore_stims/simple_19_A_a.gif","forced_long","","0","simple_dissimilar","images/stimuli/spore_stims/simple_19_A_a.gif","","","","",""
"","null","html-keyboard-response","11","127062","0.0-9.0-0.1","SS1619739825744","","","null","","","","","","<p><img src= images/blank.png width =""600"" height = ""600"" style=""position:fixed;top:50%; left:50%; transform: translate(-50%, -50%); border:5px solid black"">","","","","","","","",""
"","3452.9649999458343","sequential-stimulus-presentation-old","12","131019","0.0-9.0-1.1","SS1619739825744","trial","","40","500","3952.9649999458343","images/stimuli/spore_stims/simple_14_A_b.gif","images/stimuli/spore_stims/simple_19_A_a.gif","forced_long","","0","simple_dissimilar","images/stimuli/spore_stims/simple_19_A_a.gif","","","","",""
"","null","html-keyboard-response","13","132159","0.0-9.0-0.2","SS1619739825744","","","null","","","","","","<p><img src= images/blank.png width =""600"" height = ""600"" style=""position:fixed;top:50%; left:50%; transform: translate(-50%, -50%); border:5px solid black"">","","","","","","","",""
"","1930.1899999845773","sequential-stimulus-presentation-old","14","134595","0.0-9.0-1.2","SS1619739825744","trial","","40","500","2430.1899999845773","images/stimuli/spore_stims/simple_14_A_b.gif","images/stimuli/spore_stims/simple_19_A_a.gif","forced_long","","0","simple_dissimilar","images/stimuli/spore_stims/simple_19_A_a.gif","","","","",""
"","null","html-keyboard-response","15","135410","0.0-9.0-0.3","SS1619739825744","","","null","","","","","","<p><img src= images/blank.png width =""600"" height = ""600"" style=""position:fixed;top:50%; left:50%; transform: translate(-50%, -50%); border:5px solid black"">","","","","","","","",""
"","2824.045000015758","sequential-stimulus-presentation-old","16","138739","0.0-9.0-1.3","SS1619739825744","trial","","40","500","3324.045000015758","images/stimuli/spore_stims/simple_14_A_b.gif","images/stimuli/spore_stims/simple_19_A_a.gif","forced_long","","0","simple_dissimilar","images/stimuli/spore_stims/simple_14_A_b.gif","","","","",""
"","3778.1700000632554","survey-multi-choice","17","142520","0.0-10.0","SS1619739825744","math_question","","","","","","","","","","","","{""Q0"":""5""}","[0]","5","",""
"","null","html-keyboard-response","18","143643","0.0-11.0-0.0","SS1619739825744","","","null","","","","","","<p><img src= images/blank.png width =""600"" height = ""600"" style=""position:fixed;top:50%; left:50%; transform: translate(-50%, -50%); border:5px solid black"">","","","","","","","",""
"","18755.434999940917","sequential-stimulus-presentation-old","19","177403","0.0-11.0-1.0","SS1619739825744","trial","","40","500","19255.434999940917","images/stimuli/spore_stims/complex_12_A_b.gif","images/stimuli/spore_stims/complex_19_A_a.gif","forced_long","","1","complex_dissimilar","images/stimuli/spore_stims/complex_19_A_a.gif","","","","",""
"","null","html-keyboard-response","20","178247","0.0-11.0-0.1","SS1619739825744","","","null","","","","","","<p><img src= images/blank.png width =""600"" height = ""600"" style=""position:fixed;top:50%; left:50%; transform: translate(-50%, -50%); border:5px solid black"">","","","","","","","",""
"","1332.9950000625104","sequential-stimulus-presentation-old","21","180082","0.0-11.0-1.1","SS1619739825744","trial","","40","500","1832.9950000625104","images/stimuli/spore_stims/complex_12_A_b.gif","images/stimuli/spore_stims/complex_19_A_a.gif","forced_long","","1","complex_dissimilar","images/stimuli/spore_stims/complex_19_A_a.gif","","","","",""
"","null","html-keyboard-response","22","181154","0.0-11.0-0.2","SS1619739825744","","","null","","","","","","<p><img src= images/blank.png width =""600"" height = ""600"" style=""position:fixed;top:50%; left:50%; transform: translate(-50%, -50%); border:5px solid black"">","","","","","","","",""
"","1674.1049999836832","sequential-stimulus-presentation-old","23","183331","0.0-11.0-1.2","SS1619739825744","trial","","40","500","2174.1049999836832","images/stimuli/spore_stims/complex_12_A_b.gif","images/stimuli/spore_stims/complex_19_A_a.gif","forced_long","","1","complex_dissimilar","images/stimuli/spore_stims/complex_19_A_a.gif","","","","",""
"","null","html-keyboard-response","24","184325","0.0-11.0-0.3","SS1619739825744","","","null","","","","","","<p><img src= images/blank.png width =""600"" height = ""600"" style=""position:fixed;top:50%; left:50%; transform: translate(-50%, -50%); border:5px solid black"">","","","","","","","",""
"","1301.119999960065","sequential-stimulus-presentation-old","25","186130","0.0-11.0-1.3","SS1619739825744","trial","","40","500","1801.119999960065","images/stimuli/spore_stims/complex_12_A_b.gif","images/stimuli/spore_stims/complex_19_A_a.gif","forced_long","","1","complex_dissimilar","images/stimuli/spore_stims/complex_19_A_a.gif","","","","",""
"","null","html-keyboard-response","26","186945","0.0-11.0-0.4","SS1619739825744","","","null","","","","","","<p><img src= images/blank.png width =""600"" height = ""600"" style=""position:fixed;top:50%; left:50%; transform: translate(-50%, -50%); border:5px solid black"">","","","","","","","",""
"","1025.5350000225008","sequential-stimulus-presentation-old","27","188474","0.0-11.0-1.4","SS1619739825744","trial","","40","500","1525.5350000225008","images/stimuli/spore_stims/complex_12_A_b.gif","images/stimuli/spore_stims/complex_19_A_a.gif","forced_long","","1","complex_dissimilar","images/stimuli/spore_stims/complex_19_A_a.gif","","","","",""
"","null","html-keyboard-response","28","189391","0.0-11.0-0.5","SS1619739825744","","","null","","","","","","<p><img src= images/blank.png width =""600"" height = ""600"" style=""position:fixed;top:50%; left:50%; transform: translate(-50%, -50%); border:5px solid black"">","","","","","","","",""
"","3884.2449999647215","sequential-stimulus-presentation-old","29","193779","0.0-11.0-1.5","SS1619739825744","trial","","40","500","4384.2449999647215","images/stimuli/spore_stims/complex_12_A_b.gif","images/stimuli/spore_stims/complex_19_A_a.gif","forced_long","","1","complex_dissimilar","images/stimuli/spore_stims/complex_12_A_b.gif","","","","",""
"","3076.115000061691","survey-multi-choice","30","196857","0.0-12.0","SS1619739825744","math_question","","","","","","","","","","","","{""Q0"":""3""}","[0]","3","",""
"","null","html-keyboard-response","31","197912","0.0-13.0-0.0","SS1619739825744","","","null","","","","","","<p><img src= images/blank.png width =""600"" height = ""600"" style=""position:fixed;top:50%; left:50%; transform: translate(-50%, -50%); border:5px solid black"">","","","","","","","",""
"","2235.8600000152364","sequential-stimulus-presentation-old","32","200651","0.0-13.0-1.0","SS1619739825744","trial","","40","500","2735.8600000152364","images/stimuli/spore_stims/complex_09_A_b.gif","images/stimuli/spore_stims/complex_04_A_a.gif","forced_short","","2","complex_dissimilar","images/stimuli/spore_stims/complex_04_A_a.gif","","","","",""
"","null","html-keyboard-response","33","201536","0.0-13.0-0.1","SS1619739825744","","","null","","","","","","<p><img src= images/blank.png width =""600"" height = ""600"" style=""position:fixed;top:50%; left:50%; transform: translate(-50%, -50%); border:5px solid black"">","","","","","","","",""
"","4527.799999923445","sequential-stimulus-presentation-old","34","206570","0.0-13.0-1.1","SS1619739825744","trial","","40","500","5027.799999923445","images/stimuli/spore_stims/complex_09_A_b.gif","images/stimuli/spore_stims/complex_04_A_a.gif","forced_short","","2","complex_dissimilar","images/stimuli/spore_stims/complex_09_A_b.gif","","","","",""
"","null","html-keyboard-response","35","207603","0.0-13.0-0.2","SS1619739825744","","","null","","","","","","<p><img src= images/blank.png width =""600"" height = ""600"" style=""position:fixed;top:50%; left:50%; transform: translate(-50%, -50%); border:5px solid black"">","","","","","","","",""
"","3055.3549999604","sequential-stimulus-presentation-old","36","211162","0.0-13.0-1.2","SS1619739825744","trial","","40","500","3555.3549999604","images/stimuli/spore_stims/complex_09_A_b.gif","images/stimuli/spore_stims/complex_04_A_a.gif","forced_short","","2","complex_dissimilar","images/stimuli/spore_stims/complex_04_A_a.gif","","","","",""
"","null","html-keyboard-response","37","212027","0.0-13.0-0.3","SS1619739825744","","","null","","","","","","<p><img src= images/blank.png width =""600"" height = ""600"" style=""position:fixed;top:50%; left:50%; transform: translate(-50%, -50%); border:5px solid black"">","","","","","","","",""
"","543.9349999651313","sequential-stimulus-presentation-old","38","213074","0.0-13.0-1.3","SS1619739825744","trial","","40","500","1043.9349999651313","images/stimuli/spore_stims/complex_09_A_b.gif","images/stimuli/spore_stims/complex_04_A_a.gif","forced_short","","2","complex_dissimilar","images/stimuli/spore_stims/complex_04_A_a.gif","","","","",""
"","null","html-keyboard-response","39","214087","0.0-13.0-0.4","SS1619739825744","","","null","","","","","","<p><img src= images/blank.png width =""600"" height = ""600"" style=""position:fixed;top:50%; left:50%; transform: translate(-50%, -50%); border:5px solid black"">","","","","","","","",""
"","1220.8999999566004","sequential-stimulus-presentation-old","40","215810","0.0-13.0-1.4","SS1619739825744","trial","","40","500","1720.8999999566004","images/stimuli/spore_stims/complex_09_A_b.gif","images/stimuli/spore_stims/complex_04_A_a.gif","forced_short","","2","complex_dissimilar","images/stimuli/spore_stims/complex_09_A_b.gif","","","","",""
"","2954.410000005737","survey-multi-choice","41","218767","0.0-14.0","SS1619739825744","math_question","","","","","","","","","","","","{""Q0"":""10""}","[0]","10","",""
"","null","html-keyboard-response","42","219738","0.0-15.0-0.0","SS1619739825744","","","null","","","","","","<p><img src= images/blank.png width =""600"" height = ""600"" style=""position:fixed;top:50%; left:50%; transform: translate(-50%, -50%); border:5px solid black"">","","","","","","","",""
"","894.5850000018254","sequential-stimulus-presentation-old","43","221138","0.0-15.0-1.0","SS1619739825744","trial","","40","500","1394.5850000018254","images/stimuli/spore_stims/simple_07_A_b.gif","images/stimuli/spore_stims/simple_10_A_a.gif","self_paced","","3","simple_dissimilar","images/stimuli/spore_stims/simple_10_A_a.gif","","","","",""
"","null","html-keyboard-response","44","222118","0.0-15.0-0.1","SS1619739825744","","","null","","","","","","<p><img src= images/blank.png width =""600"" height = ""600"" style=""position:fixed;top:50%; left:50%; transform: translate(-50%, -50%); border:5px solid black"">","","","","","","","",""
"","1765.555000049062","sequential-stimulus-presentation-old","45","224386","0.0-15.0-1.1","SS1619739825744","trial","","40","500","2265.555000049062","images/stimuli/spore_stims/simple_07_A_b.gif","images/stimuli/spore_stims/simple_10_A_a.gif","self_paced","","3","simple_dissimilar","images/stimuli/spore_stims/simple_10_A_a.gif","","","","",""
"","null","html-keyboard-response","46","225433","0.0-15.0-0.2","SS1619739825744","","","null","","","","","","<p><img src= images/blank.png width =""600"" height = ""600"" style=""position:fixed;top:50%; left:50%; transform: translate(-50%, -50%); border:5px solid black"">","","","","","","","",""
"","1385.0950000341982","sequential-stimulus-presentation-old","47","227322","0.0-15.0-1.2","SS1619739825744","trial","","40","500","1885.0950000341982","images/stimuli/spore_stims/simple_07_A_b.gif","images/stimuli/spore_stims/simple_10_A_a.gif","self_paced","","3","simple_dissimilar","images/stimuli/spore_stims/simple_10_A_a.gif","","","","",""
"","null","html-keyboard-response","48","228494","0.0-15.0-0.3","SS1619739825744","","","null","","","","","","<p><img src= images/blank.png width =""600"" height = ""600"" style=""position:fixed;top:50%; left:50%; transform: translate(-50%, -50%); border:5px solid black"">","","","","","","","",""
"","1692.6400000229478","sequential-stimulus-presentation-old","49","230690","0.0-15.0-1.3","SS1619739825744","trial","","40","500","2192.640000022948","images/stimuli/spore_stims/simple_07_A_b.gif","images/stimuli/spore_stims/simple_10_A_a.gif","self_paced","","3","simple_dissimilar","images/stimuli/spore_stims/simple_10_A_a.gif","","","","",""
"","null","html-keyboard-response","50","231591","0.0-15.0-0.4","SS1619739825744","","","null","","","","","","<p><img src= images/blank.png width =""600"" height = ""600"" style=""position:fixed;top:50%; left:50%; transform: translate(-50%, -50%); border:5px solid black"">","","","","","","","",""
"","178.70500008575618","sequential-stimulus-presentation-old","51","232274","0.0-15.0-1.4","SS1619739825744","trial","","40","500","678.7050000857562","images/stimuli/spore_stims/simple_07_A_b.gif","images/stimuli/spore_stims/simple_10_A_a.gif","self_paced","","3","simple_dissimilar","images/stimuli/spore_stims/simple_10_A_a.gif","","","","",""
"","2614.2649999819696","survey-multi-choice","52","234891","0.0-16.0","SS1619739825744","math_question","","","","","","","","","","","","{""Q0"":""7""}","[0]","7","",""
"","null","html-keyboard-response","53","235701","0.0-17.0-0.0","SS1619739825744","","","null","","","","","","<p><img src= images/blank.png width =""600"" height = ""600"" style=""position:fixed;top:50%; left:50%; transform: translate(-50%, -50%); border:5px solid black"">","","","","","","","",""
"","1969.8949999874458","sequential-stimulus-presentation-old","54","252674","0.0-17.0-1.0","SS1619739825744","trial","","40","500","2469.8949999874458","images/stimuli/spore_stims/complex_05_A_a.gif","images/stimuli/spore_stims/complex_02_A_b.gif","forced_long","","4","complex_dissimilar","images/stimuli/spore_stims/complex_02_A_b.gif","","","","",""
"","null","html-keyboard-response","55","253492","0.0-17.0-0.1","SS1619739825744","","","null","","","","","","<p><img src= images/blank.png width =""600"" height = ""600"" style=""position:fixed;top:50%; left:50%; transform: translate(-50%, -50%); border:5px solid black"">","","","","","","","",""
"","357.0450000697747","sequential-stimulus-presentation-old","56","254354","0.0-17.0-1.1","SS1619739825744","trial","","40","500","857.0450000697747","images/stimuli/spore_stims/complex_05_A_a.gif","images/stimuli/spore_stims/complex_02_A_b.gif","forced_long","","4","complex_dissimilar","images/stimuli/spore_stims/complex_02_A_b.gif","","","","",""
"","null","html-keyboard-response","57","255361","0.0-17.0-0.2","SS1619739825744","","","null","","","","","","<p><img src= images/blank.png width =""600"" height = ""600"" style=""position:fixed;top:50%; left:50%; transform: translate(-50%, -50%); border:5px solid black"">","","","","","","","",""
"","183.30000003334135","sequential-stimulus-presentation-old","58","256050","0.0-17.0-1.2","SS1619739825744","trial","","40","500","683.3000000333413","images/stimuli/spore_stims/complex_05_A_a.gif","images/stimuli/spore_stims/complex_02_A_b.gif","forced_long","","4","complex_dissimilar","images/stimuli/spore_stims/complex_02_A_b.gif","","","","",""
"","null","html-keyboard-response","59","256988","0.0-17.0-0.3","SS1619739825744","","","null","","","","","","<p><img src= images/blank.png width =""600"" height = ""600"" style=""position:fixed;top:50%; left:50%; transform: translate(-50%, -50%); border:5px solid black"">","","","","","","","",""
"","111.26999999396503","sequential-stimulus-presentation-old","60","257602","0.0-17.0-1.3","SS1619739825744","trial","","40","500","611.269999993965","images/stimuli/spore_stims/complex_05_A_a.gif","images/stimuli/spore_stims/complex_02_A_b.gif","forced_long","","4","complex_dissimilar","images/stimuli/spore_stims/complex_02_A_b.gif","","","","",""
"","null","html-keyboard-response","61","258791","0.0-17.0-0.4","SS1619739825744","","","null","","","","","","<p><img src= images/blank.png width =""600"" height = ""600"" style=""position:fixed;top:50%; left:50%; transform: translate(-50%, -50%); border:5px solid black"">","","","","","","","",""
"","2187.610000022687","sequential-stimulus-presentation-old","62","261482","0.0-17.0-1.4","SS1619739825744","trial","","40","500","2687.610000022687","images/stimuli/spore_stims/complex_05_A_a.gif","images/stimuli/spore_stims/complex_02_A_b.gif","forced_long","","4","complex_dissimilar","images/stimuli/spore_stims/complex_05_A_a.gif","","","","",""
"","2927.919999929145","survey-multi-choice","63","264411","0.0-18.0","SS1619739825744","math_question","","","","","","","","","","","","{""Q0"":""17""}","[0]","17","",""
"","null","html-keyboard-response","64","265355","0.0-19.0-0.0","SS1619739825744","","","null","","","","","","<p><img src= images/blank.png width =""600"" height = ""600"" style=""position:fixed;top:50%; left:50%; transform: translate(-50%, -50%); border:5px solid black"">","","","","","","","",""
"","673.4850000357255","sequential-stimulus-presentation-old","65","281034","0.0-19.0-1.0","SS1619739825744","trial","","40","500","1173.4850000357255","images/stimuli/spore_stims/simple_01_A_a.gif","images/stimuli/spore_stims/simple_17_A_b.gif","forced_long","","5","simple_dissimilar","images/stimuli/spore_stims/simple_17_A_b.gif","","","","",""
"","null","html-keyboard-response","66","281921","0.0-19.0-0.1","SS1619739825744","","","null","","","","","","<p><img src= images/blank.png width =""600"" height = ""600"" style=""position:fixed;top:50%; left:50%; transform: translate(-50%, -50%); border:5px solid black"">","","","","","","","",""
"","119.31999993976206","sequential-stimulus-presentation-old","67","282546","0.0-19.0-1.1","SS1619739825744","trial","","40","500","619.319999939762","images/stimuli/spore_stims/simple_01_A_a.gif","images/stimuli/spore_stims/simple_17_A_b.gif","forced_long","","5","simple_dissimilar","images/stimuli/spore_stims/simple_17_A_b.gif","","","","",""
"","null","html-keyboard-response","68","283839","0.0-19.0-0.2","SS1619739825744","","","null","","","","","","<p><img src= images/blank.png width =""600"" height = ""600"" style=""position:fixed;top:50%; left:50%; transform: translate(-50%, -50%); border:5px solid black"">","","","","","","","",""
"","99.86499999649823","sequential-stimulus-presentation-old","69","284442","0.0-19.0-1.2","SS1619739825744","trial","","40","500","599.8649999964982","images/stimuli/spore_stims/simple_01_A_a.gif","images/stimuli/spore_stims/simple_17_A_b.gif","forced_long","","5","simple_dissimilar","images/stimuli/spore_stims/simple_17_A_b.gif","","","","",""
"","null","html-keyboard-response","70","285406","0.0-19.0-0.3","SS1619739825744","","","null","","","","","","<p><img src= images/blank.png width =""600"" height = ""600"" style=""position:fixed;top:50%; left:50%; transform: translate(-50%, -50%); border:5px solid black"">","","","","","","","",""
"","1524.585000006482","sequential-stimulus-presentation-old","71","287434","0.0-19.0-1.3","SS1619739825744","trial","","40","500","2024.585000006482","images/stimuli/spore_stims/simple_01_A_a.gif","images/stimuli/spore_stims/simple_17_A_b.gif","forced_long","","5","simple_dissimilar","images/stimuli/spore_stims/simple_17_A_b.gif","","","","",""
"","null","html-keyboard-response","72","288416","0.0-19.0-0.4","SS1619739825744","","","null","","","","","","<p><img src= images/blank.png width =""600"" height = ""600"" style=""position:fixed;top:50%; left:50%; transform: translate(-50%, -50%); border:5px solid black"">","","","","","","","",""
"","745.9599999710917","sequential-stimulus-presentation-old","73","289666","0.0-19.0-1.4","SS1619739825744","trial","","40","500","1245.9599999710917","images/stimuli/spore_stims/simple_01_A_a.gif","images/stimuli/spore_stims/simple_17_A_b.gif","forced_long","","5","simple_dissimilar","images/stimuli/spore_stims/simple_17_A_b.gif","","","","",""
"","null","html-keyboard-response","74","290717","0.0-19.0-0.5","SS1619739825744","","","null","","","","","","<p><img src= images/blank.png width =""600"" height = ""600"" style=""position:fixed;top:50%; left:50%; transform: translate(-50%, -50%); border:5px solid black"">","","","","","","","",""
"","756.8449999671429","sequential-stimulus-presentation-old","75","291978","0.0-19.0-1.5","SS1619739825744","trial","","40","500","1256.844999967143","images/stimuli/spore_stims/simple_01_A_a.gif","images/stimuli/spore_stims/simple_17_A_b.gif","forced_long","","5","simple_dissimilar","images/stimuli/spore_stims/simple_17_A_b.gif","","","","",""
"","3148.4700000146404","survey-multi-choice","76","295128","0.0-20.0","SS1619739825744","math_question","","","","","","","","","","","","{""Q0"":""11""}","[0]","11","",""
"","null","html-keyboard-response","77","296178","0.0-21.0-0.0","SS1619739825744","","","null","","","","","","<p><img src= images/blank.png width =""600"" height = ""600"" style=""position:fixed;top:50%; left:50%; transform: translate(-50%, -50%); border:5px solid black"">","","","","","","","",""
"","1856.9099999731407","sequential-stimulus-presentation-old","78","298538","0.0-21.0-1.0","SS1619739825744","trial","","40","500","2356.9099999731407","images/stimuli/spore_stims/complex_05_A_b.gif","images/stimuli/spore_stims/complex_18_A_a.gif","self_paced","","6","complex_dissimilar","images/stimuli/spore_stims/complex_18_A_a.gif","","","","",""
"","null","html-keyboard-response","79","299357","0.0-21.0-0.1","SS1619739825744","","","null","","","","","","<p><img src= images/blank.png width =""600"" height = ""600"" style=""position:fixed;top:50%; left:50%; transform: translate(-50%, -50%); border:5px solid black"">","","","","","","","",""
"","1389.8850000696257","sequential-stimulus-presentation-old","80","301250","0.0-21.0-1.1","SS1619739825744","trial","","40","500","1889.8850000696257","images/stimuli/spore_stims/complex_05_A_b.gif","images/stimuli/spore_stims/complex_18_A_a.gif","self_paced","","6","complex_dissimilar","images/stimuli/spore_stims/complex_18_A_a.gif","","","","",""
"","null","html-keyboard-response","81","302493","0.0-21.0-0.2","SS1619739825744","","","null","","","","","","<p><img src= images/blank.png width =""600"" height = ""600"" style=""position:fixed;top:50%; left:50%; transform: translate(-50%, -50%); border:5px solid black"">","","","","","","","",""
"","1244.509999989532","sequential-stimulus-presentation-old","82","304241","0.0-21.0-1.2","SS1619739825744","trial","","40","500","1744.509999989532","images/stimuli/spore_stims/complex_05_A_b.gif","images/stimuli/spore_stims/complex_18_A_a.gif","self_paced","","6","complex_dissimilar","images/stimuli/spore_stims/complex_18_A_a.gif","","","","",""
"","null","html-keyboard-response","83","305366","0.0-21.0-0.3","SS1619739825744","","","null","","","","","","<p><img src= images/blank.png width =""600"" height = ""600"" style=""position:fixed;top:50%; left:50%; transform: translate(-50%, -50%); border:5px solid black"">","","","","","","","",""
"","3707.234999979846","sequential-stimulus-presentation-old","84","309578","0.0-21.0-1.3","SS1619739825744","trial","","40","500","4207.234999979846","images/stimuli/spore_stims/complex_05_A_b.gif","images/stimuli/spore_stims/complex_18_A_a.gif","self_paced","","6","complex_dissimilar","images/stimuli/spore_stims/complex_18_A_a.gif","","","","",""
"","null","html-keyboard-response","85","310879","0.0-21.0-0.4","SS1619739825744","","","null","","","","","","<p><img src= images/blank.png width =""600"" height = ""600"" style=""position:fixed;top:50%; left:50%; transform: translate(-50%, -50%); border:5px solid black"">","","","","","","","",""
"","194.20999998692423","sequential-stimulus-presentation-old","86","311578","0.0-21.0-1.4","SS1619739825744","trial","","40","500","694.2099999869242","images/stimuli/spore_stims/complex_05_A_b.gif","images/stimuli/spore_stims/complex_18_A_a.gif","self_paced","","6","complex_dissimilar","images/stimuli/spore_stims/complex_18_A_a.gif","","","","",""
"","null","html-keyboard-response","87","312858","0.0-21.0-0.5","SS1619739825744","","","null","","","","","","<p><img src= images/blank.png width =""600"" height = ""600"" style=""position:fixed;top:50%; left:50%; transform: translate(-50%, -50%); border:5px solid black"">","","","","","","","",""
"","608.1250000279397","sequential-stimulus-presentation-old","88","313969","0.0-21.0-1.5","SS1619739825744","trial","","40","500","1108.1250000279397","images/stimuli/spore_stims/complex_05_A_b.gif","images/stimuli/spore_stims/complex_18_A_a.gif","self_paced","","6","complex_dissimilar","images/stimuli/spore_stims/complex_18_A_a.gif","","","","",""
"","2729.4599999440834","survey-multi-choice","89","316701","0.0-22.0","SS1619739825744","math_question","","","","","","","","","","","","{""Q0"":""13""}","[0]","13","",""
"","null","html-keyboard-response","90","317720","0.0-23.0-0.0","SS1619739825744","","","null","","","","","","<p><img src= images/blank.png width =""600"" height = ""600"" style=""position:fixed;top:50%; left:50%; transform: translate(-50%, -50%); border:5px solid black"">","","","","","","","",""
"","3145.7599999848753","sequential-stimulus-presentation-old","91","321369","0.0-23.0-1.0","SS1619739825744","trial","","40","500","3645.7599999848753","images/stimuli/spore_stims/complex_16_A_a.gif","images/stimuli/spore_stims/complex_14_A_b.gif","self_paced","","7","complex_dissimilar","images/stimuli/spore_stims/complex_14_A_b.gif","","","","",""
"","null","html-keyboard-response","92","322184","0.0-23.0-0.1","SS1619739825744","","","null","","","","","","<p><img src= images/blank.png width =""600"" height = ""600"" style=""position:fixed;top:50%; left:50%; transform: translate(-50%, -50%); border:5px solid black"">","","","","","","","",""
"","665.6499999808148","sequential-stimulus-presentation-old","93","323353","0.0-23.0-1.1","SS1619739825744","trial","","40","500","1165.6499999808148","images/stimuli/spore_stims/complex_16_A_a.gif","images/stimuli/spore_stims/complex_14_A_b.gif","self_paced","","7","complex_dissimilar","images/stimuli/spore_stims/complex_14_A_b.gif","","","","",""
"","null","html-keyboard-response","94","324349","0.0-23.0-0.2","SS1619739825744","","","null","","","","","","<p><img src= images/blank.png width =""600"" height = ""600"" style=""position:fixed;top:50%; left:50%; transform: translate(-50%, -50%); border:5px solid black"">","","","","","","","",""
"","1218.1600000476465","sequential-stimulus-presentation-old","95","326073","0.0-23.0-1.2","SS1619739825744","trial","","40","500","1718.1600000476465","images/stimuli/spore_stims/complex_16_A_a.gif","images/stimuli/spore_stims/complex_14_A_b.gif","self_paced","","7","complex_dissimilar","images/stimuli/spore_stims/complex_14_A_b.gif","","","","",""
"","null","html-keyboard-response","96","327247","0.0-23.0-0.3","SS1619739825744","","","null","","","","","","<p><img src= images/blank.png width =""600"" height = ""600"" style=""position:fixed;top:50%; left:50%; transform: translate(-50%, -50%); border:5px solid black"">","","","","","","","",""
"","931.7850000225008","sequential-stimulus-presentation-old","97","328681","0.0-23.0-1.3","SS1619739825744","trial","","40","500","1431.7850000225008","images/stimuli/spore_stims/complex_16_A_a.gif","images/stimuli/spore_stims/complex_14_A_b.gif","self_paced","","7","complex_dissimilar","images/stimuli/spore_stims/complex_14_A_b.gif","","","","",""
"","null","html-keyboard-response","98","329879","0.0-23.0-0.4","SS1619739825744","","","null","","","","","","<p><img src= images/blank.png width =""600"" height = ""600"" style=""position:fixed;top:50%; left:50%; transform: translate(-50%, -50%); border:5px solid black"">","","","","","","","",""
"","2275.19499999471","sequential-stimulus-presentation-old","99","332657","0.0-23.0-1.4","SS1619739825744","trial","","40","500","2775.19499999471","images/stimuli/spore_stims/complex_16_A_a.gif","images/stimuli/spore_stims/complex_14_A_b.gif","self_paced","","7","complex_dissimilar","images/stimuli/spore_stims/complex_16_A_a.gif","","","","",""
"","2394.4700000574812","survey-multi-choice","100","335054","0.0-24.0","SS1619739825744","math_question","","","","","","","","","","","","{""Q0"":""12""}","[0]","12","",""
"","null","html-keyboard-response","101","335938","0.0-25.0-0.0","SS1619739825744","","","null","","","","","","<p><img src= images/blank.png width =""600"" height = ""600"" style=""position:fixed;top:50%; left:50%; transform: translate(-50%, -50%); border:5px solid black"">","","","","","","","",""
"","940.0300000561401","sequential-stimulus-presentation-old","102","337385","0.0-25.0-1.0","SS1619739825744","trial","","40","500","1440.0300000561401","images/stimuli/spore_stims/simple_19_A_b.gif","images/stimuli/spore_stims/simple_17_A_a.gif","forced_short","","8","simple_dissimilar","images/stimuli/spore_stims/simple_17_A_a.gif","","","","",""
"","null","html-keyboard-response","103","338534","0.0-25.0-0.1","SS1619739825744","","","null","","","","","","<p><img src= images/blank.png width =""600"" height = ""600"" style=""position:fixed;top:50%; left:50%; transform: translate(-50%, -50%); border:5px solid black"">","","","","","","","",""
"","3.9600000018253922","sequential-stimulus-presentation-old","104","339041","0.0-25.0-1.1","SS1619739825744","trial","","40","500","503.9600000018254","images/stimuli/spore_stims/simple_19_A_b.gif","images/stimuli/spore_stims/simple_17_A_a.gif","forced_short","","8","simple_dissimilar","images/stimuli/spore_stims/simple_17_A_a.gif","","","","",""
"","null","html-keyboard-response","105","340095","0.0-25.0-0.2","SS1619739825744","","","null","","","","","","<p><img src= images/blank.png width =""600"" height = ""600"" style=""position:fixed;top:50%; left:50%; transform: translate(-50%, -50%); border:5px solid black"">","","","","","","","",""
"","233.94000006373972","sequential-stimulus-presentation-old","106","340833","0.0-25.0-1.2","SS1619739825744","trial","","40","500","733.9400000637397","images/stimuli/spore_stims/simple_19_A_b.gif","images/stimuli/spore_stims/simple_17_A_a.gif","forced_short","","8","simple_dissimilar","images/stimuli/spore_stims/simple_17_A_a.gif","","","","",""
"","null","html-keyboard-response","107","342123","0.0-25.0-0.3","SS1619739825744","","","null","","","","","","<p><img src= images/blank.png width =""600"" height = ""600"" style=""position:fixed;top:50%; left:50%; transform: translate(-50%, -50%); border:5px solid black"">","","","","","","","",""
"","222.61499997694045","sequential-stimulus-presentation-old","108","342850","0.0-25.0-1.3","SS1619739825744","trial","","40","500","722.6149999769405","images/stimuli/spore_stims/simple_19_A_b.gif","images/stimuli/spore_stims/simple_17_A_a.gif","forced_short","","8","simple_dissimilar","images/stimuli/spore_stims/simple_17_A_a.gif","","","","",""
"","null","html-keyboard-response","109","344095","0.0-25.0-0.4","SS1619739825744","","","null","","","","","","<p><img src= images/blank.png width =""600"" height = ""600"" style=""position:fixed;top:50%; left:50%; transform: translate(-50%, -50%); border:5px solid black"">","","","","","","","",""
"","522.5899999495596","sequential-stimulus-presentation-old","110","345121","0.0-25.0-1.4","SS1619739825744","trial","","40","500","1022.5899999495596","images/stimuli/spore_stims/simple_19_A_b.gif","images/stimuli/spore_stims/simple_17_A_a.gif","forced_short","","8","simple_dissimilar","images/stimuli/spore_stims/simple_17_A_a.gif","","","","",""
"","null","html-keyboard-response","111","346407","0.0-25.0-0.5","SS1619739825744","","","null","","","","","","<p><img src= images/blank.png width =""600"" height = ""600"" style=""position:fixed;top:50%; left:50%; transform: translate(-50%, -50%); border:5px solid black"">","","","","","","","",""
"","163.46000006888062","sequential-stimulus-presentation-old","112","347073","0.0-25.0-1.5","SS1619739825744","trial","","40","500","663.4600000688806","images/stimuli/spore_stims/simple_19_A_b.gif","images/stimuli/spore_stims/simple_17_A_a.gif","forced_short","","8","simple_dissimilar","images/stimuli/spore_stims/simple_17_A_a.gif","","","","",""
"","2612.97499993816","survey-multi-choice","113","349689","0.0-26.0","SS1619739825744","math_question","","","","","","","","","","","","{""Q0"":""11""}","[0]","11","",""
"","null","html-keyboard-response","114","350645","0.0-27.0-0.0","SS1619739825744","","","null","","","","","","<p><img src= images/blank.png width =""600"" height = ""600"" style=""position:fixed;top:50%; left:50%; transform: translate(-50%, -50%); border:5px solid black"">","","","","","","","",""
"","2404.370000003837","sequential-stimulus-presentation-old","115","353553","0.0-27.0-1.0","SS1619739825744","trial","","40","500","2904.370000003837","images/stimuli/spore_stims/simple_15_A_a.gif","images/stimuli/spore_stims/simple_06_A_b.gif","forced_short","","9","simple_dissimilar","images/stimuli/spore_stims/simple_06_A_b.gif","","","","",""
"","null","html-keyboard-response","116","354680","0.0-27.0-0.1","SS1619739825744","","","null","","","","","","<p><img src= images/blank.png width =""600"" height = ""600"" style=""position:fixed;top:50%; left:50%; transform: translate(-50%, -50%); border:5px solid black"">","","","","","","","",""
"","170.03499995917082","sequential-stimulus-presentation-old","117","355353","0.0-27.0-1.1","SS1619739825744","trial","","40","500","670.0349999591708","images/stimuli/spore_stims/simple_15_A_a.gif","images/stimuli/spore_stims/simple_06_A_b.gif","forced_short","","9","simple_dissimilar","images/stimuli/spore_stims/simple_06_A_b.gif","","","","",""
"","null","html-keyboard-response","118","356333","0.0-27.0-0.2","SS1619739825744","","","null","","","","","","<p><img src= images/blank.png width =""600"" height = ""600"" style=""position:fixed;top:50%; left:50%; transform: translate(-50%, -50%); border:5px solid black"">","","","","","","","",""
"","2362.584999995306","sequential-stimulus-presentation-old","119","359201","0.0-27.0-1.2","SS1619739825744","trial","","40","500","2862.584999995306","images/stimuli/spore_stims/simple_15_A_a.gif","images/stimuli/spore_stims/simple_06_A_b.gif","forced_short","","9","simple_dissimilar","images/stimuli/spore_stims/simple_06_A_b.gif","","","","",""
"","null","html-keyboard-response","120","360018","0.0-27.0-0.3","SS1619739825744","","","null","","","","","","<p><img src= images/blank.png width =""600"" height = ""600"" style=""position:fixed;top:50%; left:50%; transform: translate(-50%, -50%); border:5px solid black"">","","","","","","","",""
"","46.46500002127141","sequential-stimulus-presentation-old","121","360569","0.0-27.0-1.3","SS1619739825744","trial","","40","500","546.4650000212714","images/stimuli/spore_stims/simple_15_A_a.gif","images/stimuli/spore_stims/simple_06_A_b.gif","forced_short","","9","simple_dissimilar","images/stimuli/spore_stims/simple_06_A_b.gif","","","","",""
"","null","html-keyboard-response","122","361697","0.0-27.0-0.4","SS1619739825744","","","null","","","","","","<p><img src= images/blank.png width =""600"" height = ""600"" style=""position:fixed;top:50%; left:50%; transform: translate(-50%, -50%); border:5px solid black"">","","","","","","","",""
"","334.35000001918525","sequential-stimulus-presentation-old","123","362537","0.0-27.0-1.4","SS1619739825744","trial","","40","500","834.3500000191852","images/stimuli/spore_stims/simple_15_A_a.gif","images/stimuli/spore_stims/simple_06_A_b.gif","forced_short","","9","simple_dissimilar","images/stimuli/spore_stims/simple_06_A_b.gif","","","","",""
"","3481.3149999827147","survey-multi-choice","124","366021","0.0-28.0","SS1619739825744","math_question","","","","","","","","","","","","{""Q0"":""5""}","[0]","5","",""
"","null","html-keyboard-response","125","367173","0.0-29.0-0.0","SS1619739825744","","","null","","","","","","<p><img src= images/blank.png width =""600"" height = ""600"" style=""position:fixed;top:50%; left:50%; transform: translate(-50%, -50%); border:5px solid black"">","","","","","","","",""
"","2179.8750000307336","sequential-stimulus-presentation-old","126","369857","0.0-29.0-1.0","SS1619739825744","trial","","40","500","2679.8750000307336","images/stimuli/spore_stims/complex_18_A_b.gif","images/stimuli/spore_stims/complex_15_A_a.gif","forced_short","","10","complex_dissimilar","images/stimuli/spore_stims/complex_15_A_a.gif","","","","",""
"","null","html-keyboard-response","127","371010","0.0-29.0-0.1","SS1619739825744","","","null","","","","","","<p><img src= images/blank.png width =""600"" height = ""600"" style=""position:fixed;top:50%; left:50%; transform: translate(-50%, -50%); border:5px solid black"">","","","","","","","",""
"","1870.9900000831112","sequential-stimulus-presentation-old","128","373385","0.0-29.0-1.1","SS1619739825744","trial","","40","500","2370.990000083111","images/stimuli/spore_stims/complex_18_A_b.gif","images/stimuli/spore_stims/complex_15_A_a.gif","forced_short","","10","complex_dissimilar","images/stimuli/spore_stims/complex_18_A_b.gif","","","","",""
"","null","html-keyboard-response","129","374216","0.0-29.0-0.2","SS1619739825744","","","null","","","","","","<p><img src= images/blank.png width =""600"" height = ""600"" style=""position:fixed;top:50%; left:50%; transform: translate(-50%, -50%); border:5px solid black"">","","","","","","","",""
"","1457.5300000142306","sequential-stimulus-presentation-old","130","376177","0.0-29.0-1.2","SS1619739825744","trial","","40","500","1957.5300000142306","images/stimuli/spore_stims/complex_18_A_b.gif","images/stimuli/spore_stims/complex_15_A_a.gif","forced_short","","10","complex_dissimilar","images/stimuli/spore_stims/complex_15_A_a.gif","","","","",""
"","null","html-keyboard-response","131","377121","0.0-29.0-0.3","SS1619739825744","","","null","","","","","","<p><img src= images/blank.png width =""600"" height = ""600"" style=""position:fixed;top:50%; left:50%; transform: translate(-50%, -50%); border:5px solid black"">","","","","","","","",""
"","175.62999995425344","sequential-stimulus-presentation-old","132","377801","0.0-29.0-1.3","SS1619739825744","trial","","40","500","675.6299999542534","images/stimuli/spore_stims/complex_18_A_b.gif","images/stimuli/spore_stims/complex_15_A_a.gif","forced_short","","10","complex_dissimilar","images/stimuli/spore_stims/complex_18_A_b.gif","","","","",""
"","null","html-keyboard-response","133","378623","0.0-29.0-0.4","SS1619739825744","","","null","","","","","","<p><img src= images/blank.png width =""600"" height = ""600"" style=""position:fixed;top:50%; left:50%; transform: translate(-50%, -50%); border:5px solid black"">","","","","","","","",""
"","377.08999996539205","sequential-stimulus-presentation-old","134","379505","0.0-29.0-1.4","SS1619739825744","trial","","40","500","877.089999965392","images/stimuli/spore_stims/complex_18_A_b.gif","images/stimuli/spore_stims/complex_15_A_a.gif","forced_short","","10","complex_dissimilar","images/stimuli/spore_stims/complex_15_A_a.gif","","","","",""
"","null","html-keyboard-response","135","380310","0.0-29.0-0.5","SS1619739825744","","","null","","","","","","<p><img src= images/blank.png width =""600"" height = ""600"" style=""position:fixed;top:50%; left:50%; transform: translate(-50%, -50%); border:5px solid black"">","","","","","","","",""
"","1258.4000000497326","sequential-stimulus-presentation-old","136","382073","0.0-29.0-1.5","SS1619739825744","trial","","40","500","1758.4000000497326","images/stimuli/spore_stims/complex_18_A_b.gif","images/stimuli/spore_stims/complex_15_A_a.gif","forced_short","","10","complex_dissimilar","images/stimuli/spore_stims/complex_15_A_a.gif","","","","",""
"","2706.239999970421","survey-multi-choice","137","384782","0.0-30.0","SS1619739825744","math_question","","","","","","","","","","","","{""Q0"":""11""}","[0]","11","",""
"","null","html-keyboard-response","138","386015","0.0-31.0-0.0","SS1619739825744","","","null","","","","","","<p><img src= images/blank.png width =""600"" height = ""600"" style=""position:fixed;top:50%; left:50%; transform: translate(-50%, -50%); border:5px solid black"">","","","","","","","",""
"","258.1299999728799","sequential-stimulus-presentation-old","139","386777","0.0-31.0-1.0","SS1619739825744","trial","","40","500","758.1299999728799","images/stimuli/spore_stims/simple_10_A_b.gif","images/stimuli/spore_stims/simple_20_A_a.gif","self_paced","","11","simple_dissimilar","images/stimuli/spore_stims/simple_20_A_a.gif","","","","",""
"","null","html-keyboard-response","140","388011","0.0-31.0-0.1","SS1619739825744","","","null","","","","","","<p><img src= images/blank.png width =""600"" height = ""600"" style=""position:fixed;top:50%; left:50%; transform: translate(-50%, -50%); border:5px solid black"">","","","","","","","",""
"","501.11000007018447","sequential-stimulus-presentation-old","141","389017","0.0-31.0-1.1","SS1619739825744","trial","","40","500","1001.1100000701845","images/stimuli/spore_stims/simple_10_A_b.gif","images/stimuli/spore_stims/simple_20_A_a.gif","self_paced","","11","simple_dissimilar","images/stimuli/spore_stims/simple_20_A_a.gif","","","","",""
"","null","html-keyboard-response","142","389917","0.0-31.0-0.2","SS1619739825744","","","null","","","","","","<p><img src= images/blank.png width =""600"" height = ""600"" style=""position:fixed;top:50%; left:50%; transform: translate(-50%, -50%); border:5px solid black"">","","","","","","","",""
"","156.40500001609325","sequential-stimulus-presentation-old","143","390577","0.0-31.0-1.2","SS1619739825744","trial","","40","500","656.4050000160933","images/stimuli/spore_stims/simple_10_A_b.gif","images/stimuli/spore_stims/simple_20_A_a.gif","self_paced","","11","simple_dissimilar","images/stimuli/spore_stims/simple_20_A_a.gif","","","","",""
"","null","html-keyboard-response","144","391701","0.0-31.0-0.3","SS1619739825744","","","null","","","","","","<p><img src= images/blank.png width =""600"" height = ""600"" style=""position:fixed;top:50%; left:50%; transform: translate(-50%, -50%); border:5px solid black"">","","","","","","","",""
"","2635.275000007823","sequential-stimulus-presentation-old","145","394841","0.0-31.0-1.3","SS1619739825744","trial","","40","500","3135.275000007823","images/stimuli/spore_stims/simple_10_A_b.gif","images/stimuli/spore_stims/simple_20_A_a.gif","self_paced","","11","simple_dissimilar","images/stimuli/spore_stims/simple_20_A_a.gif","","","","",""
"","null","html-keyboard-response","146","395959","0.0-31.0-0.4","SS1619739825744","","","null","","","","","","<p><img src= images/blank.png width =""600"" height = ""600"" style=""position:fixed;top:50%; left:50%; transform: translate(-50%, -50%); border:5px solid black"">","","","","","","","",""
"","746.0199999623001","sequential-stimulus-presentation-old","147","397209","0.0-31.0-1.4","SS1619739825744","trial","","40","500","1246.0199999623","images/stimuli/spore_stims/simple_10_A_b.gif","images/stimuli/spore_stims/simple_20_A_a.gif","self_paced","","11","simple_dissimilar","images/stimuli/spore_stims/simple_20_A_a.gif","","","","",""
"[{""page_index"":0,""viewing_time"":5189.954999950714}]","5190.3000000165775","instructions","148","402402","0.0-32.0","SS1619739825744","instructions","","","","","","","","","","","","","","","",""
"","6585.274999961257","survey-likert","149","408992","0.0-33.0","SS1619739825744","similarity_question","","","","","","","","","","","","{""Q0"":1}","[0]","","images/stimuli/spore_stims/complex_04_A_a.gif","images/stimuli/spore_stims/complex_09_A_b.gif"
"","6809.314999962226","survey-likert","150","415807","0.0-34.0","SS1619739825744","similarity_question","","","","","","","","","","","","{""Q0"":1}","[0]","","images/stimuli/spore_stims/complex_02_A_b.gif","images/stimuli/spore_stims/complex_05_A_a.gif"
"","3824.8850000090897","survey-likert","151","419638","0.0-35.0","SS1619739825744","similarity_question","","","","","","","","","","","","{""Q0"":4}","[0]","","images/stimuli/spore_stims/simple_10_A_a.gif","images/stimuli/spore_stims/simple_07_A_b.gif"
"","4789.254999952391","survey-likert","152","424434","0.0-36.0","SS1619739825744","similarity_question","","","","","","","","","","","","{""Q0"":5}","[0]","","images/stimuli/spore_stims/simple_19_A_a.gif","images/stimuli/spore_stims/simple_14_A_b.gif"
"","4210.835000034422","survey-likert","153","428653","0.0-37.0","SS1619739825744","similarity_question","","","","","","","","","","","","{""Q0"":5}","[0]","","images/stimuli/spore_stims/simple_20_A_a.gif","images/stimuli/spore_stims/simple_10_A_b.gif"
"","2620.284999953583","survey-likert","154","431280","0.0-38.0","SS1619739825744","similarity_question","","","","","","","","","","","","{""Q0"":5}","[0]","","images/stimuli/spore_stims/simple_01_A_a.gif","images/stimuli/spore_stims/simple_17_A_b.gif"
"","5854.180000023916","survey-likert","155","437142","0.0-39.0","SS1619739825744","similarity_question","","","","","","","","","","","","{""Q0"":2}","[0]","","images/stimuli/spore_stims/complex_18_A_b.gif","images/stimuli/spore_stims/complex_15_A_a.gif"
"","2947.0349999610335","survey-likert","156","440096","0.0-40.0","SS1619739825744","similarity_question","","","","","","","","","","","","{""Q0"":1}","[0]","","images/stimuli/spore_stims/complex_16_A_a.gif","images/stimuli/spore_stims/complex_14_A_b.gif"
"","2652.490000007674","survey-likert","157","442755","0.0-41.0","SS1619739825744","similarity_question","","","","","","","","","","","","{""Q0"":0}","[0]","","images/stimuli/spore_stims/complex_18_A_a.gif","images/stimuli/spore_stims/complex_05_A_b.gif"
"","4873.344999970868","survey-likert","158","447635","0.0-42.0","SS1619739825744","similarity_question","","","","","","","","","","","","{""Q0"":4}","[0]","","images/stimuli/spore_stims/simple_17_A_a.gif","images/stimuli/spore_stims/simple_19_A_b.gif"
"","3645.9150000009686","survey-likert","159","451288","0.0-43.0","SS1619739825744","similarity_question","","","","","","","","","","","","{""Q0"":5}","[0]","","images/stimuli/spore_stims/simple_15_A_a.gif","images/stimuli/spore_stims/simple_06_A_b.gif"
"","3302.879999973811","survey-likert","160","454597","0.0-44.0","SS1619739825744","similarity_question","","","","","","","","","","","","{""Q0"":4}","[0]","","images/stimuli/spore_stims/complex_19_A_a.gif","images/stimuli/spore_stims/complex_12_A_b.gif"
"[{""page_index"":0,""viewing_time"":5013.789999997243}]","5014.115000027232","instructions","161","459619","0.0-45.0","SS1619739825744","instructions","","","","","","","","","","","","","","","",""
"","4552.355000050738","survey-likert","162","464175","0.0-46.0","SS1619739825744","","","","","","","","","images/stimuli/spore_stims/simple_01_A_a.gif","","","","{""Q0"":0}","[0]","","",""
"","6520.709999953397","survey-likert","163","470703","0.0-47.0","SS1619739825744","","","","","","","","","images/stimuli/spore_stims/complex_02_A_b.gif","","","","{""Q0"":3}","[0]","","",""
"","3541.734999977052","survey-likert","164","474251","0.0-48.0","SS1619739825744","","","","","","","","","images/stimuli/spore_stims/simple_17_A_a.gif","","","","{""Q0"":0}","[0]","","",""
"","3199.544999981299","survey-likert","165","477456","0.0-49.0","SS1619739825744","","","","","","","","","images/stimuli/spore_stims/complex_19_A_a.gif","","","","{""Q0"":5}","[0]","","",""
"","3840.265000006184","survey-likert","166","481303","0.0-50.0","SS1619739825744","","","","","","","","","images/stimuli/spore_stims/complex_16_A_a.gif","","","","{""Q0"":6}","[0]","","",""
"","2169.6150000207126","survey-likert","167","483479","0.0-51.0","SS1619739825744","","","","","","","","","images/stimuli/spore_stims/simple_10_A_b.gif","","","","{""Q0"":0}","[0]","","",""
"","2131.0499999672174","survey-likert","168","485617","0.0-52.0","SS1619739825744","","","","","","","","","images/stimuli/spore_stims/simple_10_A_a.gif","","","","{""Q0"":0}","[0]","","",""
"","2446.750000002794","survey-likert","169","488071","0.0-53.0","SS1619739825744","","","","","","","","","images/stimuli/spore_stims/simple_06_A_b.gif","","","","{""Q0"":0}","[0]","","",""
"","2890.89999999851","survey-likert","170","490968","0.0-54.0","SS1619739825744","","","","","","","","","images/stimuli/spore_stims/complex_04_A_a.gif","","","","{""Q0"":5}","[0]","","",""
"","2192.0950000640005","survey-likert","171","493167","0.0-55.0","SS1619739825744","","","","","","","","","images/stimuli/spore_stims/simple_19_A_a.gif","","","","{""Q0"":1}","[0]","","",""
"","2866.6550000198185","survey-likert","172","496041","0.0-56.0","SS1619739825744","","","","","","","","","images/stimuli/spore_stims/complex_05_A_b.gif","","","","{""Q0"":5}","[0]","","",""
"","2503.6150000523776","survey-likert","173","498551","0.0-57.0","SS1619739825744","","","","","","","","","images/stimuli/spore_stims/complex_18_A_b.gif","","","","{""Q0"":6}","[0]","","",""
"[{""page_index"":0,""viewing_time"":2140.830000047572}]","2141.1999999545515","instructions","174","500699","0.0-58.0","SS1619739825744","instructions","","","","","","","","","","","","","","","",""
"","1943.4650000184774","demog-age","175","502650","0.0-59.0","SS1619739825744","","","","","","","","","","","","","{""age"":""23""}","","","",""
"","4015.2750000124797","demog-ethnic-US","176","506673","0.0-60.0","SS1619739825744","","","","","","","","","","","","","{""ethnicity"":[""White""]}","[0]","","",""
"","22227.025000029244","demog-gender-and-education","177","528908","0.0-61.0","SS1619739825744","","","","","","","","","","","","","{""gender"":""Male"",""education"":""High school diploma""}","[0,1]","","",""
"","8099.3299999972805","survey-text","178","537016","0.0-62.0","SS1619739825744","feedback","","","","","","","","","","","","{""Q0"":""nop""}","","","",""
"[{""page_index"":0,""viewing_time"":2129.025000031106}]","2129.560000030324","instructions","179","539149","0.0-63.0","SS1619739825744","instructions","","","","","","","","","","","","","","","",""
