"view_history","rt","trial_type","trial_index","time_elapsed","internal_node_id","subject","stimulus_type","trial_stimulus","key_press","minimum_viewing_duration","trial_looking_time","block_deviant","block_background","exposure_type","stimulus","block_number","block_type","stimulus_displayed","responses","question_order","math_correct_answer","stimulus_left","stimulus_right"
"[{""page_index"":0,""viewing_time"":61182.895000005374}]","61183.59500000952","instructions","0","61183","0.0-0.0","SS1619740119977","","","","","","","","","","","","","","","","",""
"[{""page_index"":0,""viewing_time"":16108.18000001018},{""page_index"":1,""viewing_time"":8080.079999985173}]","24188.490000000456","instructions","1","87380","0.0-1.0","SS1619740119977","instructions","","","","","","","","","","","","","","","",""
"","6280.90000001248","sequential-stimulus-presentation-old","2","94164","0.0-2.0","SS1619740119977","","","40","500","6780.90000001248","null","null","self_paced","","","","","","","","",""
"","5786.514999985229","sequential-stimulus-presentation-old","3","100452","0.0-3.0","SS1619740119977","","","40","500","6286.514999985229","null","null","self_paced","","","","","","","","",""
"[{""page_index"":0,""viewing_time"":24826.379999984056}]","24826.674999989336","instructions","4","125280","0.0-4.0","SS1619740119977","instructions","","","","","","","","","","","","","","","",""
"","622.1599999989849","sequential-stimulus-presentation-old","5","140905","0.0-5.0","SS1619740119977","","","40","500","1122.1599999989849","null","null","forced_long","","","","","","","","",""
"","2886.014999996405","sequential-stimulus-presentation-old","6","144293","0.0-6.0","SS1619740119977","","","40","500","3386.014999996405","null","null","forced_long","","","","","","","","",""
"[{""page_index"":0,""viewing_time"":4131.57999998657}]","4131.820000009611","instructions","7","148425","0.0-7.0","SS1619740119977","instructions","","","","","","","","","","","","","","","",""
"[{""page_index"":0,""viewing_time"":10648.239999980433},{""page_index"":1,""viewing_time"":15978.945000009844},{""page_index"":2,""viewing_time"":7507.790000003297},{""page_index"":3,""viewing_time"":2142.8149999992456},{""page_index"":4,""viewing_time"":1536.8599999928847}]","37814.89999999758","instructions","8","186242","0.0-8.0","SS1619740119977","instructions","","","","","","","","","","","","","","","",""
"","null","html-keyboard-response","9","187110","0.0-9.0-0.0","SS1619740119977","","","null","","","","","","<p><img src= images/blank.png width =""600"" height = ""600"" style=""position:fixed;top:50%; left:50%; transform: translate(-50%, -50%); border:5px solid black"">","","","","","","","",""
"","906.7550000036135","sequential-stimulus-presentation-old","10","203020","0.0-9.0-1.0","SS1619740119977","trial","","40","500","1406.7550000036135","images/stimuli/spore_stims/complex_18_A_a.gif","images/stimuli/spore_stims/complex_06_A_b.gif","forced_long","","0","complex_dissimilar","images/stimuli/spore_stims/complex_06_A_b.gif","","","","",""
"","null","html-keyboard-response","11","204155","0.0-9.0-0.1","SS1619740119977","","","null","","","","","","<p><img src= images/blank.png width =""600"" height = ""600"" style=""position:fixed;top:50%; left:50%; transform: translate(-50%, -50%); border:5px solid black"">","","","","","","","",""
"","32547.44500000379","sequential-stimulus-presentation-old","12","237205","0.0-9.0-1.1","SS1619740119977","trial","","40","500","33047.44500000379","images/stimuli/spore_stims/complex_18_A_a.gif","images/stimuli/spore_stims/complex_06_A_b.gif","forced_long","","0","complex_dissimilar","images/stimuli/spore_stims/complex_06_A_b.gif","","","","",""
"","null","html-keyboard-response","13","238024","0.0-9.0-0.2","SS1619740119977","","","null","","","","","","<p><img src= images/blank.png width =""600"" height = ""600"" style=""position:fixed;top:50%; left:50%; transform: translate(-50%, -50%); border:5px solid black"">","","","","","","","",""
"","12183.98500001058","sequential-stimulus-presentation-old","14","250711","0.0-9.0-1.2","SS1619740119977","trial","","40","500","12683.98500001058","images/stimuli/spore_stims/complex_18_A_a.gif","images/stimuli/spore_stims/complex_06_A_b.gif","forced_long","","0","complex_dissimilar","images/stimuli/spore_stims/complex_06_A_b.gif","","","","",""
"","null","html-keyboard-response","15","251675","0.0-9.0-0.3","SS1619740119977","","","null","","","","","","<p><img src= images/blank.png width =""600"" height = ""600"" style=""position:fixed;top:50%; left:50%; transform: translate(-50%, -50%); border:5px solid black"">","","","","","","","",""
"","8618.579999980284","sequential-stimulus-presentation-old","16","260798","0.0-9.0-1.3","SS1619740119977","trial","","40","500","9118.579999980284","images/stimuli/spore_stims/complex_18_A_a.gif","images/stimuli/spore_stims/complex_06_A_b.gif","forced_long","","0","complex_dissimilar","images/stimuli/spore_stims/complex_18_A_a.gif","","","","",""
"","null","html-keyboard-response","17","261862","0.0-9.0-0.4","SS1619740119977","","","null","","","","","","<p><img src= images/blank.png width =""600"" height = ""600"" style=""position:fixed;top:50%; left:50%; transform: translate(-50%, -50%); border:5px solid black"">","","","","","","","",""
"","926.4099999854807","sequential-stimulus-presentation-old","18","263304","0.0-9.0-1.4","SS1619740119977","trial","","40","500","1426.4099999854807","images/stimuli/spore_stims/complex_18_A_a.gif","images/stimuli/spore_stims/complex_06_A_b.gif","forced_long","","0","complex_dissimilar","images/stimuli/spore_stims/complex_06_A_b.gif","","","","",""
"","5926.16000000271","survey-multi-choice","19","269234","0.0-10.0","SS1619740119977","math_question","","","","","","","","","","","","{""Q0"":""8""}","[0]","8","",""
"","null","html-keyboard-response","20","270331","0.0-11.0-0.0","SS1619740119977","","","null","","","","","","<p><img src= images/blank.png width =""600"" height = ""600"" style=""position:fixed;top:50%; left:50%; transform: translate(-50%, -50%); border:5px solid black"">","","","","","","","",""
"","2124.0099999995437","sequential-stimulus-presentation-old","21","272959","0.0-11.0-1.0","SS1619740119977","trial","","40","500","2624.0099999995437","images/stimuli/spore_stims/complex_20_A_b.gif","images/stimuli/spore_stims/complex_09_A_a.gif","forced_short","","1","complex_dissimilar","images/stimuli/spore_stims/complex_09_A_a.gif","","","","",""
"","null","html-keyboard-response","22","274058","0.0-11.0-0.1","SS1619740119977","","","null","","","","","","<p><img src= images/blank.png width =""600"" height = ""600"" style=""position:fixed;top:50%; left:50%; transform: translate(-50%, -50%); border:5px solid black"">","","","","","","","",""
"","5976.910000026692","sequential-stimulus-presentation-old","23","280538","0.0-11.0-1.1","SS1619740119977","trial","","40","500","6476.910000026692","images/stimuli/spore_stims/complex_20_A_b.gif","images/stimuli/spore_stims/complex_09_A_a.gif","forced_short","","1","complex_dissimilar","images/stimuli/spore_stims/complex_09_A_a.gif","","","","",""
"","null","html-keyboard-response","24","281699","0.0-11.0-0.2","SS1619740119977","","","null","","","","","","<p><img src= images/blank.png width =""600"" height = ""600"" style=""position:fixed;top:50%; left:50%; transform: translate(-50%, -50%); border:5px solid black"">","","","","","","","",""
"","2054.7650000080466","sequential-stimulus-presentation-old","25","284257","0.0-11.0-1.2","SS1619740119977","trial","","40","500","2554.7650000080466","images/stimuli/spore_stims/complex_20_A_b.gif","images/stimuli/spore_stims/complex_09_A_a.gif","forced_short","","1","complex_dissimilar","images/stimuli/spore_stims/complex_09_A_a.gif","","","","",""
"","null","html-keyboard-response","26","285502","0.0-11.0-0.3","SS1619740119977","","","null","","","","","","<p><img src= images/blank.png width =""600"" height = ""600"" style=""position:fixed;top:50%; left:50%; transform: translate(-50%, -50%); border:5px solid black"">","","","","","","","",""
"","6967.719999986002","sequential-stimulus-presentation-old","27","292972","0.0-11.0-1.3","SS1619740119977","trial","","40","500","7467.719999986002","images/stimuli/spore_stims/complex_20_A_b.gif","images/stimuli/spore_stims/complex_09_A_a.gif","forced_short","","1","complex_dissimilar","images/stimuli/spore_stims/complex_09_A_a.gif","","","","",""
"","null","html-keyboard-response","28","294263","0.0-11.0-0.4","SS1619740119977","","","null","","","","","","<p><img src= images/blank.png width =""600"" height = ""600"" style=""position:fixed;top:50%; left:50%; transform: translate(-50%, -50%); border:5px solid black"">","","","","","","","",""
"","6886.885000014445","sequential-stimulus-presentation-old","29","301653","0.0-11.0-1.4","SS1619740119977","trial","","40","500","7386.885000014445","images/stimuli/spore_stims/complex_20_A_b.gif","images/stimuli/spore_stims/complex_09_A_a.gif","forced_short","","1","complex_dissimilar","images/stimuli/spore_stims/complex_20_A_b.gif","","","","",""
"","null","html-keyboard-response","30","302779","0.0-11.0-0.5","SS1619740119977","","","null","","","","","","<p><img src= images/blank.png width =""600"" height = ""600"" style=""position:fixed;top:50%; left:50%; transform: translate(-50%, -50%); border:5px solid black"">","","","","","","","",""
"","5666.274999995949","sequential-stimulus-presentation-old","31","308959","0.0-11.0-1.5","SS1619740119977","trial","","40","500","6166.274999995949","images/stimuli/spore_stims/complex_20_A_b.gif","images/stimuli/spore_stims/complex_09_A_a.gif","forced_short","","1","complex_dissimilar","images/stimuli/spore_stims/complex_20_A_b.gif","","","","",""
"","5863.444999995409","survey-multi-choice","32","314825","0.0-12.0","SS1619740119977","math_question","","","","","","","","","","","","{""Q0"":""12""}","[0]","12","",""
"","null","html-keyboard-response","33","316040","0.0-13.0-0.0","SS1619740119977","","","null","","","","","","<p><img src= images/blank.png width =""600"" height = ""600"" style=""position:fixed;top:50%; left:50%; transform: translate(-50%, -50%); border:5px solid black"">","","","","","","","",""
"","679.5500000007451","sequential-stimulus-presentation-old","34","331722","0.0-13.0-1.0","SS1619740119977","trial","","40","500","1179.550000000745","images/stimuli/spore_stims/complex_07_A_b.gif","images/stimuli/spore_stims/complex_01_A_a.gif","forced_long","","2","complex_dissimilar","images/stimuli/spore_stims/complex_01_A_a.gif","","","","",""
"","null","html-keyboard-response","35","332973","0.0-13.0-0.1","SS1619740119977","","","null","","","","","","<p><img src= images/blank.png width =""600"" height = ""600"" style=""position:fixed;top:50%; left:50%; transform: translate(-50%, -50%); border:5px solid black"">","","","","","","","",""
"","7783.404999994673","sequential-stimulus-presentation-old","36","341259","0.0-13.0-1.1","SS1619740119977","trial","","40","500","8283.404999994673","images/stimuli/spore_stims/complex_07_A_b.gif","images/stimuli/spore_stims/complex_01_A_a.gif","forced_long","","2","complex_dissimilar","images/stimuli/spore_stims/complex_01_A_a.gif","","","","",""
"","null","html-keyboard-response","37","342402","0.0-13.0-0.2","SS1619740119977","","","null","","","","","","<p><img src= images/blank.png width =""600"" height = ""600"" style=""position:fixed;top:50%; left:50%; transform: translate(-50%, -50%); border:5px solid black"">","","","","","","","",""
"","1277.4699999717996","sequential-stimulus-presentation-old","38","344182","0.0-13.0-1.2","SS1619740119977","trial","","40","500","1777.4699999717996","images/stimuli/spore_stims/complex_07_A_b.gif","images/stimuli/spore_stims/complex_01_A_a.gif","forced_long","","2","complex_dissimilar","images/stimuli/spore_stims/complex_07_A_b.gif","","","","",""
"","null","html-keyboard-response","39","345374","0.0-13.0-0.3","SS1619740119977","","","null","","","","","","<p><img src= images/blank.png width =""600"" height = ""600"" style=""position:fixed;top:50%; left:50%; transform: translate(-50%, -50%); border:5px solid black"">","","","","","","","",""
"","992.7950000273995","sequential-stimulus-presentation-old","40","346870","0.0-13.0-1.3","SS1619740119977","trial","","40","500","1492.7950000273995","images/stimuli/spore_stims/complex_07_A_b.gif","images/stimuli/spore_stims/complex_01_A_a.gif","forced_long","","2","complex_dissimilar","images/stimuli/spore_stims/complex_01_A_a.gif","","","","",""
"","null","html-keyboard-response","41","348036","0.0-13.0-0.4","SS1619740119977","","","null","","","","","","<p><img src= images/blank.png width =""600"" height = ""600"" style=""position:fixed;top:50%; left:50%; transform: translate(-50%, -50%); border:5px solid black"">","","","","","","","",""
"","2875.1199999824166","sequential-stimulus-presentation-old","42","351414","0.0-13.0-1.4","SS1619740119977","trial","","40","500","3375.1199999824166","images/stimuli/spore_stims/complex_07_A_b.gif","images/stimuli/spore_stims/complex_01_A_a.gif","forced_long","","2","complex_dissimilar","images/stimuli/spore_stims/complex_07_A_b.gif","","","","",""
"","null","html-keyboard-response","43","352362","0.0-13.0-0.5","SS1619740119977","","","null","","","","","","<p><img src= images/blank.png width =""600"" height = ""600"" style=""position:fixed;top:50%; left:50%; transform: translate(-50%, -50%); border:5px solid black"">","","","","","","","",""
"","3025.234999950044","sequential-stimulus-presentation-old","44","355900","0.0-13.0-1.5","SS1619740119977","trial","","40","500","3525.234999950044","images/stimuli/spore_stims/complex_07_A_b.gif","images/stimuli/spore_stims/complex_01_A_a.gif","forced_long","","2","complex_dissimilar","images/stimuli/spore_stims/complex_01_A_a.gif","","","","",""
"","4941.820000007283","survey-multi-choice","45","360844","0.0-14.0","SS1619740119977","math_question","","","","","","","","","","","","{""Q0"":""16""}","[0]","16","",""
"","null","html-keyboard-response","46","361733","0.0-15.0-0.0","SS1619740119977","","","null","","","","","","<p><img src= images/blank.png width =""600"" height = ""600"" style=""position:fixed;top:50%; left:50%; transform: translate(-50%, -50%); border:5px solid black"">","","","","","","","",""
"","1726.8649999750778","sequential-stimulus-presentation-old","47","363963","0.0-15.0-1.0","SS1619740119977","trial","","40","500","2226.864999975078","images/stimuli/spore_stims/simple_09_A_b.gif","images/stimuli/spore_stims/simple_17_A_a.gif","forced_short","","3","simple_dissimilar","images/stimuli/spore_stims/simple_17_A_a.gif","","","","",""
"","null","html-keyboard-response","48","364892","0.0-15.0-0.1","SS1619740119977","","","null","","","","","","<p><img src= images/blank.png width =""600"" height = ""600"" style=""position:fixed;top:50%; left:50%; transform: translate(-50%, -50%); border:5px solid black"">","","","","","","","",""
"","4453.675000055227","sequential-stimulus-presentation-old","49","369856","0.0-15.0-1.1","SS1619740119977","trial","","40","500","4953.675000055227","images/stimuli/spore_stims/simple_09_A_b.gif","images/stimuli/spore_stims/simple_17_A_a.gif","forced_short","","3","simple_dissimilar","images/stimuli/spore_stims/simple_17_A_a.gif","","","","",""
"","null","html-keyboard-response","50","370753","0.0-15.0-0.2","SS1619740119977","","","null","","","","","","<p><img src= images/blank.png width =""600"" height = ""600"" style=""position:fixed;top:50%; left:50%; transform: translate(-50%, -50%); border:5px solid black"">","","","","","","","",""
"","2019.2999999853782","sequential-stimulus-presentation-old","51","373275","0.0-15.0-1.2","SS1619740119977","trial","","40","500","2519.2999999853782","images/stimuli/spore_stims/simple_09_A_b.gif","images/stimuli/spore_stims/simple_17_A_a.gif","forced_short","","3","simple_dissimilar","images/stimuli/spore_stims/simple_09_A_b.gif","","","","",""
"","null","html-keyboard-response","52","374093","0.0-15.0-0.3","SS1619740119977","","","null","","","","","","<p><img src= images/blank.png width =""600"" height = ""600"" style=""position:fixed;top:50%; left:50%; transform: translate(-50%, -50%); border:5px solid black"">","","","","","","","",""
"","1324.739999952726","sequential-stimulus-presentation-old","53","375921","0.0-15.0-1.3","SS1619740119977","trial","","40","500","1824.739999952726","images/stimuli/spore_stims/simple_09_A_b.gif","images/stimuli/spore_stims/simple_17_A_a.gif","forced_short","","3","simple_dissimilar","images/stimuli/spore_stims/simple_17_A_a.gif","","","","",""
"","null","html-keyboard-response","54","377122","0.0-15.0-0.4","SS1619740119977","","","null","","","","","","<p><img src= images/blank.png width =""600"" height = ""600"" style=""position:fixed;top:50%; left:50%; transform: translate(-50%, -50%); border:5px solid black"">","","","","","","","",""
"","336.8950000149198","sequential-stimulus-presentation-old","55","377969","0.0-15.0-1.4","SS1619740119977","trial","","40","500","836.8950000149198","images/stimuli/spore_stims/simple_09_A_b.gif","images/stimuli/spore_stims/simple_17_A_a.gif","forced_short","","3","simple_dissimilar","images/stimuli/spore_stims/simple_17_A_a.gif","","","","",""
"","null","html-keyboard-response","56","378921","0.0-15.0-0.5","SS1619740119977","","","null","","","","","","<p><img src= images/blank.png width =""600"" height = ""600"" style=""position:fixed;top:50%; left:50%; transform: translate(-50%, -50%); border:5px solid black"">","","","","","","","",""
"","945.3799999901094","sequential-stimulus-presentation-old","57","380369","0.0-15.0-1.5","SS1619740119977","trial","","40","500","1445.3799999901094","images/stimuli/spore_stims/simple_09_A_b.gif","images/stimuli/spore_stims/simple_17_A_a.gif","forced_short","","3","simple_dissimilar","images/stimuli/spore_stims/simple_09_A_b.gif","","","","",""
"","3241.9900000095367","survey-multi-choice","58","383613","0.0-16.0","SS1619740119977","math_question","","","","","","","","","","","","{""Q0"":""6""}","[0]","6","",""
"","null","html-keyboard-response","59","384808","0.0-17.0-0.0","SS1619740119977","","","null","","","","","","<p><img src= images/blank.png width =""600"" height = ""600"" style=""position:fixed;top:50%; left:50%; transform: translate(-50%, -50%); border:5px solid black"">","","","","","","","",""
"","1849.1050000302494","sequential-stimulus-presentation-old","60","401661","0.0-17.0-1.0","SS1619740119977","trial","","40","500","2349.1050000302494","images/stimuli/spore_stims/simple_07_A_b.gif","images/stimuli/spore_stims/simple_01_A_a.gif","forced_long","","4","simple_dissimilar","images/stimuli/spore_stims/simple_01_A_a.gif","","","","",""
"","null","html-keyboard-response","61","402748","0.0-17.0-0.1","SS1619740119977","","","null","","","","","","<p><img src= images/blank.png width =""600"" height = ""600"" style=""position:fixed;top:50%; left:50%; transform: translate(-50%, -50%); border:5px solid black"">","","","","","","","",""
"","268.9949999912642","sequential-stimulus-presentation-old","62","403521","0.0-17.0-1.1","SS1619740119977","trial","","40","500","768.9949999912642","images/stimuli/spore_stims/simple_07_A_b.gif","images/stimuli/spore_stims/simple_01_A_a.gif","forced_long","","4","simple_dissimilar","images/stimuli/spore_stims/simple_01_A_a.gif","","","","",""
"","null","html-keyboard-response","63","404518","0.0-17.0-0.2","SS1619740119977","","","null","","","","","","<p><img src= images/blank.png width =""600"" height = ""600"" style=""position:fixed;top:50%; left:50%; transform: translate(-50%, -50%); border:5px solid black"">","","","","","","","",""
"","801.5500000328757","sequential-stimulus-presentation-old","64","405829","0.0-17.0-1.2","SS1619740119977","trial","","40","500","1301.5500000328757","images/stimuli/spore_stims/simple_07_A_b.gif","images/stimuli/spore_stims/simple_01_A_a.gif","forced_long","","4","simple_dissimilar","images/stimuli/spore_stims/simple_01_A_a.gif","","","","",""
"","null","html-keyboard-response","65","407138","0.0-17.0-0.3","SS1619740119977","","","null","","","","","","<p><img src= images/blank.png width =""600"" height = ""600"" style=""position:fixed;top:50%; left:50%; transform: translate(-50%, -50%); border:5px solid black"">","","","","","","","",""
"","827.9949999996461","sequential-stimulus-presentation-old","66","408470","0.0-17.0-1.3","SS1619740119977","trial","","40","500","1327.994999999646","images/stimuli/spore_stims/simple_07_A_b.gif","images/stimuli/spore_stims/simple_01_A_a.gif","forced_long","","4","simple_dissimilar","images/stimuli/spore_stims/simple_01_A_a.gif","","","","",""
"","2504.769999999553","survey-multi-choice","67","410977","0.0-18.0","SS1619740119977","math_question","","","","","","","","","","","","{""Q0"":""10""}","[0]","10","",""
"","null","html-keyboard-response","68","412026","0.0-19.0-0.0","SS1619740119977","","","null","","","","","","<p><img src= images/blank.png width =""600"" height = ""600"" style=""position:fixed;top:50%; left:50%; transform: translate(-50%, -50%); border:5px solid black"">","","","","","","","",""
"","8323.180000006687","sequential-stimulus-presentation-old","69","420854","0.0-19.0-1.0","SS1619740119977","trial","","40","500","8823.180000006687","images/stimuli/spore_stims/complex_01_A_b.gif","images/stimuli/spore_stims/complex_08_A_a.gif","self_paced","","5","complex_dissimilar","images/stimuli/spore_stims/complex_08_A_a.gif","","","","",""
"","null","html-keyboard-response","70","422162","0.0-19.0-0.1","SS1619740119977","","","null","","","","","","<p><img src= images/blank.png width =""600"" height = ""600"" style=""position:fixed;top:50%; left:50%; transform: translate(-50%, -50%); border:5px solid black"">","","","","","","","",""
"","3713.9149999711663","sequential-stimulus-presentation-old","71","426380","0.0-19.0-1.1","SS1619740119977","trial","","40","500","4213.914999971166","images/stimuli/spore_stims/complex_01_A_b.gif","images/stimuli/spore_stims/complex_08_A_a.gif","self_paced","","5","complex_dissimilar","images/stimuli/spore_stims/complex_01_A_b.gif","","","","",""
"","null","html-keyboard-response","72","427632","0.0-19.0-0.2","SS1619740119977","","","null","","","","","","<p><img src= images/blank.png width =""600"" height = ""600"" style=""position:fixed;top:50%; left:50%; transform: translate(-50%, -50%); border:5px solid black"">","","","","","","","",""
"","2619.5150000276044","sequential-stimulus-presentation-old","73","430756","0.0-19.0-1.2","SS1619740119977","trial","","40","500","3119.5150000276044","images/stimuli/spore_stims/complex_01_A_b.gif","images/stimuli/spore_stims/complex_08_A_a.gif","self_paced","","5","complex_dissimilar","images/stimuli/spore_stims/complex_08_A_a.gif","","","","",""
"","null","html-keyboard-response","74","431678","0.0-19.0-0.3","SS1619740119977","","","null","","","","","","<p><img src= images/blank.png width =""600"" height = ""600"" style=""position:fixed;top:50%; left:50%; transform: translate(-50%, -50%); border:5px solid black"">","","","","","","","",""
"","1794.2350000375882","sequential-stimulus-presentation-old","75","433988","0.0-19.0-1.3","SS1619740119977","trial","","40","500","2294.235000037588","images/stimuli/spore_stims/complex_01_A_b.gif","images/stimuli/spore_stims/complex_08_A_a.gif","self_paced","","5","complex_dissimilar","images/stimuli/spore_stims/complex_08_A_a.gif","","","","",""
"","null","html-keyboard-response","76","435126","0.0-19.0-0.4","SS1619740119977","","","null","","","","","","<p><img src= images/blank.png width =""600"" height = ""600"" style=""position:fixed;top:50%; left:50%; transform: translate(-50%, -50%); border:5px solid black"">","","","","","","","",""
"","285.7349999831058","sequential-stimulus-presentation-old","77","435917","0.0-19.0-1.4","SS1619740119977","trial","","40","500","785.7349999831058","images/stimuli/spore_stims/complex_01_A_b.gif","images/stimuli/spore_stims/complex_08_A_a.gif","self_paced","","5","complex_dissimilar","images/stimuli/spore_stims/complex_08_A_a.gif","","","","",""
"","null","html-keyboard-response","78","436898","0.0-19.0-0.5","SS1619740119977","","","null","","","","","","<p><img src= images/blank.png width =""600"" height = ""600"" style=""position:fixed;top:50%; left:50%; transform: translate(-50%, -50%); border:5px solid black"">","","","","","","","",""
"","646.100000012666","sequential-stimulus-presentation-old","79","438047","0.0-19.0-1.5","SS1619740119977","trial","","40","500","1146.100000012666","images/stimuli/spore_stims/complex_01_A_b.gif","images/stimuli/spore_stims/complex_08_A_a.gif","self_paced","","5","complex_dissimilar","images/stimuli/spore_stims/complex_08_A_a.gif","","","","",""
"","2891.7599999695085","survey-multi-choice","80","440940","0.0-20.0","SS1619740119977","math_question","","","","","","","","","","","","{""Q0"":""13""}","[0]","13","",""
"","null","html-keyboard-response","81","442138","0.0-21.0-0.0","SS1619740119977","","","null","","","","","","<p><img src= images/blank.png width =""600"" height = ""600"" style=""position:fixed;top:50%; left:50%; transform: translate(-50%, -50%); border:5px solid black"">","","","","","","","",""
"","3128.089999954682","sequential-stimulus-presentation-old","82","445769","0.0-21.0-1.0","SS1619740119977","trial","","40","500","3628.089999954682","images/stimuli/spore_stims/simple_16_A_b.gif","images/stimuli/spore_stims/simple_05_A_a.gif","self_paced","","6","simple_dissimilar","images/stimuli/spore_stims/simple_05_A_a.gif","","","","",""
"","null","html-keyboard-response","83","446766","0.0-21.0-0.1","SS1619740119977","","","null","","","","","","<p><img src= images/blank.png width =""600"" height = ""600"" style=""position:fixed;top:50%; left:50%; transform: translate(-50%, -50%); border:5px solid black"">","","","","","","","",""
"","3393.3499999693595","sequential-stimulus-presentation-old","84","450672","0.0-21.0-1.1","SS1619740119977","trial","","40","500","3893.3499999693595","images/stimuli/spore_stims/simple_16_A_b.gif","images/stimuli/spore_stims/simple_05_A_a.gif","self_paced","","6","simple_dissimilar","images/stimuli/spore_stims/simple_05_A_a.gif","","","","",""
"","null","html-keyboard-response","85","451635","0.0-21.0-0.2","SS1619740119977","","","null","","","","","","<p><img src= images/blank.png width =""600"" height = ""600"" style=""position:fixed;top:50%; left:50%; transform: translate(-50%, -50%); border:5px solid black"">","","","","","","","",""
"","3339.9349999963306","sequential-stimulus-presentation-old","86","455480","0.0-21.0-1.2","SS1619740119977","trial","","40","500","3839.9349999963306","images/stimuli/spore_stims/simple_16_A_b.gif","images/stimuli/spore_stims/simple_05_A_a.gif","self_paced","","6","simple_dissimilar","images/stimuli/spore_stims/simple_05_A_a.gif","","","","",""
"","null","html-keyboard-response","87","456401","0.0-21.0-0.3","SS1619740119977","","","null","","","","","","<p><img src= images/blank.png width =""600"" height = ""600"" style=""position:fixed;top:50%; left:50%; transform: translate(-50%, -50%); border:5px solid black"">","","","","","","","",""
"","1388.6599999968894","sequential-stimulus-presentation-old","88","458295","0.0-21.0-1.3","SS1619740119977","trial","","40","500","1888.6599999968894","images/stimuli/spore_stims/simple_16_A_b.gif","images/stimuli/spore_stims/simple_05_A_a.gif","self_paced","","6","simple_dissimilar","images/stimuli/spore_stims/simple_05_A_a.gif","","","","",""
"","null","html-keyboard-response","89","459582","0.0-21.0-0.4","SS1619740119977","","","null","","","","","","<p><img src= images/blank.png width =""600"" height = ""600"" style=""position:fixed;top:50%; left:50%; transform: translate(-50%, -50%); border:5px solid black"">","","","","","","","",""
"","641.3349999929778","sequential-stimulus-presentation-old","90","460726","0.0-21.0-1.4","SS1619740119977","trial","","40","500","1141.3349999929778","images/stimuli/spore_stims/simple_16_A_b.gif","images/stimuli/spore_stims/simple_05_A_a.gif","self_paced","","6","simple_dissimilar","images/stimuli/spore_stims/simple_05_A_a.gif","","","","",""
"","4071.7600000207312","survey-multi-choice","91","464800","0.0-22.0","SS1619740119977","math_question","","","","","","","","","","","","{""Q0"":""10""}","[0]","10","",""
"","null","html-keyboard-response","92","465905","0.0-23.0-0.0","SS1619740119977","","","null","","","","","","<p><img src= images/blank.png width =""600"" height = ""600"" style=""position:fixed;top:50%; left:50%; transform: translate(-50%, -50%); border:5px solid black"">","","","","","","","",""
"","1787.4200000078417","sequential-stimulus-presentation-old","93","468196","0.0-23.0-1.0","SS1619740119977","trial","","40","500","2287.4200000078417","images/stimuli/spore_stims/simple_18_A_b.gif","images/stimuli/spore_stims/simple_03_A_a.gif","forced_short","","7","simple_dissimilar","images/stimuli/spore_stims/simple_03_A_a.gif","","","","",""
"","null","html-keyboard-response","94","469149","0.0-23.0-0.1","SS1619740119977","","","null","","","","","","<p><img src= images/blank.png width =""600"" height = ""600"" style=""position:fixed;top:50%; left:50%; transform: translate(-50%, -50%); border:5px solid black"">","","","","","","","",""
"","5499.695000005886","sequential-stimulus-presentation-old","95","475152","0.0-23.0-1.1","SS1619740119977","trial","","40","500","5999.695000005886","images/stimuli/spore_stims/simple_18_A_b.gif","images/stimuli/spore_stims/simple_03_A_a.gif","forced_short","","7","simple_dissimilar","images/stimuli/spore_stims/simple_18_A_b.gif","","","","",""
"","null","html-keyboard-response","96","476149","0.0-23.0-0.2","SS1619740119977","","","null","","","","","","<p><img src= images/blank.png width =""600"" height = ""600"" style=""position:fixed;top:50%; left:50%; transform: translate(-50%, -50%); border:5px solid black"">","","","","","","","",""
"","3215.9600000013597","sequential-stimulus-presentation-old","97","479868","0.0-23.0-1.2","SS1619740119977","trial","","40","500","3715.9600000013597","images/stimuli/spore_stims/simple_18_A_b.gif","images/stimuli/spore_stims/simple_03_A_a.gif","forced_short","","7","simple_dissimilar","images/stimuli/spore_stims/simple_03_A_a.gif","","","","",""
"","null","html-keyboard-response","98","480758","0.0-23.0-0.3","SS1619740119977","","","null","","","","","","<p><img src= images/blank.png width =""600"" height = ""600"" style=""position:fixed;top:50%; left:50%; transform: translate(-50%, -50%); border:5px solid black"">","","","","","","","",""
"","3390.0850000209175","sequential-stimulus-presentation-old","99","484652","0.0-23.0-1.3","SS1619740119977","trial","","40","500","3890.0850000209175","images/stimuli/spore_stims/simple_18_A_b.gif","images/stimuli/spore_stims/simple_03_A_a.gif","forced_short","","7","simple_dissimilar","images/stimuli/spore_stims/simple_03_A_a.gif","","","","",""
"","null","html-keyboard-response","100","485882","0.0-23.0-0.4","SS1619740119977","","","null","","","","","","<p><img src= images/blank.png width =""600"" height = ""600"" style=""position:fixed;top:50%; left:50%; transform: translate(-50%, -50%); border:5px solid black"">","","","","","","","",""
"","6912.024999968708","sequential-stimulus-presentation-old","101","493306","0.0-23.0-1.4","SS1619740119977","trial","","40","500","7412.024999968708","images/stimuli/spore_stims/simple_18_A_b.gif","images/stimuli/spore_stims/simple_03_A_a.gif","forced_short","","7","simple_dissimilar","images/stimuli/spore_stims/simple_03_A_a.gif","","","","",""
"","null","html-keyboard-response","102","494431","0.0-23.0-0.5","SS1619740119977","","","null","","","","","","<p><img src= images/blank.png width =""600"" height = ""600"" style=""position:fixed;top:50%; left:50%; transform: translate(-50%, -50%); border:5px solid black"">","","","","","","","",""
"","825.9449999895878","sequential-stimulus-presentation-old","103","495761","0.0-23.0-1.5","SS1619740119977","trial","","40","500","1325.9449999895878","images/stimuli/spore_stims/simple_18_A_b.gif","images/stimuli/spore_stims/simple_03_A_a.gif","forced_short","","7","simple_dissimilar","images/stimuli/spore_stims/simple_18_A_b.gif","","","","",""
"","3917.6050000241958","survey-multi-choice","104","499680","0.0-24.0","SS1619740119977","math_question","","","","","","","","","","","","{""Q0"":""10""}","[0]","10","",""
"","null","html-keyboard-response","105","500776","0.0-25.0-0.0","SS1619740119977","","","null","","","","","","<p><img src= images/blank.png width =""600"" height = ""600"" style=""position:fixed;top:50%; left:50%; transform: translate(-50%, -50%); border:5px solid black"">","","","","","","","",""
"","1697.180000017397","sequential-stimulus-presentation-old","106","502978","0.0-25.0-1.0","SS1619740119977","trial","","40","500","2197.180000017397","images/stimuli/spore_stims/complex_16_A_b.gif","images/stimuli/spore_stims/complex_03_A_a.gif","forced_short","","8","complex_dissimilar","images/stimuli/spore_stims/complex_03_A_a.gif","","","","",""
"","null","html-keyboard-response","107","504002","0.0-25.0-0.1","SS1619740119977","","","null","","","","","","<p><img src= images/blank.png width =""600"" height = ""600"" style=""position:fixed;top:50%; left:50%; transform: translate(-50%, -50%); border:5px solid black"">","","","","","","","",""
"","9610.515000007581","sequential-stimulus-presentation-old","108","514116","0.0-25.0-1.1","SS1619740119977","trial","","40","500","10110.515000007581","images/stimuli/spore_stims/complex_16_A_b.gif","images/stimuli/spore_stims/complex_03_A_a.gif","forced_short","","8","complex_dissimilar","images/stimuli/spore_stims/complex_03_A_a.gif","","","","",""
"","null","html-keyboard-response","109","515121","0.0-25.0-0.2","SS1619740119977","","","null","","","","","","<p><img src= images/blank.png width =""600"" height = ""600"" style=""position:fixed;top:50%; left:50%; transform: translate(-50%, -50%); border:5px solid black"">","","","","","","","",""
"","4598.835000011604","sequential-stimulus-presentation-old","110","520224","0.0-25.0-1.2","SS1619740119977","trial","","40","500","5098.835000011604","images/stimuli/spore_stims/complex_16_A_b.gif","images/stimuli/spore_stims/complex_03_A_a.gif","forced_short","","8","complex_dissimilar","images/stimuli/spore_stims/complex_03_A_a.gif","","","","",""
"","null","html-keyboard-response","111","521166","0.0-25.0-0.3","SS1619740119977","","","null","","","","","","<p><img src= images/blank.png width =""600"" height = ""600"" style=""position:fixed;top:50%; left:50%; transform: translate(-50%, -50%); border:5px solid black"">","","","","","","","",""
"","3063.12499998603","sequential-stimulus-presentation-old","112","524744","0.0-25.0-1.3","SS1619740119977","trial","","40","500","3563.12499998603","images/stimuli/spore_stims/complex_16_A_b.gif","images/stimuli/spore_stims/complex_03_A_a.gif","forced_short","","8","complex_dissimilar","images/stimuli/spore_stims/complex_16_A_b.gif","","","","",""
"","null","html-keyboard-response","113","525677","0.0-25.0-0.4","SS1619740119977","","","null","","","","","","<p><img src= images/blank.png width =""600"" height = ""600"" style=""position:fixed;top:50%; left:50%; transform: translate(-50%, -50%); border:5px solid black"">","","","","","","","",""
"","4261.4299999549985","sequential-stimulus-presentation-old","114","530453","0.0-25.0-1.4","SS1619740119977","trial","","40","500","4761.4299999549985","images/stimuli/spore_stims/complex_16_A_b.gif","images/stimuli/spore_stims/complex_03_A_a.gif","forced_short","","8","complex_dissimilar","images/stimuli/spore_stims/complex_03_A_a.gif","","","","",""
"","3096.579999953974","survey-multi-choice","115","533553","0.0-26.0","SS1619740119977","math_question","","","","","","","","","","","","{""Q0"":""6""}","[0]","6","",""
"","null","html-keyboard-response","116","534755","0.0-27.0-0.0","SS1619740119977","","","null","","","","","","<p><img src= images/blank.png width =""600"" height = ""600"" style=""position:fixed;top:50%; left:50%; transform: translate(-50%, -50%); border:5px solid black"">","","","","","","","",""
"","2567.6150000072084","sequential-stimulus-presentation-old","117","537826","0.0-27.0-1.0","SS1619740119977","trial","","40","500","3067.6150000072084","images/stimuli/spore_stims/simple_08_A_a.gif","images/stimuli/spore_stims/simple_03_A_b.gif","self_paced","","9","simple_dissimilar","images/stimuli/spore_stims/simple_03_A_b.gif","","","","",""
"","null","html-keyboard-response","118","539020","0.0-27.0-0.1","SS1619740119977","","","null","","","","","","<p><img src= images/blank.png width =""600"" height = ""600"" style=""position:fixed;top:50%; left:50%; transform: translate(-50%, -50%); border:5px solid black"">","","","","","","","",""
"","1172.3699999856763","sequential-stimulus-presentation-old","119","540695","0.0-27.0-1.1","SS1619740119977","trial","","40","500","1672.3699999856763","images/stimuli/spore_stims/simple_08_A_a.gif","images/stimuli/spore_stims/simple_03_A_b.gif","self_paced","","9","simple_dissimilar","images/stimuli/spore_stims/simple_03_A_b.gif","","","","",""
"","null","html-keyboard-response","120","541857","0.0-27.0-0.2","SS1619740119977","","","null","","","","","","<p><img src= images/blank.png width =""600"" height = ""600"" style=""position:fixed;top:50%; left:50%; transform: translate(-50%, -50%); border:5px solid black"">","","","","","","","",""
"","891.8100000009872","sequential-stimulus-presentation-old","121","543264","0.0-27.0-1.2","SS1619740119977","trial","","40","500","1391.8100000009872","images/stimuli/spore_stims/simple_08_A_a.gif","images/stimuli/spore_stims/simple_03_A_b.gif","self_paced","","9","simple_dissimilar","images/stimuli/spore_stims/simple_03_A_b.gif","","","","",""
"","null","html-keyboard-response","122","544377","0.0-27.0-0.3","SS1619740119977","","","null","","","","","","<p><img src= images/blank.png width =""600"" height = ""600"" style=""position:fixed;top:50%; left:50%; transform: translate(-50%, -50%); border:5px solid black"">","","","","","","","",""
"","541.1000000312924","sequential-stimulus-presentation-old","123","545424","0.0-27.0-1.3","SS1619740119977","trial","","40","500","1041.1000000312924","images/stimuli/spore_stims/simple_08_A_a.gif","images/stimuli/spore_stims/simple_03_A_b.gif","self_paced","","9","simple_dissimilar","images/stimuli/spore_stims/simple_03_A_b.gif","","","","",""
"","null","html-keyboard-response","124","546447","0.0-27.0-0.4","SS1619740119977","","","null","","","","","","<p><img src= images/blank.png width =""600"" height = ""600"" style=""position:fixed;top:50%; left:50%; transform: translate(-50%, -50%); border:5px solid black"">","","","","","","","",""
"","2721.305000013672","sequential-stimulus-presentation-old","125","549672","0.0-27.0-1.4","SS1619740119977","trial","","40","500","3221.305000013672","images/stimuli/spore_stims/simple_08_A_a.gif","images/stimuli/spore_stims/simple_03_A_b.gif","self_paced","","9","simple_dissimilar","images/stimuli/spore_stims/simple_03_A_b.gif","","","","",""
"","3393.434999976307","survey-multi-choice","126","553067","0.0-28.0","SS1619740119977","math_question","","","","","","","","","","","","{""Q0"":""8""}","[0]","8","",""
"","null","html-keyboard-response","127","554114","0.0-29.0-0.0","SS1619740119977","","","null","","","","","","<p><img src= images/blank.png width =""600"" height = ""600"" style=""position:fixed;top:50%; left:50%; transform: translate(-50%, -50%); border:5px solid black"">","","","","","","","",""
"","2026.3850000337698","sequential-stimulus-presentation-old","128","556645","0.0-29.0-1.0","SS1619740119977","trial","","40","500","2526.3850000337698","images/stimuli/spore_stims/complex_13_A_b.gif","images/stimuli/spore_stims/complex_14_A_a.gif","self_paced","","10","complex_dissimilar","images/stimuli/spore_stims/complex_14_A_a.gif","","","","",""
"","null","html-keyboard-response","129","557742","0.0-29.0-0.1","SS1619740119977","","","null","","","","","","<p><img src= images/blank.png width =""600"" height = ""600"" style=""position:fixed;top:50%; left:50%; transform: translate(-50%, -50%); border:5px solid black"">","","","","","","","",""
"","3537.034999986645","sequential-stimulus-presentation-old","130","561782","0.0-29.0-1.1","SS1619740119977","trial","","40","500","4037.034999986645","images/stimuli/spore_stims/complex_13_A_b.gif","images/stimuli/spore_stims/complex_14_A_a.gif","self_paced","","10","complex_dissimilar","images/stimuli/spore_stims/complex_14_A_a.gif","","","","",""
"","null","html-keyboard-response","131","563032","0.0-29.0-0.2","SS1619740119977","","","null","","","","","","<p><img src= images/blank.png width =""600"" height = ""600"" style=""position:fixed;top:50%; left:50%; transform: translate(-50%, -50%); border:5px solid black"">","","","","","","","",""
"","6092.02500001993","sequential-stimulus-presentation-old","132","569629","0.0-29.0-1.2","SS1619740119977","trial","","40","500","6592.02500001993","images/stimuli/spore_stims/complex_13_A_b.gif","images/stimuli/spore_stims/complex_14_A_a.gif","self_paced","","10","complex_dissimilar","images/stimuli/spore_stims/complex_14_A_a.gif","","","","",""
"","null","html-keyboard-response","133","570485","0.0-29.0-0.3","SS1619740119977","","","null","","","","","","<p><img src= images/blank.png width =""600"" height = ""600"" style=""position:fixed;top:50%; left:50%; transform: translate(-50%, -50%); border:5px solid black"">","","","","","","","",""
"","4081.2049999949522","sequential-stimulus-presentation-old","134","575072","0.0-29.0-1.3","SS1619740119977","trial","","40","500","4581.204999994952","images/stimuli/spore_stims/complex_13_A_b.gif","images/stimuli/spore_stims/complex_14_A_a.gif","self_paced","","10","complex_dissimilar","images/stimuli/spore_stims/complex_14_A_a.gif","","","","",""
"","null","html-keyboard-response","135","576074","0.0-29.0-0.4","SS1619740119977","","","null","","","","","","<p><img src= images/blank.png width =""600"" height = ""600"" style=""position:fixed;top:50%; left:50%; transform: translate(-50%, -50%); border:5px solid black"">","","","","","","","",""
"","6343.279999971855","sequential-stimulus-presentation-old","136","582921","0.0-29.0-1.4","SS1619740119977","trial","","40","500","6843.279999971855","images/stimuli/spore_stims/complex_13_A_b.gif","images/stimuli/spore_stims/complex_14_A_a.gif","self_paced","","10","complex_dissimilar","images/stimuli/spore_stims/complex_13_A_b.gif","","","","",""
"","3515.404999954626","survey-multi-choice","137","586439","0.0-30.0","SS1619740119977","math_question","","","","","","","","","","","","{""Q0"":""8""}","[0]","8","",""
"","null","html-keyboard-response","138","587607","0.0-31.0-0.0","SS1619740119977","","","null","","","","","","<p><img src= images/blank.png width =""600"" height = ""600"" style=""position:fixed;top:50%; left:50%; transform: translate(-50%, -50%); border:5px solid black"">","","","","","","","",""
"","4647.0550000085495","sequential-stimulus-presentation-old","139","607258","0.0-31.0-1.0","SS1619740119977","trial","","40","500","5147.0550000085495","images/stimuli/spore_stims/simple_13_A_a.gif","images/stimuli/spore_stims/simple_19_A_b.gif","forced_long","","11","simple_dissimilar","images/stimuli/spore_stims/simple_19_A_b.gif","","","","",""
"","null","html-keyboard-response","140","608521","0.0-31.0-0.1","SS1619740119977","","","null","","","","","","<p><img src= images/blank.png width =""600"" height = ""600"" style=""position:fixed;top:50%; left:50%; transform: translate(-50%, -50%); border:5px solid black"">","","","","","","","",""
"","5833.519999985583","sequential-stimulus-presentation-old","141","614871","0.0-31.0-1.1","SS1619740119977","trial","","40","500","6333.519999985583","images/stimuli/spore_stims/simple_13_A_a.gif","images/stimuli/spore_stims/simple_19_A_b.gif","forced_long","","11","simple_dissimilar","images/stimuli/spore_stims/simple_13_A_a.gif","","","","",""
"","null","html-keyboard-response","142","616052","0.0-31.0-0.2","SS1619740119977","","","null","","","","","","<p><img src= images/blank.png width =""600"" height = ""600"" style=""position:fixed;top:50%; left:50%; transform: translate(-50%, -50%); border:5px solid black"">","","","","","","","",""
"","280.49500001361594","sequential-stimulus-presentation-old","143","616836","0.0-31.0-1.2","SS1619740119977","trial","","40","500","780.4950000136159","images/stimuli/spore_stims/simple_13_A_a.gif","images/stimuli/spore_stims/simple_19_A_b.gif","forced_long","","11","simple_dissimilar","images/stimuli/spore_stims/simple_19_A_b.gif","","","","",""
"","null","html-keyboard-response","144","617777","0.0-31.0-0.3","SS1619740119977","","","null","","","","","","<p><img src= images/blank.png width =""600"" height = ""600"" style=""position:fixed;top:50%; left:50%; transform: translate(-50%, -50%); border:5px solid black"">","","","","","","","",""
"","377.52999999793246","sequential-stimulus-presentation-old","145","618667","0.0-31.0-1.3","SS1619740119977","trial","","40","500","877.5299999979325","images/stimuli/spore_stims/simple_13_A_a.gif","images/stimuli/spore_stims/simple_19_A_b.gif","forced_long","","11","simple_dissimilar","images/stimuli/spore_stims/simple_19_A_b.gif","","","","",""
"","null","html-keyboard-response","146","619784","0.0-31.0-0.4","SS1619740119977","","","null","","","","","","<p><img src= images/blank.png width =""600"" height = ""600"" style=""position:fixed;top:50%; left:50%; transform: translate(-50%, -50%); border:5px solid black"">","","","","","","","",""
"","441.530000010971","sequential-stimulus-presentation-old","147","620728","0.0-31.0-1.4","SS1619740119977","trial","","40","500","941.530000010971","images/stimuli/spore_stims/simple_13_A_a.gif","images/stimuli/spore_stims/simple_19_A_b.gif","forced_long","","11","simple_dissimilar","images/stimuli/spore_stims/simple_19_A_b.gif","","","","",""
"","null","html-keyboard-response","148","621742","0.0-31.0-0.5","SS1619740119977","","","null","","","","","","<p><img src= images/blank.png width =""600"" height = ""600"" style=""position:fixed;top:50%; left:50%; transform: translate(-50%, -50%); border:5px solid black"">","","","","","","","",""
"","1833.5100000258535","sequential-stimulus-presentation-old","149","624079","0.0-31.0-1.5","SS1619740119977","trial","","40","500","2333.5100000258535","images/stimuli/spore_stims/simple_13_A_a.gif","images/stimuli/spore_stims/simple_19_A_b.gif","forced_long","","11","simple_dissimilar","images/stimuli/spore_stims/simple_13_A_a.gif","","","","",""
"[{""page_index"":0,""viewing_time"":6007.020000019111}]","6007.480000029318","instructions","150","630089","0.0-32.0","SS1619740119977","instructions","","","","","","","","","","","","","","","",""
"","6682.864999980666","survey-likert","151","636775","0.0-33.0","SS1619740119977","similarity_question","","","","","","","","","","","","{""Q0"":4}","[0]","","images/stimuli/spore_stims/complex_18_A_a.gif","images/stimuli/spore_stims/complex_06_A_b.gif"
"","3491.555000015069","survey-likert","152","640270","0.0-34.0","SS1619740119977","similarity_question","","","","","","","","","","","","{""Q0"":2}","[0]","","images/stimuli/spore_stims/complex_03_A_a.gif","images/stimuli/spore_stims/complex_16_A_b.gif"
"","3594.264999963343","survey-likert","153","643868","0.0-35.0","SS1619740119977","similarity_question","","","","","","","","","","","","{""Q0"":5}","[0]","","images/stimuli/spore_stims/simple_03_A_b.gif","images/stimuli/spore_stims/simple_08_A_a.gif"
"","3149.794999975711","survey-likert","154","647022","0.0-36.0","SS1619740119977","similarity_question","","","","","","","","","","","","{""Q0"":4}","[0]","","images/stimuli/spore_stims/simple_09_A_b.gif","images/stimuli/spore_stims/simple_17_A_a.gif"
"","7163.019999978133","survey-likert","155","654188","0.0-37.0","SS1619740119977","similarity_question","","","","","","","","","","","","{""Q0"":1}","[0]","","images/stimuli/spore_stims/complex_01_A_b.gif","images/stimuli/spore_stims/complex_08_A_a.gif"
"","6461.239999975078","survey-likert","156","660652","0.0-38.0","SS1619740119977","similarity_question","","","","","","","","","","","","{""Q0"":4}","[0]","","images/stimuli/spore_stims/simple_19_A_b.gif","images/stimuli/spore_stims/simple_13_A_a.gif"
"","4339.159999974072","survey-likert","157","664995","0.0-39.0","SS1619740119977","similarity_question","","","","","","","","","","","","{""Q0"":1}","[0]","","images/stimuli/spore_stims/complex_09_A_a.gif","images/stimuli/spore_stims/complex_20_A_b.gif"
"","7338.760000013281","survey-likert","158","672337","0.0-40.0","SS1619740119977","similarity_question","","","","","","","","","","","","{""Q0"":4}","[0]","","images/stimuli/spore_stims/complex_01_A_a.gif","images/stimuli/spore_stims/complex_07_A_b.gif"
"","5669.215000001714","survey-likert","159","678010","0.0-41.0","SS1619740119977","similarity_question","","","","","","","","","","","","{""Q0"":3}","[0]","","images/stimuli/spore_stims/simple_07_A_b.gif","images/stimuli/spore_stims/simple_01_A_a.gif"
"","7679.944999981672","survey-likert","160","685694","0.0-42.0","SS1619740119977","similarity_question","","","","","","","","","","","","{""Q0"":1}","[0]","","images/stimuli/spore_stims/complex_13_A_b.gif","images/stimuli/spore_stims/complex_14_A_a.gif"
"","6702.13499997044","survey-likert","161","692400","0.0-43.0","SS1619740119977","similarity_question","","","","","","","","","","","","{""Q0"":3}","[0]","","images/stimuli/spore_stims/simple_03_A_a.gif","images/stimuli/spore_stims/simple_18_A_b.gif"
"","4552.8550000162795","survey-likert","162","696956","0.0-44.0","SS1619740119977","similarity_question","","","","","","","","","","","","{""Q0"":4}","[0]","","images/stimuli/spore_stims/simple_05_A_a.gif","images/stimuli/spore_stims/simple_16_A_b.gif"
"[{""page_index"":0,""viewing_time"":5750.949999957811}]","5751.204999978654","instructions","163","702710","0.0-45.0","SS1619740119977","instructions","","","","","","","","","","","","","","","",""
"","3053.475000022445","survey-likert","164","705767","0.0-46.0","SS1619740119977","","","","","","","","","images/stimuli/spore_stims/complex_01_A_a.gif","","","","{""Q0"":4}","[0]","","",""
"","2345.7650000345893","survey-likert","165","708116","0.0-47.0","SS1619740119977","","","","","","","","","images/stimuli/spore_stims/simple_05_A_a.gif","","","","{""Q0"":0}","[0]","","",""
"","2338.805000006687","survey-likert","166","710458","0.0-48.0","SS1619740119977","","","","","","","","","images/stimuli/spore_stims/simple_09_A_b.gif","","","","{""Q0"":1}","[0]","","",""
"","5917.034999991301","survey-likert","167","716382","0.0-49.0","SS1619740119977","","","","","","","","","images/stimuli/spore_stims/complex_09_A_a.gif","","","","{""Q0"":5}","[0]","","",""
"","2854.159999988042","survey-likert","168","719239","0.0-50.0","SS1619740119977","","","","","","","","","images/stimuli/spore_stims/complex_13_A_b.gif","","","","{""Q0"":4}","[0]","","",""
"","3379.8899999819696","survey-likert","169","722622","0.0-51.0","SS1619740119977","","","","","","","","","images/stimuli/spore_stims/simple_03_A_b.gif","","","","{""Q0"":1}","[0]","","",""
"","2698.735000041779","survey-likert","170","725324","0.0-52.0","SS1619740119977","","","","","","","","","images/stimuli/spore_stims/complex_08_A_a.gif","","","","{""Q0"":5}","[0]","","",""
"","3387.0800000149757","survey-likert","171","728714","0.0-53.0","SS1619740119977","","","","","","","","","images/stimuli/spore_stims/simple_01_A_a.gif","","","","{""Q0"":0}","[0]","","",""
"","4057.3050000239164","survey-likert","172","732776","0.0-54.0","SS1619740119977","","","","","","","","","images/stimuli/spore_stims/complex_03_A_a.gif","","","","{""Q0"":5}","[0]","","",""
"","4692.080000007991","survey-likert","173","737472","0.0-55.0","SS1619740119977","","","","","","","","","images/stimuli/spore_stims/simple_03_A_a.gif","","","","{""Q0"":2}","[0]","","",""
"","5320.840000000317","survey-likert","174","742796","0.0-56.0","SS1619740119977","","","","","","","","","images/stimuli/spore_stims/complex_18_A_a.gif","","","","{""Q0"":5}","[0]","","",""
"","3533.6300000199117","survey-likert","175","746334","0.0-57.0","SS1619740119977","","","","","","","","","images/stimuli/spore_stims/simple_13_A_a.gif","","","","{""Q0"":0}","[0]","","",""
"[{""page_index"":0,""viewing_time"":2549.9350000172853}]","2550.3199999802746","instructions","176","748887","0.0-58.0","SS1619740119977","instructions","","","","","","","","","","","","","","","",""
"","3231.6899999859743","demog-age","177","752124","0.0-59.0","SS1619740119977","","","","","","","","","","","","","{""age"":""22""}","","","",""
"","6530.705000041053","demog-ethnic-US","178","758659","0.0-60.0","SS1619740119977","","","","","","","","","","","","","{""ethnicity"":[""White""]}","[0]","","",""
"","15626.980000000913","demog-gender-and-education","179","774294","0.0-61.0","SS1619740119977","","","","","","","","","","","","","{""gender"":""Male"",""education"":""Bachelor's Degree""}","[0,1]","","",""
"","13890.369999979157","survey-text","180","788189","0.0-62.0","SS1619740119977","feedback","","","","","","","","","","","","{""Q0"":""No, everything went well""}","","","",""
"[{""page_index"":0,""viewing_time"":1680.2700000116602}]","1680.5199999944307","instructions","181","789873","0.0-63.0","SS1619740119977","instructions","","","","","","","","","","","","","","","",""
