"view_history","rt","trial_type","trial_index","time_elapsed","internal_node_id","subject","stimulus_type","trial_stimulus","key_press","minimum_viewing_duration","trial_looking_time","block_deviant","block_background","exposure_type","stimulus","block_number","block_type","stimulus_displayed","responses","question_order","math_correct_answer","stimulus_left","stimulus_right"
"[{""page_index"":0,""viewing_time"":74120.3800000003}]","74120.86500000078","instructions","0","74122","0.0-0.0","SS1619740036877","","","","","","","","","","","","","","","","",""
"[{""page_index"":0,""viewing_time"":24901.365000001533},{""page_index"":1,""viewing_time"":8987.864999999147}]","33889.4500000024","instructions","1","110013","0.0-1.0","SS1619740036877","instructions","","","","","","","","","","","","","","","",""
"","8671.934999998484","sequential-stimulus-presentation-old","2","119187","0.0-2.0","SS1619740036877","","","40","500","9171.934999998484","null","null","self_paced","","","","","","","","",""
"","6955.275000000256","sequential-stimulus-presentation-old","3","126644","0.0-3.0","SS1619740036877","","","40","500","7455.275000000256","null","null","self_paced","","","","","","","","",""
"[{""page_index"":0,""viewing_time"":22429.495000000315}]","22429.66499999966","instructions","4","149075","0.0-4.0","SS1619740036877","instructions","","","","","","","","","","","","","","","",""
"","5359.39000000144","sequential-stimulus-presentation-old","5","169436","0.0-5.0","SS1619740036877","","","40","500","5859.39000000144","null","null","forced_long","","","","","","","","",""
"","5421.00500000015","sequential-stimulus-presentation-old","6","175360","0.0-6.0","SS1619740036877","","","40","500","5921.00500000015","null","null","forced_long","","","","","","","","",""
"[{""page_index"":0,""viewing_time"":5048.644999998942}]","5048.829999999725","instructions","7","180410","0.0-7.0","SS1619740036877","instructions","","","","","","","","","","","","","","","",""
"[{""page_index"":0,""viewing_time"":158183.31500000204},{""page_index"":1,""viewing_time"":21252.889999999723},{""page_index"":2,""viewing_time"":6951.629999999597},{""page_index"":3,""viewing_time"":1835.1449999972829},{""page_index"":4,""viewing_time"":1346.130000001751}]","189569.27999999974","instructions","8","369979","0.0-8.0","SS1619740036877","instructions","","","","","","","","","","","","","","","",""
"","null","html-keyboard-response","9","370833","0.0-9.0-0.0","SS1619740036877","","","null","","","","","","<p><img src= images/blank.png width =""600"" height = ""600"" style=""position:fixed;top:50%; left:50%; transform: translate(-50%, -50%); border:5px solid black"">","","","","","","","",""
"","5794.420000002021","sequential-stimulus-presentation-old","10","377130","0.0-9.0-1.0","SS1619740036877","trial","","40","500","6294.420000002021","images/stimuli/spore_stims/simple_12_A_b.gif","images/stimuli/spore_stims/simple_14_A_a.gif","self_paced","","0","simple_dissimilar","images/stimuli/spore_stims/simple_14_A_a.gif","","","","",""
"","null","html-keyboard-response","11","378149","0.0-9.0-0.1","SS1619740036877","","","null","","","","","","<p><img src= images/blank.png width =""600"" height = ""600"" style=""position:fixed;top:50%; left:50%; transform: translate(-50%, -50%); border:5px solid black"">","","","","","","","",""
"","4544.95500000118","sequential-stimulus-presentation-old","12","383196","0.0-9.0-1.1","SS1619740036877","trial","","40","500","5044.95500000118","images/stimuli/spore_stims/simple_12_A_b.gif","images/stimuli/spore_stims/simple_14_A_a.gif","self_paced","","0","simple_dissimilar","images/stimuli/spore_stims/simple_14_A_a.gif","","","","",""
"","null","html-keyboard-response","13","384451","0.0-9.0-0.2","SS1619740036877","","","null","","","","","","<p><img src= images/blank.png width =""600"" height = ""600"" style=""position:fixed;top:50%; left:50%; transform: translate(-50%, -50%); border:5px solid black"">","","","","","","","",""
"","6348.390000002808","sequential-stimulus-presentation-old","14","391303","0.0-9.0-1.2","SS1619740036877","trial","","40","500","6848.390000002808","images/stimuli/spore_stims/simple_12_A_b.gif","images/stimuli/spore_stims/simple_14_A_a.gif","self_paced","","0","simple_dissimilar","images/stimuli/spore_stims/simple_12_A_b.gif","","","","",""
"","null","html-keyboard-response","15","392601","0.0-9.0-0.3","SS1619740036877","","","null","","","","","","<p><img src= images/blank.png width =""600"" height = ""600"" style=""position:fixed;top:50%; left:50%; transform: translate(-50%, -50%); border:5px solid black"">","","","","","","","",""
"","7818.22000000102","sequential-stimulus-presentation-old","16","400923","0.0-9.0-1.3","SS1619740036877","trial","","40","500","8318.22000000102","images/stimuli/spore_stims/simple_12_A_b.gif","images/stimuli/spore_stims/simple_14_A_a.gif","self_paced","","0","simple_dissimilar","images/stimuli/spore_stims/simple_14_A_a.gif","","","","",""
"","null","html-keyboard-response","17","401756","0.0-9.0-0.4","SS1619740036877","","","null","","","","","","<p><img src= images/blank.png width =""600"" height = ""600"" style=""position:fixed;top:50%; left:50%; transform: translate(-50%, -50%); border:5px solid black"">","","","","","","","",""
"","5918.564999999944","sequential-stimulus-presentation-old","18","408178","0.0-9.0-1.4","SS1619740036877","trial","","40","500","6418.564999999944","images/stimuli/spore_stims/simple_12_A_b.gif","images/stimuli/spore_stims/simple_14_A_a.gif","self_paced","","0","simple_dissimilar","images/stimuli/spore_stims/simple_14_A_a.gif","","","","",""
"","null","html-keyboard-response","19","408991","0.0-9.0-0.5","SS1619740036877","","","null","","","","","","<p><img src= images/blank.png width =""600"" height = ""600"" style=""position:fixed;top:50%; left:50%; transform: translate(-50%, -50%); border:5px solid black"">","","","","","","","",""
"","7200.37499999674","sequential-stimulus-presentation-old","20","416695","0.0-9.0-1.5","SS1619740036877","trial","","40","500","7700.37499999674","images/stimuli/spore_stims/simple_12_A_b.gif","images/stimuli/spore_stims/simple_14_A_a.gif","self_paced","","0","simple_dissimilar","images/stimuli/spore_stims/simple_12_A_b.gif","","","","",""
"","5408.030000002356","survey-multi-choice","21","422106","0.0-10.0","SS1619740036877","math_question","","","","","","","","","","","","{""Q0"":""13""}","[0]","13","",""
"","null","html-keyboard-response","22","423014","0.0-11.0-0.0","SS1619740036877","","","null","","","","","","<p><img src= images/blank.png width =""600"" height = ""600"" style=""position:fixed;top:50%; left:50%; transform: translate(-50%, -50%); border:5px solid black"">","","","","","","","",""
"","9975.289999998524","sequential-stimulus-presentation-old","23","447993","0.0-11.0-1.0","SS1619740036877","trial","","40","500","10475.289999998524","images/stimuli/spore_stims/simple_19_A_a.gif","images/stimuli/spore_stims/simple_20_A_b.gif","forced_long","","1","simple_dissimilar","images/stimuli/spore_stims/simple_20_A_b.gif","","","","",""
"","null","html-keyboard-response","24","448924","0.0-11.0-0.1","SS1619740036877","","","null","","","","","","<p><img src= images/blank.png width =""600"" height = ""600"" style=""position:fixed;top:50%; left:50%; transform: translate(-50%, -50%); border:5px solid black"">","","","","","","","",""
"","4911.415000002307","sequential-stimulus-presentation-old","25","454338","0.0-11.0-1.1","SS1619740036877","trial","","40","500","5411.415000002307","images/stimuli/spore_stims/simple_19_A_a.gif","images/stimuli/spore_stims/simple_20_A_b.gif","forced_long","","1","simple_dissimilar","images/stimuli/spore_stims/simple_20_A_b.gif","","","","",""
"","null","html-keyboard-response","26","455435","0.0-11.0-0.2","SS1619740036877","","","null","","","","","","<p><img src= images/blank.png width =""600"" height = ""600"" style=""position:fixed;top:50%; left:50%; transform: translate(-50%, -50%); border:5px solid black"">","","","","","","","",""
"","2242.1399999985006","sequential-stimulus-presentation-old","27","458180","0.0-11.0-1.2","SS1619740036877","trial","","40","500","2742.1399999985006","images/stimuli/spore_stims/simple_19_A_a.gif","images/stimuli/spore_stims/simple_20_A_b.gif","forced_long","","1","simple_dissimilar","images/stimuli/spore_stims/simple_19_A_a.gif","","","","",""
"","null","html-keyboard-response","28","459226","0.0-11.0-0.3","SS1619740036877","","","null","","","","","","<p><img src= images/blank.png width =""600"" height = ""600"" style=""position:fixed;top:50%; left:50%; transform: translate(-50%, -50%); border:5px solid black"">","","","","","","","",""
"","5094.339999999676","sequential-stimulus-presentation-old","29","464825","0.0-11.0-1.3","SS1619740036877","trial","","40","500","5594.339999999676","images/stimuli/spore_stims/simple_19_A_a.gif","images/stimuli/spore_stims/simple_20_A_b.gif","forced_long","","1","simple_dissimilar","images/stimuli/spore_stims/simple_19_A_a.gif","","","","",""
"","null","html-keyboard-response","30","465756","0.0-11.0-0.4","SS1619740036877","","","null","","","","","","<p><img src= images/blank.png width =""600"" height = ""600"" style=""position:fixed;top:50%; left:50%; transform: translate(-50%, -50%); border:5px solid black"">","","","","","","","",""
"","7086.129999999655","sequential-stimulus-presentation-old","31","473346","0.0-11.0-1.4","SS1619740036877","trial","","40","500","7586.129999999655","images/stimuli/spore_stims/simple_19_A_a.gif","images/stimuli/spore_stims/simple_20_A_b.gif","forced_long","","1","simple_dissimilar","images/stimuli/spore_stims/simple_20_A_b.gif","","","","",""
"","null","html-keyboard-response","32","474313","0.0-11.0-0.5","SS1619740036877","","","null","","","","","","<p><img src= images/blank.png width =""600"" height = ""600"" style=""position:fixed;top:50%; left:50%; transform: translate(-50%, -50%); border:5px solid black"">","","","","","","","",""
"","4061.344999998226","sequential-stimulus-presentation-old","33","478879","0.0-11.0-1.5","SS1619740036877","trial","","40","500","4561.344999998226","images/stimuli/spore_stims/simple_19_A_a.gif","images/stimuli/spore_stims/simple_20_A_b.gif","forced_long","","1","simple_dissimilar","images/stimuli/spore_stims/simple_20_A_b.gif","","","","",""
"","2500.1650000012596","survey-multi-choice","34","481382","0.0-12.0","SS1619740036877","math_question","","","","","","","","","","","","{""Q0"":""6""}","[0]","6","",""
"","null","html-keyboard-response","35","482442","0.0-13.0-0.0","SS1619740036877","","","null","","","","","","<p><img src= images/blank.png width =""600"" height = ""600"" style=""position:fixed;top:50%; left:50%; transform: translate(-50%, -50%); border:5px solid black"">","","","","","","","",""
"","3735.6650000001537","sequential-stimulus-presentation-old","36","486681","0.0-13.0-1.0","SS1619740036877","trial","","40","500","4235.665000000154","images/stimuli/spore_stims/complex_19_A_a.gif","images/stimuli/spore_stims/complex_09_A_b.gif","self_paced","","2","complex_dissimilar","images/stimuli/spore_stims/complex_09_A_b.gif","","","","",""
"","null","html-keyboard-response","37","487716","0.0-13.0-0.1","SS1619740036877","","","null","","","","","","<p><img src= images/blank.png width =""600"" height = ""600"" style=""position:fixed;top:50%; left:50%; transform: translate(-50%, -50%); border:5px solid black"">","","","","","","","",""
"","3528.689999999129","sequential-stimulus-presentation-old","38","491749","0.0-13.0-1.1","SS1619740036877","trial","","40","500","4028.689999999129","images/stimuli/spore_stims/complex_19_A_a.gif","images/stimuli/spore_stims/complex_09_A_b.gif","self_paced","","2","complex_dissimilar","images/stimuli/spore_stims/complex_09_A_b.gif","","","","",""
"","null","html-keyboard-response","39","492694","0.0-13.0-0.2","SS1619740036877","","","null","","","","","","<p><img src= images/blank.png width =""600"" height = ""600"" style=""position:fixed;top:50%; left:50%; transform: translate(-50%, -50%); border:5px solid black"">","","","","","","","",""
"","3974.0750000018743","sequential-stimulus-presentation-old","40","497172","0.0-13.0-1.2","SS1619740036877","trial","","40","500","4474.075000001874","images/stimuli/spore_stims/complex_19_A_a.gif","images/stimuli/spore_stims/complex_09_A_b.gif","self_paced","","2","complex_dissimilar","images/stimuli/spore_stims/complex_09_A_b.gif","","","","",""
"","null","html-keyboard-response","41","498053","0.0-13.0-0.3","SS1619740036877","","","null","","","","","","<p><img src= images/blank.png width =""600"" height = ""600"" style=""position:fixed;top:50%; left:50%; transform: translate(-50%, -50%); border:5px solid black"">","","","","","","","",""
"","3511.015000000072","sequential-stimulus-presentation-old","42","502069","0.0-13.0-1.3","SS1619740036877","trial","","40","500","4011.015000000072","images/stimuli/spore_stims/complex_19_A_a.gif","images/stimuli/spore_stims/complex_09_A_b.gif","self_paced","","2","complex_dissimilar","images/stimuli/spore_stims/complex_09_A_b.gif","","","","",""
"","null","html-keyboard-response","43","503251","0.0-13.0-0.4","SS1619740036877","","","null","","","","","","<p><img src= images/blank.png width =""600"" height = ""600"" style=""position:fixed;top:50%; left:50%; transform: translate(-50%, -50%); border:5px solid black"">","","","","","","","",""
"","3426.550000000105","sequential-stimulus-presentation-old","44","507183","0.0-13.0-1.4","SS1619740036877","trial","","40","500","3926.550000000105","images/stimuli/spore_stims/complex_19_A_a.gif","images/stimuli/spore_stims/complex_09_A_b.gif","self_paced","","2","complex_dissimilar","images/stimuli/spore_stims/complex_09_A_b.gif","","","","",""
"","null","html-keyboard-response","45","508098","0.0-13.0-0.5","SS1619740036877","","","null","","","","","","<p><img src= images/blank.png width =""600"" height = ""600"" style=""position:fixed;top:50%; left:50%; transform: translate(-50%, -50%); border:5px solid black"">","","","","","","","",""
"","6609.010000000126","sequential-stimulus-presentation-old","46","515211","0.0-13.0-1.5","SS1619740036877","trial","","40","500","7109.010000000126","images/stimuli/spore_stims/complex_19_A_a.gif","images/stimuli/spore_stims/complex_09_A_b.gif","self_paced","","2","complex_dissimilar","images/stimuli/spore_stims/complex_19_A_a.gif","","","","",""
"","3170.0149999996647","survey-multi-choice","47","518384","0.0-14.0","SS1619740036877","math_question","","","","","","","","","","","","{""Q0"":""9""}","[0]","9","",""
"","null","html-keyboard-response","48","519561","0.0-15.0-0.0","SS1619740036877","","","null","","","","","","<p><img src= images/blank.png width =""600"" height = ""600"" style=""position:fixed;top:50%; left:50%; transform: translate(-50%, -50%); border:5px solid black"">","","","","","","","",""
"","1429.8699999999953","sequential-stimulus-presentation-old","49","535996","0.0-15.0-1.0","SS1619740036877","trial","","40","500","1929.8699999999953","images/stimuli/spore_stims/simple_03_A_a.gif","images/stimuli/spore_stims/simple_14_A_b.gif","forced_long","","3","simple_dissimilar","images/stimuli/spore_stims/simple_14_A_b.gif","","","","",""
"","null","html-keyboard-response","50","536855","0.0-15.0-0.1","SS1619740036877","","","null","","","","","","<p><img src= images/blank.png width =""600"" height = ""600"" style=""position:fixed;top:50%; left:50%; transform: translate(-50%, -50%); border:5px solid black"">","","","","","","","",""
"","5662.804999999935","sequential-stimulus-presentation-old","51","543022","0.0-15.0-1.1","SS1619740036877","trial","","40","500","6162.804999999935","images/stimuli/spore_stims/simple_03_A_a.gif","images/stimuli/spore_stims/simple_14_A_b.gif","forced_long","","3","simple_dissimilar","images/stimuli/spore_stims/simple_03_A_a.gif","","","","",""
"","null","html-keyboard-response","52","544171","0.0-15.0-0.2","SS1619740036877","","","null","","","","","","<p><img src= images/blank.png width =""600"" height = ""600"" style=""position:fixed;top:50%; left:50%; transform: translate(-50%, -50%); border:5px solid black"">","","","","","","","",""
"","4532.620000001742","sequential-stimulus-presentation-old","53","549208","0.0-15.0-1.2","SS1619740036877","trial","","40","500","5032.620000001742","images/stimuli/spore_stims/simple_03_A_a.gif","images/stimuli/spore_stims/simple_14_A_b.gif","forced_long","","3","simple_dissimilar","images/stimuli/spore_stims/simple_14_A_b.gif","","","","",""
"","null","html-keyboard-response","54","550426","0.0-15.0-0.3","SS1619740036877","","","null","","","","","","<p><img src= images/blank.png width =""600"" height = ""600"" style=""position:fixed;top:50%; left:50%; transform: translate(-50%, -50%); border:5px solid black"">","","","","","","","",""
"","8038.59999999986","sequential-stimulus-presentation-old","55","558969","0.0-15.0-1.3","SS1619740036877","trial","","40","500","8538.59999999986","images/stimuli/spore_stims/simple_03_A_a.gif","images/stimuli/spore_stims/simple_14_A_b.gif","forced_long","","3","simple_dissimilar","images/stimuli/spore_stims/simple_03_A_a.gif","","","","",""
"","2609.239999997895","survey-multi-choice","56","561582","0.0-16.0","SS1619740036877","math_question","","","","","","","","","","","","{""Q0"":""8""}","[0]","8","",""
"","null","html-keyboard-response","57","562663","0.0-17.0-0.0","SS1619740036877","","","null","","","","","","<p><img src= images/blank.png width =""600"" height = ""600"" style=""position:fixed;top:50%; left:50%; transform: translate(-50%, -50%); border:5px solid black"">","","","","","","","",""
"","1985.9599999981","sequential-stimulus-presentation-old","58","565155","0.0-17.0-1.0","SS1619740036877","trial","","40","500","2485.9599999981","images/stimuli/spore_stims/simple_09_A_b.gif","images/stimuli/spore_stims/simple_08_A_a.gif","self_paced","","4","simple_dissimilar","images/stimuli/spore_stims/simple_08_A_a.gif","","","","",""
"","null","html-keyboard-response","59","566062","0.0-17.0-0.1","SS1619740036877","","","null","","","","","","<p><img src= images/blank.png width =""600"" height = ""600"" style=""position:fixed;top:50%; left:50%; transform: translate(-50%, -50%); border:5px solid black"">","","","","","","","",""
"","2320.340000002063","sequential-stimulus-presentation-old","60","568887","0.0-17.0-1.1","SS1619740036877","trial","","40","500","2820.340000002063","images/stimuli/spore_stims/simple_09_A_b.gif","images/stimuli/spore_stims/simple_08_A_a.gif","self_paced","","4","simple_dissimilar","images/stimuli/spore_stims/simple_08_A_a.gif","","","","",""
"","null","html-keyboard-response","61","569784","0.0-17.0-0.2","SS1619740036877","","","null","","","","","","<p><img src= images/blank.png width =""600"" height = ""600"" style=""position:fixed;top:50%; left:50%; transform: translate(-50%, -50%); border:5px solid black"">","","","","","","","",""
"","3916.76500000176","sequential-stimulus-presentation-old","62","574205","0.0-17.0-1.2","SS1619740036877","trial","","40","500","4416.76500000176","images/stimuli/spore_stims/simple_09_A_b.gif","images/stimuli/spore_stims/simple_08_A_a.gif","self_paced","","4","simple_dissimilar","images/stimuli/spore_stims/simple_09_A_b.gif","","","","",""
"","null","html-keyboard-response","63","575185","0.0-17.0-0.3","SS1619740036877","","","null","","","","","","<p><img src= images/blank.png width =""600"" height = ""600"" style=""position:fixed;top:50%; left:50%; transform: translate(-50%, -50%); border:5px solid black"">","","","","","","","",""
"","3444.43500000122","sequential-stimulus-presentation-old","64","579135","0.0-17.0-1.3","SS1619740036877","trial","","40","500","3944.43500000122","images/stimuli/spore_stims/simple_09_A_b.gif","images/stimuli/spore_stims/simple_08_A_a.gif","self_paced","","4","simple_dissimilar","images/stimuli/spore_stims/simple_09_A_b.gif","","","","",""
"","null","html-keyboard-response","65","580359","0.0-17.0-0.4","SS1619740036877","","","null","","","","","","<p><img src= images/blank.png width =""600"" height = ""600"" style=""position:fixed;top:50%; left:50%; transform: translate(-50%, -50%); border:5px solid black"">","","","","","","","",""
"","2550.695000001695","sequential-stimulus-presentation-old","66","583415","0.0-17.0-1.4","SS1619740036877","trial","","40","500","3050.695000001695","images/stimuli/spore_stims/simple_09_A_b.gif","images/stimuli/spore_stims/simple_08_A_a.gif","self_paced","","4","simple_dissimilar","images/stimuli/spore_stims/simple_08_A_a.gif","","","","",""
"","null","html-keyboard-response","67","584346","0.0-17.0-0.5","SS1619740036877","","","null","","","","","","<p><img src= images/blank.png width =""600"" height = ""600"" style=""position:fixed;top:50%; left:50%; transform: translate(-50%, -50%); border:5px solid black"">","","","","","","","",""
"","2628.6650000001537","sequential-stimulus-presentation-old","68","587480","0.0-17.0-1.5","SS1619740036877","trial","","40","500","3128.6650000001537","images/stimuli/spore_stims/simple_09_A_b.gif","images/stimuli/spore_stims/simple_08_A_a.gif","self_paced","","4","simple_dissimilar","images/stimuli/spore_stims/simple_08_A_a.gif","","","","",""
"","5644.210000002291","survey-multi-choice","69","593128","0.0-18.0","SS1619740036877","math_question","","","","","","","","","","","","{""Q0"":""11""}","[0]","11","",""
"","null","html-keyboard-response","70","593991","0.0-19.0-0.0","SS1619740036877","","","null","","","","","","<p><img src= images/blank.png width =""600"" height = ""600"" style=""position:fixed;top:50%; left:50%; transform: translate(-50%, -50%); border:5px solid black"">","","","","","","","",""
"","653.2399999996414","sequential-stimulus-presentation-old","71","609650","0.0-19.0-1.0","SS1619740036877","trial","","40","500","1153.2399999996414","images/stimuli/spore_stims/complex_04_A_b.gif","images/stimuli/spore_stims/complex_13_A_a.gif","forced_long","","5","complex_dissimilar","images/stimuli/spore_stims/complex_13_A_a.gif","","","","",""
"","null","html-keyboard-response","72","610745","0.0-19.0-0.1","SS1619740036877","","","null","","","","","","<p><img src= images/blank.png width =""600"" height = ""600"" style=""position:fixed;top:50%; left:50%; transform: translate(-50%, -50%); border:5px solid black"">","","","","","","","",""
"","3607.0050000016345","sequential-stimulus-presentation-old","73","614856","0.0-19.0-1.1","SS1619740036877","trial","","40","500","4107.0050000016345","images/stimuli/spore_stims/complex_04_A_b.gif","images/stimuli/spore_stims/complex_13_A_a.gif","forced_long","","5","complex_dissimilar","images/stimuli/spore_stims/complex_13_A_a.gif","","","","",""
"","null","html-keyboard-response","74","616086","0.0-19.0-0.2","SS1619740036877","","","null","","","","","","<p><img src= images/blank.png width =""600"" height = ""600"" style=""position:fixed;top:50%; left:50%; transform: translate(-50%, -50%); border:5px solid black"">","","","","","","","",""
"","1906.0399999980582","sequential-stimulus-presentation-old","75","618498","0.0-19.0-1.2","SS1619740036877","trial","","40","500","2406.039999998058","images/stimuli/spore_stims/complex_04_A_b.gif","images/stimuli/spore_stims/complex_13_A_a.gif","forced_long","","5","complex_dissimilar","images/stimuli/spore_stims/complex_04_A_b.gif","","","","",""
"","null","html-keyboard-response","76","619754","0.0-19.0-0.3","SS1619740036877","","","null","","","","","","<p><img src= images/blank.png width =""600"" height = ""600"" style=""position:fixed;top:50%; left:50%; transform: translate(-50%, -50%); border:5px solid black"">","","","","","","","",""
"","2931.464999997872","sequential-stimulus-presentation-old","77","623191","0.0-19.0-1.3","SS1619740036877","trial","","40","500","3431.464999997872","images/stimuli/spore_stims/complex_04_A_b.gif","images/stimuli/spore_stims/complex_13_A_a.gif","forced_long","","5","complex_dissimilar","images/stimuli/spore_stims/complex_13_A_a.gif","","","","",""
"","null","html-keyboard-response","78","624430","0.0-19.0-0.4","SS1619740036877","","","null","","","","","","<p><img src= images/blank.png width =""600"" height = ""600"" style=""position:fixed;top:50%; left:50%; transform: translate(-50%, -50%); border:5px solid black"">","","","","","","","",""
"","2693.1699999985285","sequential-stimulus-presentation-old","79","627629","0.0-19.0-1.4","SS1619740036877","trial","","40","500","3193.1699999985285","images/stimuli/spore_stims/complex_04_A_b.gif","images/stimuli/spore_stims/complex_13_A_a.gif","forced_long","","5","complex_dissimilar","images/stimuli/spore_stims/complex_13_A_a.gif","","","","",""
"","null","html-keyboard-response","80","628655","0.0-19.0-0.5","SS1619740036877","","","null","","","","","","<p><img src= images/blank.png width =""600"" height = ""600"" style=""position:fixed;top:50%; left:50%; transform: translate(-50%, -50%); border:5px solid black"">","","","","","","","",""
"","2368.5399999995716","sequential-stimulus-presentation-old","81","631529","0.0-19.0-1.5","SS1619740036877","trial","","40","500","2868.5399999995716","images/stimuli/spore_stims/complex_04_A_b.gif","images/stimuli/spore_stims/complex_13_A_a.gif","forced_long","","5","complex_dissimilar","images/stimuli/spore_stims/complex_13_A_a.gif","","","","",""
"","2342.4599999998463","survey-multi-choice","82","633876","0.0-20.0","SS1619740036877","math_question","","","","","","","","","","","","{""Q0"":""5""}","[0]","5","",""
"","null","html-keyboard-response","83","635070","0.0-21.0-0.0","SS1619740036877","","","null","","","","","","<p><img src= images/blank.png width =""600"" height = ""600"" style=""position:fixed;top:50%; left:50%; transform: translate(-50%, -50%); border:5px solid black"">","","","","","","","",""
"","4271.669999998296","sequential-stimulus-presentation-old","84","639848","0.0-21.0-1.0","SS1619740036877","trial","","40","500","4771.669999998296","images/stimuli/spore_stims/complex_14_A_a.gif","images/stimuli/spore_stims/complex_15_A_b.gif","forced_short","","6","complex_dissimilar","images/stimuli/spore_stims/complex_15_A_b.gif","","","","",""
"","null","html-keyboard-response","85","641118","0.0-21.0-0.1","SS1619740036877","","","null","","","","","","<p><img src= images/blank.png width =""600"" height = ""600"" style=""position:fixed;top:50%; left:50%; transform: translate(-50%, -50%); border:5px solid black"">","","","","","","","",""
"","3103.6750000020256","sequential-stimulus-presentation-old","86","644729","0.0-21.0-1.1","SS1619740036877","trial","","40","500","3603.6750000020256","images/stimuli/spore_stims/complex_14_A_a.gif","images/stimuli/spore_stims/complex_15_A_b.gif","forced_short","","6","complex_dissimilar","images/stimuli/spore_stims/complex_15_A_b.gif","","","","",""
"","null","html-keyboard-response","87","645841","0.0-21.0-0.2","SS1619740036877","","","null","","","","","","<p><img src= images/blank.png width =""600"" height = ""600"" style=""position:fixed;top:50%; left:50%; transform: translate(-50%, -50%); border:5px solid black"">","","","","","","","",""
"","3015.0350000002654","sequential-stimulus-presentation-old","88","649363","0.0-21.0-1.2","SS1619740036877","trial","","40","500","3515.0350000002654","images/stimuli/spore_stims/complex_14_A_a.gif","images/stimuli/spore_stims/complex_15_A_b.gif","forced_short","","6","complex_dissimilar","images/stimuli/spore_stims/complex_14_A_a.gif","","","","",""
"","null","html-keyboard-response","89","650659","0.0-21.0-0.3","SS1619740036877","","","null","","","","","","<p><img src= images/blank.png width =""600"" height = ""600"" style=""position:fixed;top:50%; left:50%; transform: translate(-50%, -50%); border:5px solid black"">","","","","","","","",""
"","3553.824999999022","sequential-stimulus-presentation-old","90","654719","0.0-21.0-1.3","SS1619740036877","trial","","40","500","4053.824999999022","images/stimuli/spore_stims/complex_14_A_a.gif","images/stimuli/spore_stims/complex_15_A_b.gif","forced_short","","6","complex_dissimilar","images/stimuli/spore_stims/complex_15_A_b.gif","","","","",""
"","null","html-keyboard-response","91","655719","0.0-21.0-0.4","SS1619740036877","","","null","","","","","","<p><img src= images/blank.png width =""600"" height = ""600"" style=""position:fixed;top:50%; left:50%; transform: translate(-50%, -50%); border:5px solid black"">","","","","","","","",""
"","2119.0349999996834","sequential-stimulus-presentation-old","92","658344","0.0-21.0-1.4","SS1619740036877","trial","","40","500","2619.0349999996834","images/stimuli/spore_stims/complex_14_A_a.gif","images/stimuli/spore_stims/complex_15_A_b.gif","forced_short","","6","complex_dissimilar","images/stimuli/spore_stims/complex_15_A_b.gif","","","","",""
"","null","html-keyboard-response","93","659390","0.0-21.0-0.5","SS1619740036877","","","null","","","","","","<p><img src= images/blank.png width =""600"" height = ""600"" style=""position:fixed;top:50%; left:50%; transform: translate(-50%, -50%); border:5px solid black"">","","","","","","","",""
"","4830.845000000438","sequential-stimulus-presentation-old","94","664734","0.0-21.0-1.5","SS1619740036877","trial","","40","500","5330.845000000438","images/stimuli/spore_stims/complex_14_A_a.gif","images/stimuli/spore_stims/complex_15_A_b.gif","forced_short","","6","complex_dissimilar","images/stimuli/spore_stims/complex_15_A_b.gif","","","","",""
"","5007.270000001881","survey-multi-choice","95","669746","0.0-22.0","SS1619740036877","math_question","","","","","","","","","","","","{""Q0"":""15""}","[0]","15","",""
"","null","html-keyboard-response","96","670996","0.0-23.0-0.0","SS1619740036877","","","null","","","","","","<p><img src= images/blank.png width =""600"" height = ""600"" style=""position:fixed;top:50%; left:50%; transform: translate(-50%, -50%); border:5px solid black"">","","","","","","","",""
"","2277.5650000002934","sequential-stimulus-presentation-old","97","673781","0.0-23.0-1.0","SS1619740036877","trial","","40","500","2777.5650000002934","images/stimuli/spore_stims/simple_13_A_b.gif","images/stimuli/spore_stims/simple_02_A_a.gif","forced_short","","7","simple_dissimilar","images/stimuli/spore_stims/simple_02_A_a.gif","","","","",""
"","null","html-keyboard-response","98","674876","0.0-23.0-0.1","SS1619740036877","","","null","","","","","","<p><img src= images/blank.png width =""600"" height = ""600"" style=""position:fixed;top:50%; left:50%; transform: translate(-50%, -50%); border:5px solid black"">","","","","","","","",""
"","1402.8749999997672","sequential-stimulus-presentation-old","99","676785","0.0-23.0-1.1","SS1619740036877","trial","","40","500","1902.8749999997672","images/stimuli/spore_stims/simple_13_A_b.gif","images/stimuli/spore_stims/simple_02_A_a.gif","forced_short","","7","simple_dissimilar","images/stimuli/spore_stims/simple_02_A_a.gif","","","","",""
"","null","html-keyboard-response","100","677660","0.0-23.0-0.2","SS1619740036877","","","null","","","","","","<p><img src= images/blank.png width =""600"" height = ""600"" style=""position:fixed;top:50%; left:50%; transform: translate(-50%, -50%); border:5px solid black"">","","","","","","","",""
"","1443.1850000000559","sequential-stimulus-presentation-old","101","679609","0.0-23.0-1.2","SS1619740036877","trial","","40","500","1943.1850000000559","images/stimuli/spore_stims/simple_13_A_b.gif","images/stimuli/spore_stims/simple_02_A_a.gif","forced_short","","7","simple_dissimilar","images/stimuli/spore_stims/simple_02_A_a.gif","","","","",""
"","null","html-keyboard-response","102","680663","0.0-23.0-0.3","SS1619740036877","","","null","","","","","","<p><img src= images/blank.png width =""600"" height = ""600"" style=""position:fixed;top:50%; left:50%; transform: translate(-50%, -50%); border:5px solid black"">","","","","","","","",""
"","1164.779999999213","sequential-stimulus-presentation-old","103","682333","0.0-23.0-1.3","SS1619740036877","trial","","40","500","1664.779999999213","images/stimuli/spore_stims/simple_13_A_b.gif","images/stimuli/spore_stims/simple_02_A_a.gif","forced_short","","7","simple_dissimilar","images/stimuli/spore_stims/simple_02_A_a.gif","","","","",""
"","null","html-keyboard-response","104","683577","0.0-23.0-0.4","SS1619740036877","","","null","","","","","","<p><img src= images/blank.png width =""600"" height = ""600"" style=""position:fixed;top:50%; left:50%; transform: translate(-50%, -50%); border:5px solid black"">","","","","","","","",""
"","1290.6049999983516","sequential-stimulus-presentation-old","105","685374","0.0-23.0-1.4","SS1619740036877","trial","","40","500","1790.6049999983516","images/stimuli/spore_stims/simple_13_A_b.gif","images/stimuli/spore_stims/simple_02_A_a.gif","forced_short","","7","simple_dissimilar","images/stimuli/spore_stims/simple_02_A_a.gif","","","","",""
"","null","html-keyboard-response","106","686259","0.0-23.0-0.5","SS1619740036877","","","null","","","","","","<p><img src= images/blank.png width =""600"" height = ""600"" style=""position:fixed;top:50%; left:50%; transform: translate(-50%, -50%); border:5px solid black"">","","","","","","","",""
"","1258.0349999988684","sequential-stimulus-presentation-old","107","688023","0.0-23.0-1.5","SS1619740036877","trial","","40","500","1758.0349999988684","images/stimuli/spore_stims/simple_13_A_b.gif","images/stimuli/spore_stims/simple_02_A_a.gif","forced_short","","7","simple_dissimilar","images/stimuli/spore_stims/simple_02_A_a.gif","","","","",""
"","2204.4849999984726","survey-multi-choice","108","690233","0.0-24.0","SS1619740036877","math_question","","","","","","","","","","","","{""Q0"":""8""}","[0]","8","",""
"","null","html-keyboard-response","109","691257","0.0-25.0-0.0","SS1619740036877","","","null","","","","","","<p><img src= images/blank.png width =""600"" height = ""600"" style=""position:fixed;top:50%; left:50%; transform: translate(-50%, -50%); border:5px solid black"">","","","","","","","",""
"","848.519999999553","sequential-stimulus-presentation-old","110","692613","0.0-25.0-1.0","SS1619740036877","trial","","40","500","1348.519999999553","images/stimuli/spore_stims/simple_15_A_a.gif","images/stimuli/spore_stims/simple_08_A_b.gif","forced_short","","8","simple_dissimilar","images/stimuli/spore_stims/simple_08_A_b.gif","","","","",""
"","null","html-keyboard-response","111","693458","0.0-25.0-0.1","SS1619740036877","","","null","","","","","","<p><img src= images/blank.png width =""600"" height = ""600"" style=""position:fixed;top:50%; left:50%; transform: translate(-50%, -50%); border:5px solid black"">","","","","","","","",""
"","3062.7849999982864","sequential-stimulus-presentation-old","112","697027","0.0-25.0-1.1","SS1619740036877","trial","","40","500","3562.7849999982864","images/stimuli/spore_stims/simple_15_A_a.gif","images/stimuli/spore_stims/simple_08_A_b.gif","forced_short","","8","simple_dissimilar","images/stimuli/spore_stims/simple_08_A_b.gif","","","","",""
"","null","html-keyboard-response","113","697844","0.0-25.0-0.2","SS1619740036877","","","null","","","","","","<p><img src= images/blank.png width =""600"" height = ""600"" style=""position:fixed;top:50%; left:50%; transform: translate(-50%, -50%); border:5px solid black"">","","","","","","","",""
"","3043.4800000003306","sequential-stimulus-presentation-old","114","701394","0.0-25.0-1.2","SS1619740036877","trial","","40","500","3543.4800000003306","images/stimuli/spore_stims/simple_15_A_a.gif","images/stimuli/spore_stims/simple_08_A_b.gif","forced_short","","8","simple_dissimilar","images/stimuli/spore_stims/simple_08_A_b.gif","","","","",""
"","null","html-keyboard-response","115","702259","0.0-25.0-0.3","SS1619740036877","","","null","","","","","","<p><img src= images/blank.png width =""600"" height = ""600"" style=""position:fixed;top:50%; left:50%; transform: translate(-50%, -50%); border:5px solid black"">","","","","","","","",""
"","1973.425000000163","sequential-stimulus-presentation-old","116","704740","0.0-25.0-1.3","SS1619740036877","trial","","40","500","2473.425000000163","images/stimuli/spore_stims/simple_15_A_a.gif","images/stimuli/spore_stims/simple_08_A_b.gif","forced_short","","8","simple_dissimilar","images/stimuli/spore_stims/simple_08_A_b.gif","","","","",""
"","null","html-keyboard-response","117","705915","0.0-25.0-0.4","SS1619740036877","","","null","","","","","","<p><img src= images/blank.png width =""600"" height = ""600"" style=""position:fixed;top:50%; left:50%; transform: translate(-50%, -50%); border:5px solid black"">","","","","","","","",""
"","1014.6100000019651","sequential-stimulus-presentation-old","118","707437","0.0-25.0-1.4","SS1619740036877","trial","","40","500","1514.610000001965","images/stimuli/spore_stims/simple_15_A_a.gif","images/stimuli/spore_stims/simple_08_A_b.gif","forced_short","","8","simple_dissimilar","images/stimuli/spore_stims/simple_08_A_b.gif","","","","",""
"","null","html-keyboard-response","119","708519","0.0-25.0-0.5","SS1619740036877","","","null","","","","","","<p><img src= images/blank.png width =""600"" height = ""600"" style=""position:fixed;top:50%; left:50%; transform: translate(-50%, -50%); border:5px solid black"">","","","","","","","",""
"","872.8300000003073","sequential-stimulus-presentation-old","120","709898","0.0-25.0-1.5","SS1619740036877","trial","","40","500","1372.8300000003073","images/stimuli/spore_stims/simple_15_A_a.gif","images/stimuli/spore_stims/simple_08_A_b.gif","forced_short","","8","simple_dissimilar","images/stimuli/spore_stims/simple_08_A_b.gif","","","","",""
"","3437.610000000801","survey-multi-choice","121","713342","0.0-26.0","SS1619740036877","math_question","","","","","","","","","","","","{""Q0"":""7""}","[0]","7","",""
"","null","html-keyboard-response","122","714300","0.0-27.0-0.0","SS1619740036877","","","null","","","","","","<p><img src= images/blank.png width =""600"" height = ""600"" style=""position:fixed;top:50%; left:50%; transform: translate(-50%, -50%); border:5px solid black"">","","","","","","","",""
"","3912.4899999988265","sequential-stimulus-presentation-old","123","733220","0.0-27.0-1.0","SS1619740036877","trial","","40","500","4412.4899999988265","images/stimuli/spore_stims/complex_10_A_b.gif","images/stimuli/spore_stims/complex_01_A_a.gif","forced_long","","9","complex_dissimilar","images/stimuli/spore_stims/complex_01_A_a.gif","","","","",""
"","null","html-keyboard-response","124","734378","0.0-27.0-0.1","SS1619740036877","","","null","","","","","","<p><img src= images/blank.png width =""600"" height = ""600"" style=""position:fixed;top:50%; left:50%; transform: translate(-50%, -50%); border:5px solid black"">","","","","","","","",""
"","4269.775000000605","sequential-stimulus-presentation-old","125","739155","0.0-27.0-1.1","SS1619740036877","trial","","40","500","4769.775000000605","images/stimuli/spore_stims/complex_10_A_b.gif","images/stimuli/spore_stims/complex_01_A_a.gif","forced_long","","9","complex_dissimilar","images/stimuli/spore_stims/complex_01_A_a.gif","","","","",""
"","null","html-keyboard-response","126","740039","0.0-27.0-0.2","SS1619740036877","","","null","","","","","","<p><img src= images/blank.png width =""600"" height = ""600"" style=""position:fixed;top:50%; left:50%; transform: translate(-50%, -50%); border:5px solid black"">","","","","","","","",""
"","1970.354999997653","sequential-stimulus-presentation-old","127","742516","0.0-27.0-1.2","SS1619740036877","trial","","40","500","2470.354999997653","images/stimuli/spore_stims/complex_10_A_b.gif","images/stimuli/spore_stims/complex_01_A_a.gif","forced_long","","9","complex_dissimilar","images/stimuli/spore_stims/complex_01_A_a.gif","","","","",""
"","null","html-keyboard-response","128","743793","0.0-27.0-0.3","SS1619740036877","","","null","","","","","","<p><img src= images/blank.png width =""600"" height = ""600"" style=""position:fixed;top:50%; left:50%; transform: translate(-50%, -50%); border:5px solid black"">","","","","","","","",""
"","2262.18499999959","sequential-stimulus-presentation-old","129","746562","0.0-27.0-1.3","SS1619740036877","trial","","40","500","2762.18499999959","images/stimuli/spore_stims/complex_10_A_b.gif","images/stimuli/spore_stims/complex_01_A_a.gif","forced_long","","9","complex_dissimilar","images/stimuli/spore_stims/complex_01_A_a.gif","","","","",""
"","null","html-keyboard-response","130","747442","0.0-27.0-0.4","SS1619740036877","","","null","","","","","","<p><img src= images/blank.png width =""600"" height = ""600"" style=""position:fixed;top:50%; left:50%; transform: translate(-50%, -50%); border:5px solid black"">","","","","","","","",""
"","3562.0899999995017","sequential-stimulus-presentation-old","131","751513","0.0-27.0-1.4","SS1619740036877","trial","","40","500","4062.0899999995017","images/stimuli/spore_stims/complex_10_A_b.gif","images/stimuli/spore_stims/complex_01_A_a.gif","forced_long","","9","complex_dissimilar","images/stimuli/spore_stims/complex_10_A_b.gif","","","","",""
"","3172.934999998659","survey-multi-choice","132","754692","0.0-28.0","SS1619740036877","math_question","","","","","","","","","","","","{""Q0"":""8""}","[0]","8","",""
"","null","html-keyboard-response","133","755847","0.0-29.0-0.0","SS1619740036877","","","null","","","","","","<p><img src= images/blank.png width =""600"" height = ""600"" style=""position:fixed;top:50%; left:50%; transform: translate(-50%, -50%); border:5px solid black"">","","","","","","","",""
"","11563.799999999814","sequential-stimulus-presentation-old","134","767920","0.0-29.0-1.0","SS1619740036877","trial","","40","500","12063.799999999814","images/stimuli/spore_stims/complex_04_A_a.gif","images/stimuli/spore_stims/complex_17_A_b.gif","forced_short","","10","complex_dissimilar","images/stimuli/spore_stims/complex_17_A_b.gif","","","","",""
"","null","html-keyboard-response","135","768889","0.0-29.0-0.1","SS1619740036877","","","null","","","","","","<p><img src= images/blank.png width =""600"" height = ""600"" style=""position:fixed;top:50%; left:50%; transform: translate(-50%, -50%); border:5px solid black"">","","","","","","","",""
"","5204.7849999980535","sequential-stimulus-presentation-old","136","774601","0.0-29.0-1.1","SS1619740036877","trial","","40","500","5704.7849999980535","images/stimuli/spore_stims/complex_04_A_a.gif","images/stimuli/spore_stims/complex_17_A_b.gif","forced_short","","10","complex_dissimilar","images/stimuli/spore_stims/complex_17_A_b.gif","","","","",""
"","null","html-keyboard-response","137","775556","0.0-29.0-0.2","SS1619740036877","","","null","","","","","","<p><img src= images/blank.png width =""600"" height = ""600"" style=""position:fixed;top:50%; left:50%; transform: translate(-50%, -50%); border:5px solid black"">","","","","","","","",""
"","3019.0200000033947","sequential-stimulus-presentation-old","138","779082","0.0-29.0-1.2","SS1619740036877","trial","","40","500","3519.0200000033947","images/stimuli/spore_stims/complex_04_A_a.gif","images/stimuli/spore_stims/complex_17_A_b.gif","forced_short","","10","complex_dissimilar","images/stimuli/spore_stims/complex_04_A_a.gif","","","","",""
"","null","html-keyboard-response","139","780231","0.0-29.0-0.3","SS1619740036877","","","null","","","","","","<p><img src= images/blank.png width =""600"" height = ""600"" style=""position:fixed;top:50%; left:50%; transform: translate(-50%, -50%); border:5px solid black"">","","","","","","","",""
"","3393.17999999912","sequential-stimulus-presentation-old","140","784132","0.0-29.0-1.3","SS1619740036877","trial","","40","500","3893.17999999912","images/stimuli/spore_stims/complex_04_A_a.gif","images/stimuli/spore_stims/complex_17_A_b.gif","forced_short","","10","complex_dissimilar","images/stimuli/spore_stims/complex_04_A_a.gif","","","","",""
"","null","html-keyboard-response","141","784992","0.0-29.0-0.4","SS1619740036877","","","null","","","","","","<p><img src= images/blank.png width =""600"" height = ""600"" style=""position:fixed;top:50%; left:50%; transform: translate(-50%, -50%); border:5px solid black"">","","","","","","","",""
"","7543.515000001178","sequential-stimulus-presentation-old","142","793044","0.0-29.0-1.4","SS1619740036877","trial","","40","500","8043.515000001178","images/stimuli/spore_stims/complex_04_A_a.gif","images/stimuli/spore_stims/complex_17_A_b.gif","forced_short","","10","complex_dissimilar","images/stimuli/spore_stims/complex_17_A_b.gif","","","","",""
"","null","html-keyboard-response","143","794323","0.0-29.0-0.5","SS1619740036877","","","null","","","","","","<p><img src= images/blank.png width =""600"" height = ""600"" style=""position:fixed;top:50%; left:50%; transform: translate(-50%, -50%); border:5px solid black"">","","","","","","","",""
"","4908.994999998016","sequential-stimulus-presentation-old","144","799741","0.0-29.0-1.5","SS1619740036877","trial","","40","500","5408.994999998016","images/stimuli/spore_stims/complex_04_A_a.gif","images/stimuli/spore_stims/complex_17_A_b.gif","forced_short","","10","complex_dissimilar","images/stimuli/spore_stims/complex_17_A_b.gif","","","","",""
"","5718.735000002198","survey-multi-choice","145","805466","0.0-30.0","SS1619740036877","math_question","","","","","","","","","","","","{""Q0"":""12""}","[0]","12","",""
"","null","html-keyboard-response","146","806493","0.0-31.0-0.0","SS1619740036877","","","null","","","","","","<p><img src= images/blank.png width =""600"" height = ""600"" style=""position:fixed;top:50%; left:50%; transform: translate(-50%, -50%); border:5px solid black"">","","","","","","","",""
"","2746.044999999809","sequential-stimulus-presentation-old","147","809747","0.0-31.0-1.0","SS1619740036877","trial","","40","500","3246.044999999809","images/stimuli/spore_stims/complex_13_A_b.gif","images/stimuli/spore_stims/complex_16_A_a.gif","self_paced","","11","complex_dissimilar","images/stimuli/spore_stims/complex_16_A_a.gif","","","","",""
"","null","html-keyboard-response","148","810856","0.0-31.0-0.1","SS1619740036877","","","null","","","","","","<p><img src= images/blank.png width =""600"" height = ""600"" style=""position:fixed;top:50%; left:50%; transform: translate(-50%, -50%); border:5px solid black"">","","","","","","","",""
"","6235.5349999998","sequential-stimulus-presentation-old","149","817599","0.0-31.0-1.1","SS1619740036877","trial","","40","500","6735.5349999998","images/stimuli/spore_stims/complex_13_A_b.gif","images/stimuli/spore_stims/complex_16_A_a.gif","self_paced","","11","complex_dissimilar","images/stimuli/spore_stims/complex_16_A_a.gif","","","","",""
"","null","html-keyboard-response","150","818416","0.0-31.0-0.2","SS1619740036877","","","null","","","","","","<p><img src= images/blank.png width =""600"" height = ""600"" style=""position:fixed;top:50%; left:50%; transform: translate(-50%, -50%); border:5px solid black"">","","","","","","","",""
"","1215.809999997844","sequential-stimulus-presentation-old","151","820139","0.0-31.0-1.2","SS1619740036877","trial","","40","500","1715.809999997844","images/stimuli/spore_stims/complex_13_A_b.gif","images/stimuli/spore_stims/complex_16_A_a.gif","self_paced","","11","complex_dissimilar","images/stimuli/spore_stims/complex_16_A_a.gif","","","","",""
"","null","html-keyboard-response","152","821387","0.0-31.0-0.3","SS1619740036877","","","null","","","","","","<p><img src= images/blank.png width =""600"" height = ""600"" style=""position:fixed;top:50%; left:50%; transform: translate(-50%, -50%); border:5px solid black"">","","","","","","","",""
"","18686.97500000056","sequential-stimulus-presentation-old","153","840597","0.0-31.0-1.3","SS1619740036877","trial","","40","500","19186.97500000056","images/stimuli/spore_stims/complex_13_A_b.gif","images/stimuli/spore_stims/complex_16_A_a.gif","self_paced","","11","complex_dissimilar","images/stimuli/spore_stims/complex_16_A_a.gif","","","","",""
"","null","html-keyboard-response","154","841664","0.0-31.0-0.4","SS1619740036877","","","null","","","","","","<p><img src= images/blank.png width =""600"" height = ""600"" style=""position:fixed;top:50%; left:50%; transform: translate(-50%, -50%); border:5px solid black"">","","","","","","","",""
"","6692.8300000000745","sequential-stimulus-presentation-old","155","848865","0.0-31.0-1.4","SS1619740036877","trial","","40","500","7192.8300000000745","images/stimuli/spore_stims/complex_13_A_b.gif","images/stimuli/spore_stims/complex_16_A_a.gif","self_paced","","11","complex_dissimilar","images/stimuli/spore_stims/complex_16_A_a.gif","","","","",""
"[{""page_index"":0,""viewing_time"":41892.37000000139}]","41892.55000000051","instructions","156","890764","0.0-32.0","SS1619740036877","instructions","","","","","","","","","","","","","","","",""
"","5877.46999999939","survey-likert","157","896649","0.0-33.0","SS1619740036877","similarity_question","","","","","","","","","","","","{""Q0"":4}","[0]","","images/stimuli/spore_stims/complex_19_A_a.gif","images/stimuli/spore_stims/complex_09_A_b.gif"
"","2657.2400000004563","survey-likert","158","899314","0.0-34.0","SS1619740036877","similarity_question","","","","","","","","","","","","{""Q0"":5}","[0]","","images/stimuli/spore_stims/simple_09_A_b.gif","images/stimuli/spore_stims/simple_08_A_a.gif"
"","2787.7450000013923","survey-likert","159","902111","0.0-35.0","SS1619740036877","similarity_question","","","","","","","","","","","","{""Q0"":6}","[0]","","images/stimuli/spore_stims/simple_08_A_b.gif","images/stimuli/spore_stims/simple_15_A_a.gif"
"","5642.255000002449","survey-likert","160","907762","0.0-36.0","SS1619740036877","similarity_question","","","","","","","","","","","","{""Q0"":4}","[0]","","images/stimuli/spore_stims/complex_13_A_a.gif","images/stimuli/spore_stims/complex_04_A_b.gif"
"","15497.66499999899","survey-likert","161","923267","0.0-37.0","SS1619740036877","similarity_question","","","","","","","","","","","","{""Q0"":2}","[0]","","images/stimuli/spore_stims/complex_01_A_a.gif","images/stimuli/spore_stims/complex_10_A_b.gif"
"","3335.2000000013504","survey-likert","162","926611","0.0-38.0","SS1619740036877","similarity_question","","","","","","","","","","","","{""Q0"":6}","[0]","","images/stimuli/spore_stims/simple_13_A_b.gif","images/stimuli/spore_stims/simple_02_A_a.gif"
"","3116.1699999974808","survey-likert","163","929735","0.0-39.0","SS1619740036877","similarity_question","","","","","","","","","","","","{""Q0"":5}","[0]","","images/stimuli/spore_stims/complex_17_A_b.gif","images/stimuli/spore_stims/complex_04_A_a.gif"
"","2854.459999998682","survey-likert","164","932598","0.0-40.0","SS1619740036877","similarity_question","","","","","","","","","","","","{""Q0"":5}","[0]","","images/stimuli/spore_stims/simple_03_A_a.gif","images/stimuli/spore_stims/simple_14_A_b.gif"
"","4138.475000003353","survey-likert","165","936745","0.0-41.0","SS1619740036877","similarity_question","","","","","","","","","","","","{""Q0"":4}","[0]","","images/stimuli/spore_stims/complex_15_A_b.gif","images/stimuli/spore_stims/complex_14_A_a.gif"
"","24124.230000001262","survey-likert","166","960878","0.0-42.0","SS1619740036877","similarity_question","","","","","","","","","","","","{""Q0"":4}","[0]","","images/stimuli/spore_stims/complex_13_A_b.gif","images/stimuli/spore_stims/complex_16_A_a.gif"
"","1545.1199999988312","survey-likert","167","962431","0.0-43.0","SS1619740036877","similarity_question","","","","","","","","","","","","{""Q0"":5}","[0]","","images/stimuli/spore_stims/simple_19_A_a.gif","images/stimuli/spore_stims/simple_20_A_b.gif"
"","4368.8899999979185","survey-likert","168","966808","0.0-44.0","SS1619740036877","similarity_question","","","","","","","","","","","","{""Q0"":4}","[0]","","images/stimuli/spore_stims/simple_14_A_a.gif","images/stimuli/spore_stims/simple_12_A_b.gif"
"[{""page_index"":0,""viewing_time"":5510.874999999884}]","5511.045000002952","instructions","169","972327","0.0-45.0","SS1619740036877","instructions","","","","","","","","","","","","","","","",""
"","4654.6500000003725","survey-likert","170","976990","0.0-46.0","SS1619740036877","","","","","","","","","images/stimuli/spore_stims/simple_08_A_b.gif","","","","{""Q0"":0}","[0]","","",""
"","4408.67000000074","survey-likert","171","981407","0.0-47.0","SS1619740036877","","","","","","","","","images/stimuli/spore_stims/complex_19_A_a.gif","","","","{""Q0"":4}","[0]","","",""
"","3642.364999999758","survey-likert","172","985059","0.0-48.0","SS1619740036877","","","","","","","","","images/stimuli/spore_stims/simple_08_A_a.gif","","","","{""Q0"":1}","[0]","","",""
"","2256.725000002887","survey-likert","173","987324","0.0-49.0","SS1619740036877","","","","","","","","","images/stimuli/spore_stims/simple_13_A_b.gif","","","","{""Q0"":0}","[0]","","",""
"","2181.0650000006426","survey-likert","174","989513","0.0-50.0","SS1619740036877","","","","","","","","","images/stimuli/spore_stims/complex_01_A_a.gif","","","","{""Q0"":4}","[0]","","",""
"","6377.510000001988","survey-likert","175","995899","0.0-51.0","SS1619740036877","","","","","","","","","images/stimuli/spore_stims/complex_15_A_b.gif","","","","{""Q0"":4}","[0]","","",""
"","6891.920000001905","survey-likert","176","1002800","0.0-52.0","SS1619740036877","","","","","","","","","images/stimuli/spore_stims/complex_04_A_b.gif","","","","{""Q0"":4}","[0]","","",""
"","12592.820000001579","survey-likert","177","1015400","0.0-53.0","SS1619740036877","","","","","","","","","images/stimuli/spore_stims/simple_14_A_a.gif","","","","{""Q0"":0}","[0]","","",""
"","28596.28000000154","survey-likert","178","1044005","0.0-54.0","SS1619740036877","","","","","","","","","images/stimuli/spore_stims/complex_04_A_a.gif","","","","{""Q0"":4}","[0]","","",""
"","3301.559999999823","survey-likert","179","1047316","0.0-55.0","SS1619740036877","","","","","","","","","images/stimuli/spore_stims/simple_20_A_b.gif","","","","{""Q0"":0}","[0]","","",""
"","24010.774999998743","survey-likert","180","1071335","0.0-56.0","SS1619740036877","","","","","","","","","images/stimuli/spore_stims/simple_14_A_b.gif","","","","{""Q0"":0}","[0]","","",""
"","1529.7500000016298","survey-likert","181","1072873","0.0-57.0","SS1619740036877","","","","","","","","","images/stimuli/spore_stims/complex_16_A_a.gif","","","","{""Q0"":4}","[0]","","",""
"[{""page_index"":0,""viewing_time"":1580.8150000011083}]","1580.9750000007916","instructions","182","1074462","0.0-58.0","SS1619740036877","instructions","","","","","","","","","","","","","","","",""
"","1951.619999999879","demog-age","183","1076422","0.0-59.0","SS1619740036877","","","","","","","","","","","","","{""age"":""21""}","","","",""
"","2083.4599999978673","demog-ethnic-US","184","1078516","0.0-60.0","SS1619740036877","","","","","","","","","","","","","{""ethnicity"":[""White""]}","[0]","","",""
"","8072.690000000875","demog-gender-and-education","185","1086598","0.0-61.0","SS1619740036877","","","","","","","","","","","","","{""gender"":""Male"",""education"":""High school diploma""}","[0,1]","","",""
"","49426.58500000113","survey-text","186","1136034","0.0-62.0","SS1619740036877","feedback","","","","","","","","","","","","{""Q0"":""No, the experiment went flawlessly""}","","","",""
"[{""page_index"":0,""viewing_time"":1697.124999998603}]","1697.2749999985099","instructions","187","1137740","0.0-63.0","SS1619740036877","instructions","","","","","","","","","","","","","","","",""
