"view_history","rt","trial_type","trial_index","time_elapsed","internal_node_id","subject","stimulus_type","trial_stimulus","key_press","minimum_viewing_duration","trial_looking_time","block_deviant","block_background","exposure_type","stimulus","block_number","block_type","stimulus_displayed","responses","question_order","math_correct_answer","stimulus_left","stimulus_right"
"[{""page_index"":0,""viewing_time"":13665.795000000799}]","13666.610000000219","instructions","0","13669","0.0-0.0","SS1619739808620","","","","","","","","","","","","","","","","",""
"[{""page_index"":0,""viewing_time"":17301.730000001044},{""page_index"":1,""viewing_time"":6708.754999999655}]","24010.815000001458","instructions","1","39682","0.0-1.0","SS1619739808620","instructions","","","","","","","","","","","","","","","",""
"","7370.764999999665","sequential-stimulus-presentation-old","2","47556","0.0-2.0","SS1619739808620","","","40","500","7870.764999999665","null","null","self_paced","","","","","","","","",""
"","4331.2000000005355","sequential-stimulus-presentation-old","3","52393","0.0-3.0","SS1619739808620","","","40","500","4831.2000000005355","null","null","self_paced","","","","","","","","",""
"[{""page_index"":0,""viewing_time"":19960.774999999558}]","19961.03999999832","instructions","4","72355","0.0-4.0","SS1619739808620","instructions","","","","","","","","","","","","","","","",""
"","612.0750000009139","sequential-stimulus-presentation-old","5","87976","0.0-5.0","SS1619739808620","","","40","500","1112.0750000009139","null","null","forced_long","","","","","","","","",""
"","3598.5149999996793","sequential-stimulus-presentation-old","6","92078","0.0-6.0","SS1619739808620","","","40","500","4098.514999999679","null","null","forced_long","","","","","","","","",""
"[{""page_index"":0,""viewing_time"":4670.594999999594}]","4670.87999999967","instructions","7","96750","0.0-7.0","SS1619739808620","instructions","","","","","","","","","","","","","","","",""
"[{""page_index"":0,""viewing_time"":9848.35000000021},{""page_index"":1,""viewing_time"":14341.819999999643},{""page_index"":2,""viewing_time"":4836.349999999584},{""page_index"":3,""viewing_time"":1637.0400000014342},{""page_index"":4,""viewing_time"":1535.01499999949}]","32199.060000000813","instructions","8","128950","0.0-8.0","SS1619739808620","instructions","","","","","","","","","","","","","","","",""
"","null","html-keyboard-response","9","129954","0.0-9.0-0.0","SS1619739808620","","","null","","","","","","<p><img src= images/blank.png width =""600"" height = ""600"" style=""position:fixed;top:50%; left:50%; transform: translate(-50%, -50%); border:5px solid black"">","","","","","","","",""
"","18535.160000001255","sequential-stimulus-presentation-old","10","148995","0.0-9.0-1.0","SS1619739808620","trial","","40","500","19035.160000001255","images/stimuli/spore_stims/complex_03_A_a.gif","images/stimuli/spore_stims/complex_09_A_b.gif","self_paced","","0","complex_dissimilar","images/stimuli/spore_stims/complex_09_A_b.gif","","","","",""
"","null","html-keyboard-response","11","150238","0.0-9.0-0.1","SS1619739808620","","","null","","","","","","<p><img src= images/blank.png width =""600"" height = ""600"" style=""position:fixed;top:50%; left:50%; transform: translate(-50%, -50%); border:5px solid black"">","","","","","","","",""
"","738.7799999996787","sequential-stimulus-presentation-old","12","151479","0.0-9.0-1.1","SS1619739808620","trial","","40","500","1238.7799999996787","images/stimuli/spore_stims/complex_03_A_a.gif","images/stimuli/spore_stims/complex_09_A_b.gif","self_paced","","0","complex_dissimilar","images/stimuli/spore_stims/complex_09_A_b.gif","","","","",""
"","null","html-keyboard-response","13","152662","0.0-9.0-0.2","SS1619739808620","","","null","","","","","","<p><img src= images/blank.png width =""600"" height = ""600"" style=""position:fixed;top:50%; left:50%; transform: translate(-50%, -50%); border:5px solid black"">","","","","","","","",""
"","2473.7800000002608","sequential-stimulus-presentation-old","14","155639","0.0-9.0-1.2","SS1619739808620","trial","","40","500","2973.7800000002608","images/stimuli/spore_stims/complex_03_A_a.gif","images/stimuli/spore_stims/complex_09_A_b.gif","self_paced","","0","complex_dissimilar","images/stimuli/spore_stims/complex_09_A_b.gif","","","","",""
"","null","html-keyboard-response","15","156573","0.0-9.0-0.3","SS1619739808620","","","null","","","","","","<p><img src= images/blank.png width =""600"" height = ""600"" style=""position:fixed;top:50%; left:50%; transform: translate(-50%, -50%); border:5px solid black"">","","","","","","","",""
"","6047.900000001362","sequential-stimulus-presentation-old","16","163125","0.0-9.0-1.3","SS1619739808620","trial","","40","500","6547.900000001362","images/stimuli/spore_stims/complex_03_A_a.gif","images/stimuli/spore_stims/complex_09_A_b.gif","self_paced","","0","complex_dissimilar","images/stimuli/spore_stims/complex_03_A_a.gif","","","","",""
"","null","html-keyboard-response","17","164369","0.0-9.0-0.4","SS1619739808620","","","null","","","","","","<p><img src= images/blank.png width =""600"" height = ""600"" style=""position:fixed;top:50%; left:50%; transform: translate(-50%, -50%); border:5px solid black"">","","","","","","","",""
"","1156.4949999992969","sequential-stimulus-presentation-old","18","166029","0.0-9.0-1.4","SS1619739808620","trial","","40","500","1656.4949999992969","images/stimuli/spore_stims/complex_03_A_a.gif","images/stimuli/spore_stims/complex_09_A_b.gif","self_paced","","0","complex_dissimilar","images/stimuli/spore_stims/complex_09_A_b.gif","","","","",""
"","null","html-keyboard-response","19","166867","0.0-9.0-0.5","SS1619739808620","","","null","","","","","","<p><img src= images/blank.png width =""600"" height = ""600"" style=""position:fixed;top:50%; left:50%; transform: translate(-50%, -50%); border:5px solid black"">","","","","","","","",""
"","8120.914999999513","sequential-stimulus-presentation-old","20","175506","0.0-9.0-1.5","SS1619739808620","trial","","40","500","8620.914999999513","images/stimuli/spore_stims/complex_03_A_a.gif","images/stimuli/spore_stims/complex_09_A_b.gif","self_paced","","0","complex_dissimilar","images/stimuli/spore_stims/complex_09_A_b.gif","","","","",""
"","5762.239999999991","survey-multi-choice","21","181273","0.0-10.0","SS1619739808620","math_question","","","","","","","","","","","","{""Q0"":""10""}","[0]","10","",""
"","null","html-keyboard-response","22","182121","0.0-11.0-0.0","SS1619739808620","","","null","","","","","","<p><img src= images/blank.png width =""600"" height = ""600"" style=""position:fixed;top:50%; left:50%; transform: translate(-50%, -50%); border:5px solid black"">","","","","","","","",""
"","4122.409999999945","sequential-stimulus-presentation-old","23","186748","0.0-11.0-1.0","SS1619739808620","trial","","40","500","4622.409999999945","images/stimuli/spore_stims/simple_11_A_a.gif","images/stimuli/spore_stims/simple_10_A_b.gif","self_paced","","1","simple_dissimilar","images/stimuli/spore_stims/simple_10_A_b.gif","","","","",""
"","null","html-keyboard-response","24","187604","0.0-11.0-0.1","SS1619739808620","","","null","","","","","","<p><img src= images/blank.png width =""600"" height = ""600"" style=""position:fixed;top:50%; left:50%; transform: translate(-50%, -50%); border:5px solid black"">","","","","","","","",""
"","638.2649999995774","sequential-stimulus-presentation-old","25","188757","0.0-11.0-1.1","SS1619739808620","trial","","40","500","1138.2649999995774","images/stimuli/spore_stims/simple_11_A_a.gif","images/stimuli/spore_stims/simple_10_A_b.gif","self_paced","","1","simple_dissimilar","images/stimuli/spore_stims/simple_10_A_b.gif","","","","",""
"","null","html-keyboard-response","26","190027","0.0-11.0-0.2","SS1619739808620","","","null","","","","","","<p><img src= images/blank.png width =""600"" height = ""600"" style=""position:fixed;top:50%; left:50%; transform: translate(-50%, -50%); border:5px solid black"">","","","","","","","",""
"","2142.239999999234","sequential-stimulus-presentation-old","27","192673","0.0-11.0-1.2","SS1619739808620","trial","","40","500","2642.239999999234","images/stimuli/spore_stims/simple_11_A_a.gif","images/stimuli/spore_stims/simple_10_A_b.gif","self_paced","","1","simple_dissimilar","images/stimuli/spore_stims/simple_10_A_b.gif","","","","",""
"","null","html-keyboard-response","28","193832","0.0-11.0-0.3","SS1619739808620","","","null","","","","","","<p><img src= images/blank.png width =""600"" height = ""600"" style=""position:fixed;top:50%; left:50%; transform: translate(-50%, -50%); border:5px solid black"">","","","","","","","",""
"","703.5199999991455","sequential-stimulus-presentation-old","29","195040","0.0-11.0-1.3","SS1619739808620","trial","","40","500","1203.5199999991455","images/stimuli/spore_stims/simple_11_A_a.gif","images/stimuli/spore_stims/simple_10_A_b.gif","self_paced","","1","simple_dissimilar","images/stimuli/spore_stims/simple_10_A_b.gif","","","","",""
"","null","html-keyboard-response","30","196229","0.0-11.0-0.4","SS1619739808620","","","null","","","","","","<p><img src= images/blank.png width =""600"" height = ""600"" style=""position:fixed;top:50%; left:50%; transform: translate(-50%, -50%); border:5px solid black"">","","","","","","","",""
"","2817.199999999517","sequential-stimulus-presentation-old","31","199549","0.0-11.0-1.4","SS1619739808620","trial","","40","500","3317.199999999517","images/stimuli/spore_stims/simple_11_A_a.gif","images/stimuli/spore_stims/simple_10_A_b.gif","self_paced","","1","simple_dissimilar","images/stimuli/spore_stims/simple_10_A_b.gif","","","","",""
"","null","html-keyboard-response","32","200417","0.0-11.0-0.5","SS1619739808620","","","null","","","","","","<p><img src= images/blank.png width =""600"" height = ""600"" style=""position:fixed;top:50%; left:50%; transform: translate(-50%, -50%); border:5px solid black"">","","","","","","","",""
"","799.1500000007218","sequential-stimulus-presentation-old","33","201722","0.0-11.0-1.5","SS1619739808620","trial","","40","500","1299.1500000007218","images/stimuli/spore_stims/simple_11_A_a.gif","images/stimuli/spore_stims/simple_10_A_b.gif","self_paced","","1","simple_dissimilar","images/stimuli/spore_stims/simple_10_A_b.gif","","","","",""
"","4509.824999999168","survey-multi-choice","34","206234","0.0-12.0","SS1619739808620","math_question","","","","","","","","","","","","{""Q0"":""9""}","[0]","9","",""
"","null","html-keyboard-response","35","207141","0.0-13.0-0.0","SS1619739808620","","","null","","","","","","<p><img src= images/blank.png width =""600"" height = ""600"" style=""position:fixed;top:50%; left:50%; transform: translate(-50%, -50%); border:5px solid black"">","","","","","","","",""
"","966.220000000234","sequential-stimulus-presentation-old","36","223122","0.0-13.0-1.0","SS1619739808620","trial","","40","500","1466.220000000234","images/stimuli/spore_stims/complex_15_A_a.gif","images/stimuli/spore_stims/complex_12_A_b.gif","forced_long","","2","complex_dissimilar","images/stimuli/spore_stims/complex_12_A_b.gif","","","","",""
"","null","html-keyboard-response","37","224296","0.0-13.0-0.1","SS1619739808620","","","null","","","","","","<p><img src= images/blank.png width =""600"" height = ""600"" style=""position:fixed;top:50%; left:50%; transform: translate(-50%, -50%); border:5px solid black"">","","","","","","","",""
"","593.8599999990256","sequential-stimulus-presentation-old","38","225394","0.0-13.0-1.1","SS1619739808620","trial","","40","500","1093.8599999990256","images/stimuli/spore_stims/complex_15_A_a.gif","images/stimuli/spore_stims/complex_12_A_b.gif","forced_long","","2","complex_dissimilar","images/stimuli/spore_stims/complex_12_A_b.gif","","","","",""
"","null","html-keyboard-response","39","226309","0.0-13.0-0.2","SS1619739808620","","","null","","","","","","<p><img src= images/blank.png width =""600"" height = ""600"" style=""position:fixed;top:50%; left:50%; transform: translate(-50%, -50%); border:5px solid black"">","","","","","","","",""
"","201.00999999884516","sequential-stimulus-presentation-old","40","227012","0.0-13.0-1.2","SS1619739808620","trial","","40","500","701.0099999988452","images/stimuli/spore_stims/complex_15_A_a.gif","images/stimuli/spore_stims/complex_12_A_b.gif","forced_long","","2","complex_dissimilar","images/stimuli/spore_stims/complex_12_A_b.gif","","","","",""
"","null","html-keyboard-response","41","228169","0.0-13.0-0.3","SS1619739808620","","","null","","","","","","<p><img src= images/blank.png width =""600"" height = ""600"" style=""position:fixed;top:50%; left:50%; transform: translate(-50%, -50%); border:5px solid black"">","","","","","","","",""
"","177.52499999915017","sequential-stimulus-presentation-old","42","228850","0.0-13.0-1.3","SS1619739808620","trial","","40","500","677.5249999991502","images/stimuli/spore_stims/complex_15_A_a.gif","images/stimuli/spore_stims/complex_12_A_b.gif","forced_long","","2","complex_dissimilar","images/stimuli/spore_stims/complex_12_A_b.gif","","","","",""
"","null","html-keyboard-response","43","229750","0.0-13.0-0.4","SS1619739808620","","","null","","","","","","<p><img src= images/blank.png width =""600"" height = ""600"" style=""position:fixed;top:50%; left:50%; transform: translate(-50%, -50%); border:5px solid black"">","","","","","","","",""
"","6118.870000000228","sequential-stimulus-presentation-old","44","236374","0.0-13.0-1.4","SS1619739808620","trial","","40","500","6618.870000000228","images/stimuli/spore_stims/complex_15_A_a.gif","images/stimuli/spore_stims/complex_12_A_b.gif","forced_long","","2","complex_dissimilar","images/stimuli/spore_stims/complex_15_A_a.gif","","","","",""
"","null","html-keyboard-response","45","237510","0.0-13.0-0.5","SS1619739808620","","","null","","","","","","<p><img src= images/blank.png width =""600"" height = ""600"" style=""position:fixed;top:50%; left:50%; transform: translate(-50%, -50%); border:5px solid black"">","","","","","","","",""
"","606.3549999998941","sequential-stimulus-presentation-old","46","238619","0.0-13.0-1.5","SS1619739808620","trial","","40","500","1106.354999999894","images/stimuli/spore_stims/complex_15_A_a.gif","images/stimuli/spore_stims/complex_12_A_b.gif","forced_long","","2","complex_dissimilar","images/stimuli/spore_stims/complex_12_A_b.gif","","","","",""
"","4842.475000001286","survey-multi-choice","47","243464","0.0-14.0","SS1619739808620","math_question","","","","","","","","","","","","{""Q0"":""13""}","[0]","13","",""
"","null","html-keyboard-response","48","244408","0.0-15.0-0.0","SS1619739808620","","","null","","","","","","<p><img src= images/blank.png width =""600"" height = ""600"" style=""position:fixed;top:50%; left:50%; transform: translate(-50%, -50%); border:5px solid black"">","","","","","","","",""
"","475.4800000009709","sequential-stimulus-presentation-old","49","259892","0.0-15.0-1.0","SS1619739808620","trial","","40","500","975.4800000009709","images/stimuli/spore_stims/complex_06_A_a.gif","images/stimuli/spore_stims/complex_18_A_b.gif","forced_long","","3","complex_dissimilar","images/stimuli/spore_stims/complex_18_A_b.gif","","","","",""
"","null","html-keyboard-response","50","260833","0.0-15.0-0.1","SS1619739808620","","","null","","","","","","<p><img src= images/blank.png width =""600"" height = ""600"" style=""position:fixed;top:50%; left:50%; transform: translate(-50%, -50%); border:5px solid black"">","","","","","","","",""
"","480.0600000016857","sequential-stimulus-presentation-old","51","261819","0.0-15.0-1.1","SS1619739808620","trial","","40","500","980.0600000016857","images/stimuli/spore_stims/complex_06_A_a.gif","images/stimuli/spore_stims/complex_18_A_b.gif","forced_long","","3","complex_dissimilar","images/stimuli/spore_stims/complex_18_A_b.gif","","","","",""
"","null","html-keyboard-response","52","262959","0.0-15.0-0.2","SS1619739808620","","","null","","","","","","<p><img src= images/blank.png width =""600"" height = ""600"" style=""position:fixed;top:50%; left:50%; transform: translate(-50%, -50%); border:5px solid black"">","","","","","","","",""
"","102.11499999969965","sequential-stimulus-presentation-old","53","263564","0.0-15.0-1.2","SS1619739808620","trial","","40","500","602.1149999996996","images/stimuli/spore_stims/complex_06_A_a.gif","images/stimuli/spore_stims/complex_18_A_b.gif","forced_long","","3","complex_dissimilar","images/stimuli/spore_stims/complex_18_A_b.gif","","","","",""
"","null","html-keyboard-response","54","264543","0.0-15.0-0.3","SS1619739808620","","","null","","","","","","<p><img src= images/blank.png width =""600"" height = ""600"" style=""position:fixed;top:50%; left:50%; transform: translate(-50%, -50%); border:5px solid black"">","","","","","","","",""
"","230.79499999951804","sequential-stimulus-presentation-old","55","265277","0.0-15.0-1.3","SS1619739808620","trial","","40","500","730.794999999518","images/stimuli/spore_stims/complex_06_A_a.gif","images/stimuli/spore_stims/complex_18_A_b.gif","forced_long","","3","complex_dissimilar","images/stimuli/spore_stims/complex_18_A_b.gif","","","","",""
"","null","html-keyboard-response","56","266426","0.0-15.0-0.4","SS1619739808620","","","null","","","","","","<p><img src= images/blank.png width =""600"" height = ""600"" style=""position:fixed;top:50%; left:50%; transform: translate(-50%, -50%); border:5px solid black"">","","","","","","","",""
"","362.9549999986775","sequential-stimulus-presentation-old","57","267292","0.0-15.0-1.4","SS1619739808620","trial","","40","500","862.9549999986775","images/stimuli/spore_stims/complex_06_A_a.gif","images/stimuli/spore_stims/complex_18_A_b.gif","forced_long","","3","complex_dissimilar","images/stimuli/spore_stims/complex_18_A_b.gif","","","","",""
"","null","html-keyboard-response","58","268313","0.0-15.0-0.5","SS1619739808620","","","null","","","","","","<p><img src= images/blank.png width =""600"" height = ""600"" style=""position:fixed;top:50%; left:50%; transform: translate(-50%, -50%); border:5px solid black"">","","","","","","","",""
"","432.6850000016275","sequential-stimulus-presentation-old","59","269249","0.0-15.0-1.5","SS1619739808620","trial","","40","500","932.6850000016275","images/stimuli/spore_stims/complex_06_A_a.gif","images/stimuli/spore_stims/complex_18_A_b.gif","forced_long","","3","complex_dissimilar","images/stimuli/spore_stims/complex_18_A_b.gif","","","","",""
"","3888.7099999992643","survey-multi-choice","60","273141","0.0-16.0","SS1619739808620","math_question","","","","","","","","","","","","{""Q0"":""11""}","[0]","11","",""
"","null","html-keyboard-response","61","274319","0.0-17.0-0.0","SS1619739808620","","","null","","","","","","<p><img src= images/blank.png width =""600"" height = ""600"" style=""position:fixed;top:50%; left:50%; transform: translate(-50%, -50%); border:5px solid black"">","","","","","","","",""
"","92.70000000105938","sequential-stimulus-presentation-old","62","274922","0.0-17.0-1.0","SS1619739808620","trial","","40","500","592.7000000010594","images/stimuli/spore_stims/simple_15_A_b.gif","images/stimuli/spore_stims/simple_09_A_a.gif","forced_short","","4","simple_dissimilar","images/stimuli/spore_stims/simple_09_A_a.gif","","","","",""
"","null","html-keyboard-response","63","275967","0.0-17.0-0.1","SS1619739808620","","","null","","","","","","<p><img src= images/blank.png width =""600"" height = ""600"" style=""position:fixed;top:50%; left:50%; transform: translate(-50%, -50%); border:5px solid black"">","","","","","","","",""
"","220.21999999927357","sequential-stimulus-presentation-old","64","276691","0.0-17.0-1.1","SS1619739808620","trial","","40","500","720.2199999992736","images/stimuli/spore_stims/simple_15_A_b.gif","images/stimuli/spore_stims/simple_09_A_a.gif","forced_short","","4","simple_dissimilar","images/stimuli/spore_stims/simple_09_A_a.gif","","","","",""
"","null","html-keyboard-response","65","277884","0.0-17.0-0.2","SS1619739808620","","","null","","","","","","<p><img src= images/blank.png width =""600"" height = ""600"" style=""position:fixed;top:50%; left:50%; transform: translate(-50%, -50%); border:5px solid black"">","","","","","","","",""
"","1867.1250000006403","sequential-stimulus-presentation-old","66","280265","0.0-17.0-1.2","SS1619739808620","trial","","40","500","2367.1250000006403","images/stimuli/spore_stims/simple_15_A_b.gif","images/stimuli/spore_stims/simple_09_A_a.gif","forced_short","","4","simple_dissimilar","images/stimuli/spore_stims/simple_15_A_b.gif","","","","",""
"","null","html-keyboard-response","67","281320","0.0-17.0-0.3","SS1619739808620","","","null","","","","","","<p><img src= images/blank.png width =""600"" height = ""600"" style=""position:fixed;top:50%; left:50%; transform: translate(-50%, -50%); border:5px solid black"">","","","","","","","",""
"","1839.2800000001444","sequential-stimulus-presentation-old","68","283663","0.0-17.0-1.3","SS1619739808620","trial","","40","500","2339.2800000001444","images/stimuli/spore_stims/simple_15_A_b.gif","images/stimuli/spore_stims/simple_09_A_a.gif","forced_short","","4","simple_dissimilar","images/stimuli/spore_stims/simple_09_A_a.gif","","","","",""
"","3839.2850000000326","survey-multi-choice","69","287504","0.0-18.0","SS1619739808620","math_question","","","","","","","","","","","","{""Q0"":""10""}","[0]","10","",""
"","null","html-keyboard-response","70","288670","0.0-19.0-0.0","SS1619739808620","","","null","","","","","","<p><img src= images/blank.png width =""600"" height = ""600"" style=""position:fixed;top:50%; left:50%; transform: translate(-50%, -50%); border:5px solid black"">","","","","","","","",""
"","1164.5349999999162","sequential-stimulus-presentation-old","71","290339","0.0-19.0-1.0","SS1619739808620","trial","","40","500","1664.5349999999162","images/stimuli/spore_stims/simple_18_A_a.gif","images/stimuli/spore_stims/simple_14_A_b.gif","self_paced","","5","simple_dissimilar","images/stimuli/spore_stims/simple_14_A_b.gif","","","","",""
"","null","html-keyboard-response","72","291521","0.0-19.0-0.1","SS1619739808620","","","null","","","","","","<p><img src= images/blank.png width =""600"" height = ""600"" style=""position:fixed;top:50%; left:50%; transform: translate(-50%, -50%); border:5px solid black"">","","","","","","","",""
"","1152.8149999994785","sequential-stimulus-presentation-old","73","293177","0.0-19.0-1.1","SS1619739808620","trial","","40","500","1652.8149999994785","images/stimuli/spore_stims/simple_18_A_a.gif","images/stimuli/spore_stims/simple_14_A_b.gif","self_paced","","5","simple_dissimilar","images/stimuli/spore_stims/simple_18_A_a.gif","","","","",""
"","null","html-keyboard-response","74","294109","0.0-19.0-0.2","SS1619739808620","","","null","","","","","","<p><img src= images/blank.png width =""600"" height = ""600"" style=""position:fixed;top:50%; left:50%; transform: translate(-50%, -50%); border:5px solid black"">","","","","","","","",""
"","1603.6249999997672","sequential-stimulus-presentation-old","75","296228","0.0-19.0-1.2","SS1619739808620","trial","","40","500","2103.624999999767","images/stimuli/spore_stims/simple_18_A_a.gif","images/stimuli/spore_stims/simple_14_A_b.gif","self_paced","","5","simple_dissimilar","images/stimuli/spore_stims/simple_18_A_a.gif","","","","",""
"","null","html-keyboard-response","76","297400","0.0-19.0-0.3","SS1619739808620","","","null","","","","","","<p><img src= images/blank.png width =""600"" height = ""600"" style=""position:fixed;top:50%; left:50%; transform: translate(-50%, -50%); border:5px solid black"">","","","","","","","",""
"","1180.5999999996857","sequential-stimulus-presentation-old","77","299084","0.0-19.0-1.3","SS1619739808620","trial","","40","500","1680.5999999996857","images/stimuli/spore_stims/simple_18_A_a.gif","images/stimuli/spore_stims/simple_14_A_b.gif","self_paced","","5","simple_dissimilar","images/stimuli/spore_stims/simple_14_A_b.gif","","","","",""
"","null","html-keyboard-response","78","300090","0.0-19.0-0.4","SS1619739808620","","","null","","","","","","<p><img src= images/blank.png width =""600"" height = ""600"" style=""position:fixed;top:50%; left:50%; transform: translate(-50%, -50%); border:5px solid black"">","","","","","","","",""
"","389.6199999998789","sequential-stimulus-presentation-old","79","300985","0.0-19.0-1.4","SS1619739808620","trial","","40","500","889.6199999998789","images/stimuli/spore_stims/simple_18_A_a.gif","images/stimuli/spore_stims/simple_14_A_b.gif","self_paced","","5","simple_dissimilar","images/stimuli/spore_stims/simple_14_A_b.gif","","","","",""
"","6517.775000000256","survey-multi-choice","80","307505","0.0-20.0","SS1619739808620","math_question","","","","","","","","","","","","{""Q0"":""16""}","[0]","16","",""
"","null","html-keyboard-response","81","308383","0.0-21.0-0.0","SS1619739808620","","","null","","","","","","<p><img src= images/blank.png width =""600"" height = ""600"" style=""position:fixed;top:50%; left:50%; transform: translate(-50%, -50%); border:5px solid black"">","","","","","","","",""
"","573.445000000007","sequential-stimulus-presentation-old","82","309466","0.0-21.0-1.0","SS1619739808620","trial","","40","500","1073.445000000007","images/stimuli/spore_stims/complex_15_A_b.gif","images/stimuli/spore_stims/complex_09_A_a.gif","forced_short","","6","complex_dissimilar","images/stimuli/spore_stims/complex_09_A_a.gif","","","","",""
"","null","html-keyboard-response","83","310547","0.0-21.0-0.1","SS1619739808620","","","null","","","","","","<p><img src= images/blank.png width =""600"" height = ""600"" style=""position:fixed;top:50%; left:50%; transform: translate(-50%, -50%); border:5px solid black"">","","","","","","","",""
"","793.5949999991572","sequential-stimulus-presentation-old","84","311859","0.0-21.0-1.1","SS1619739808620","trial","","40","500","1293.5949999991572","images/stimuli/spore_stims/complex_15_A_b.gif","images/stimuli/spore_stims/complex_09_A_a.gif","forced_short","","6","complex_dissimilar","images/stimuli/spore_stims/complex_15_A_b.gif","","","","",""
"","null","html-keyboard-response","85","313017","0.0-21.0-0.2","SS1619739808620","","","null","","","","","","<p><img src= images/blank.png width =""600"" height = ""600"" style=""position:fixed;top:50%; left:50%; transform: translate(-50%, -50%); border:5px solid black"">","","","","","","","",""
"","2575.1399999990244","sequential-stimulus-presentation-old","86","316096","0.0-21.0-1.2","SS1619739808620","trial","","40","500","3075.1399999990244","images/stimuli/spore_stims/complex_15_A_b.gif","images/stimuli/spore_stims/complex_09_A_a.gif","forced_short","","6","complex_dissimilar","images/stimuli/spore_stims/complex_09_A_a.gif","","","","",""
"","null","html-keyboard-response","87","317133","0.0-21.0-0.3","SS1619739808620","","","null","","","","","","<p><img src= images/blank.png width =""600"" height = ""600"" style=""position:fixed;top:50%; left:50%; transform: translate(-50%, -50%); border:5px solid black"">","","","","","","","",""
"","2045.9649999993271","sequential-stimulus-presentation-old","88","319684","0.0-21.0-1.3","SS1619739808620","trial","","40","500","2545.964999999327","images/stimuli/spore_stims/complex_15_A_b.gif","images/stimuli/spore_stims/complex_09_A_a.gif","forced_short","","6","complex_dissimilar","images/stimuli/spore_stims/complex_09_A_a.gif","","","","",""
"","null","html-keyboard-response","89","320768","0.0-21.0-0.4","SS1619739808620","","","null","","","","","","<p><img src= images/blank.png width =""600"" height = ""600"" style=""position:fixed;top:50%; left:50%; transform: translate(-50%, -50%); border:5px solid black"">","","","","","","","",""
"","942.3800000004703","sequential-stimulus-presentation-old","90","322229","0.0-21.0-1.4","SS1619739808620","trial","","40","500","1442.3800000004703","images/stimuli/spore_stims/complex_15_A_b.gif","images/stimuli/spore_stims/complex_09_A_a.gif","forced_short","","6","complex_dissimilar","images/stimuli/spore_stims/complex_09_A_a.gif","","","","",""
"","null","html-keyboard-response","91","323421","0.0-21.0-0.5","SS1619739808620","","","null","","","","","","<p><img src= images/blank.png width =""600"" height = ""600"" style=""position:fixed;top:50%; left:50%; transform: translate(-50%, -50%); border:5px solid black"">","","","","","","","",""
"","1736.7599999997765","sequential-stimulus-presentation-old","92","325675","0.0-21.0-1.5","SS1619739808620","trial","","40","500","2236.7599999997765","images/stimuli/spore_stims/complex_15_A_b.gif","images/stimuli/spore_stims/complex_09_A_a.gif","forced_short","","6","complex_dissimilar","images/stimuli/spore_stims/complex_09_A_a.gif","","","","",""
"","3394.229999999865","survey-multi-choice","93","329073","0.0-22.0","SS1619739808620","math_question","","","","","","","","","","","","{""Q0"":""2""}","[0]","2","",""
"","null","html-keyboard-response","94","330164","0.0-23.0-0.0","SS1619739808620","","","null","","","","","","<p><img src= images/blank.png width =""600"" height = ""600"" style=""position:fixed;top:50%; left:50%; transform: translate(-50%, -50%); border:5px solid black"">","","","","","","","",""
"","2438.0299999993294","sequential-stimulus-presentation-old","95","333107","0.0-23.0-1.0","SS1619739808620","trial","","40","500","2938.0299999993294","images/stimuli/spore_stims/complex_16_A_b.gif","images/stimuli/spore_stims/complex_07_A_a.gif","forced_short","","7","complex_dissimilar","images/stimuli/spore_stims/complex_07_A_a.gif","","","","",""
"","null","html-keyboard-response","96","333928","0.0-23.0-0.1","SS1619739808620","","","null","","","","","","<p><img src= images/blank.png width =""600"" height = ""600"" style=""position:fixed;top:50%; left:50%; transform: translate(-50%, -50%); border:5px solid black"">","","","","","","","",""
"","3488.3300000000745","sequential-stimulus-presentation-old","97","337921","0.0-23.0-1.1","SS1619739808620","trial","","40","500","3988.3300000000745","images/stimuli/spore_stims/complex_16_A_b.gif","images/stimuli/spore_stims/complex_07_A_a.gif","forced_short","","7","complex_dissimilar","images/stimuli/spore_stims/complex_07_A_a.gif","","","","",""
"","null","html-keyboard-response","98","338778","0.0-23.0-0.2","SS1619739808620","","","null","","","","","","<p><img src= images/blank.png width =""600"" height = ""600"" style=""position:fixed;top:50%; left:50%; transform: translate(-50%, -50%); border:5px solid black"">","","","","","","","",""
"","627.4950000006356","sequential-stimulus-presentation-old","99","339909","0.0-23.0-1.2","SS1619739808620","trial","","40","500","1127.4950000006356","images/stimuli/spore_stims/complex_16_A_b.gif","images/stimuli/spore_stims/complex_07_A_a.gif","forced_short","","7","complex_dissimilar","images/stimuli/spore_stims/complex_07_A_a.gif","","","","",""
"","null","html-keyboard-response","100","340809","0.0-23.0-0.3","SS1619739808620","","","null","","","","","","<p><img src= images/blank.png width =""600"" height = ""600"" style=""position:fixed;top:50%; left:50%; transform: translate(-50%, -50%); border:5px solid black"">","","","","","","","",""
"","769.8549999986426","sequential-stimulus-presentation-old","101","342083","0.0-23.0-1.3","SS1619739808620","trial","","40","500","1269.8549999986426","images/stimuli/spore_stims/complex_16_A_b.gif","images/stimuli/spore_stims/complex_07_A_a.gif","forced_short","","7","complex_dissimilar","images/stimuli/spore_stims/complex_07_A_a.gif","","","","",""
"","null","html-keyboard-response","102","343031","0.0-23.0-0.4","SS1619739808620","","","null","","","","","","<p><img src= images/blank.png width =""600"" height = ""600"" style=""position:fixed;top:50%; left:50%; transform: translate(-50%, -50%); border:5px solid black"">","","","","","","","",""
"","989.6549999993877","sequential-stimulus-presentation-old","103","344525","0.0-23.0-1.4","SS1619739808620","trial","","40","500","1489.6549999993877","images/stimuli/spore_stims/complex_16_A_b.gif","images/stimuli/spore_stims/complex_07_A_a.gif","forced_short","","7","complex_dissimilar","images/stimuli/spore_stims/complex_07_A_a.gif","","","","",""
"","4522.324999999895","survey-multi-choice","104","349051","0.0-24.0","SS1619739808620","math_question","","","","","","","","","","","","{""Q0"":""2""}","[0]","2","",""
"","null","html-keyboard-response","105","350145","0.0-25.0-0.0","SS1619739808620","","","null","","","","","","<p><img src= images/blank.png width =""600"" height = ""600"" style=""position:fixed;top:50%; left:50%; transform: translate(-50%, -50%); border:5px solid black"">","","","","","","","",""
"","1193.2699999997276","sequential-stimulus-presentation-old","106","366350","0.0-25.0-1.0","SS1619739808620","trial","","40","500","1693.2699999997276","images/stimuli/spore_stims/simple_17_A_a.gif","images/stimuli/spore_stims/simple_09_A_b.gif","forced_long","","8","simple_dissimilar","images/stimuli/spore_stims/simple_09_A_b.gif","","","","",""
"","null","html-keyboard-response","107","367597","0.0-25.0-0.1","SS1619739808620","","","null","","","","","","<p><img src= images/blank.png width =""600"" height = ""600"" style=""position:fixed;top:50%; left:50%; transform: translate(-50%, -50%); border:5px solid black"">","","","","","","","",""
"","2410.5849999996135","sequential-stimulus-presentation-old","108","370513","0.0-25.0-1.1","SS1619739808620","trial","","40","500","2910.5849999996135","images/stimuli/spore_stims/simple_17_A_a.gif","images/stimuli/spore_stims/simple_09_A_b.gif","forced_long","","8","simple_dissimilar","images/stimuli/spore_stims/simple_09_A_b.gif","","","","",""
"","null","html-keyboard-response","109","371443","0.0-25.0-0.2","SS1619739808620","","","null","","","","","","<p><img src= images/blank.png width =""600"" height = ""600"" style=""position:fixed;top:50%; left:50%; transform: translate(-50%, -50%); border:5px solid black"">","","","","","","","",""
"","2559.6150000001653","sequential-stimulus-presentation-old","110","374507","0.0-25.0-1.2","SS1619739808620","trial","","40","500","3059.6150000001653","images/stimuli/spore_stims/simple_17_A_a.gif","images/stimuli/spore_stims/simple_09_A_b.gif","forced_long","","8","simple_dissimilar","images/stimuli/spore_stims/simple_17_A_a.gif","","","","",""
"","null","html-keyboard-response","111","375608","0.0-25.0-0.3","SS1619739808620","","","null","","","","","","<p><img src= images/blank.png width =""600"" height = ""600"" style=""position:fixed;top:50%; left:50%; transform: translate(-50%, -50%); border:5px solid black"">","","","","","","","",""
"","1814.815000001574","sequential-stimulus-presentation-old","112","377929","0.0-25.0-1.3","SS1619739808620","trial","","40","500","2314.815000001574","images/stimuli/spore_stims/simple_17_A_a.gif","images/stimuli/spore_stims/simple_09_A_b.gif","forced_long","","8","simple_dissimilar","images/stimuli/spore_stims/simple_09_A_b.gif","","","","",""
"","null","html-keyboard-response","113","379136","0.0-25.0-0.4","SS1619739808620","","","null","","","","","","<p><img src= images/blank.png width =""600"" height = ""600"" style=""position:fixed;top:50%; left:50%; transform: translate(-50%, -50%); border:5px solid black"">","","","","","","","",""
"","2659.1549999993877","sequential-stimulus-presentation-old","114","382300","0.0-25.0-1.4","SS1619739808620","trial","","40","500","3159.1549999993877","images/stimuli/spore_stims/simple_17_A_a.gif","images/stimuli/spore_stims/simple_09_A_b.gif","forced_long","","8","simple_dissimilar","images/stimuli/spore_stims/simple_09_A_b.gif","","","","",""
"","3083.785000000731","survey-multi-choice","115","385386","0.0-26.0","SS1619739808620","math_question","","","","","","","","","","","","{""Q0"":""5""}","[0]","5","",""
"","null","html-keyboard-response","116","386381","0.0-27.0-0.0","SS1619739808620","","","null","","","","","","<p><img src= images/blank.png width =""600"" height = ""600"" style=""position:fixed;top:50%; left:50%; transform: translate(-50%, -50%); border:5px solid black"">","","","","","","","",""
"","230.2550000004121","sequential-stimulus-presentation-old","117","401617","0.0-27.0-1.0","SS1619739808620","trial","","40","500","730.2550000004121","images/stimuli/spore_stims/simple_20_A_a.gif","images/stimuli/spore_stims/simple_03_A_b.gif","forced_long","","9","simple_dissimilar","images/stimuli/spore_stims/simple_03_A_b.gif","","","","",""
"","null","html-keyboard-response","118","402707","0.0-27.0-0.1","SS1619739808620","","","null","","","","","","<p><img src= images/blank.png width =""600"" height = ""600"" style=""position:fixed;top:50%; left:50%; transform: translate(-50%, -50%); border:5px solid black"">","","","","","","","",""
"","3018.379999999481","sequential-stimulus-presentation-old","119","406230","0.0-27.0-1.1","SS1619739808620","trial","","40","500","3518.379999999481","images/stimuli/spore_stims/simple_20_A_a.gif","images/stimuli/spore_stims/simple_03_A_b.gif","forced_long","","9","simple_dissimilar","images/stimuli/spore_stims/simple_03_A_b.gif","","","","",""
"","null","html-keyboard-response","120","407425","0.0-27.0-0.2","SS1619739808620","","","null","","","","","","<p><img src= images/blank.png width =""600"" height = ""600"" style=""position:fixed;top:50%; left:50%; transform: translate(-50%, -50%); border:5px solid black"">","","","","","","","",""
"","3456.1900000008172","sequential-stimulus-presentation-old","121","411387","0.0-27.0-1.2","SS1619739808620","trial","","40","500","3956.1900000008172","images/stimuli/spore_stims/simple_20_A_a.gif","images/stimuli/spore_stims/simple_03_A_b.gif","forced_long","","9","simple_dissimilar","images/stimuli/spore_stims/simple_03_A_b.gif","","","","",""
"","null","html-keyboard-response","122","412391","0.0-27.0-0.3","SS1619739808620","","","null","","","","","","<p><img src= images/blank.png width =""600"" height = ""600"" style=""position:fixed;top:50%; left:50%; transform: translate(-50%, -50%); border:5px solid black"">","","","","","","","",""
"","908.4300000013318","sequential-stimulus-presentation-old","123","413806","0.0-27.0-1.3","SS1619739808620","trial","","40","500","1408.4300000013318","images/stimuli/spore_stims/simple_20_A_a.gif","images/stimuli/spore_stims/simple_03_A_b.gif","forced_long","","9","simple_dissimilar","images/stimuli/spore_stims/simple_03_A_b.gif","","","","",""
"","null","html-keyboard-response","124","415084","0.0-27.0-0.4","SS1619739808620","","","null","","","","","","<p><img src= images/blank.png width =""600"" height = ""600"" style=""position:fixed;top:50%; left:50%; transform: translate(-50%, -50%); border:5px solid black"">","","","","","","","",""
"","1945.6350000000675","sequential-stimulus-presentation-old","125","417539","0.0-27.0-1.4","SS1619739808620","trial","","40","500","2445.6350000000675","images/stimuli/spore_stims/simple_20_A_a.gif","images/stimuli/spore_stims/simple_03_A_b.gif","forced_long","","9","simple_dissimilar","images/stimuli/spore_stims/simple_03_A_b.gif","","","","",""
"","8922.295000000275","survey-multi-choice","126","426465","0.0-28.0","SS1619739808620","math_question","","","","","","","","","","","","{""Q0"":""17""}","[0]","17","",""
"","null","html-keyboard-response","127","427372","0.0-29.0-0.0","SS1619739808620","","","null","","","","","","<p><img src= images/blank.png width =""600"" height = ""600"" style=""position:fixed;top:50%; left:50%; transform: translate(-50%, -50%); border:5px solid black"">","","","","","","","",""
"","1704.1049999988754","sequential-stimulus-presentation-old","128","429584","0.0-29.0-1.0","SS1619739808620","trial","","40","500","2204.1049999988754","images/stimuli/spore_stims/simple_14_A_a.gif","images/stimuli/spore_stims/simple_19_A_b.gif","forced_short","","10","simple_dissimilar","images/stimuli/spore_stims/simple_19_A_b.gif","","","","",""
"","null","html-keyboard-response","129","430828","0.0-29.0-0.1","SS1619739808620","","","null","","","","","","<p><img src= images/blank.png width =""600"" height = ""600"" style=""position:fixed;top:50%; left:50%; transform: translate(-50%, -50%); border:5px solid black"">","","","","","","","",""
"","1007.2499999987776","sequential-stimulus-presentation-old","130","432343","0.0-29.0-1.1","SS1619739808620","trial","","40","500","1507.2499999987776","images/stimuli/spore_stims/simple_14_A_a.gif","images/stimuli/spore_stims/simple_19_A_b.gif","forced_short","","10","simple_dissimilar","images/stimuli/spore_stims/simple_19_A_b.gif","","","","",""
"","null","html-keyboard-response","131","433518","0.0-29.0-0.2","SS1619739808620","","","null","","","","","","<p><img src= images/blank.png width =""600"" height = ""600"" style=""position:fixed;top:50%; left:50%; transform: translate(-50%, -50%); border:5px solid black"">","","","","","","","",""
"","1738.81499999878","sequential-stimulus-presentation-old","132","435763","0.0-29.0-1.2","SS1619739808620","trial","","40","500","2238.81499999878","images/stimuli/spore_stims/simple_14_A_a.gif","images/stimuli/spore_stims/simple_19_A_b.gif","forced_short","","10","simple_dissimilar","images/stimuli/spore_stims/simple_19_A_b.gif","","","","",""
"","null","html-keyboard-response","133","436720","0.0-29.0-0.3","SS1619739808620","","","null","","","","","","<p><img src= images/blank.png width =""600"" height = ""600"" style=""position:fixed;top:50%; left:50%; transform: translate(-50%, -50%); border:5px solid black"">","","","","","","","",""
"","1341.6550000002026","sequential-stimulus-presentation-old","134","438567","0.0-29.0-1.3","SS1619739808620","trial","","40","500","1841.6550000002026","images/stimuli/spore_stims/simple_14_A_a.gif","images/stimuli/spore_stims/simple_19_A_b.gif","forced_short","","10","simple_dissimilar","images/stimuli/spore_stims/simple_19_A_b.gif","","","","",""
"","7839.529999999329","survey-multi-choice","135","446409","0.0-30.0","SS1619739808620","math_question","","","","","","","","","","","","{""Q0"":""15""}","[0]","15","",""
"","null","html-keyboard-response","136","447284","0.0-31.0-0.0","SS1619739808620","","","null","","","","","","<p><img src= images/blank.png width =""600"" height = ""600"" style=""position:fixed;top:50%; left:50%; transform: translate(-50%, -50%); border:5px solid black"">","","","","","","","",""
"","3649.3399999999674","sequential-stimulus-presentation-old","137","451442","0.0-31.0-1.0","SS1619739808620","trial","","40","500","4149.339999999967","images/stimuli/spore_stims/complex_06_A_b.gif","images/stimuli/spore_stims/complex_13_A_a.gif","self_paced","","11","complex_dissimilar","images/stimuli/spore_stims/complex_13_A_a.gif","","","","",""
"","null","html-keyboard-response","138","452411","0.0-31.0-0.1","SS1619739808620","","","null","","","","","","<p><img src= images/blank.png width =""600"" height = ""600"" style=""position:fixed;top:50%; left:50%; transform: translate(-50%, -50%); border:5px solid black"">","","","","","","","",""
"","2990.755000000703","sequential-stimulus-presentation-old","139","455907","0.0-31.0-1.1","SS1619739808620","trial","","40","500","3490.755000000703","images/stimuli/spore_stims/complex_06_A_b.gif","images/stimuli/spore_stims/complex_13_A_a.gif","self_paced","","11","complex_dissimilar","images/stimuli/spore_stims/complex_06_A_b.gif","","","","",""
"","null","html-keyboard-response","140","457203","0.0-31.0-0.2","SS1619739808620","","","null","","","","","","<p><img src= images/blank.png width =""600"" height = ""600"" style=""position:fixed;top:50%; left:50%; transform: translate(-50%, -50%); border:5px solid black"">","","","","","","","",""
"","1719.4149999995716","sequential-stimulus-presentation-old","141","459434","0.0-31.0-1.2","SS1619739808620","trial","","40","500","2219.4149999995716","images/stimuli/spore_stims/complex_06_A_b.gif","images/stimuli/spore_stims/complex_13_A_a.gif","self_paced","","11","complex_dissimilar","images/stimuli/spore_stims/complex_13_A_a.gif","","","","",""
"","null","html-keyboard-response","142","460697","0.0-31.0-0.3","SS1619739808620","","","null","","","","","","<p><img src= images/blank.png width =""600"" height = ""600"" style=""position:fixed;top:50%; left:50%; transform: translate(-50%, -50%); border:5px solid black"">","","","","","","","",""
"","770.6049999996903","sequential-stimulus-presentation-old","143","461973","0.0-31.0-1.3","SS1619739808620","trial","","40","500","1270.6049999996903","images/stimuli/spore_stims/complex_06_A_b.gif","images/stimuli/spore_stims/complex_13_A_a.gif","self_paced","","11","complex_dissimilar","images/stimuli/spore_stims/complex_06_A_b.gif","","","","",""
"","null","html-keyboard-response","144","463248","0.0-31.0-0.4","SS1619739808620","","","null","","","","","","<p><img src= images/blank.png width =""600"" height = ""600"" style=""position:fixed;top:50%; left:50%; transform: translate(-50%, -50%); border:5px solid black"">","","","","","","","",""
"","881.62999999983","sequential-stimulus-presentation-old","145","464634","0.0-31.0-1.4","SS1619739808620","trial","","40","500","1381.62999999983","images/stimuli/spore_stims/complex_06_A_b.gif","images/stimuli/spore_stims/complex_13_A_a.gif","self_paced","","11","complex_dissimilar","images/stimuli/spore_stims/complex_13_A_a.gif","","","","",""
"[{""page_index"":0,""viewing_time"":17115.55499999848}]","17115.84499999846","instructions","146","481752","0.0-32.0","SS1619739808620","instructions","","","","","","","","","","","","","","","",""
"","8871.859999999288","survey-likert","147","490629","0.0-33.0","SS1619739808620","similarity_question","","","","","","","","","","","","{""Q0"":4}","[0]","","images/stimuli/spore_stims/complex_15_A_b.gif","images/stimuli/spore_stims/complex_09_A_a.gif"
"","13100.834999999264","survey-likert","148","503738","0.0-34.0","SS1619739808620","similarity_question","","","","","","","","","","","","{""Q0"":2}","[0]","","images/stimuli/spore_stims/complex_06_A_a.gif","images/stimuli/spore_stims/complex_18_A_b.gif"
"","5403.399999999267","survey-likert","149","509149","0.0-35.0","SS1619739808620","similarity_question","","","","","","","","","","","","{""Q0"":4}","[0]","","images/stimuli/spore_stims/complex_06_A_b.gif","images/stimuli/spore_stims/complex_13_A_a.gif"
"","3985.724999998638","survey-likert","150","513142","0.0-36.0","SS1619739808620","similarity_question","","","","","","","","","","","","{""Q0"":5}","[0]","","images/stimuli/spore_stims/simple_03_A_b.gif","images/stimuli/spore_stims/simple_20_A_a.gif"
"","2809.4949999995297","survey-likert","151","515959","0.0-37.0","SS1619739808620","similarity_question","","","","","","","","","","","","{""Q0"":6}","[0]","","images/stimuli/spore_stims/simple_15_A_b.gif","images/stimuli/spore_stims/simple_09_A_a.gif"
"","2752.6799999995856","survey-likert","152","518719","0.0-38.0","SS1619739808620","similarity_question","","","","","","","","","","","","{""Q0"":5}","[0]","","images/stimuli/spore_stims/simple_14_A_b.gif","images/stimuli/spore_stims/simple_18_A_a.gif"
"","2770.0499999991152","survey-likert","153","521496","0.0-39.0","SS1619739808620","similarity_question","","","","","","","","","","","","{""Q0"":5}","[0]","","images/stimuli/spore_stims/simple_17_A_a.gif","images/stimuli/spore_stims/simple_09_A_b.gif"
"","5878.630000001052","survey-likert","154","527382","0.0-40.0","SS1619739808620","similarity_question","","","","","","","","","","","","{""Q0"":1}","[0]","","images/stimuli/spore_stims/complex_16_A_b.gif","images/stimuli/spore_stims/complex_07_A_a.gif"
"","5591.545000001206","survey-likert","155","532980","0.0-41.0","SS1619739808620","similarity_question","","","","","","","","","","","","{""Q0"":5}","[0]","","images/stimuli/spore_stims/simple_11_A_a.gif","images/stimuli/spore_stims/simple_10_A_b.gif"
"","4445.705000000191","survey-likert","156","537434","0.0-42.0","SS1619739808620","similarity_question","","","","","","","","","","","","{""Q0"":0}","[0]","","images/stimuli/spore_stims/complex_03_A_a.gif","images/stimuli/spore_stims/complex_09_A_b.gif"
"","3892.239999999292","survey-likert","157","541334","0.0-43.0","SS1619739808620","similarity_question","","","","","","","","","","","","{""Q0"":6}","[0]","","images/stimuli/spore_stims/simple_19_A_b.gif","images/stimuli/spore_stims/simple_14_A_a.gif"
"","4080.1700000010896","survey-likert","158","545422","0.0-44.0","SS1619739808620","similarity_question","","","","","","","","","","","","{""Q0"":0}","[0]","","images/stimuli/spore_stims/complex_12_A_b.gif","images/stimuli/spore_stims/complex_15_A_a.gif"
"[{""page_index"":0,""viewing_time"":5357.614999999059}]","5357.90499999898","instructions","159","550787","0.0-45.0","SS1619739808620","instructions","","","","","","","","","","","","","","","",""
"","6779.730000000214","survey-likert","160","557570","0.0-46.0","SS1619739808620","","","","","","","","","images/stimuli/spore_stims/simple_18_A_a.gif","","","","{""Q0"":1}","[0]","","",""
"","2639.8899999985006","survey-likert","161","560218","0.0-47.0","SS1619739808620","","","","","","","","","images/stimuli/spore_stims/simple_09_A_b.gif","","","","{""Q0"":0}","[0]","","",""
"","2414.784999998985","survey-likert","162","562640","0.0-48.0","SS1619739808620","","","","","","","","","images/stimuli/spore_stims/simple_15_A_b.gif","","","","{""Q0"":0}","[0]","","",""
"","4197.594999999623","survey-likert","163","566846","0.0-49.0","SS1619739808620","","","","","","","","","images/stimuli/spore_stims/complex_09_A_b.gif","","","","{""Q0"":5}","[0]","","",""
"","5574.329999999376","survey-likert","164","572428","0.0-50.0","SS1619739808620","","","","","","","","","images/stimuli/spore_stims/complex_15_A_a.gif","","","","{""Q0"":6}","[0]","","",""
"","3224.520000001532","survey-likert","165","575661","0.0-51.0","SS1619739808620","","","","","","","","","images/stimuli/spore_stims/complex_09_A_a.gif","","","","{""Q0"":5}","[0]","","",""
"","3067.310000000405","survey-likert","166","578736","0.0-52.0","SS1619739808620","","","","","","","","","images/stimuli/spore_stims/simple_20_A_a.gif","","","","{""Q0"":1}","[0]","","",""
"","2828.4700000004377","survey-likert","167","581572","0.0-53.0","SS1619739808620","","","","","","","","","images/stimuli/spore_stims/simple_19_A_b.gif","","","","{""Q0"":1}","[0]","","",""
"","4327.600000000442","survey-likert","168","585907","0.0-54.0","SS1619739808620","","","","","","","","","images/stimuli/spore_stims/complex_06_A_b.gif","","","","{""Q0"":6}","[0]","","",""
"","3126.9050000009593","survey-likert","169","589043","0.0-55.0","SS1619739808620","","","","","","","","","images/stimuli/spore_stims/complex_07_A_a.gif","","","","{""Q0"":6}","[0]","","",""
"","2991.7050000003073","survey-likert","170","592042","0.0-56.0","SS1619739808620","","","","","","","","","images/stimuli/spore_stims/complex_06_A_a.gif","","","","{""Q0"":6}","[0]","","",""
"","2895.9049999993294","survey-likert","171","594945","0.0-57.0","SS1619739808620","","","","","","","","","images/stimuli/spore_stims/simple_10_A_b.gif","","","","{""Q0"":0}","[0]","","",""
"[{""page_index"":0,""viewing_time"":2233.595000001602}]","2233.8850000015227","instructions","172","597186","0.0-58.0","SS1619739808620","instructions","","","","","","","","","","","","","","","",""
"","3236.5000000009313","demog-age","173","600429","0.0-59.0","SS1619739808620","","","","","","","","","","","","","{""age"":""24""}","","","",""
"","4896.365000000573","demog-ethnic-US","174","605333","0.0-60.0","SS1619739808620","","","","","","","","","","","","","{""ethnicity"":[""White""]}","[0]","","",""
"","13031.745000000228","demog-gender-and-education","175","618373","0.0-61.0","SS1619739808620","","","","","","","","","","","","","{""gender"":""Female"",""education"":""Bachelor's Degree""}","[0,1]","","",""
"","24767.345000000205","survey-text","176","643150","0.0-62.0","SS1619739808620","feedback","","","","","","","","","","","","{""Q0"":""No, everything was fine""}","","","",""
"[{""page_index"":0,""viewing_time"":1396.8699999987148}]","1397.1599999986356","instructions","177","644551","0.0-63.0","SS1619739808620","instructions","","","","","","","","","","","","","","","",""
