"view_history","rt","trial_type","trial_index","time_elapsed","internal_node_id","subject","stimulus_type","trial_stimulus","key_press","minimum_viewing_duration","trial_looking_time","block_deviant","block_background","exposure_type","stimulus","block_number","block_type","stimulus_displayed","responses","question_order","math_correct_answer","stimulus_left","stimulus_right"
"[{""page_index"":0,""viewing_time"":14591.30500000174}]","14591.930000002321","instructions","0","14593","0.0-0.0","SS1619739843464","","","","","","","","","","","","","","","","",""
"[{""page_index"":0,""viewing_time"":23087.800000001153},{""page_index"":1,""viewing_time"":13015.455000000657}]","36103.49000000133","instructions","1","52704","0.0-1.0","SS1619739843464","instructions","","","","","","","","","","","","","","","",""
"","14473.120000002382","sequential-stimulus-presentation-old","2","67687","0.0-2.0","SS1619739843464","","","40","500","14973.120000002382","null","null","self_paced","","","","","","","","",""
"","7841.569999996864","sequential-stimulus-presentation-old","3","76042","0.0-3.0","SS1619739843464","","","40","500","8341.569999996864","null","null","self_paced","","","","","","","","",""
"[{""page_index"":0,""viewing_time"":24809.22499999724}]","24809.535000000324","instructions","4","100853","0.0-4.0","SS1619739843464","instructions","","","","","","","","","","","","","","","",""
"","812.7600000007078","sequential-stimulus-presentation-old","5","116674","0.0-5.0","SS1619739843464","","","40","500","1312.7600000007078","null","null","forced_long","","","","","","","","",""
"","3958.9900000064517","sequential-stimulus-presentation-old","6","121135","0.0-6.0","SS1619739843464","","","40","500","4458.990000006452","null","null","forced_long","","","","","","","","",""
"[{""page_index"":0,""viewing_time"":4517.87499999773}]","4518.10999999725","instructions","7","125654","0.0-7.0","SS1619739843464","instructions","","","","","","","","","","","","","","","",""
"[{""page_index"":0,""viewing_time"":14934.399999998277},{""page_index"":1,""viewing_time"":14641.544999998587},{""page_index"":2,""viewing_time"":10747.775000003458},{""page_index"":3,""viewing_time"":2851.9949999972596},{""page_index"":4,""viewing_time"":3123.8799999991897}]","46299.82999999629","instructions","8","171955","0.0-8.0","SS1619739843464","instructions","","","","","","","","","","","","","","","",""
"","null","html-keyboard-response","9","173183","0.0-9.0-0.0","SS1619739843464","","","null","","","","","","<p><img src= images/blank.png width =""600"" height = ""600"" style=""position:fixed;top:50%; left:50%; transform: translate(-50%, -50%); border:5px solid black"">","","","","","","","",""
"","2125.735000001441","sequential-stimulus-presentation-old","10","175812","0.0-9.0-1.0","SS1619739843464","trial","","40","500","2625.735000001441","images/stimuli/spore_stims/simple_10_A_b.gif","images/stimuli/spore_stims/simple_11_A_a.gif","forced_short","","0","simple_dissimilar","images/stimuli/spore_stims/simple_11_A_a.gif","","","","",""
"","null","html-keyboard-response","11","176957","0.0-9.0-0.1","SS1619739843464","","","null","","","","","","<p><img src= images/blank.png width =""600"" height = ""600"" style=""position:fixed;top:50%; left:50%; transform: translate(-50%, -50%); border:5px solid black"">","","","","","","","",""
"","40392.42500000546","sequential-stimulus-presentation-old","12","217865","0.0-9.0-1.1","SS1619739843464","trial","","40","500","40892.42500000546","images/stimuli/spore_stims/simple_10_A_b.gif","images/stimuli/spore_stims/simple_11_A_a.gif","forced_short","","0","simple_dissimilar","images/stimuli/spore_stims/simple_11_A_a.gif","","","","",""
"","null","html-keyboard-response","13","219041","0.0-9.0-0.2","SS1619739843464","","","null","","","","","","<p><img src= images/blank.png width =""600"" height = ""600"" style=""position:fixed;top:50%; left:50%; transform: translate(-50%, -50%); border:5px solid black"">","","","","","","","",""
"","17011.689999999362","sequential-stimulus-presentation-old","14","236568","0.0-9.0-1.2","SS1619739843464","trial","","40","500","17511.689999999362","images/stimuli/spore_stims/simple_10_A_b.gif","images/stimuli/spore_stims/simple_11_A_a.gif","forced_short","","0","simple_dissimilar","images/stimuli/spore_stims/simple_11_A_a.gif","","","","",""
"","null","html-keyboard-response","15","237407","0.0-9.0-0.3","SS1619739843464","","","null","","","","","","<p><img src= images/blank.png width =""600"" height = ""600"" style=""position:fixed;top:50%; left:50%; transform: translate(-50%, -50%); border:5px solid black"">","","","","","","","",""
"","9066.149999998743","sequential-stimulus-presentation-old","16","246989","0.0-9.0-1.3","SS1619739843464","trial","","40","500","9566.149999998743","images/stimuli/spore_stims/simple_10_A_b.gif","images/stimuli/spore_stims/simple_11_A_a.gif","forced_short","","0","simple_dissimilar","images/stimuli/spore_stims/simple_11_A_a.gif","","","","",""
"","null","html-keyboard-response","17","248188","0.0-9.0-0.4","SS1619739843464","","","null","","","","","","<p><img src= images/blank.png width =""600"" height = ""600"" style=""position:fixed;top:50%; left:50%; transform: translate(-50%, -50%); border:5px solid black"">","","","","","","","",""
"","8583.624999999302","sequential-stimulus-presentation-old","18","257275","0.0-9.0-1.4","SS1619739843464","trial","","40","500","9083.624999999302","images/stimuli/spore_stims/simple_10_A_b.gif","images/stimuli/spore_stims/simple_11_A_a.gif","forced_short","","0","simple_dissimilar","images/stimuli/spore_stims/simple_10_A_b.gif","","","","",""
"","null","html-keyboard-response","19","258085","0.0-9.0-0.5","SS1619739843464","","","null","","","","","","<p><img src= images/blank.png width =""600"" height = ""600"" style=""position:fixed;top:50%; left:50%; transform: translate(-50%, -50%); border:5px solid black"">","","","","","","","",""
"","10196.640000001935","sequential-stimulus-presentation-old","20","268785","0.0-9.0-1.5","SS1619739843464","trial","","40","500","10696.640000001935","images/stimuli/spore_stims/simple_10_A_b.gif","images/stimuli/spore_stims/simple_11_A_a.gif","forced_short","","0","simple_dissimilar","images/stimuli/spore_stims/simple_11_A_a.gif","","","","",""
"","3890.8449999944423","survey-multi-choice","21","272678","0.0-10.0","SS1619739843464","math_question","","","","","","","","","","","","{""Q0"":""7""}","[0]","7","",""
"","null","html-keyboard-response","22","273607","0.0-11.0-0.0","SS1619739843464","","","null","","","","","","<p><img src= images/blank.png width =""600"" height = ""600"" style=""position:fixed;top:50%; left:50%; transform: translate(-50%, -50%); border:5px solid black"">","","","","","","","",""
"","6084.510000000591","sequential-stimulus-presentation-old","23","280201","0.0-11.0-1.0","SS1619739843464","trial","","40","500","6584.510000000591","images/stimuli/spore_stims/complex_20_A_a.gif","images/stimuli/spore_stims/complex_02_A_b.gif","self_paced","","1","complex_dissimilar","images/stimuli/spore_stims/complex_02_A_b.gif","","","","",""
"","null","html-keyboard-response","24","281249","0.0-11.0-0.1","SS1619739843464","","","null","","","","","","<p><img src= images/blank.png width =""600"" height = ""600"" style=""position:fixed;top:50%; left:50%; transform: translate(-50%, -50%); border:5px solid black"">","","","","","","","",""
"","8795.839999998861","sequential-stimulus-presentation-old","25","290549","0.0-11.0-1.1","SS1619739843464","trial","","40","500","9295.839999998861","images/stimuli/spore_stims/complex_20_A_a.gif","images/stimuli/spore_stims/complex_02_A_b.gif","self_paced","","1","complex_dissimilar","images/stimuli/spore_stims/complex_02_A_b.gif","","","","",""
"","null","html-keyboard-response","26","291838","0.0-11.0-0.2","SS1619739843464","","","null","","","","","","<p><img src= images/blank.png width =""600"" height = ""600"" style=""position:fixed;top:50%; left:50%; transform: translate(-50%, -50%); border:5px solid black"">","","","","","","","",""
"","9155.115000001388","sequential-stimulus-presentation-old","27","301495","0.0-11.0-1.2","SS1619739843464","trial","","40","500","9655.115000001388","images/stimuli/spore_stims/complex_20_A_a.gif","images/stimuli/spore_stims/complex_02_A_b.gif","self_paced","","1","complex_dissimilar","images/stimuli/spore_stims/complex_20_A_a.gif","","","","",""
"","null","html-keyboard-response","28","302805","0.0-11.0-0.3","SS1619739843464","","","null","","","","","","<p><img src= images/blank.png width =""600"" height = ""600"" style=""position:fixed;top:50%; left:50%; transform: translate(-50%, -50%); border:5px solid black"">","","","","","","","",""
"","8618.244999997842","sequential-stimulus-presentation-old","29","311927","0.0-11.0-1.3","SS1619739843464","trial","","40","500","9118.244999997842","images/stimuli/spore_stims/complex_20_A_a.gif","images/stimuli/spore_stims/complex_02_A_b.gif","self_paced","","1","complex_dissimilar","images/stimuli/spore_stims/complex_02_A_b.gif","","","","",""
"","null","html-keyboard-response","30","312857","0.0-11.0-0.4","SS1619739843464","","","null","","","","","","<p><img src= images/blank.png width =""600"" height = ""600"" style=""position:fixed;top:50%; left:50%; transform: translate(-50%, -50%); border:5px solid black"">","","","","","","","",""
"","8439.319999997679","sequential-stimulus-presentation-old","31","321806","0.0-11.0-1.4","SS1619739843464","trial","","40","500","8939.319999997679","images/stimuli/spore_stims/complex_20_A_a.gif","images/stimuli/spore_stims/complex_02_A_b.gif","self_paced","","1","complex_dissimilar","images/stimuli/spore_stims/complex_02_A_b.gif","","","","",""
"","null","html-keyboard-response","32","323047","0.0-11.0-0.5","SS1619739843464","","","null","","","","","","<p><img src= images/blank.png width =""600"" height = ""600"" style=""position:fixed;top:50%; left:50%; transform: translate(-50%, -50%); border:5px solid black"">","","","","","","","",""
"","11068.45500000054","sequential-stimulus-presentation-old","33","334633","0.0-11.0-1.5","SS1619739843464","trial","","40","500","11568.45500000054","images/stimuli/spore_stims/complex_20_A_a.gif","images/stimuli/spore_stims/complex_02_A_b.gif","self_paced","","1","complex_dissimilar","images/stimuli/spore_stims/complex_02_A_b.gif","","","","",""
"","2653.859999998531","survey-multi-choice","34","337288","0.0-12.0","SS1619739843464","math_question","","","","","","","","","","","","{""Q0"":""12""}","[0]","12","",""
"","null","html-keyboard-response","35","338211","0.0-13.0-0.0","SS1619739843464","","","null","","","","","","<p><img src= images/blank.png width =""600"" height = ""600"" style=""position:fixed;top:50%; left:50%; transform: translate(-50%, -50%); border:5px solid black"">","","","","","","","",""
"","10756.644999994023","sequential-stimulus-presentation-old","36","349478","0.0-13.0-1.0","SS1619739843464","trial","","40","500","11256.644999994023","images/stimuli/spore_stims/complex_19_A_a.gif","images/stimuli/spore_stims/complex_08_A_b.gif","self_paced","","2","complex_dissimilar","images/stimuli/spore_stims/complex_08_A_b.gif","","","","",""
"","null","html-keyboard-response","37","350675","0.0-13.0-0.1","SS1619739843464","","","null","","","","","","<p><img src= images/blank.png width =""600"" height = ""600"" style=""position:fixed;top:50%; left:50%; transform: translate(-50%, -50%); border:5px solid black"">","","","","","","","",""
"","9111.364999997022","sequential-stimulus-presentation-old","38","360294","0.0-13.0-1.1","SS1619739843464","trial","","40","500","9611.364999997022","images/stimuli/spore_stims/complex_19_A_a.gif","images/stimuli/spore_stims/complex_08_A_b.gif","self_paced","","2","complex_dissimilar","images/stimuli/spore_stims/complex_08_A_b.gif","","","","",""
"","null","html-keyboard-response","39","361372","0.0-13.0-0.2","SS1619739843464","","","null","","","","","","<p><img src= images/blank.png width =""600"" height = ""600"" style=""position:fixed;top:50%; left:50%; transform: translate(-50%, -50%); border:5px solid black"">","","","","","","","",""
"","8406.434999997145","sequential-stimulus-presentation-old","40","370288","0.0-13.0-1.2","SS1619739843464","trial","","40","500","8906.434999997145","images/stimuli/spore_stims/complex_19_A_a.gif","images/stimuli/spore_stims/complex_08_A_b.gif","self_paced","","2","complex_dissimilar","images/stimuli/spore_stims/complex_08_A_b.gif","","","","",""
"","null","html-keyboard-response","41","371225","0.0-13.0-0.3","SS1619739843464","","","null","","","","","","<p><img src= images/blank.png width =""600"" height = ""600"" style=""position:fixed;top:50%; left:50%; transform: translate(-50%, -50%); border:5px solid black"">","","","","","","","",""
"","8696.309999999357","sequential-stimulus-presentation-old","42","380439","0.0-13.0-1.3","SS1619739843464","trial","","40","500","9196.309999999357","images/stimuli/spore_stims/complex_19_A_a.gif","images/stimuli/spore_stims/complex_08_A_b.gif","self_paced","","2","complex_dissimilar","images/stimuli/spore_stims/complex_08_A_b.gif","","","","",""
"","null","html-keyboard-response","43","381578","0.0-13.0-0.4","SS1619739843464","","","null","","","","","","<p><img src= images/blank.png width =""600"" height = ""600"" style=""position:fixed;top:50%; left:50%; transform: translate(-50%, -50%); border:5px solid black"">","","","","","","","",""
"","8056.260000004841","sequential-stimulus-presentation-old","44","390139","0.0-13.0-1.4","SS1619739843464","trial","","40","500","8556.26000000484","images/stimuli/spore_stims/complex_19_A_a.gif","images/stimuli/spore_stims/complex_08_A_b.gif","self_paced","","2","complex_dissimilar","images/stimuli/spore_stims/complex_08_A_b.gif","","","","",""
"","3544.645000001765","survey-multi-choice","45","393685","0.0-14.0","SS1619739843464","math_question","","","","","","","","","","","","{""Q0"":""13""}","[0]","13","",""
"","null","html-keyboard-response","46","394628","0.0-15.0-0.0","SS1619739843464","","","null","","","","","","<p><img src= images/blank.png width =""600"" height = ""600"" style=""position:fixed;top:50%; left:50%; transform: translate(-50%, -50%); border:5px solid black"">","","","","","","","",""
"","1831.2500000029104","sequential-stimulus-presentation-old","47","396962","0.0-15.0-1.0","SS1619739843464","trial","","40","500","2331.2500000029104","images/stimuli/spore_stims/complex_12_A_a.gif","images/stimuli/spore_stims/complex_10_A_b.gif","forced_short","","3","complex_dissimilar","images/stimuli/spore_stims/complex_10_A_b.gif","","","","",""
"","null","html-keyboard-response","48","398159","0.0-15.0-0.1","SS1619739843464","","","null","","","","","","<p><img src= images/blank.png width =""600"" height = ""600"" style=""position:fixed;top:50%; left:50%; transform: translate(-50%, -50%); border:5px solid black"">","","","","","","","",""
"","14258.065000001807","sequential-stimulus-presentation-old","49","412919","0.0-15.0-1.1","SS1619739843464","trial","","40","500","14758.065000001807","images/stimuli/spore_stims/complex_12_A_a.gif","images/stimuli/spore_stims/complex_10_A_b.gif","forced_short","","3","complex_dissimilar","images/stimuli/spore_stims/complex_10_A_b.gif","","","","",""
"","null","html-keyboard-response","50","414086","0.0-15.0-0.2","SS1619739843464","","","null","","","","","","<p><img src= images/blank.png width =""600"" height = ""600"" style=""position:fixed;top:50%; left:50%; transform: translate(-50%, -50%); border:5px solid black"">","","","","","","","",""
"","11629.025000002002","sequential-stimulus-presentation-old","51","426232","0.0-15.0-1.2","SS1619739843464","trial","","40","500","12129.025000002002","images/stimuli/spore_stims/complex_12_A_a.gif","images/stimuli/spore_stims/complex_10_A_b.gif","forced_short","","3","complex_dissimilar","images/stimuli/spore_stims/complex_10_A_b.gif","","","","",""
"","null","html-keyboard-response","52","427219","0.0-15.0-0.3","SS1619739843464","","","null","","","","","","<p><img src= images/blank.png width =""600"" height = ""600"" style=""position:fixed;top:50%; left:50%; transform: translate(-50%, -50%); border:5px solid black"">","","","","","","","",""
"","6926.74000000261","sequential-stimulus-presentation-old","53","434661","0.0-15.0-1.3","SS1619739843464","trial","","40","500","7426.74000000261","images/stimuli/spore_stims/complex_12_A_a.gif","images/stimuli/spore_stims/complex_10_A_b.gif","forced_short","","3","complex_dissimilar","images/stimuli/spore_stims/complex_10_A_b.gif","","","","",""
"","null","html-keyboard-response","54","435756","0.0-15.0-0.4","SS1619739843464","","","null","","","","","","<p><img src= images/blank.png width =""600"" height = ""600"" style=""position:fixed;top:50%; left:50%; transform: translate(-50%, -50%); border:5px solid black"">","","","","","","","",""
"","13155.655000002298","sequential-stimulus-presentation-old","55","449415","0.0-15.0-1.4","SS1619739843464","trial","","40","500","13655.655000002298","images/stimuli/spore_stims/complex_12_A_a.gif","images/stimuli/spore_stims/complex_10_A_b.gif","forced_short","","3","complex_dissimilar","images/stimuli/spore_stims/complex_12_A_a.gif","","","","",""
"","4102.319999998144","survey-multi-choice","56","453519","0.0-16.0","SS1619739843464","math_question","","","","","","","","","","","","{""Q0"":""8""}","[0]","8","",""
"","null","html-keyboard-response","57","454815","0.0-17.0-0.0","SS1619739843464","","","null","","","","","","<p><img src= images/blank.png width =""600"" height = ""600"" style=""position:fixed;top:50%; left:50%; transform: translate(-50%, -50%); border:5px solid black"">","","","","","","","",""
"","639.8049999988871","sequential-stimulus-presentation-old","58","470460","0.0-17.0-1.0","SS1619739843464","trial","","40","500","1139.804999998887","images/stimuli/spore_stims/simple_17_A_b.gif","images/stimuli/spore_stims/simple_08_A_a.gif","forced_long","","4","simple_dissimilar","images/stimuli/spore_stims/simple_08_A_a.gif","","","","",""
"","null","html-keyboard-response","59","471596","0.0-17.0-0.1","SS1619739843464","","","null","","","","","","<p><img src= images/blank.png width =""600"" height = ""600"" style=""position:fixed;top:50%; left:50%; transform: translate(-50%, -50%); border:5px solid black"">","","","","","","","",""
"","5796.329999997397","sequential-stimulus-presentation-old","60","477895","0.0-17.0-1.1","SS1619739843464","trial","","40","500","6296.329999997397","images/stimuli/spore_stims/simple_17_A_b.gif","images/stimuli/spore_stims/simple_08_A_a.gif","forced_long","","4","simple_dissimilar","images/stimuli/spore_stims/simple_08_A_a.gif","","","","",""
"","null","html-keyboard-response","61","479163","0.0-17.0-0.2","SS1619739843464","","","null","","","","","","<p><img src= images/blank.png width =""600"" height = ""600"" style=""position:fixed;top:50%; left:50%; transform: translate(-50%, -50%); border:5px solid black"">","","","","","","","",""
"","8719.60499999841","sequential-stimulus-presentation-old","62","488389","0.0-17.0-1.2","SS1619739843464","trial","","40","500","9219.60499999841","images/stimuli/spore_stims/simple_17_A_b.gif","images/stimuli/spore_stims/simple_08_A_a.gif","forced_long","","4","simple_dissimilar","images/stimuli/spore_stims/simple_08_A_a.gif","","","","",""
"","null","html-keyboard-response","63","489247","0.0-17.0-0.3","SS1619739843464","","","null","","","","","","<p><img src= images/blank.png width =""600"" height = ""600"" style=""position:fixed;top:50%; left:50%; transform: translate(-50%, -50%); border:5px solid black"">","","","","","","","",""
"","9401.489999996556","sequential-stimulus-presentation-old","64","499165","0.0-17.0-1.3","SS1619739843464","trial","","40","500","9901.489999996556","images/stimuli/spore_stims/simple_17_A_b.gif","images/stimuli/spore_stims/simple_08_A_a.gif","forced_long","","4","simple_dissimilar","images/stimuli/spore_stims/simple_08_A_a.gif","","","","",""
"","null","html-keyboard-response","65","500119","0.0-17.0-0.4","SS1619739843464","","","null","","","","","","<p><img src= images/blank.png width =""600"" height = ""600"" style=""position:fixed;top:50%; left:50%; transform: translate(-50%, -50%); border:5px solid black"">","","","","","","","",""
"","7966.160000003583","sequential-stimulus-presentation-old","66","508590","0.0-17.0-1.4","SS1619739843464","trial","","40","500","8466.160000003583","images/stimuli/spore_stims/simple_17_A_b.gif","images/stimuli/spore_stims/simple_08_A_a.gif","forced_long","","4","simple_dissimilar","images/stimuli/spore_stims/simple_08_A_a.gif","","","","",""
"","3316.4600000018254","survey-multi-choice","67","511908","0.0-18.0","SS1619739843464","math_question","","","","","","","","","","","","{""Q0"":""7""}","[0]","7","",""
"","null","html-keyboard-response","68","513172","0.0-19.0-0.0","SS1619739843464","","","null","","","","","","<p><img src= images/blank.png width =""600"" height = ""600"" style=""position:fixed;top:50%; left:50%; transform: translate(-50%, -50%); border:5px solid black"">","","","","","","","",""
"","740.7450000027893","sequential-stimulus-presentation-old","69","528922","0.0-19.0-1.0","SS1619739843464","trial","","40","500","1240.7450000027893","images/stimuli/spore_stims/complex_11_A_a.gif","images/stimuli/spore_stims/complex_13_A_b.gif","forced_long","","5","complex_dissimilar","images/stimuli/spore_stims/complex_13_A_b.gif","","","","",""
"","null","html-keyboard-response","70","530164","0.0-19.0-0.1","SS1619739843464","","","null","","","","","","<p><img src= images/blank.png width =""600"" height = ""600"" style=""position:fixed;top:50%; left:50%; transform: translate(-50%, -50%); border:5px solid black"">","","","","","","","",""
"","9628.625000004773","sequential-stimulus-presentation-old","71","540306","0.0-19.0-1.1","SS1619739843464","trial","","40","500","10128.625000004773","images/stimuli/spore_stims/complex_11_A_a.gif","images/stimuli/spore_stims/complex_13_A_b.gif","forced_long","","5","complex_dissimilar","images/stimuli/spore_stims/complex_11_A_a.gif","","","","",""
"","null","html-keyboard-response","72","541327","0.0-19.0-0.2","SS1619739843464","","","null","","","","","","<p><img src= images/blank.png width =""600"" height = ""600"" style=""position:fixed;top:50%; left:50%; transform: translate(-50%, -50%); border:5px solid black"">","","","","","","","",""
"","8377.059999998892","sequential-stimulus-presentation-old","73","550222","0.0-19.0-1.2","SS1619739843464","trial","","40","500","8877.059999998892","images/stimuli/spore_stims/complex_11_A_a.gif","images/stimuli/spore_stims/complex_13_A_b.gif","forced_long","","5","complex_dissimilar","images/stimuli/spore_stims/complex_13_A_b.gif","","","","",""
"","null","html-keyboard-response","74","551491","0.0-19.0-0.3","SS1619739843464","","","null","","","","","","<p><img src= images/blank.png width =""600"" height = ""600"" style=""position:fixed;top:50%; left:50%; transform: translate(-50%, -50%); border:5px solid black"">","","","","","","","",""
"","8182.694999995874","sequential-stimulus-presentation-old","75","560192","0.0-19.0-1.3","SS1619739843464","trial","","40","500","8682.694999995874","images/stimuli/spore_stims/complex_11_A_a.gif","images/stimuli/spore_stims/complex_13_A_b.gif","forced_long","","5","complex_dissimilar","images/stimuli/spore_stims/complex_13_A_b.gif","","","","",""
"","null","html-keyboard-response","76","561204","0.0-19.0-0.4","SS1619739843464","","","null","","","","","","<p><img src= images/blank.png width =""600"" height = ""600"" style=""position:fixed;top:50%; left:50%; transform: translate(-50%, -50%); border:5px solid black"">","","","","","","","",""
"","7795.05999999668","sequential-stimulus-presentation-old","77","569513","0.0-19.0-1.4","SS1619739843464","trial","","40","500","8295.05999999668","images/stimuli/spore_stims/complex_11_A_a.gif","images/stimuli/spore_stims/complex_13_A_b.gif","forced_long","","5","complex_dissimilar","images/stimuli/spore_stims/complex_11_A_a.gif","","","","",""
"","null","html-keyboard-response","78","570392","0.0-19.0-0.5","SS1619739843464","","","null","","","","","","<p><img src= images/blank.png width =""600"" height = ""600"" style=""position:fixed;top:50%; left:50%; transform: translate(-50%, -50%); border:5px solid black"">","","","","","","","",""
"","9704.304999999353","sequential-stimulus-presentation-old","79","580600","0.0-19.0-1.5","SS1619739843464","trial","","40","500","10204.304999999353","images/stimuli/spore_stims/complex_11_A_a.gif","images/stimuli/spore_stims/complex_13_A_b.gif","forced_long","","5","complex_dissimilar","images/stimuli/spore_stims/complex_13_A_b.gif","","","","",""
"","2724.17999999749","survey-multi-choice","80","583326","0.0-20.0","SS1619739843464","math_question","","","","","","","","","","","","{""Q0"":""6""}","[0]","6","",""
"","null","html-keyboard-response","81","584198","0.0-21.0-0.0","SS1619739843464","","","null","","","","","","<p><img src= images/blank.png width =""600"" height = ""600"" style=""position:fixed;top:50%; left:50%; transform: translate(-50%, -50%); border:5px solid black"">","","","","","","","",""
"","497.4450000007637","sequential-stimulus-presentation-old","82","599699","0.0-21.0-1.0","SS1619739843464","trial","","40","500","997.4450000007637","images/stimuli/spore_stims/complex_11_A_b.gif","images/stimuli/spore_stims/complex_15_A_a.gif","forced_long","","6","complex_dissimilar","images/stimuli/spore_stims/complex_15_A_a.gif","","","","",""
"","null","html-keyboard-response","83","600632","0.0-21.0-0.1","SS1619739843464","","","null","","","","","","<p><img src= images/blank.png width =""600"" height = ""600"" style=""position:fixed;top:50%; left:50%; transform: translate(-50%, -50%); border:5px solid black"">","","","","","","","",""
"","5184.580000001006","sequential-stimulus-presentation-old","84","606322","0.0-21.0-1.1","SS1619739843464","trial","","40","500","5684.580000001006","images/stimuli/spore_stims/complex_11_A_b.gif","images/stimuli/spore_stims/complex_15_A_a.gif","forced_long","","6","complex_dissimilar","images/stimuli/spore_stims/complex_15_A_a.gif","","","","",""
"","null","html-keyboard-response","85","607348","0.0-21.0-0.2","SS1619739843464","","","null","","","","","","<p><img src= images/blank.png width =""600"" height = ""600"" style=""position:fixed;top:50%; left:50%; transform: translate(-50%, -50%); border:5px solid black"">","","","","","","","",""
"","6358.544999995502","sequential-stimulus-presentation-old","86","614211","0.0-21.0-1.2","SS1619739843464","trial","","40","500","6858.544999995502","images/stimuli/spore_stims/complex_11_A_b.gif","images/stimuli/spore_stims/complex_15_A_a.gif","forced_long","","6","complex_dissimilar","images/stimuli/spore_stims/complex_11_A_b.gif","","","","",""
"","null","html-keyboard-response","87","615423","0.0-21.0-0.3","SS1619739843464","","","null","","","","","","<p><img src= images/blank.png width =""600"" height = ""600"" style=""position:fixed;top:50%; left:50%; transform: translate(-50%, -50%); border:5px solid black"">","","","","","","","",""
"","7689.67999999586","sequential-stimulus-presentation-old","88","623626","0.0-21.0-1.3","SS1619739843464","trial","","40","500","8189.67999999586","images/stimuli/spore_stims/complex_11_A_b.gif","images/stimuli/spore_stims/complex_15_A_a.gif","forced_long","","6","complex_dissimilar","images/stimuli/spore_stims/complex_15_A_a.gif","","","","",""
"","null","html-keyboard-response","89","624444","0.0-21.0-0.4","SS1619739843464","","","null","","","","","","<p><img src= images/blank.png width =""600"" height = ""600"" style=""position:fixed;top:50%; left:50%; transform: translate(-50%, -50%); border:5px solid black"">","","","","","","","",""
"","7999.554999994929","sequential-stimulus-presentation-old","90","632959","0.0-21.0-1.4","SS1619739843464","trial","","40","500","8499.554999994929","images/stimuli/spore_stims/complex_11_A_b.gif","images/stimuli/spore_stims/complex_15_A_a.gif","forced_long","","6","complex_dissimilar","images/stimuli/spore_stims/complex_15_A_a.gif","","","","",""
"","null","html-keyboard-response","91","633876","0.0-21.0-0.5","SS1619739843464","","","null","","","","","","<p><img src= images/blank.png width =""600"" height = ""600"" style=""position:fixed;top:50%; left:50%; transform: translate(-50%, -50%); border:5px solid black"">","","","","","","","",""
"","9335.794999998994","sequential-stimulus-presentation-old","92","643715","0.0-21.0-1.5","SS1619739843464","trial","","40","500","9835.794999998994","images/stimuli/spore_stims/complex_11_A_b.gif","images/stimuli/spore_stims/complex_15_A_a.gif","forced_long","","6","complex_dissimilar","images/stimuli/spore_stims/complex_15_A_a.gif","","","","",""
"","2791.105000003823","survey-multi-choice","93","646508","0.0-22.0","SS1619739843464","math_question","","","","","","","","","","","","{""Q0"":""5""}","[0]","5","",""
"","null","html-keyboard-response","94","647580","0.0-23.0-0.0","SS1619739843464","","","null","","","","","","<p><img src= images/blank.png width =""600"" height = ""600"" style=""position:fixed;top:50%; left:50%; transform: translate(-50%, -50%); border:5px solid black"">","","","","","","","",""
"","1404.0950000053272","sequential-stimulus-presentation-old","95","649498","0.0-23.0-1.0","SS1619739843464","trial","","40","500","1904.0950000053272","images/stimuli/spore_stims/complex_04_A_a.gif","images/stimuli/spore_stims/complex_07_A_b.gif","forced_short","","7","complex_dissimilar","images/stimuli/spore_stims/complex_07_A_b.gif","","","","",""
"","null","html-keyboard-response","96","650648","0.0-23.0-0.1","SS1619739843464","","","null","","","","","","<p><img src= images/blank.png width =""600"" height = ""600"" style=""position:fixed;top:50%; left:50%; transform: translate(-50%, -50%); border:5px solid black"">","","","","","","","",""
"","10067.549999999697","sequential-stimulus-presentation-old","97","661219","0.0-23.0-1.1","SS1619739843464","trial","","40","500","10567.549999999697","images/stimuli/spore_stims/complex_04_A_a.gif","images/stimuli/spore_stims/complex_07_A_b.gif","forced_short","","7","complex_dissimilar","images/stimuli/spore_stims/complex_07_A_b.gif","","","","",""
"","null","html-keyboard-response","98","662265","0.0-23.0-0.2","SS1619739843464","","","null","","","","","","<p><img src= images/blank.png width =""600"" height = ""600"" style=""position:fixed;top:50%; left:50%; transform: translate(-50%, -50%); border:5px solid black"">","","","","","","","",""
"","7028.415000000736","sequential-stimulus-presentation-old","99","669798","0.0-23.0-1.2","SS1619739843464","trial","","40","500","7528.415000000736","images/stimuli/spore_stims/complex_04_A_a.gif","images/stimuli/spore_stims/complex_07_A_b.gif","forced_short","","7","complex_dissimilar","images/stimuli/spore_stims/complex_04_A_a.gif","","","","",""
"","null","html-keyboard-response","100","670941","0.0-23.0-0.3","SS1619739843464","","","null","","","","","","<p><img src= images/blank.png width =""600"" height = ""600"" style=""position:fixed;top:50%; left:50%; transform: translate(-50%, -50%); border:5px solid black"">","","","","","","","",""
"","8968.80500000401","sequential-stimulus-presentation-old","101","680428","0.0-23.0-1.3","SS1619739843464","trial","","40","500","9468.80500000401","images/stimuli/spore_stims/complex_04_A_a.gif","images/stimuli/spore_stims/complex_07_A_b.gif","forced_short","","7","complex_dissimilar","images/stimuli/spore_stims/complex_07_A_b.gif","","","","",""
"","null","html-keyboard-response","102","681590","0.0-23.0-0.4","SS1619739843464","","","null","","","","","","<p><img src= images/blank.png width =""600"" height = ""600"" style=""position:fixed;top:50%; left:50%; transform: translate(-50%, -50%); border:5px solid black"">","","","","","","","",""
"","7221.335000002058","sequential-stimulus-presentation-old","103","689318","0.0-23.0-1.4","SS1619739843464","trial","","40","500","7721.335000002058","images/stimuli/spore_stims/complex_04_A_a.gif","images/stimuli/spore_stims/complex_07_A_b.gif","forced_short","","7","complex_dissimilar","images/stimuli/spore_stims/complex_07_A_b.gif","","","","",""
"","null","html-keyboard-response","104","690588","0.0-23.0-0.5","SS1619739843464","","","null","","","","","","<p><img src= images/blank.png width =""600"" height = ""600"" style=""position:fixed;top:50%; left:50%; transform: translate(-50%, -50%); border:5px solid black"">","","","","","","","",""
"","8203.675000004354","sequential-stimulus-presentation-old","105","699306","0.0-23.0-1.5","SS1619739843464","trial","","40","500","8703.675000004354","images/stimuli/spore_stims/complex_04_A_a.gif","images/stimuli/spore_stims/complex_07_A_b.gif","forced_short","","7","complex_dissimilar","images/stimuli/spore_stims/complex_07_A_b.gif","","","","",""
"","2750.7350000014994","survey-multi-choice","106","702059","0.0-24.0","SS1619739843464","math_question","","","","","","","","","","","","{""Q0"":""10""}","[0]","10","",""
"","null","html-keyboard-response","107","703199","0.0-25.0-0.0","SS1619739843464","","","null","","","","","","<p><img src= images/blank.png width =""600"" height = ""600"" style=""position:fixed;top:50%; left:50%; transform: translate(-50%, -50%); border:5px solid black"">","","","","","","","",""
"","529.6699999963166","sequential-stimulus-presentation-old","108","718742","0.0-25.0-1.0","SS1619739843464","trial","","40","500","1029.6699999963166","images/stimuli/spore_stims/simple_17_A_a.gif","images/stimuli/spore_stims/simple_14_A_b.gif","forced_long","","8","simple_dissimilar","images/stimuli/spore_stims/simple_14_A_b.gif","","","","",""
"","null","html-keyboard-response","109","720009","0.0-25.0-0.1","SS1619739843464","","","null","","","","","","<p><img src= images/blank.png width =""600"" height = ""600"" style=""position:fixed;top:50%; left:50%; transform: translate(-50%, -50%); border:5px solid black"">","","","","","","","",""
"","1580.659999999567","sequential-stimulus-presentation-old","110","722107","0.0-25.0-1.1","SS1619739843464","trial","","40","500","2080.659999999567","images/stimuli/spore_stims/simple_17_A_a.gif","images/stimuli/spore_stims/simple_14_A_b.gif","forced_long","","8","simple_dissimilar","images/stimuli/spore_stims/simple_14_A_b.gif","","","","",""
"","null","html-keyboard-response","111","723288","0.0-25.0-0.2","SS1619739843464","","","null","","","","","","<p><img src= images/blank.png width =""600"" height = ""600"" style=""position:fixed;top:50%; left:50%; transform: translate(-50%, -50%); border:5px solid black"">","","","","","","","",""
"","5295.6650000051595","sequential-stimulus-presentation-old","112","729098","0.0-25.0-1.2","SS1619739843464","trial","","40","500","5795.6650000051595","images/stimuli/spore_stims/simple_17_A_a.gif","images/stimuli/spore_stims/simple_14_A_b.gif","forced_long","","8","simple_dissimilar","images/stimuli/spore_stims/simple_17_A_a.gif","","","","",""
"","null","html-keyboard-response","113","730083","0.0-25.0-0.3","SS1619739843464","","","null","","","","","","<p><img src= images/blank.png width =""600"" height = ""600"" style=""position:fixed;top:50%; left:50%; transform: translate(-50%, -50%); border:5px solid black"">","","","","","","","",""
"","6802.470000002417","sequential-stimulus-presentation-old","114","737400","0.0-25.0-1.3","SS1619739843464","trial","","40","500","7302.470000002417","images/stimuli/spore_stims/simple_17_A_a.gif","images/stimuli/spore_stims/simple_14_A_b.gif","forced_long","","8","simple_dissimilar","images/stimuli/spore_stims/simple_14_A_b.gif","","","","",""
"","null","html-keyboard-response","115","738607","0.0-25.0-0.4","SS1619739843464","","","null","","","","","","<p><img src= images/blank.png width =""600"" height = ""600"" style=""position:fixed;top:50%; left:50%; transform: translate(-50%, -50%); border:5px solid black"">","","","","","","","",""
"","8144.325000001118","sequential-stimulus-presentation-old","116","747265","0.0-25.0-1.4","SS1619739843464","trial","","40","500","8644.325000001118","images/stimuli/spore_stims/simple_17_A_a.gif","images/stimuli/spore_stims/simple_14_A_b.gif","forced_long","","8","simple_dissimilar","images/stimuli/spore_stims/simple_14_A_b.gif","","","","",""
"","null","html-keyboard-response","117","748195","0.0-25.0-0.5","SS1619739843464","","","null","","","","","","<p><img src= images/blank.png width =""600"" height = ""600"" style=""position:fixed;top:50%; left:50%; transform: translate(-50%, -50%); border:5px solid black"">","","","","","","","",""
"","9316.269999995595","sequential-stimulus-presentation-old","118","758025","0.0-25.0-1.5","SS1619739843464","trial","","40","500","9816.269999995595","images/stimuli/spore_stims/simple_17_A_a.gif","images/stimuli/spore_stims/simple_14_A_b.gif","forced_long","","8","simple_dissimilar","images/stimuli/spore_stims/simple_14_A_b.gif","","","","",""
"","4462.549999996554","survey-multi-choice","119","762490","0.0-26.0","SS1619739843464","math_question","","","","","","","","","","","","{""Q0"":""12""}","[0]","12","",""
"","null","html-keyboard-response","120","763746","0.0-27.0-0.0","SS1619739843464","","","null","","","","","","<p><img src= images/blank.png width =""600"" height = ""600"" style=""position:fixed;top:50%; left:50%; transform: translate(-50%, -50%); border:5px solid black"">","","","","","","","",""
"","968.5349999999162","sequential-stimulus-presentation-old","121","765224","0.0-27.0-1.0","SS1619739843464","trial","","40","500","1468.5349999999162","images/stimuli/spore_stims/simple_15_A_a.gif","images/stimuli/spore_stims/simple_01_A_b.gif","forced_short","","9","simple_dissimilar","images/stimuli/spore_stims/simple_01_A_b.gif","","","","",""
"","null","html-keyboard-response","122","766442","0.0-27.0-0.1","SS1619739843464","","","null","","","","","","<p><img src= images/blank.png width =""600"" height = ""600"" style=""position:fixed;top:50%; left:50%; transform: translate(-50%, -50%); border:5px solid black"">","","","","","","","",""
"","8906.61499999999","sequential-stimulus-presentation-old","123","775859","0.0-27.0-1.1","SS1619739843464","trial","","40","500","9406.61499999999","images/stimuli/spore_stims/simple_15_A_a.gif","images/stimuli/spore_stims/simple_01_A_b.gif","forced_short","","9","simple_dissimilar","images/stimuli/spore_stims/simple_15_A_a.gif","","","","",""
"","null","html-keyboard-response","124","776904","0.0-27.0-0.2","SS1619739843464","","","null","","","","","","<p><img src= images/blank.png width =""600"" height = ""600"" style=""position:fixed;top:50%; left:50%; transform: translate(-50%, -50%); border:5px solid black"">","","","","","","","",""
"","7280.845000001136","sequential-stimulus-presentation-old","125","784689","0.0-27.0-1.2","SS1619739843464","trial","","40","500","7780.845000001136","images/stimuli/spore_stims/simple_15_A_a.gif","images/stimuli/spore_stims/simple_01_A_b.gif","forced_short","","9","simple_dissimilar","images/stimuli/spore_stims/simple_01_A_b.gif","","","","",""
"","null","html-keyboard-response","126","785882","0.0-27.0-0.3","SS1619739843464","","","null","","","","","","<p><img src= images/blank.png width =""600"" height = ""600"" style=""position:fixed;top:50%; left:50%; transform: translate(-50%, -50%); border:5px solid black"">","","","","","","","",""
"","6481.470000006142","sequential-stimulus-presentation-old","127","792868","0.0-27.0-1.3","SS1619739843464","trial","","40","500","6981.470000006142","images/stimuli/spore_stims/simple_15_A_a.gif","images/stimuli/spore_stims/simple_01_A_b.gif","forced_short","","9","simple_dissimilar","images/stimuli/spore_stims/simple_01_A_b.gif","","","","",""
"","null","html-keyboard-response","128","794064","0.0-27.0-0.4","SS1619739843464","","","null","","","","","","<p><img src= images/blank.png width =""600"" height = ""600"" style=""position:fixed;top:50%; left:50%; transform: translate(-50%, -50%); border:5px solid black"">","","","","","","","",""
"","8475.359999996843","sequential-stimulus-presentation-old","129","803044","0.0-27.0-1.4","SS1619739843464","trial","","40","500","8975.359999996843","images/stimuli/spore_stims/simple_15_A_a.gif","images/stimuli/spore_stims/simple_01_A_b.gif","forced_short","","9","simple_dissimilar","images/stimuli/spore_stims/simple_15_A_a.gif","","","","",""
"","null","html-keyboard-response","130","804204","0.0-27.0-0.5","SS1619739843464","","","null","","","","","","<p><img src= images/blank.png width =""600"" height = ""600"" style=""position:fixed;top:50%; left:50%; transform: translate(-50%, -50%); border:5px solid black"">","","","","","","","",""
"","7821.060000002035","sequential-stimulus-presentation-old","131","812529","0.0-27.0-1.5","SS1619739843464","trial","","40","500","8321.060000002035","images/stimuli/spore_stims/simple_15_A_a.gif","images/stimuli/spore_stims/simple_01_A_b.gif","forced_short","","9","simple_dissimilar","images/stimuli/spore_stims/simple_01_A_b.gif","","","","",""
"","3082.9499999963446","survey-multi-choice","132","815614","0.0-28.0","SS1619739843464","math_question","","","","","","","","","","","","{""Q0"":""16""}","[0]","16","",""
"","null","html-keyboard-response","133","816441","0.0-29.0-0.0","SS1619739843464","","","null","","","","","","<p><img src= images/blank.png width =""600"" height = ""600"" style=""position:fixed;top:50%; left:50%; transform: translate(-50%, -50%); border:5px solid black"">","","","","","","","",""
"","17623.40000000398","sequential-stimulus-presentation-old","134","834580","0.0-29.0-1.0","SS1619739843464","trial","","40","500","18123.40000000398","images/stimuli/spore_stims/simple_04_A_b.gif","images/stimuli/spore_stims/simple_01_A_a.gif","self_paced","","10","simple_dissimilar","images/stimuli/spore_stims/simple_01_A_a.gif","","","","",""
"","null","html-keyboard-response","135","835486","0.0-29.0-0.1","SS1619739843464","","","null","","","","","","<p><img src= images/blank.png width =""600"" height = ""600"" style=""position:fixed;top:50%; left:50%; transform: translate(-50%, -50%); border:5px solid black"">","","","","","","","",""
"","8620.81500000204","sequential-stimulus-presentation-old","136","844611","0.0-29.0-1.1","SS1619739843464","trial","","40","500","9120.81500000204","images/stimuli/spore_stims/simple_04_A_b.gif","images/stimuli/spore_stims/simple_01_A_a.gif","self_paced","","10","simple_dissimilar","images/stimuli/spore_stims/simple_04_A_b.gif","","","","",""
"","null","html-keyboard-response","137","845669","0.0-29.0-0.2","SS1619739843464","","","null","","","","","","<p><img src= images/blank.png width =""600"" height = ""600"" style=""position:fixed;top:50%; left:50%; transform: translate(-50%, -50%); border:5px solid black"">","","","","","","","",""
"","6544.374999997672","sequential-stimulus-presentation-old","138","852717","0.0-29.0-1.2","SS1619739843464","trial","","40","500","7044.374999997672","images/stimuli/spore_stims/simple_04_A_b.gif","images/stimuli/spore_stims/simple_01_A_a.gif","self_paced","","10","simple_dissimilar","images/stimuli/spore_stims/simple_01_A_a.gif","","","","",""
"","null","html-keyboard-response","139","853990","0.0-29.0-0.3","SS1619739843464","","","null","","","","","","<p><img src= images/blank.png width =""600"" height = ""600"" style=""position:fixed;top:50%; left:50%; transform: translate(-50%, -50%); border:5px solid black"">","","","","","","","",""
"","8917.624999994528","sequential-stimulus-presentation-old","140","863411","0.0-29.0-1.3","SS1619739843464","trial","","40","500","9417.624999994528","images/stimuli/spore_stims/simple_04_A_b.gif","images/stimuli/spore_stims/simple_01_A_a.gif","self_paced","","10","simple_dissimilar","images/stimuli/spore_stims/simple_01_A_a.gif","","","","",""
"","3322.8850000014063","survey-multi-choice","141","866736","0.0-30.0","SS1619739843464","math_question","","","","","","","","","","","","{""Q0"":""2""}","[0]","2","",""
"","null","html-keyboard-response","142","867761","0.0-31.0-0.0","SS1619739843464","","","null","","","","","","<p><img src= images/blank.png width =""600"" height = ""600"" style=""position:fixed;top:50%; left:50%; transform: translate(-50%, -50%); border:5px solid black"">","","","","","","","",""
"","14752.209999998682","sequential-stimulus-presentation-old","143","883017","0.0-31.0-1.0","SS1619739843464","trial","","40","500","15252.209999998682","images/stimuli/spore_stims/simple_20_A_b.gif","images/stimuli/spore_stims/simple_07_A_a.gif","self_paced","","11","simple_dissimilar","images/stimuli/spore_stims/simple_07_A_a.gif","","","","",""
"","null","html-keyboard-response","144","884190","0.0-31.0-0.1","SS1619739843464","","","null","","","","","","<p><img src= images/blank.png width =""600"" height = ""600"" style=""position:fixed;top:50%; left:50%; transform: translate(-50%, -50%); border:5px solid black"">","","","","","","","",""
"","5544.989999994868","sequential-stimulus-presentation-old","145","890239","0.0-31.0-1.1","SS1619739843464","trial","","40","500","6044.989999994868","images/stimuli/spore_stims/simple_20_A_b.gif","images/stimuli/spore_stims/simple_07_A_a.gif","self_paced","","11","simple_dissimilar","images/stimuli/spore_stims/simple_07_A_a.gif","","","","",""
"","null","html-keyboard-response","146","891139","0.0-31.0-0.2","SS1619739843464","","","null","","","","","","<p><img src= images/blank.png width =""600"" height = ""600"" style=""position:fixed;top:50%; left:50%; transform: translate(-50%, -50%); border:5px solid black"">","","","","","","","",""
"","5731.4899999982445","sequential-stimulus-presentation-old","147","897375","0.0-31.0-1.2","SS1619739843464","trial","","40","500","6231.4899999982445","images/stimuli/spore_stims/simple_20_A_b.gif","images/stimuli/spore_stims/simple_07_A_a.gif","self_paced","","11","simple_dissimilar","images/stimuli/spore_stims/simple_07_A_a.gif","","","","",""
"","null","html-keyboard-response","148","898546","0.0-31.0-0.3","SS1619739843464","","","null","","","","","","<p><img src= images/blank.png width =""600"" height = ""600"" style=""position:fixed;top:50%; left:50%; transform: translate(-50%, -50%); border:5px solid black"">","","","","","","","",""
"","9292.13000000175","sequential-stimulus-presentation-old","149","908342","0.0-31.0-1.3","SS1619739843464","trial","","40","500","9792.13000000175","images/stimuli/spore_stims/simple_20_A_b.gif","images/stimuli/spore_stims/simple_07_A_a.gif","self_paced","","11","simple_dissimilar","images/stimuli/spore_stims/simple_07_A_a.gif","","","","",""
"[{""page_index"":0,""viewing_time"":6928.460000002873}]","6928.750000006403","instructions","150","915273","0.0-32.0","SS1619739843464","instructions","","","","","","","","","","","","","","","",""
"","7254.925000000978","survey-likert","151","922531","0.0-33.0","SS1619739843464","similarity_question","","","","","","","","","","","","{""Q0"":1}","[0]","","images/stimuli/spore_stims/simple_20_A_b.gif","images/stimuli/spore_stims/simple_07_A_a.gif"
"","5509.884999999427","survey-likert","152","928047","0.0-34.0","SS1619739843464","similarity_question","","","","","","","","","","","","{""Q0"":2}","[0]","","images/stimuli/spore_stims/complex_13_A_b.gif","images/stimuli/spore_stims/complex_11_A_a.gif"
"","5438.365000001737","survey-likert","153","933491","0.0-35.0","SS1619739843464","similarity_question","","","","","","","","","","","","{""Q0"":4}","[0]","","images/stimuli/spore_stims/simple_01_A_a.gif","images/stimuli/spore_stims/simple_04_A_b.gif"
"","4670.474999998929","survey-likert","154","938167","0.0-36.0","SS1619739843464","similarity_question","","","","","","","","","","","","{""Q0"":4}","[0]","","images/stimuli/spore_stims/complex_10_A_b.gif","images/stimuli/spore_stims/complex_12_A_a.gif"
"","5179.915000000619","survey-likert","155","943353","0.0-37.0","SS1619739843464","similarity_question","","","","","","","","","","","","{""Q0"":2}","[0]","","images/stimuli/spore_stims/complex_15_A_a.gif","images/stimuli/spore_stims/complex_11_A_b.gif"
"","7866.394999997341","survey-likert","156","951224","0.0-38.0","SS1619739843464","similarity_question","","","","","","","","","","","","{""Q0"":1}","[0]","","images/stimuli/spore_stims/complex_19_A_a.gif","images/stimuli/spore_stims/complex_08_A_b.gif"
"","2964.319999999134","survey-likert","157","954194","0.0-39.0","SS1619739843464","similarity_question","","","","","","","","","","","","{""Q0"":2}","[0]","","images/stimuli/spore_stims/complex_02_A_b.gif","images/stimuli/spore_stims/complex_20_A_a.gif"
"","4572.459999995772","survey-likert","158","958772","0.0-40.0","SS1619739843464","similarity_question","","","","","","","","","","","","{""Q0"":3}","[0]","","images/stimuli/spore_stims/simple_14_A_b.gif","images/stimuli/spore_stims/simple_17_A_a.gif"
"","3430.3450000006706","survey-likert","159","962208","0.0-41.0","SS1619739843464","similarity_question","","","","","","","","","","","","{""Q0"":1}","[0]","","images/stimuli/spore_stims/complex_04_A_a.gif","images/stimuli/spore_stims/complex_07_A_b.gif"
"","4646.359999998822","survey-likert","160","966860","0.0-42.0","SS1619739843464","similarity_question","","","","","","","","","","","","{""Q0"":2}","[0]","","images/stimuli/spore_stims/simple_10_A_b.gif","images/stimuli/spore_stims/simple_11_A_a.gif"
"","3862.300000000745","survey-likert","161","970728","0.0-43.0","SS1619739843464","similarity_question","","","","","","","","","","","","{""Q0"":3}","[0]","","images/stimuli/spore_stims/simple_01_A_b.gif","images/stimuli/spore_stims/simple_15_A_a.gif"
"","3492.519999999786","survey-likert","162","974226","0.0-44.0","SS1619739843464","similarity_question","","","","","","","","","","","","{""Q0"":2}","[0]","","images/stimuli/spore_stims/simple_08_A_a.gif","images/stimuli/spore_stims/simple_17_A_b.gif"
"[{""page_index"":0,""viewing_time"":8276.675000000978}]","8276.930000000051","instructions","163","982507","0.0-45.0","SS1619739843464","instructions","","","","","","","","","","","","","","","",""
"","4758.665000001201","survey-likert","164","987269","0.0-46.0","SS1619739843464","","","","","","","","","images/stimuli/spore_stims/simple_01_A_a.gif","","","","{""Q0"":1}","[0]","","",""
"","3366.5949999995064","survey-likert","165","990641","0.0-47.0","SS1619739843464","","","","","","","","","images/stimuli/spore_stims/complex_20_A_a.gif","","","","{""Q0"":5}","[0]","","",""
"","4462.400000003981","survey-likert","166","995109","0.0-48.0","SS1619739843464","","","","","","","","","images/stimuli/spore_stims/complex_07_A_b.gif","","","","{""Q0"":6}","[0]","","",""
"","2296.379999999772","survey-likert","167","997411","0.0-49.0","SS1619739843464","","","","","","","","","images/stimuli/spore_stims/simple_08_A_a.gif","","","","{""Q0"":0}","[0]","","",""
"","2464.479999995092","survey-likert","168","999881","0.0-50.0","SS1619739843464","","","","","","","","","images/stimuli/spore_stims/simple_14_A_b.gif","","","","{""Q0"":1}","[0]","","",""
"","3003.870000000461","survey-likert","169","1002891","0.0-51.0","SS1619739843464","","","","","","","","","images/stimuli/spore_stims/simple_07_A_a.gif","","","","{""Q0"":1}","[0]","","",""
"","2390.0250000006054","survey-likert","170","1005287","0.0-52.0","SS1619739843464","","","","","","","","","images/stimuli/spore_stims/simple_15_A_a.gif","","","","{""Q0"":0}","[0]","","",""
"","3862.2250000044005","survey-likert","171","1009155","0.0-53.0","SS1619739843464","","","","","","","","","images/stimuli/spore_stims/complex_12_A_a.gif","","","","{""Q0"":5}","[0]","","",""
"","4120.315000000177","survey-likert","172","1013281","0.0-54.0","SS1619739843464","","","","","","","","","images/stimuli/spore_stims/complex_15_A_a.gif","","","","{""Q0"":5}","[0]","","",""
"","2902.28499999654","survey-likert","173","1016189","0.0-55.0","SS1619739843464","","","","","","","","","images/stimuli/spore_stims/complex_19_A_a.gif","","","","{""Q0"":4}","[0]","","",""
"","2412.190000002738","survey-likert","174","1018607","0.0-56.0","SS1619739843464","","","","","","","","","images/stimuli/spore_stims/complex_11_A_a.gif","","","","{""Q0"":4}","[0]","","",""
"","2389.875000000815","survey-likert","175","1021003","0.0-57.0","SS1619739843464","","","","","","","","","images/stimuli/spore_stims/simple_10_A_b.gif","","","","{""Q0"":0}","[0]","","",""
"[{""page_index"":0,""viewing_time"":3104.5650000014575}]","3104.8500000033528","instructions","176","1024112","0.0-58.0","SS1619739843464","instructions","","","","","","","","","","","","","","","",""
"","4139.4650000002","demog-age","177","1028256","0.0-59.0","SS1619739843464","","","","","","","","","","","","","{""age"":""22""}","","","",""
"","3501.07500000007","demog-ethnic-US","178","1031762","0.0-60.0","SS1619739843464","","","","","","","","","","","","","{""ethnicity"":[""Hispanic or Latino""]}","[0]","","",""
"","9897.365000004414","demog-gender-and-education","179","1041666","0.0-61.0","SS1619739843464","","","","","","","","","","","","","{""gender"":""Female"",""education"":""High school diploma""}","[0,1]","","",""
"","14072.124999998836","survey-text","180","1055746","0.0-62.0","SS1619739843464","feedback","","","","","","","","","","","","{""Q0"":""None""}","","","",""
"[{""page_index"":0,""viewing_time"":2075.059999995632}]","2075.324999997858","instructions","181","1057823","0.0-63.0","SS1619739843464","instructions","","","","","","","","","","","","","","","",""
