"view_history","rt","trial_type","trial_index","time_elapsed","internal_node_id","subject","stimulus_type","trial_stimulus","key_press","minimum_viewing_duration","trial_looking_time","block_deviant","block_background","exposure_type","stimulus","block_number","block_type","stimulus_displayed","responses","question_order","math_correct_answer","stimulus_left","stimulus_right"
"[{""page_index"":0,""viewing_time"":22016.994999954477}]","22017.93000008911","instructions","0","22020","0.0-0.0","SS1619740107239","","","","","","","","","","","","","","","","",""
"[{""page_index"":0,""viewing_time"":17721.155000152066},{""page_index"":1,""viewing_time"":5993.449999950826}]","23714.89499998279","instructions","1","47749","0.0-1.0","SS1619740107239","instructions","","","","","","","","","","","","","","","",""
"","9482.08999983035","sequential-stimulus-presentation-old","2","57735","0.0-2.0","SS1619740107239","","","40","500","9982.08999983035","null","null","self_paced","","","","","","","","",""
"","5840.93499998562","sequential-stimulus-presentation-old","3","64078","0.0-3.0","SS1619740107239","","","40","500","6340.93499998562","null","null","self_paced","","","","","","","","",""
"[{""page_index"":0,""viewing_time"":16292.325000045821}]","16292.5750000868","instructions","4","80372","0.0-4.0","SS1619740107239","instructions","","","","","","","","","","","","","","","",""
"","838.190000038594","sequential-stimulus-presentation-old","5","96212","0.0-5.0","SS1619740107239","","","40","500","1338.190000038594","null","null","forced_long","","","","","","","","",""
"","2822.025000117719","sequential-stimulus-presentation-old","6","99539","0.0-6.0","SS1619740107239","","","40","500","3322.025000117719","null","null","forced_long","","","","","","","","",""
"[{""page_index"":0,""viewing_time"":4413.27999997884}]","4413.375000003725","instructions","7","103954","0.0-7.0","SS1619740107239","instructions","","","","","","","","","","","","","","","",""
"[{""page_index"":0,""viewing_time"":14463.770000031218},{""page_index"":1,""viewing_time"":14054.065000033006},{""page_index"":2,""viewing_time"":5288.0049999803305},{""page_index"":3,""viewing_time"":666.9950000941753},{""page_index"":4,""viewing_time"":798.3399999793619}]","35271.42500015907","instructions","8","139226","0.0-8.0","SS1619740107239","instructions","","","","","","","","","","","","","","","",""
"","null","html-keyboard-response","9","140523","0.0-9.0-0.0","SS1619740107239","","","null","","","","","","<p><img src= images/blank.png width =""600"" height = ""600"" style=""position:fixed;top:50%; left:50%; transform: translate(-50%, -50%); border:5px solid black"">","","","","","","","",""
"","2468.3850000146776","sequential-stimulus-presentation-old","10","143496","0.0-9.0-1.0","SS1619740107239","trial","","40","500","2968.3850000146776","images/stimuli/spore_stims/simple_11_A_b.gif","images/stimuli/spore_stims/simple_12_A_a.gif","forced_short","","0","simple_dissimilar","images/stimuli/spore_stims/simple_12_A_a.gif","","","","",""
"","null","html-keyboard-response","11","144509","0.0-9.0-0.1","SS1619740107239","","","null","","","","","","<p><img src= images/blank.png width =""600"" height = ""600"" style=""position:fixed;top:50%; left:50%; transform: translate(-50%, -50%); border:5px solid black"">","","","","","","","",""
"","30525.774999987334","sequential-stimulus-presentation-old","12","175539","0.0-9.0-1.1","SS1619740107239","trial","","40","500","31025.774999987334","images/stimuli/spore_stims/simple_11_A_b.gif","images/stimuli/spore_stims/simple_12_A_a.gif","forced_short","","0","simple_dissimilar","images/stimuli/spore_stims/simple_11_A_b.gif","","","","",""
"","null","html-keyboard-response","13","176583","0.0-9.0-0.2","SS1619740107239","","","null","","","","","","<p><img src= images/blank.png width =""600"" height = ""600"" style=""position:fixed;top:50%; left:50%; transform: translate(-50%, -50%); border:5px solid black"">","","","","","","","",""
"","43310.71500014514","sequential-stimulus-presentation-old","14","220397","0.0-9.0-1.2","SS1619740107239","trial","","40","500","43810.71500014514","images/stimuli/spore_stims/simple_11_A_b.gif","images/stimuli/spore_stims/simple_12_A_a.gif","forced_short","","0","simple_dissimilar","images/stimuli/spore_stims/simple_11_A_b.gif","","","","",""
"","null","html-keyboard-response","15","221282","0.0-9.0-0.3","SS1619740107239","","","null","","","","","","<p><img src= images/blank.png width =""600"" height = ""600"" style=""position:fixed;top:50%; left:50%; transform: translate(-50%, -50%); border:5px solid black"">","","","","","","","",""
"","31487.42499994114","sequential-stimulus-presentation-old","16","253273","0.0-9.0-1.3","SS1619740107239","trial","","40","500","31987.42499994114","images/stimuli/spore_stims/simple_11_A_b.gif","images/stimuli/spore_stims/simple_12_A_a.gif","forced_short","","0","simple_dissimilar","images/stimuli/spore_stims/simple_12_A_a.gif","","","","",""
"","null","html-keyboard-response","17","254374","0.0-9.0-0.4","SS1619740107239","","","null","","","","","","<p><img src= images/blank.png width =""600"" height = ""600"" style=""position:fixed;top:50%; left:50%; transform: translate(-50%, -50%); border:5px solid black"">","","","","","","","",""
"","5504.740000003949","sequential-stimulus-presentation-old","18","260386","0.0-9.0-1.4","SS1619740107239","trial","","40","500","6004.740000003949","images/stimuli/spore_stims/simple_11_A_b.gif","images/stimuli/spore_stims/simple_12_A_a.gif","forced_short","","0","simple_dissimilar","images/stimuli/spore_stims/simple_12_A_a.gif","","","","",""
"","null","html-keyboard-response","19","261216","0.0-9.0-0.5","SS1619740107239","","","null","","","","","","<p><img src= images/blank.png width =""600"" height = ""600"" style=""position:fixed;top:50%; left:50%; transform: translate(-50%, -50%); border:5px solid black"">","","","","","","","",""
"","620.4999999608845","sequential-stimulus-presentation-old","20","262341","0.0-9.0-1.5","SS1619740107239","trial","","40","500","1120.4999999608845","images/stimuli/spore_stims/simple_11_A_b.gif","images/stimuli/spore_stims/simple_12_A_a.gif","forced_short","","0","simple_dissimilar","images/stimuli/spore_stims/simple_12_A_a.gif","","","","",""
"","4130.194999976084","survey-multi-choice","21","266473","0.0-10.0","SS1619740107239","math_question","","","","","","","","","","","","{""Q0"":""8""}","[0]","8","",""
"","null","html-keyboard-response","22","267310","0.0-11.0-0.0","SS1619740107239","","","null","","","","","","<p><img src= images/blank.png width =""600"" height = ""600"" style=""position:fixed;top:50%; left:50%; transform: translate(-50%, -50%); border:5px solid black"">","","","","","","","",""
"","8837.869999930263","sequential-stimulus-presentation-old","23","276654","0.0-11.0-1.0","SS1619740107239","trial","","40","500","9337.869999930263","images/stimuli/spore_stims/simple_08_A_b.gif","images/stimuli/spore_stims/simple_15_A_a.gif","self_paced","","1","simple_dissimilar","images/stimuli/spore_stims/simple_15_A_a.gif","","","","",""
"","null","html-keyboard-response","24","277694","0.0-11.0-0.1","SS1619740107239","","","null","","","","","","<p><img src= images/blank.png width =""600"" height = ""600"" style=""position:fixed;top:50%; left:50%; transform: translate(-50%, -50%); border:5px solid black"">","","","","","","","",""
"","3870.714999968186","sequential-stimulus-presentation-old","25","282069","0.0-11.0-1.1","SS1619740107239","trial","","40","500","4370.714999968186","images/stimuli/spore_stims/simple_08_A_b.gif","images/stimuli/spore_stims/simple_15_A_a.gif","self_paced","","1","simple_dissimilar","images/stimuli/spore_stims/simple_08_A_b.gif","","","","",""
"","null","html-keyboard-response","26","283304","0.0-11.0-0.2","SS1619740107239","","","null","","","","","","<p><img src= images/blank.png width =""600"" height = ""600"" style=""position:fixed;top:50%; left:50%; transform: translate(-50%, -50%); border:5px solid black"">","","","","","","","",""
"","11745.525000151247","sequential-stimulus-presentation-old","27","295552","0.0-11.0-1.2","SS1619740107239","trial","","40","500","12245.525000151247","images/stimuli/spore_stims/simple_08_A_b.gif","images/stimuli/spore_stims/simple_15_A_a.gif","self_paced","","1","simple_dissimilar","images/stimuli/spore_stims/simple_15_A_a.gif","","","","",""
"","null","html-keyboard-response","28","296535","0.0-11.0-0.3","SS1619740107239","","","null","","","","","","<p><img src= images/blank.png width =""600"" height = ""600"" style=""position:fixed;top:50%; left:50%; transform: translate(-50%, -50%); border:5px solid black"">","","","","","","","",""
"","3791.090000187978","sequential-stimulus-presentation-old","29","300830","0.0-11.0-1.3","SS1619740107239","trial","","40","500","4291.090000187978","images/stimuli/spore_stims/simple_08_A_b.gif","images/stimuli/spore_stims/simple_15_A_a.gif","self_paced","","1","simple_dissimilar","images/stimuli/spore_stims/simple_08_A_b.gif","","","","",""
"","null","html-keyboard-response","30","301998","0.0-11.0-0.4","SS1619740107239","","","null","","","","","","<p><img src= images/blank.png width =""600"" height = ""600"" style=""position:fixed;top:50%; left:50%; transform: translate(-50%, -50%); border:5px solid black"">","","","","","","","",""
"","1608.890000032261","sequential-stimulus-presentation-old","31","304112","0.0-11.0-1.4","SS1619740107239","trial","","40","500","2108.890000032261","images/stimuli/spore_stims/simple_08_A_b.gif","images/stimuli/spore_stims/simple_15_A_a.gif","self_paced","","1","simple_dissimilar","images/stimuli/spore_stims/simple_15_A_a.gif","","","","",""
"","6020.76999982819","survey-multi-choice","32","310135","0.0-12.0","SS1619740107239","math_question","","","","","","","","","","","","{""Q0"":""14""}","[0]","14","",""
"","null","html-keyboard-response","33","311154","0.0-13.0-0.0","SS1619740107239","","","null","","","","","","<p><img src= images/blank.png width =""600"" height = ""600"" style=""position:fixed;top:50%; left:50%; transform: translate(-50%, -50%); border:5px solid black"">","","","","","","","",""
"","553.0399999115616","sequential-stimulus-presentation-old","34","326713","0.0-13.0-1.0","SS1619740107239","trial","","40","500","1053.0399999115616","images/stimuli/spore_stims/simple_01_A_b.gif","images/stimuli/spore_stims/simple_05_A_a.gif","forced_long","","2","simple_dissimilar","images/stimuli/spore_stims/simple_05_A_a.gif","","","","",""
"","null","html-keyboard-response","35","327722","0.0-13.0-0.1","SS1619740107239","","","null","","","","","","<p><img src= images/blank.png width =""600"" height = ""600"" style=""position:fixed;top:50%; left:50%; transform: translate(-50%, -50%); border:5px solid black"">","","","","","","","",""
"","2083.485000068322","sequential-stimulus-presentation-old","36","330309","0.0-13.0-1.1","SS1619740107239","trial","","40","500","2583.485000068322","images/stimuli/spore_stims/simple_01_A_b.gif","images/stimuli/spore_stims/simple_05_A_a.gif","forced_long","","2","simple_dissimilar","images/stimuli/spore_stims/simple_05_A_a.gif","","","","",""
"","null","html-keyboard-response","37","331143","0.0-13.0-0.2","SS1619740107239","","","null","","","","","","<p><img src= images/blank.png width =""600"" height = ""600"" style=""position:fixed;top:50%; left:50%; transform: translate(-50%, -50%); border:5px solid black"">","","","","","","","",""
"","8225.815000012517","sequential-stimulus-presentation-old","38","339872","0.0-13.0-1.2","SS1619740107239","trial","","40","500","8725.815000012517","images/stimuli/spore_stims/simple_01_A_b.gif","images/stimuli/spore_stims/simple_05_A_a.gif","forced_long","","2","simple_dissimilar","images/stimuli/spore_stims/simple_05_A_a.gif","","","","",""
"","null","html-keyboard-response","39","340958","0.0-13.0-0.3","SS1619740107239","","","null","","","","","","<p><img src= images/blank.png width =""600"" height = ""600"" style=""position:fixed;top:50%; left:50%; transform: translate(-50%, -50%); border:5px solid black"">","","","","","","","",""
"","9209.92000005208","sequential-stimulus-presentation-old","40","350671","0.0-13.0-1.3","SS1619740107239","trial","","40","500","9709.92000005208","images/stimuli/spore_stims/simple_01_A_b.gif","images/stimuli/spore_stims/simple_05_A_a.gif","forced_long","","2","simple_dissimilar","images/stimuli/spore_stims/simple_05_A_a.gif","","","","",""
"","null","html-keyboard-response","41","351581","0.0-13.0-0.4","SS1619740107239","","","null","","","","","","<p><img src= images/blank.png width =""600"" height = ""600"" style=""position:fixed;top:50%; left:50%; transform: translate(-50%, -50%); border:5px solid black"">","","","","","","","",""
"","3699.9649999197572","sequential-stimulus-presentation-old","42","355784","0.0-13.0-1.4","SS1619740107239","trial","","40","500","4199.964999919757","images/stimuli/spore_stims/simple_01_A_b.gif","images/stimuli/spore_stims/simple_05_A_a.gif","forced_long","","2","simple_dissimilar","images/stimuli/spore_stims/simple_05_A_a.gif","","","","",""
"","3383.305000141263","survey-multi-choice","43","359170","0.0-14.0","SS1619740107239","math_question","","","","","","","","","","","","{""Q0"":""10""}","[0]","10","",""
"","null","html-keyboard-response","44","360233","0.0-15.0-0.0","SS1619740107239","","","null","","","","","","<p><img src= images/blank.png width =""600"" height = ""600"" style=""position:fixed;top:50%; left:50%; transform: translate(-50%, -50%); border:5px solid black"">","","","","","","","",""
"","4624.169999966398","sequential-stimulus-presentation-old","45","379861","0.0-15.0-1.0","SS1619740107239","trial","","40","500","5124.169999966398","images/stimuli/spore_stims/simple_16_A_b.gif","images/stimuli/spore_stims/simple_04_A_a.gif","forced_long","","3","simple_dissimilar","images/stimuli/spore_stims/simple_04_A_a.gif","","","","",""
"","null","html-keyboard-response","46","380858","0.0-15.0-0.1","SS1619740107239","","","null","","","","","","<p><img src= images/blank.png width =""600"" height = ""600"" style=""position:fixed;top:50%; left:50%; transform: translate(-50%, -50%); border:5px solid black"">","","","","","","","",""
"","17445.20499999635","sequential-stimulus-presentation-old","47","398807","0.0-15.0-1.1","SS1619740107239","trial","","40","500","17945.20499999635","images/stimuli/spore_stims/simple_16_A_b.gif","images/stimuli/spore_stims/simple_04_A_a.gif","forced_long","","3","simple_dissimilar","images/stimuli/spore_stims/simple_04_A_a.gif","","","","",""
"","null","html-keyboard-response","48","399816","0.0-15.0-0.2","SS1619740107239","","","null","","","","","","<p><img src= images/blank.png width =""600"" height = ""600"" style=""position:fixed;top:50%; left:50%; transform: translate(-50%, -50%); border:5px solid black"">","","","","","","","",""
"","582.0349999703467","sequential-stimulus-presentation-old","49","400901","0.0-15.0-1.2","SS1619740107239","trial","","40","500","1082.0349999703467","images/stimuli/spore_stims/simple_16_A_b.gif","images/stimuli/spore_stims/simple_04_A_a.gif","forced_long","","3","simple_dissimilar","images/stimuli/spore_stims/simple_04_A_a.gif","","","","",""
"","null","html-keyboard-response","50","402055","0.0-15.0-0.3","SS1619740107239","","","null","","","","","","<p><img src= images/blank.png width =""600"" height = ""600"" style=""position:fixed;top:50%; left:50%; transform: translate(-50%, -50%); border:5px solid black"">","","","","","","","",""
"","2021.7500000726432","sequential-stimulus-presentation-old","51","404582","0.0-15.0-1.3","SS1619740107239","trial","","40","500","2521.750000072643","images/stimuli/spore_stims/simple_16_A_b.gif","images/stimuli/spore_stims/simple_04_A_a.gif","forced_long","","3","simple_dissimilar","images/stimuli/spore_stims/simple_04_A_a.gif","","","","",""
"","4255.344999954104","survey-multi-choice","52","408839","0.0-16.0","SS1619740107239","math_question","","","","","","","","","","","","{""Q0"":""5""}","[0]","5","",""
"","null","html-keyboard-response","53","409905","0.0-17.0-0.0","SS1619740107239","","","null","","","","","","<p><img src= images/blank.png width =""600"" height = ""600"" style=""position:fixed;top:50%; left:50%; transform: translate(-50%, -50%); border:5px solid black"">","","","","","","","",""
"","8565.369999967515","sequential-stimulus-presentation-old","54","418978","0.0-17.0-1.0","SS1619740107239","trial","","40","500","9065.369999967515","images/stimuli/spore_stims/complex_19_A_a.gif","images/stimuli/spore_stims/complex_03_A_b.gif","self_paced","","4","complex_dissimilar","images/stimuli/spore_stims/complex_03_A_b.gif","","","","",""
"","null","html-keyboard-response","55","420180","0.0-17.0-0.1","SS1619740107239","","","null","","","","","","<p><img src= images/blank.png width =""600"" height = ""600"" style=""position:fixed;top:50%; left:50%; transform: translate(-50%, -50%); border:5px solid black"">","","","","","","","",""
"","2254.769999999553","sequential-stimulus-presentation-old","56","422939","0.0-17.0-1.1","SS1619740107239","trial","","40","500","2754.769999999553","images/stimuli/spore_stims/complex_19_A_a.gif","images/stimuli/spore_stims/complex_03_A_b.gif","self_paced","","4","complex_dissimilar","images/stimuli/spore_stims/complex_03_A_b.gif","","","","",""
"","null","html-keyboard-response","57","424009","0.0-17.0-0.2","SS1619740107239","","","null","","","","","","<p><img src= images/blank.png width =""600"" height = ""600"" style=""position:fixed;top:50%; left:50%; transform: translate(-50%, -50%); border:5px solid black"">","","","","","","","",""
"","4018.3599998708814","sequential-stimulus-presentation-old","58","428531","0.0-17.0-1.2","SS1619740107239","trial","","40","500","4518.359999870881","images/stimuli/spore_stims/complex_19_A_a.gif","images/stimuli/spore_stims/complex_03_A_b.gif","self_paced","","4","complex_dissimilar","images/stimuli/spore_stims/complex_19_A_a.gif","","","","",""
"","null","html-keyboard-response","59","429407","0.0-17.0-0.3","SS1619740107239","","","null","","","","","","<p><img src= images/blank.png width =""600"" height = ""600"" style=""position:fixed;top:50%; left:50%; transform: translate(-50%, -50%); border:5px solid black"">","","","","","","","",""
"","1496.5699999593198","sequential-stimulus-presentation-old","60","431409","0.0-17.0-1.3","SS1619740107239","trial","","40","500","1996.5699999593198","images/stimuli/spore_stims/complex_19_A_a.gif","images/stimuli/spore_stims/complex_03_A_b.gif","self_paced","","4","complex_dissimilar","images/stimuli/spore_stims/complex_03_A_b.gif","","","","",""
"","null","html-keyboard-response","61","432356","0.0-17.0-0.4","SS1619740107239","","","null","","","","","","<p><img src= images/blank.png width =""600"" height = ""600"" style=""position:fixed;top:50%; left:50%; transform: translate(-50%, -50%); border:5px solid black"">","","","","","","","",""
"","240.7950002234429","sequential-stimulus-presentation-old","62","433100","0.0-17.0-1.4","SS1619740107239","trial","","40","500","740.7950002234429","images/stimuli/spore_stims/complex_19_A_a.gif","images/stimuli/spore_stims/complex_03_A_b.gif","self_paced","","4","complex_dissimilar","images/stimuli/spore_stims/complex_03_A_b.gif","","","","",""
"","null","html-keyboard-response","63","434301","0.0-17.0-0.5","SS1619740107239","","","null","","","","","","<p><img src= images/blank.png width =""600"" height = ""600"" style=""position:fixed;top:50%; left:50%; transform: translate(-50%, -50%); border:5px solid black"">","","","","","","","",""
"","1193.910000147298","sequential-stimulus-presentation-old","64","435998","0.0-17.0-1.5","SS1619740107239","trial","","40","500","1693.910000147298","images/stimuli/spore_stims/complex_19_A_a.gif","images/stimuli/spore_stims/complex_03_A_b.gif","self_paced","","4","complex_dissimilar","images/stimuli/spore_stims/complex_19_A_a.gif","","","","",""
"","3943.00500000827","survey-multi-choice","65","439943","0.0-18.0","SS1619740107239","math_question","","","","","","","","","","","","{""Q0"":""4""}","[0]","4","",""
"","null","html-keyboard-response","66","441175","0.0-19.0-0.0","SS1619740107239","","","null","","","","","","<p><img src= images/blank.png width =""600"" height = ""600"" style=""position:fixed;top:50%; left:50%; transform: translate(-50%, -50%); border:5px solid black"">","","","","","","","",""
"","3803.5049999598414","sequential-stimulus-presentation-old","67","445482","0.0-19.0-1.0","SS1619740107239","trial","","40","500","4303.504999959841","images/stimuli/spore_stims/complex_08_A_b.gif","images/stimuli/spore_stims/complex_02_A_a.gif","self_paced","","5","complex_dissimilar","images/stimuli/spore_stims/complex_02_A_a.gif","","","","",""
"","null","html-keyboard-response","68","446475","0.0-19.0-0.1","SS1619740107239","","","null","","","","","","<p><img src= images/blank.png width =""600"" height = ""600"" style=""position:fixed;top:50%; left:50%; transform: translate(-50%, -50%); border:5px solid black"">","","","","","","","",""
"","1446.6049999464303","sequential-stimulus-presentation-old","69","448424","0.0-19.0-1.1","SS1619740107239","trial","","40","500","1946.6049999464303","images/stimuli/spore_stims/complex_08_A_b.gif","images/stimuli/spore_stims/complex_02_A_a.gif","self_paced","","5","complex_dissimilar","images/stimuli/spore_stims/complex_02_A_a.gif","","","","",""
"","null","html-keyboard-response","70","449521","0.0-19.0-0.2","SS1619740107239","","","null","","","","","","<p><img src= images/blank.png width =""600"" height = ""600"" style=""position:fixed;top:50%; left:50%; transform: translate(-50%, -50%); border:5px solid black"">","","","","","","","",""
"","2331.054999958724","sequential-stimulus-presentation-old","71","452355","0.0-19.0-1.2","SS1619740107239","trial","","40","500","2831.054999958724","images/stimuli/spore_stims/complex_08_A_b.gif","images/stimuli/spore_stims/complex_02_A_a.gif","self_paced","","5","complex_dissimilar","images/stimuli/spore_stims/complex_02_A_a.gif","","","","",""
"","null","html-keyboard-response","72","453495","0.0-19.0-0.3","SS1619740107239","","","null","","","","","","<p><img src= images/blank.png width =""600"" height = ""600"" style=""position:fixed;top:50%; left:50%; transform: translate(-50%, -50%); border:5px solid black"">","","","","","","","",""
"","1317.2200000844896","sequential-stimulus-presentation-old","73","455319","0.0-19.0-1.3","SS1619740107239","trial","","40","500","1817.2200000844896","images/stimuli/spore_stims/complex_08_A_b.gif","images/stimuli/spore_stims/complex_02_A_a.gif","self_paced","","5","complex_dissimilar","images/stimuli/spore_stims/complex_02_A_a.gif","","","","",""
"","null","html-keyboard-response","74","456325","0.0-19.0-0.4","SS1619740107239","","","null","","","","","","<p><img src= images/blank.png width =""600"" height = ""600"" style=""position:fixed;top:50%; left:50%; transform: translate(-50%, -50%); border:5px solid black"">","","","","","","","",""
"","314.61500003933907","sequential-stimulus-presentation-old","75","457144","0.0-19.0-1.4","SS1619740107239","trial","","40","500","814.6150000393391","images/stimuli/spore_stims/complex_08_A_b.gif","images/stimuli/spore_stims/complex_02_A_a.gif","self_paced","","5","complex_dissimilar","images/stimuli/spore_stims/complex_02_A_a.gif","","","","",""
"","2721.3749999646097","survey-multi-choice","76","459868","0.0-20.0","SS1619740107239","math_question","","","","","","","","","","","","{""Q0"":""8""}","[0]","8","",""
"","null","html-keyboard-response","77","461006","0.0-21.0-0.0","SS1619740107239","","","null","","","","","","<p><img src= images/blank.png width =""600"" height = ""600"" style=""position:fixed;top:50%; left:50%; transform: translate(-50%, -50%); border:5px solid black"">","","","","","","","",""
"","15097.379999933764","sequential-stimulus-presentation-old","78","491109","0.0-21.0-1.0","SS1619740107239","trial","","40","500","15597.379999933764","images/stimuli/spore_stims/complex_04_A_b.gif","images/stimuli/spore_stims/complex_20_A_a.gif","forced_long","","6","complex_dissimilar","images/stimuli/spore_stims/complex_20_A_a.gif","","","","",""
"","null","html-keyboard-response","79","491964","0.0-21.0-0.1","SS1619740107239","","","null","","","","","","<p><img src= images/blank.png width =""600"" height = ""600"" style=""position:fixed;top:50%; left:50%; transform: translate(-50%, -50%); border:5px solid black"">","","","","","","","",""
"","766.5250001009554","sequential-stimulus-presentation-old","80","493234","0.0-21.0-1.1","SS1619740107239","trial","","40","500","1266.5250001009554","images/stimuli/spore_stims/complex_04_A_b.gif","images/stimuli/spore_stims/complex_20_A_a.gif","forced_long","","6","complex_dissimilar","images/stimuli/spore_stims/complex_20_A_a.gif","","","","",""
"","null","html-keyboard-response","81","494126","0.0-21.0-0.2","SS1619740107239","","","null","","","","","","<p><img src= images/blank.png width =""600"" height = ""600"" style=""position:fixed;top:50%; left:50%; transform: translate(-50%, -50%); border:5px solid black"">","","","","","","","",""
"","834.2850001063198","sequential-stimulus-presentation-old","82","495464","0.0-21.0-1.2","SS1619740107239","trial","","40","500","1334.2850001063198","images/stimuli/spore_stims/complex_04_A_b.gif","images/stimuli/spore_stims/complex_20_A_a.gif","forced_long","","6","complex_dissimilar","images/stimuli/spore_stims/complex_20_A_a.gif","","","","",""
"","null","html-keyboard-response","83","496426","0.0-21.0-0.3","SS1619740107239","","","null","","","","","","<p><img src= images/blank.png width =""600"" height = ""600"" style=""position:fixed;top:50%; left:50%; transform: translate(-50%, -50%); border:5px solid black"">","","","","","","","",""
"","1652.1749999374151","sequential-stimulus-presentation-old","84","498582","0.0-21.0-1.3","SS1619740107239","trial","","40","500","2152.174999937415","images/stimuli/spore_stims/complex_04_A_b.gif","images/stimuli/spore_stims/complex_20_A_a.gif","forced_long","","6","complex_dissimilar","images/stimuli/spore_stims/complex_20_A_a.gif","","","","",""
"","null","html-keyboard-response","85","499710","0.0-21.0-0.4","SS1619740107239","","","null","","","","","","<p><img src= images/blank.png width =""600"" height = ""600"" style=""position:fixed;top:50%; left:50%; transform: translate(-50%, -50%); border:5px solid black"">","","","","","","","",""
"","388.46500008367","sequential-stimulus-presentation-old","86","500602","0.0-21.0-1.4","SS1619740107239","trial","","40","500","888.46500008367","images/stimuli/spore_stims/complex_04_A_b.gif","images/stimuli/spore_stims/complex_20_A_a.gif","forced_long","","6","complex_dissimilar","images/stimuli/spore_stims/complex_20_A_a.gif","","","","",""
"","null","html-keyboard-response","87","501724","0.0-21.0-0.5","SS1619740107239","","","null","","","","","","<p><img src= images/blank.png width =""600"" height = ""600"" style=""position:fixed;top:50%; left:50%; transform: translate(-50%, -50%); border:5px solid black"">","","","","","","","",""
"","5147.614999907091","sequential-stimulus-presentation-old","88","507376","0.0-21.0-1.5","SS1619740107239","trial","","40","500","5647.614999907091","images/stimuli/spore_stims/complex_04_A_b.gif","images/stimuli/spore_stims/complex_20_A_a.gif","forced_long","","6","complex_dissimilar","images/stimuli/spore_stims/complex_04_A_b.gif","","","","",""
"","7605.31000001356","survey-multi-choice","89","514984","0.0-22.0","SS1619740107239","math_question","","","","","","","","","","","","{""Q0"":""7""}","[0]","7","",""
"","null","html-keyboard-response","90","515999","0.0-23.0-0.0","SS1619740107239","","","null","","","","","","<p><img src= images/blank.png width =""600"" height = ""600"" style=""position:fixed;top:50%; left:50%; transform: translate(-50%, -50%); border:5px solid black"">","","","","","","","",""
"","1262.0250000618398","sequential-stimulus-presentation-old","91","517767","0.0-23.0-1.0","SS1619740107239","trial","","40","500","1762.0250000618398","images/stimuli/spore_stims/complex_13_A_a.gif","images/stimuli/spore_stims/complex_02_A_b.gif","forced_short","","7","complex_dissimilar","images/stimuli/spore_stims/complex_02_A_b.gif","","","","",""
"","null","html-keyboard-response","92","518920","0.0-23.0-0.1","SS1619740107239","","","null","","","","","","<p><img src= images/blank.png width =""600"" height = ""600"" style=""position:fixed;top:50%; left:50%; transform: translate(-50%, -50%); border:5px solid black"">","","","","","","","",""
"","4264.974999940023","sequential-stimulus-presentation-old","93","523688","0.0-23.0-1.1","SS1619740107239","trial","","40","500","4764.974999940023","images/stimuli/spore_stims/complex_13_A_a.gif","images/stimuli/spore_stims/complex_02_A_b.gif","forced_short","","7","complex_dissimilar","images/stimuli/spore_stims/complex_13_A_a.gif","","","","",""
"","null","html-keyboard-response","94","524552","0.0-23.0-0.2","SS1619740107239","","","null","","","","","","<p><img src= images/blank.png width =""600"" height = ""600"" style=""position:fixed;top:50%; left:50%; transform: translate(-50%, -50%); border:5px solid black"">","","","","","","","",""
"","5415.915000019595","sequential-stimulus-presentation-old","95","530472","0.0-23.0-1.2","SS1619740107239","trial","","40","500","5915.915000019595","images/stimuli/spore_stims/complex_13_A_a.gif","images/stimuli/spore_stims/complex_02_A_b.gif","forced_short","","7","complex_dissimilar","images/stimuli/spore_stims/complex_02_A_b.gif","","","","",""
"","null","html-keyboard-response","96","531537","0.0-23.0-0.3","SS1619740107239","","","null","","","","","","<p><img src= images/blank.png width =""600"" height = ""600"" style=""position:fixed;top:50%; left:50%; transform: translate(-50%, -50%); border:5px solid black"">","","","","","","","",""
"","2855.449999915436","sequential-stimulus-presentation-old","97","534897","0.0-23.0-1.3","SS1619740107239","trial","","40","500","3355.449999915436","images/stimuli/spore_stims/complex_13_A_a.gif","images/stimuli/spore_stims/complex_02_A_b.gif","forced_short","","7","complex_dissimilar","images/stimuli/spore_stims/complex_13_A_a.gif","","","","",""
"","4733.475000131875","survey-multi-choice","98","539633","0.0-24.0","SS1619740107239","math_question","","","","","","","","","","","","{""Q0"":""14""}","[0]","14","",""
"","null","html-keyboard-response","99","540796","0.0-25.0-0.0","SS1619740107239","","","null","","","","","","<p><img src= images/blank.png width =""600"" height = ""600"" style=""position:fixed;top:50%; left:50%; transform: translate(-50%, -50%); border:5px solid black"">","","","","","","","",""
"","10272.154999896884","sequential-stimulus-presentation-old","100","566074","0.0-25.0-1.0","SS1619740107239","trial","","40","500","10772.154999896884","images/stimuli/spore_stims/complex_09_A_a.gif","images/stimuli/spore_stims/complex_20_A_b.gif","forced_long","","8","complex_dissimilar","images/stimuli/spore_stims/complex_20_A_b.gif","","","","",""
"","null","html-keyboard-response","101","567278","0.0-25.0-0.1","SS1619740107239","","","null","","","","","","<p><img src= images/blank.png width =""600"" height = ""600"" style=""position:fixed;top:50%; left:50%; transform: translate(-50%, -50%); border:5px solid black"">","","","","","","","",""
"","496.7750001233071","sequential-stimulus-presentation-old","102","568279","0.0-25.0-1.1","SS1619740107239","trial","","40","500","996.7750001233071","images/stimuli/spore_stims/complex_09_A_a.gif","images/stimuli/spore_stims/complex_20_A_b.gif","forced_long","","8","complex_dissimilar","images/stimuli/spore_stims/complex_20_A_b.gif","","","","",""
"","null","html-keyboard-response","103","569307","0.0-25.0-0.2","SS1619740107239","","","null","","","","","","<p><img src= images/blank.png width =""600"" height = ""600"" style=""position:fixed;top:50%; left:50%; transform: translate(-50%, -50%); border:5px solid black"">","","","","","","","",""
"","2838.404999813065","sequential-stimulus-presentation-old","104","572649","0.0-25.0-1.2","SS1619740107239","trial","","40","500","3338.404999813065","images/stimuli/spore_stims/complex_09_A_a.gif","images/stimuli/spore_stims/complex_20_A_b.gif","forced_long","","8","complex_dissimilar","images/stimuli/spore_stims/complex_09_A_a.gif","","","","",""
"","null","html-keyboard-response","105","573629","0.0-25.0-0.3","SS1619740107239","","","null","","","","","","<p><img src= images/blank.png width =""600"" height = ""600"" style=""position:fixed;top:50%; left:50%; transform: translate(-50%, -50%); border:5px solid black"">","","","","","","","",""
"","277.0899999886751","sequential-stimulus-presentation-old","106","574410","0.0-25.0-1.3","SS1619740107239","trial","","40","500","777.0899999886751","images/stimuli/spore_stims/complex_09_A_a.gif","images/stimuli/spore_stims/complex_20_A_b.gif","forced_long","","8","complex_dissimilar","images/stimuli/spore_stims/complex_20_A_b.gif","","","","",""
"","null","html-keyboard-response","107","575353","0.0-25.0-0.4","SS1619740107239","","","null","","","","","","<p><img src= images/blank.png width =""600"" height = ""600"" style=""position:fixed;top:50%; left:50%; transform: translate(-50%, -50%); border:5px solid black"">","","","","","","","",""
"","763.2850001100451","sequential-stimulus-presentation-old","108","576620","0.0-25.0-1.4","SS1619740107239","trial","","40","500","1263.285000110045","images/stimuli/spore_stims/complex_09_A_a.gif","images/stimuli/spore_stims/complex_20_A_b.gif","forced_long","","8","complex_dissimilar","images/stimuli/spore_stims/complex_20_A_b.gif","","","","",""
"","3028.805000009015","survey-multi-choice","109","579653","0.0-26.0","SS1619740107239","math_question","","","","","","","","","","","","{""Q0"":""5""}","[0]","5","",""
"","null","html-keyboard-response","110","580933","0.0-27.0-0.0","SS1619740107239","","","null","","","","","","<p><img src= images/blank.png width =""600"" height = ""600"" style=""position:fixed;top:50%; left:50%; transform: translate(-50%, -50%); border:5px solid black"">","","","","","","","",""
"","1317.7350000478327","sequential-stimulus-presentation-old","111","582755","0.0-27.0-1.0","SS1619740107239","trial","","40","500","1817.7350000478327","images/stimuli/spore_stims/simple_06_A_a.gif","images/stimuli/spore_stims/simple_12_A_b.gif","forced_short","","9","simple_dissimilar","images/stimuli/spore_stims/simple_12_A_b.gif","","","","",""
"","null","html-keyboard-response","112","583827","0.0-27.0-0.1","SS1619740107239","","","null","","","","","","<p><img src= images/blank.png width =""600"" height = ""600"" style=""position:fixed;top:50%; left:50%; transform: translate(-50%, -50%); border:5px solid black"">","","","","","","","",""
"","3068.3999999891967","sequential-stimulus-presentation-old","113","587400","0.0-27.0-1.1","SS1619740107239","trial","","40","500","3568.3999999891967","images/stimuli/spore_stims/simple_06_A_a.gif","images/stimuli/spore_stims/simple_12_A_b.gif","forced_short","","9","simple_dissimilar","images/stimuli/spore_stims/simple_12_A_b.gif","","","","",""
"","null","html-keyboard-response","114","588247","0.0-27.0-0.2","SS1619740107239","","","null","","","","","","<p><img src= images/blank.png width =""600"" height = ""600"" style=""position:fixed;top:50%; left:50%; transform: translate(-50%, -50%); border:5px solid black"">","","","","","","","",""
"","3735.609999857843","sequential-stimulus-presentation-old","115","592487","0.0-27.0-1.2","SS1619740107239","trial","","40","500","4235.609999857843","images/stimuli/spore_stims/simple_06_A_a.gif","images/stimuli/spore_stims/simple_12_A_b.gif","forced_short","","9","simple_dissimilar","images/stimuli/spore_stims/simple_12_A_b.gif","","","","",""
"","null","html-keyboard-response","116","593393","0.0-27.0-0.3","SS1619740107239","","","null","","","","","","<p><img src= images/blank.png width =""600"" height = ""600"" style=""position:fixed;top:50%; left:50%; transform: translate(-50%, -50%); border:5px solid black"">","","","","","","","",""
"","754.0249999146909","sequential-stimulus-presentation-old","117","594652","0.0-27.0-1.3","SS1619740107239","trial","","40","500","1254.0249999146909","images/stimuli/spore_stims/simple_06_A_a.gif","images/stimuli/spore_stims/simple_12_A_b.gif","forced_short","","9","simple_dissimilar","images/stimuli/spore_stims/simple_12_A_b.gif","","","","",""
"","null","html-keyboard-response","118","595614","0.0-27.0-0.4","SS1619740107239","","","null","","","","","","<p><img src= images/blank.png width =""600"" height = ""600"" style=""position:fixed;top:50%; left:50%; transform: translate(-50%, -50%); border:5px solid black"">","","","","","","","",""
"","748.9399998448789","sequential-stimulus-presentation-old","119","596868","0.0-27.0-1.4","SS1619740107239","trial","","40","500","1248.939999844879","images/stimuli/spore_stims/simple_06_A_a.gif","images/stimuli/spore_stims/simple_12_A_b.gif","forced_short","","9","simple_dissimilar","images/stimuli/spore_stims/simple_12_A_b.gif","","","","",""
"","null","html-keyboard-response","120","598056","0.0-27.0-0.5","SS1619740107239","","","null","","","","","","<p><img src= images/blank.png width =""600"" height = ""600"" style=""position:fixed;top:50%; left:50%; transform: translate(-50%, -50%); border:5px solid black"">","","","","","","","",""
"","1196.8749999068677","sequential-stimulus-presentation-old","121","599761","0.0-27.0-1.5","SS1619740107239","trial","","40","500","1696.8749999068677","images/stimuli/spore_stims/simple_06_A_a.gif","images/stimuli/spore_stims/simple_12_A_b.gif","forced_short","","9","simple_dissimilar","images/stimuli/spore_stims/simple_12_A_b.gif","","","","",""
"","2662.1850000228733","survey-multi-choice","122","602426","0.0-28.0","SS1619740107239","math_question","","","","","","","","","","","","{""Q0"":""9""}","[0]","9","",""
"","null","html-keyboard-response","123","603643","0.0-29.0-0.0","SS1619740107239","","","null","","","","","","<p><img src= images/blank.png width =""600"" height = ""600"" style=""position:fixed;top:50%; left:50%; transform: translate(-50%, -50%); border:5px solid black"">","","","","","","","",""
"","807.9049999359995","sequential-stimulus-presentation-old","124","604954","0.0-29.0-1.0","SS1619740107239","trial","","40","500","1307.9049999359995","images/stimuli/spore_stims/complex_14_A_a.gif","images/stimuli/spore_stims/complex_09_A_b.gif","forced_short","","10","complex_dissimilar","images/stimuli/spore_stims/complex_09_A_b.gif","","","","",""
"","null","html-keyboard-response","125","605941","0.0-29.0-0.1","SS1619740107239","","","null","","","","","","<p><img src= images/blank.png width =""600"" height = ""600"" style=""position:fixed;top:50%; left:50%; transform: translate(-50%, -50%); border:5px solid black"">","","","","","","","",""
"","1086.1400000285357","sequential-stimulus-presentation-old","126","607533","0.0-29.0-1.1","SS1619740107239","trial","","40","500","1586.1400000285357","images/stimuli/spore_stims/complex_14_A_a.gif","images/stimuli/spore_stims/complex_09_A_b.gif","forced_short","","10","complex_dissimilar","images/stimuli/spore_stims/complex_09_A_b.gif","","","","",""
"","null","html-keyboard-response","127","608640","0.0-29.0-0.2","SS1619740107239","","","null","","","","","","<p><img src= images/blank.png width =""600"" height = ""600"" style=""position:fixed;top:50%; left:50%; transform: translate(-50%, -50%); border:5px solid black"">","","","","","","","",""
"","978.7050001323223","sequential-stimulus-presentation-old","128","610122","0.0-29.0-1.2","SS1619740107239","trial","","40","500","1478.7050001323223","images/stimuli/spore_stims/complex_14_A_a.gif","images/stimuli/spore_stims/complex_09_A_b.gif","forced_short","","10","complex_dissimilar","images/stimuli/spore_stims/complex_14_A_a.gif","","","","",""
"","null","html-keyboard-response","129","611038","0.0-29.0-0.3","SS1619740107239","","","null","","","","","","<p><img src= images/blank.png width =""600"" height = ""600"" style=""position:fixed;top:50%; left:50%; transform: translate(-50%, -50%); border:5px solid black"">","","","","","","","",""
"","631.9250001106411","sequential-stimulus-presentation-old","130","612177","0.0-29.0-1.3","SS1619740107239","trial","","40","500","1131.9250001106411","images/stimuli/spore_stims/complex_14_A_a.gif","images/stimuli/spore_stims/complex_09_A_b.gif","forced_short","","10","complex_dissimilar","images/stimuli/spore_stims/complex_09_A_b.gif","","","","",""
"","null","html-keyboard-response","131","613198","0.0-29.0-0.4","SS1619740107239","","","null","","","","","","<p><img src= images/blank.png width =""600"" height = ""600"" style=""position:fixed;top:50%; left:50%; transform: translate(-50%, -50%); border:5px solid black"">","","","","","","","",""
"","754.7400000039488","sequential-stimulus-presentation-old","132","614457","0.0-29.0-1.4","SS1619740107239","trial","","40","500","1254.7400000039488","images/stimuli/spore_stims/complex_14_A_a.gif","images/stimuli/spore_stims/complex_09_A_b.gif","forced_short","","10","complex_dissimilar","images/stimuli/spore_stims/complex_09_A_b.gif","","","","",""
"","null","html-keyboard-response","133","615584","0.0-29.0-0.5","SS1619740107239","","","null","","","","","","<p><img src= images/blank.png width =""600"" height = ""600"" style=""position:fixed;top:50%; left:50%; transform: translate(-50%, -50%); border:5px solid black"">","","","","","","","",""
"","303.1049999408424","sequential-stimulus-presentation-old","134","616392","0.0-29.0-1.5","SS1619740107239","trial","","40","500","803.1049999408424","images/stimuli/spore_stims/complex_14_A_a.gif","images/stimuli/spore_stims/complex_09_A_b.gif","forced_short","","10","complex_dissimilar","images/stimuli/spore_stims/complex_14_A_a.gif","","","","",""
"","11571.274999994785","survey-multi-choice","135","627968","0.0-30.0","SS1619740107239","math_question","","","","","","","","","","","","{""Q0"":""13""}","[0]","13","",""
"","null","html-keyboard-response","136","629080","0.0-31.0-0.0","SS1619740107239","","","null","","","","","","<p><img src= images/blank.png width =""600"" height = ""600"" style=""position:fixed;top:50%; left:50%; transform: translate(-50%, -50%); border:5px solid black"">","","","","","","","",""
"","3087.455000029877","sequential-stimulus-presentation-old","137","632674","0.0-31.0-1.0","SS1619740107239","trial","","40","500","3587.455000029877","images/stimuli/spore_stims/simple_17_A_b.gif","images/stimuli/spore_stims/simple_18_A_a.gif","self_paced","","11","simple_dissimilar","images/stimuli/spore_stims/simple_18_A_a.gif","","","","",""
"","null","html-keyboard-response","138","633600","0.0-31.0-0.1","SS1619740107239","","","null","","","","","","<p><img src= images/blank.png width =""600"" height = ""600"" style=""position:fixed;top:50%; left:50%; transform: translate(-50%, -50%); border:5px solid black"">","","","","","","","",""
"","2389.289999846369","sequential-stimulus-presentation-old","139","636495","0.0-31.0-1.1","SS1619740107239","trial","","40","500","2889.289999846369","images/stimuli/spore_stims/simple_17_A_b.gif","images/stimuli/spore_stims/simple_18_A_a.gif","self_paced","","11","simple_dissimilar","images/stimuli/spore_stims/simple_18_A_a.gif","","","","",""
"","null","html-keyboard-response","140","637432","0.0-31.0-0.2","SS1619740107239","","","null","","","","","","<p><img src= images/blank.png width =""600"" height = ""600"" style=""position:fixed;top:50%; left:50%; transform: translate(-50%, -50%); border:5px solid black"">","","","","","","","",""
"","893.635000102222","sequential-stimulus-presentation-old","141","638831","0.0-31.0-1.2","SS1619740107239","trial","","40","500","1393.635000102222","images/stimuli/spore_stims/simple_17_A_b.gif","images/stimuli/spore_stims/simple_18_A_a.gif","self_paced","","11","simple_dissimilar","images/stimuli/spore_stims/simple_18_A_a.gif","","","","",""
"","null","html-keyboard-response","142","639664","0.0-31.0-0.3","SS1619740107239","","","null","","","","","","<p><img src= images/blank.png width =""600"" height = ""600"" style=""position:fixed;top:50%; left:50%; transform: translate(-50%, -50%); border:5px solid black"">","","","","","","","",""
"","647.7500000037253","sequential-stimulus-presentation-old","143","640816","0.0-31.0-1.3","SS1619740107239","trial","","40","500","1147.7500000037253","images/stimuli/spore_stims/simple_17_A_b.gif","images/stimuli/spore_stims/simple_18_A_a.gif","self_paced","","11","simple_dissimilar","images/stimuli/spore_stims/simple_18_A_a.gif","","","","",""
"[{""page_index"":0,""viewing_time"":5146.46999980323}]","5146.754999877885","instructions","144","645965","0.0-32.0","SS1619740107239","instructions","","","","","","","","","","","","","","","",""
"","12375.230000121519","survey-likert","145","658344","0.0-33.0","SS1619740107239","similarity_question","","","","","","","","","","","","{""Q0"":4}","[0]","","images/stimuli/spore_stims/complex_19_A_a.gif","images/stimuli/spore_stims/complex_03_A_b.gif"
"","5553.539999993518","survey-likert","146","663901","0.0-34.0","SS1619740107239","similarity_question","","","","","","","","","","","","{""Q0"":1}","[0]","","images/stimuli/spore_stims/complex_14_A_a.gif","images/stimuli/spore_stims/complex_09_A_b.gif"
"","4014.380000066012","survey-likert","147","667919","0.0-35.0","SS1619740107239","similarity_question","","","","","","","","","","","","{""Q0"":0}","[0]","","images/stimuli/spore_stims/complex_02_A_b.gif","images/stimuli/spore_stims/complex_13_A_a.gif"
"","4539.720000000671","survey-likert","148","672463","0.0-36.0","SS1619740107239","similarity_question","","","","","","","","","","","","{""Q0"":5}","[0]","","images/stimuli/spore_stims/complex_04_A_b.gif","images/stimuli/spore_stims/complex_20_A_a.gif"
"","5266.060000052676","survey-likert","149","677733","0.0-37.0","SS1619740107239","similarity_question","","","","","","","","","","","","{""Q0"":2}","[0]","","images/stimuli/spore_stims/simple_05_A_a.gif","images/stimuli/spore_stims/simple_01_A_b.gif"
"","4202.799999853596","survey-likert","150","681940","0.0-38.0","SS1619740107239","similarity_question","","","","","","","","","","","","{""Q0"":0}","[0]","","images/stimuli/spore_stims/complex_08_A_b.gif","images/stimuli/spore_stims/complex_02_A_a.gif"
"","4302.834999980405","survey-likert","151","686246","0.0-39.0","SS1619740107239","similarity_question","","","","","","","","","","","","{""Q0"":4}","[0]","","images/stimuli/spore_stims/simple_12_A_b.gif","images/stimuli/spore_stims/simple_06_A_a.gif"
"","2848.1050000991672","survey-likert","152","689098","0.0-40.0","SS1619740107239","similarity_question","","","","","","","","","","","","{""Q0"":0}","[0]","","images/stimuli/spore_stims/simple_12_A_a.gif","images/stimuli/spore_stims/simple_11_A_b.gif"
"","9460.699999937788","survey-likert","153","698562","0.0-41.0","SS1619740107239","similarity_question","","","","","","","","","","","","{""Q0"":1}","[0]","","images/stimuli/spore_stims/complex_20_A_b.gif","images/stimuli/spore_stims/complex_09_A_a.gif"
"","3620.2799999155104","survey-likert","154","702188","0.0-42.0","SS1619740107239","similarity_question","","","","","","","","","","","","{""Q0"":1}","[0]","","images/stimuli/spore_stims/simple_04_A_a.gif","images/stimuli/spore_stims/simple_16_A_b.gif"
"","2093.804999953136","survey-likert","155","704286","0.0-43.0","SS1619740107239","similarity_question","","","","","","","","","","","","{""Q0"":1}","[0]","","images/stimuli/spore_stims/simple_18_A_a.gif","images/stimuli/spore_stims/simple_17_A_b.gif"
"","2346.559999976307","survey-likert","156","706638","0.0-44.0","SS1619740107239","similarity_question","","","","","","","","","","","","{""Q0"":4}","[0]","","images/stimuli/spore_stims/simple_15_A_a.gif","images/stimuli/spore_stims/simple_08_A_b.gif"
"[{""page_index"":0,""viewing_time"":5695.994999958202}]","5696.310000028461","instructions","157","712339","0.0-45.0","SS1619740107239","instructions","","","","","","","","","","","","","","","",""
"","4080.3199999500066","survey-likert","158","716424","0.0-46.0","SS1619740107239","","","","","","","","","images/stimuli/spore_stims/simple_08_A_b.gif","","","","{""Q0"":0}","[0]","","",""
"","6338.1950000766665","survey-likert","159","722767","0.0-47.0","SS1619740107239","","","","","","","","","images/stimuli/spore_stims/complex_04_A_b.gif","","","","{""Q0"":5}","[0]","","",""
"","4399.4950000196695","survey-likert","160","727171","0.0-48.0","SS1619740107239","","","","","","","","","images/stimuli/spore_stims/complex_03_A_b.gif","","","","{""Q0"":6}","[0]","","",""
"","2229.270000010729","survey-likert","161","729404","0.0-49.0","SS1619740107239","","","","","","","","","images/stimuli/spore_stims/complex_09_A_b.gif","","","","{""Q0"":5}","[0]","","",""
"","2535.270000109449","survey-likert","162","731945","0.0-50.0","SS1619740107239","","","","","","","","","images/stimuli/spore_stims/simple_16_A_b.gif","","","","{""Q0"":0}","[0]","","",""
"","2592.4599999561906","survey-likert","163","734542","0.0-51.0","SS1619740107239","","","","","","","","","images/stimuli/spore_stims/complex_02_A_a.gif","","","","{""Q0"":5}","[0]","","",""
"","2722.970000002533","survey-likert","164","737268","0.0-52.0","SS1619740107239","","","","","","","","","images/stimuli/spore_stims/simple_17_A_b.gif","","","","{""Q0"":0}","[0]","","",""
"","2011.075000045821","survey-likert","165","739290","0.0-53.0","SS1619740107239","","","","","","","","","images/stimuli/spore_stims/simple_12_A_b.gif","","","","{""Q0"":0}","[0]","","",""
"","3424.750000005588","survey-likert","166","742719","0.0-54.0","SS1619740107239","","","","","","","","","images/stimuli/spore_stims/complex_13_A_a.gif","","","","{""Q0"":6}","[0]","","",""
"","1914.589999942109","survey-likert","167","744637","0.0-55.0","SS1619740107239","","","","","","","","","images/stimuli/spore_stims/simple_12_A_a.gif","","","","{""Q0"":1}","[0]","","",""
"","1986.680000089109","survey-likert","168","746627","0.0-56.0","SS1619740107239","","","","","","","","","images/stimuli/spore_stims/simple_05_A_a.gif","","","","{""Q0"":0}","[0]","","",""
"","1692.6299999468029","survey-likert","169","748325","0.0-57.0","SS1619740107239","","","","","","","","","images/stimuli/spore_stims/complex_09_A_a.gif","","","","{""Q0"":5}","[0]","","",""
"[{""page_index"":0,""viewing_time"":2445.090000052005}]","2445.860000094399","instructions","170","750775","0.0-58.0","SS1619740107239","instructions","","","","","","","","","","","","","","","",""
"","2301.529999822378","demog-age","171","753083","0.0-59.0","SS1619740107239","","","","","","","","","","","","","{""age"":""30""}","","","",""
"","2856.215000152588","demog-ethnic-US","172","755946","0.0-60.0","SS1619740107239","","","","","","","","","","","","","{""ethnicity"":[""Hispanic or Latino""]}","[0]","","",""
"","7325.354999862611","demog-gender-and-education","173","763277","0.0-61.0","SS1619740107239","","","","","","","","","","","","","{""gender"":""Male"",""education"":""Bachelor's Degree""}","[0,1]","","",""
"","18523.070000112057","survey-text","174","781805","0.0-62.0","SS1619740107239","feedback","","","","","","","","","","","","{""Q0"":""No lag, everything ok.""}","","","",""
"[{""page_index"":0,""viewing_time"":1234.3450000043958}]","1234.5999998506159","instructions","175","783045","0.0-63.0","SS1619740107239","instructions","","","","","","","","","","","","","","","",""
