"view_history","rt","trial_type","trial_index","time_elapsed","internal_node_id","subject","stimulus_type","trial_stimulus","key_press","minimum_viewing_duration","trial_looking_time","block_deviant","block_background","exposure_type","stimulus","block_number","block_type","stimulus_displayed","responses","question_order","math_correct_answer","stimulus_left","stimulus_right"
"[{""page_index"":0,""viewing_time"":1054.0349999973841}]","1054.3299999990268","instructions","0","1056","0.0-0.0","SS1619740157373","","","","","","","","","","","","","","","","",""
"[{""page_index"":0,""viewing_time"":1123.3250000004773},{""page_index"":1,""viewing_time"":940.0549999991199}]","2063.640000000305","instructions","1","5121","0.0-1.0","SS1619740157373","instructions","","","","","","","","","","","","","","","",""
"","829.2350000010629","sequential-stimulus-presentation-old","2","6453","0.0-2.0","SS1619740157373","","","40","500","1329.2350000010629","null","null","self_paced","","","","","","","","",""
"","128.86000000071363","sequential-stimulus-presentation-old","3","7084","0.0-3.0","SS1619740157373","","","40","500","628.8600000007136","null","null","self_paced","","","","","","","","",""
"[{""page_index"":0,""viewing_time"":875.594999997702}]","875.7999999979802","instructions","4","7961","0.0-4.0","SS1619740157373","instructions","","","","","","","","","","","","","","","",""
"","4044.724999999744","sequential-stimulus-presentation-old","5","27572","0.0-5.0","SS1619740157373","","","40","500","4544.724999999744","null","null","forced_long","","","","","","","","",""
"","132.03499999872292","sequential-stimulus-presentation-old","6","28212","0.0-6.0","SS1619740157373","","","40","500","632.0349999987229","null","null","forced_long","","","","","","","","",""
"[{""page_index"":0,""viewing_time"":1594.3200000001525}]","1594.5500000016182","instructions","7","29807","0.0-7.0","SS1619740157373","instructions","","","","","","","","","","","","","","","",""
"[{""page_index"":0,""viewing_time"":1105.1250000018626},{""page_index"":1,""viewing_time"":11357.889999999315},{""page_index"":2,""viewing_time"":2385.934999998426},{""page_index"":3,""viewing_time"":971.7150000033143},{""page_index"":4,""viewing_time"":1034.4749999967462}]","16855.455000000802","instructions","8","46663","0.0-8.0","SS1619740157373","instructions","","","","","","","","","","","","","","","",""
"","null","html-keyboard-response","9","47963","0.0-9.0-0.0","SS1619740157373","","","null","","","","","","<p><img src= images/blank.png width =""600"" height = ""600"" style=""position:fixed;top:50%; left:50%; transform: translate(-50%, -50%); border:5px solid black"">","","","","","","","",""
"","352.8650000007474","sequential-stimulus-presentation-old","10","48820","0.0-9.0-1.0","SS1619740157373","trial","","40","500","852.8650000007474","images/stimuli/spore_stims/simple_13_A_a.gif","images/stimuli/spore_stims/simple_03_A_b.gif","self_paced","","0","simple_dissimilar","images/stimuli/spore_stims/simple_03_A_b.gif","","","","",""
"","null","html-keyboard-response","11","49932","0.0-9.0-0.1","SS1619740157373","","","null","","","","","","<p><img src= images/blank.png width =""600"" height = ""600"" style=""position:fixed;top:50%; left:50%; transform: translate(-50%, -50%); border:5px solid black"">","","","","","","","",""
"","385.80000000001746","sequential-stimulus-presentation-old","12","50820","0.0-9.0-1.1","SS1619740157373","trial","","40","500","885.8000000000175","images/stimuli/spore_stims/simple_13_A_a.gif","images/stimuli/spore_stims/simple_03_A_b.gif","self_paced","","0","simple_dissimilar","images/stimuli/spore_stims/simple_03_A_b.gif","","","","",""
"","null","html-keyboard-response","13","52131","0.0-9.0-0.2","SS1619740157373","","","null","","","","","","<p><img src= images/blank.png width =""600"" height = ""600"" style=""position:fixed;top:50%; left:50%; transform: translate(-50%, -50%); border:5px solid black"">","","","","","","","",""
"","739.7999999993772","sequential-stimulus-presentation-old","14","53380","0.0-9.0-1.2","SS1619740157373","trial","","40","500","1239.7999999993772","images/stimuli/spore_stims/simple_13_A_a.gif","images/stimuli/spore_stims/simple_03_A_b.gif","self_paced","","0","simple_dissimilar","images/stimuli/spore_stims/simple_03_A_b.gif","","","","",""
"","null","html-keyboard-response","15","54418","0.0-9.0-0.3","SS1619740157373","","","null","","","","","","<p><img src= images/blank.png width =""600"" height = ""600"" style=""position:fixed;top:50%; left:50%; transform: translate(-50%, -50%); border:5px solid black"">","","","","","","","",""
"","528.6449999985052","sequential-stimulus-presentation-old","16","55460","0.0-9.0-1.3","SS1619740157373","trial","","40","500","1028.6449999985052","images/stimuli/spore_stims/simple_13_A_a.gif","images/stimuli/spore_stims/simple_03_A_b.gif","self_paced","","0","simple_dissimilar","images/stimuli/spore_stims/simple_03_A_b.gif","","","","",""
"","null","html-keyboard-response","17","56437","0.0-9.0-0.4","SS1619740157373","","","null","","","","","","<p><img src= images/blank.png width =""600"" height = ""600"" style=""position:fixed;top:50%; left:50%; transform: translate(-50%, -50%); border:5px solid black"">","","","","","","","",""
"","200.93999999880907","sequential-stimulus-presentation-old","18","57140","0.0-9.0-1.4","SS1619740157373","trial","","40","500","700.9399999988091","images/stimuli/spore_stims/simple_13_A_a.gif","images/stimuli/spore_stims/simple_03_A_b.gif","self_paced","","0","simple_dissimilar","images/stimuli/spore_stims/simple_03_A_b.gif","","","","",""
"","null","html-keyboard-response","19","58219","0.0-9.0-0.5","SS1619740157373","","","null","","","","","","<p><img src= images/blank.png width =""600"" height = ""600"" style=""position:fixed;top:50%; left:50%; transform: translate(-50%, -50%); border:5px solid black"">","","","","","","","",""
"","56.0299999997369","sequential-stimulus-presentation-old","20","58780","0.0-9.0-1.5","SS1619740157373","trial","","40","500","556.0299999997369","images/stimuli/spore_stims/simple_13_A_a.gif","images/stimuli/spore_stims/simple_03_A_b.gif","self_paced","","0","simple_dissimilar","images/stimuli/spore_stims/simple_13_A_a.gif","","","","",""
"","3111.350000002858","survey-multi-choice","21","61894","0.0-10.0","SS1619740157373","math_question","","","","","","","","","","","","{""Q0"":""7""}","[0]","7","",""
"","null","html-keyboard-response","22","62879","0.0-11.0-0.0","SS1619740157373","","","null","","","","","","<p><img src= images/blank.png width =""600"" height = ""600"" style=""position:fixed;top:50%; left:50%; transform: translate(-50%, -50%); border:5px solid black"">","","","","","","","",""
"","1031.5800000025774","sequential-stimulus-presentation-old","23","78925","0.0-11.0-1.0","SS1619740157373","trial","","40","500","1531.5800000025774","images/stimuli/spore_stims/complex_18_A_b.gif","images/stimuli/spore_stims/complex_20_A_a.gif","forced_long","","1","complex_dissimilar","images/stimuli/spore_stims/complex_20_A_a.gif","","","","",""
"","null","html-keyboard-response","24","80036","0.0-11.0-0.1","SS1619740157373","","","null","","","","","","<p><img src= images/blank.png width =""600"" height = ""600"" style=""position:fixed;top:50%; left:50%; transform: translate(-50%, -50%); border:5px solid black"">","","","","","","","",""
"","42.00999999738997","sequential-stimulus-presentation-old","25","80581","0.0-11.0-1.1","SS1619740157373","trial","","40","500","542.00999999739","images/stimuli/spore_stims/complex_18_A_b.gif","images/stimuli/spore_stims/complex_20_A_a.gif","forced_long","","1","complex_dissimilar","images/stimuli/spore_stims/complex_20_A_a.gif","","","","",""
"","null","html-keyboard-response","26","81601","0.0-11.0-0.2","SS1619740157373","","","null","","","","","","<p><img src= images/blank.png width =""600"" height = ""600"" style=""position:fixed;top:50%; left:50%; transform: translate(-50%, -50%); border:5px solid black"">","","","","","","","",""
"","15.645000003132736","sequential-stimulus-presentation-old","27","82124","0.0-11.0-1.2","SS1619740157373","trial","","40","500","515.6450000031327","images/stimuli/spore_stims/complex_18_A_b.gif","images/stimuli/spore_stims/complex_20_A_a.gif","forced_long","","1","complex_dissimilar","images/stimuli/spore_stims/complex_20_A_a.gif","","","","",""
"","null","html-keyboard-response","28","83017","0.0-11.0-0.3","SS1619740157373","","","null","","","","","","<p><img src= images/blank.png width =""600"" height = ""600"" style=""position:fixed;top:50%; left:50%; transform: translate(-50%, -50%); border:5px solid black"">","","","","","","","",""
"","125.81000000136555","sequential-stimulus-presentation-old","29","83645","0.0-11.0-1.3","SS1619740157373","trial","","40","500","625.8100000013656","images/stimuli/spore_stims/complex_18_A_b.gif","images/stimuli/spore_stims/complex_20_A_a.gif","forced_long","","1","complex_dissimilar","images/stimuli/spore_stims/complex_20_A_a.gif","","","","",""
"","null","html-keyboard-response","30","84881","0.0-11.0-0.4","SS1619740157373","","","null","","","","","","<p><img src= images/blank.png width =""600"" height = ""600"" style=""position:fixed;top:50%; left:50%; transform: translate(-50%, -50%); border:5px solid black"">","","","","","","","",""
"","12.24999999976717","sequential-stimulus-presentation-old","31","85396","0.0-11.0-1.4","SS1619740157373","trial","","40","500","512.2499999997672","images/stimuli/spore_stims/complex_18_A_b.gif","images/stimuli/spore_stims/complex_20_A_a.gif","forced_long","","1","complex_dissimilar","images/stimuli/spore_stims/complex_18_A_b.gif","","","","",""
"","null","html-keyboard-response","32","86508","0.0-11.0-0.5","SS1619740157373","","","null","","","","","","<p><img src= images/blank.png width =""600"" height = ""600"" style=""position:fixed;top:50%; left:50%; transform: translate(-50%, -50%); border:5px solid black"">","","","","","","","",""
"","118.28999999852385","sequential-stimulus-presentation-old","33","87132","0.0-11.0-1.5","SS1619740157373","trial","","40","500","618.2899999985239","images/stimuli/spore_stims/complex_18_A_b.gif","images/stimuli/spore_stims/complex_20_A_a.gif","forced_long","","1","complex_dissimilar","images/stimuli/spore_stims/complex_20_A_a.gif","","","","",""
"","5523.634999997739","survey-multi-choice","34","92657","0.0-12.0","SS1619740157373","math_question","","","","","","","","","","","","{""Q0"":""15""}","[0]","15","",""
"","null","html-keyboard-response","35","93872","0.0-13.0-0.0","SS1619740157373","","","null","","","","","","<p><img src= images/blank.png width =""600"" height = ""600"" style=""position:fixed;top:50%; left:50%; transform: translate(-50%, -50%); border:5px solid black"">","","","","","","","",""
"","854.974999998376","sequential-stimulus-presentation-old","36","109733","0.0-13.0-1.0","SS1619740157373","trial","","40","500","1354.974999998376","images/stimuli/spore_stims/complex_05_A_a.gif","images/stimuli/spore_stims/complex_16_A_b.gif","forced_long","","2","complex_dissimilar","images/stimuli/spore_stims/complex_16_A_b.gif","","","","",""
"","null","html-keyboard-response","37","110726","0.0-13.0-0.1","SS1619740157373","","","null","","","","","","<p><img src= images/blank.png width =""600"" height = ""600"" style=""position:fixed;top:50%; left:50%; transform: translate(-50%, -50%); border:5px solid black"">","","","","","","","",""
"","151.02000000115368","sequential-stimulus-presentation-old","38","111380","0.0-13.0-1.1","SS1619740157373","trial","","40","500","651.0200000011537","images/stimuli/spore_stims/complex_05_A_a.gif","images/stimuli/spore_stims/complex_16_A_b.gif","forced_long","","2","complex_dissimilar","images/stimuli/spore_stims/complex_16_A_b.gif","","","","",""
"","null","html-keyboard-response","39","112433","0.0-13.0-0.2","SS1619740157373","","","null","","","","","","<p><img src= images/blank.png width =""600"" height = ""600"" style=""position:fixed;top:50%; left:50%; transform: translate(-50%, -50%); border:5px solid black"">","","","","","","","",""
"","75.55499999944004","sequential-stimulus-presentation-old","40","113013","0.0-13.0-1.2","SS1619740157373","trial","","40","500","575.55499999944","images/stimuli/spore_stims/complex_05_A_a.gif","images/stimuli/spore_stims/complex_16_A_b.gif","forced_long","","2","complex_dissimilar","images/stimuli/spore_stims/complex_16_A_b.gif","","","","",""
"","null","html-keyboard-response","41","114060","0.0-13.0-0.3","SS1619740157373","","","null","","","","","","<p><img src= images/blank.png width =""600"" height = ""600"" style=""position:fixed;top:50%; left:50%; transform: translate(-50%, -50%); border:5px solid black"">","","","","","","","",""
"","70.44000000314554","sequential-stimulus-presentation-old","42","114637","0.0-13.0-1.3","SS1619740157373","trial","","40","500","570.4400000031455","images/stimuli/spore_stims/complex_05_A_a.gif","images/stimuli/spore_stims/complex_16_A_b.gif","forced_long","","2","complex_dissimilar","images/stimuli/spore_stims/complex_05_A_a.gif","","","","",""
"","null","html-keyboard-response","43","115693","0.0-13.0-0.4","SS1619740157373","","","null","","","","","","<p><img src= images/blank.png width =""600"" height = ""600"" style=""position:fixed;top:50%; left:50%; transform: translate(-50%, -50%); border:5px solid black"">","","","","","","","",""
"","1.2400000014167745","sequential-stimulus-presentation-old","44","116197","0.0-13.0-1.4","SS1619740157373","trial","","40","500","501.2400000014168","images/stimuli/spore_stims/complex_05_A_a.gif","images/stimuli/spore_stims/complex_16_A_b.gif","forced_long","","2","complex_dissimilar","images/stimuli/spore_stims/complex_16_A_b.gif","","","","",""
"","6243.2149999985995","survey-multi-choice","45","122441","0.0-14.0","SS1619740157373","math_question","","","","","","","","","","","","{""Q0"":""11""}","[0]","11","",""
"","null","html-keyboard-response","46","123685","0.0-15.0-0.0","SS1619740157373","","","null","","","","","","<p><img src= images/blank.png width =""600"" height = ""600"" style=""position:fixed;top:50%; left:50%; transform: translate(-50%, -50%); border:5px solid black"">","","","","","","","",""
"","242.8650000001653","sequential-stimulus-presentation-old","47","138932","0.0-15.0-1.0","SS1619740157373","trial","","40","500","742.8650000001653","images/stimuli/spore_stims/simple_02_A_b.gif","images/stimuli/spore_stims/simple_14_A_a.gif","forced_long","","3","simple_dissimilar","images/stimuli/spore_stims/simple_14_A_a.gif","","","","",""
"","null","html-keyboard-response","48","139917","0.0-15.0-0.1","SS1619740157373","","","null","","","","","","<p><img src= images/blank.png width =""600"" height = ""600"" style=""position:fixed;top:50%; left:50%; transform: translate(-50%, -50%); border:5px solid black"">","","","","","","","",""
"","512.5149999985297","sequential-stimulus-presentation-old","49","140933","0.0-15.0-1.1","SS1619740157373","trial","","40","500","1012.5149999985297","images/stimuli/spore_stims/simple_02_A_b.gif","images/stimuli/spore_stims/simple_14_A_a.gif","forced_long","","3","simple_dissimilar","images/stimuli/spore_stims/simple_14_A_a.gif","","","","",""
"","null","html-keyboard-response","50","141885","0.0-15.0-0.2","SS1619740157373","","","null","","","","","","<p><img src= images/blank.png width =""600"" height = ""600"" style=""position:fixed;top:50%; left:50%; transform: translate(-50%, -50%); border:5px solid black"">","","","","","","","",""
"","335.36499999900116","sequential-stimulus-presentation-old","51","142724","0.0-15.0-1.2","SS1619740157373","trial","","40","500","835.3649999990012","images/stimuli/spore_stims/simple_02_A_b.gif","images/stimuli/spore_stims/simple_14_A_a.gif","forced_long","","3","simple_dissimilar","images/stimuli/spore_stims/simple_14_A_a.gif","","","","",""
"","null","html-keyboard-response","52","143700","0.0-15.0-0.3","SS1619740157373","","","null","","","","","","<p><img src= images/blank.png width =""600"" height = ""600"" style=""position:fixed;top:50%; left:50%; transform: translate(-50%, -50%); border:5px solid black"">","","","","","","","",""
"","103.71500000110245","sequential-stimulus-presentation-old","53","144308","0.0-15.0-1.3","SS1619740157373","trial","","40","500","603.7150000011025","images/stimuli/spore_stims/simple_02_A_b.gif","images/stimuli/spore_stims/simple_14_A_a.gif","forced_long","","3","simple_dissimilar","images/stimuli/spore_stims/simple_14_A_a.gif","","","","",""
"","null","html-keyboard-response","54","145428","0.0-15.0-0.4","SS1619740157373","","","null","","","","","","<p><img src= images/blank.png width =""600"" height = ""600"" style=""position:fixed;top:50%; left:50%; transform: translate(-50%, -50%); border:5px solid black"">","","","","","","","",""
"","192.1150000016496","sequential-stimulus-presentation-old","55","146124","0.0-15.0-1.4","SS1619740157373","trial","","40","500","692.1150000016496","images/stimuli/spore_stims/simple_02_A_b.gif","images/stimuli/spore_stims/simple_14_A_a.gif","forced_long","","3","simple_dissimilar","images/stimuli/spore_stims/simple_14_A_a.gif","","","","",""
"","null","html-keyboard-response","56","147299","0.0-15.0-0.5","SS1619740157373","","","null","","","","","","<p><img src= images/blank.png width =""600"" height = ""600"" style=""position:fixed;top:50%; left:50%; transform: translate(-50%, -50%); border:5px solid black"">","","","","","","","",""
"","140.42999999946915","sequential-stimulus-presentation-old","57","147948","0.0-15.0-1.5","SS1619740157373","trial","","40","500","640.4299999994691","images/stimuli/spore_stims/simple_02_A_b.gif","images/stimuli/spore_stims/simple_14_A_a.gif","forced_long","","3","simple_dissimilar","images/stimuli/spore_stims/simple_02_A_b.gif","","","","",""
"","2931.3899999979185","survey-multi-choice","58","150881","0.0-16.0","SS1619740157373","math_question","","","","","","","","","","","","{""Q0"":""5""}","[0]","5","",""
"","null","html-keyboard-response","59","151811","0.0-17.0-0.0","SS1619740157373","","","null","","","","","","<p><img src= images/blank.png width =""600"" height = ""600"" style=""position:fixed;top:50%; left:50%; transform: translate(-50%, -50%); border:5px solid black"">","","","","","","","",""
"","106.23000000123284","sequential-stimulus-presentation-old","60","152420","0.0-17.0-1.0","SS1619740157373","trial","","40","500","606.2300000012328","images/stimuli/spore_stims/complex_01_A_a.gif","images/stimuli/spore_stims/complex_14_A_b.gif","self_paced","","4","complex_dissimilar","images/stimuli/spore_stims/complex_14_A_b.gif","","","","",""
"","null","html-keyboard-response","61","153407","0.0-17.0-0.1","SS1619740157373","","","null","","","","","","<p><img src= images/blank.png width =""600"" height = ""600"" style=""position:fixed;top:50%; left:50%; transform: translate(-50%, -50%); border:5px solid black"">","","","","","","","",""
"","111.12000000139233","sequential-stimulus-presentation-old","62","154020","0.0-17.0-1.1","SS1619740157373","trial","","40","500","611.1200000013923","images/stimuli/spore_stims/complex_01_A_a.gif","images/stimuli/spore_stims/complex_14_A_b.gif","self_paced","","4","complex_dissimilar","images/stimuli/spore_stims/complex_14_A_b.gif","","","","",""
"","null","html-keyboard-response","63","154868","0.0-17.0-0.2","SS1619740157373","","","null","","","","","","<p><img src= images/blank.png width =""600"" height = ""600"" style=""position:fixed;top:50%; left:50%; transform: translate(-50%, -50%); border:5px solid black"">","","","","","","","",""
"","433.0800000025192","sequential-stimulus-presentation-old","64","155804","0.0-17.0-1.2","SS1619740157373","trial","","40","500","933.0800000025192","images/stimuli/spore_stims/complex_01_A_a.gif","images/stimuli/spore_stims/complex_14_A_b.gif","self_paced","","4","complex_dissimilar","images/stimuli/spore_stims/complex_14_A_b.gif","","","","",""
"","null","html-keyboard-response","65","157102","0.0-17.0-0.3","SS1619740157373","","","null","","","","","","<p><img src= images/blank.png width =""600"" height = ""600"" style=""position:fixed;top:50%; left:50%; transform: translate(-50%, -50%); border:5px solid black"">","","","","","","","",""
"","63.08999999964726","sequential-stimulus-presentation-old","66","157668","0.0-17.0-1.3","SS1619740157373","trial","","40","500","563.0899999996473","images/stimuli/spore_stims/complex_01_A_a.gif","images/stimuli/spore_stims/complex_14_A_b.gif","self_paced","","4","complex_dissimilar","images/stimuli/spore_stims/complex_14_A_b.gif","","","","",""
"","null","html-keyboard-response","67","158633","0.0-17.0-0.4","SS1619740157373","","","null","","","","","","<p><img src= images/blank.png width =""600"" height = ""600"" style=""position:fixed;top:50%; left:50%; transform: translate(-50%, -50%); border:5px solid black"">","","","","","","","",""
"","48.0649999990419","sequential-stimulus-presentation-old","68","159189","0.0-17.0-1.4","SS1619740157373","trial","","40","500","548.0649999990419","images/stimuli/spore_stims/complex_01_A_a.gif","images/stimuli/spore_stims/complex_14_A_b.gif","self_paced","","4","complex_dissimilar","images/stimuli/spore_stims/complex_14_A_b.gif","","","","",""
"","null","html-keyboard-response","69","160432","0.0-17.0-0.5","SS1619740157373","","","null","","","","","","<p><img src= images/blank.png width =""600"" height = ""600"" style=""position:fixed;top:50%; left:50%; transform: translate(-50%, -50%); border:5px solid black"">","","","","","","","",""
"","29.08000000024913","sequential-stimulus-presentation-old","70","160964","0.0-17.0-1.5","SS1619740157373","trial","","40","500","529.0800000002491","images/stimuli/spore_stims/complex_01_A_a.gif","images/stimuli/spore_stims/complex_14_A_b.gif","self_paced","","4","complex_dissimilar","images/stimuli/spore_stims/complex_14_A_b.gif","","","","",""
"","2847.3400000002584","survey-multi-choice","71","163813","0.0-18.0","SS1619740157373","math_question","","","","","","","","","","","","{""Q0"":""6""}","[0]","6","",""
"","null","html-keyboard-response","72","164678","0.0-19.0-0.0","SS1619740157373","","","null","","","","","","<p><img src= images/blank.png width =""600"" height = ""600"" style=""position:fixed;top:50%; left:50%; transform: translate(-50%, -50%); border:5px solid black"">","","","","","","","",""
"","94.82000000207336","sequential-stimulus-presentation-old","73","165277","0.0-19.0-1.0","SS1619740157373","trial","","40","500","594.8200000020734","images/stimuli/spore_stims/simple_10_A_a.gif","images/stimuli/spore_stims/simple_05_A_b.gif","forced_short","","5","simple_dissimilar","images/stimuli/spore_stims/simple_05_A_b.gif","","","","",""
"","null","html-keyboard-response","74","166110","0.0-19.0-0.1","SS1619740157373","","","null","","","","","","<p><img src= images/blank.png width =""600"" height = ""600"" style=""position:fixed;top:50%; left:50%; transform: translate(-50%, -50%); border:5px solid black"">","","","","","","","",""
"","134.91499999872758","sequential-stimulus-presentation-old","75","166748","0.0-19.0-1.1","SS1619740157373","trial","","40","500","634.9149999987276","images/stimuli/spore_stims/simple_10_A_a.gif","images/stimuli/spore_stims/simple_05_A_b.gif","forced_short","","5","simple_dissimilar","images/stimuli/spore_stims/simple_10_A_a.gif","","","","",""
"","null","html-keyboard-response","76","167708","0.0-19.0-0.2","SS1619740157373","","","null","","","","","","<p><img src= images/blank.png width =""600"" height = ""600"" style=""position:fixed;top:50%; left:50%; transform: translate(-50%, -50%); border:5px solid black"">","","","","","","","",""
"","585.6350000030943","sequential-stimulus-presentation-old","77","168796","0.0-19.0-1.2","SS1619740157373","trial","","40","500","1085.6350000030943","images/stimuli/spore_stims/simple_10_A_a.gif","images/stimuli/spore_stims/simple_05_A_b.gif","forced_short","","5","simple_dissimilar","images/stimuli/spore_stims/simple_05_A_b.gif","","","","",""
"","null","html-keyboard-response","78","169683","0.0-19.0-0.3","SS1619740157373","","","null","","","","","","<p><img src= images/blank.png width =""600"" height = ""600"" style=""position:fixed;top:50%; left:50%; transform: translate(-50%, -50%); border:5px solid black"">","","","","","","","",""
"","1.944999999977881","sequential-stimulus-presentation-old","79","170188","0.0-19.0-1.3","SS1619740157373","trial","","40","500","501.9449999999779","images/stimuli/spore_stims/simple_10_A_a.gif","images/stimuli/spore_stims/simple_05_A_b.gif","forced_short","","5","simple_dissimilar","images/stimuli/spore_stims/simple_05_A_b.gif","","","","",""
"","null","html-keyboard-response","80","171042","0.0-19.0-0.4","SS1619740157373","","","null","","","","","","<p><img src= images/blank.png width =""600"" height = ""600"" style=""position:fixed;top:50%; left:50%; transform: translate(-50%, -50%); border:5px solid black"">","","","","","","","",""
"","66.2400000001071","sequential-stimulus-presentation-old","81","171612","0.0-19.0-1.4","SS1619740157373","trial","","40","500","566.2400000001071","images/stimuli/spore_stims/simple_10_A_a.gif","images/stimuli/spore_stims/simple_05_A_b.gif","forced_short","","5","simple_dissimilar","images/stimuli/spore_stims/simple_05_A_b.gif","","","","",""
"","null","html-keyboard-response","82","172831","0.0-19.0-0.5","SS1619740157373","","","null","","","","","","<p><img src= images/blank.png width =""600"" height = ""600"" style=""position:fixed;top:50%; left:50%; transform: translate(-50%, -50%); border:5px solid black"">","","","","","","","",""
"","550.664999998844","sequential-stimulus-presentation-old","83","173884","0.0-19.0-1.5","SS1619740157373","trial","","40","500","1050.664999998844","images/stimuli/spore_stims/simple_10_A_a.gif","images/stimuli/spore_stims/simple_05_A_b.gif","forced_short","","5","simple_dissimilar","images/stimuli/spore_stims/simple_10_A_a.gif","","","","",""
"","4384.504999998171","survey-multi-choice","84","178271","0.0-20.0","SS1619740157373","math_question","","","","","","","","","","","","{""Q0"":""10""}","[0]","10","",""
"","null","html-keyboard-response","85","179353","0.0-21.0-0.0","SS1619740157373","","","null","","","","","","<p><img src= images/blank.png width =""600"" height = ""600"" style=""position:fixed;top:50%; left:50%; transform: translate(-50%, -50%); border:5px solid black"">","","","","","","","",""
"","98.56999999828986","sequential-stimulus-presentation-old","86","179957","0.0-21.0-1.0","SS1619740157373","trial","","40","500","598.5699999982899","images/stimuli/spore_stims/complex_07_A_b.gif","images/stimuli/spore_stims/complex_08_A_a.gif","forced_short","","6","complex_dissimilar","images/stimuli/spore_stims/complex_08_A_a.gif","","","","",""
"","null","html-keyboard-response","87","180870","0.0-21.0-0.1","SS1619740157373","","","null","","","","","","<p><img src= images/blank.png width =""600"" height = ""600"" style=""position:fixed;top:50%; left:50%; transform: translate(-50%, -50%); border:5px solid black"">","","","","","","","",""
"","456.5699999984645","sequential-stimulus-presentation-old","88","181836","0.0-21.0-1.1","SS1619740157373","trial","","40","500","956.5699999984645","images/stimuli/spore_stims/complex_07_A_b.gif","images/stimuli/spore_stims/complex_08_A_a.gif","forced_short","","6","complex_dissimilar","images/stimuli/spore_stims/complex_08_A_a.gif","","","","",""
"","null","html-keyboard-response","89","183013","0.0-21.0-0.2","SS1619740157373","","","null","","","","","","<p><img src= images/blank.png width =""600"" height = ""600"" style=""position:fixed;top:50%; left:50%; transform: translate(-50%, -50%); border:5px solid black"">","","","","","","","",""
"","1456.5750000001572","sequential-stimulus-presentation-old","90","184981","0.0-21.0-1.2","SS1619740157373","trial","","40","500","1956.5750000001572","images/stimuli/spore_stims/complex_07_A_b.gif","images/stimuli/spore_stims/complex_08_A_a.gif","forced_short","","6","complex_dissimilar","images/stimuli/spore_stims/complex_08_A_a.gif","","","","",""
"","null","html-keyboard-response","91","185817","0.0-21.0-0.3","SS1619740157373","","","null","","","","","","<p><img src= images/blank.png width =""600"" height = ""600"" style=""position:fixed;top:50%; left:50%; transform: translate(-50%, -50%); border:5px solid black"">","","","","","","","",""
"","195.52499999917927","sequential-stimulus-presentation-old","92","186517","0.0-21.0-1.3","SS1619740157373","trial","","40","500","695.5249999991793","images/stimuli/spore_stims/complex_07_A_b.gif","images/stimuli/spore_stims/complex_08_A_a.gif","forced_short","","6","complex_dissimilar","images/stimuli/spore_stims/complex_07_A_b.gif","","","","",""
"","null","html-keyboard-response","93","187803","0.0-21.0-0.4","SS1619740157373","","","null","","","","","","<p><img src= images/blank.png width =""600"" height = ""600"" style=""position:fixed;top:50%; left:50%; transform: translate(-50%, -50%); border:5px solid black"">","","","","","","","",""
"","6.60500000230968","sequential-stimulus-presentation-old","94","188317","0.0-21.0-1.4","SS1619740157373","trial","","40","500","506.6050000023097","images/stimuli/spore_stims/complex_07_A_b.gif","images/stimuli/spore_stims/complex_08_A_a.gif","forced_short","","6","complex_dissimilar","images/stimuli/spore_stims/complex_08_A_a.gif","","","","",""
"","null","html-keyboard-response","95","189188","0.0-21.0-0.5","SS1619740157373","","","null","","","","","","<p><img src= images/blank.png width =""600"" height = ""600"" style=""position:fixed;top:50%; left:50%; transform: translate(-50%, -50%); border:5px solid black"">","","","","","","","",""
"","35.429999999905704","sequential-stimulus-presentation-old","96","189733","0.0-21.0-1.5","SS1619740157373","trial","","40","500","535.4299999999057","images/stimuli/spore_stims/complex_07_A_b.gif","images/stimuli/spore_stims/complex_08_A_a.gif","forced_short","","6","complex_dissimilar","images/stimuli/spore_stims/complex_07_A_b.gif","","","","",""
"","2823.1899999991583","survey-multi-choice","97","192558","0.0-22.0","SS1619740157373","math_question","","","","","","","","","","","","{""Q0"":""6""}","[0]","6","",""
"","null","html-keyboard-response","98","193773","0.0-23.0-0.0","SS1619740157373","","","null","","","","","","<p><img src= images/blank.png width =""600"" height = ""600"" style=""position:fixed;top:50%; left:50%; transform: translate(-50%, -50%); border:5px solid black"">","","","","","","","",""
"","215.91500000067754","sequential-stimulus-presentation-old","99","194493","0.0-23.0-1.0","SS1619740157373","trial","","40","500","715.9150000006775","images/stimuli/spore_stims/simple_04_A_b.gif","images/stimuli/spore_stims/simple_05_A_a.gif","forced_short","","7","simple_dissimilar","images/stimuli/spore_stims/simple_05_A_a.gif","","","","",""
"","null","html-keyboard-response","100","195510","0.0-23.0-0.1","SS1619740157373","","","null","","","","","","<p><img src= images/blank.png width =""600"" height = ""600"" style=""position:fixed;top:50%; left:50%; transform: translate(-50%, -50%); border:5px solid black"">","","","","","","","",""
"","47.35499999878812","sequential-stimulus-presentation-old","101","196069","0.0-23.0-1.1","SS1619740157373","trial","","40","500","547.3549999987881","images/stimuli/spore_stims/simple_04_A_b.gif","images/stimuli/spore_stims/simple_05_A_a.gif","forced_short","","7","simple_dissimilar","images/stimuli/spore_stims/simple_05_A_a.gif","","","","",""
"","null","html-keyboard-response","102","197039","0.0-23.0-0.2","SS1619740157373","","","null","","","","","","<p><img src= images/blank.png width =""600"" height = ""600"" style=""position:fixed;top:50%; left:50%; transform: translate(-50%, -50%); border:5px solid black"">","","","","","","","",""
"","318.99999999950523","sequential-stimulus-presentation-old","103","197861","0.0-23.0-1.2","SS1619740157373","trial","","40","500","818.9999999995052","images/stimuli/spore_stims/simple_04_A_b.gif","images/stimuli/spore_stims/simple_05_A_a.gif","forced_short","","7","simple_dissimilar","images/stimuli/spore_stims/simple_05_A_a.gif","","","","",""
"","null","html-keyboard-response","104","199038","0.0-23.0-0.3","SS1619740157373","","","null","","","","","","<p><img src= images/blank.png width =""600"" height = ""600"" style=""position:fixed;top:50%; left:50%; transform: translate(-50%, -50%); border:5px solid black"">","","","","","","","",""
"","567.9049999998824","sequential-stimulus-presentation-old","105","200109","0.0-23.0-1.3","SS1619740157373","trial","","40","500","1067.9049999998824","images/stimuli/spore_stims/simple_04_A_b.gif","images/stimuli/spore_stims/simple_05_A_a.gif","forced_short","","7","simple_dissimilar","images/stimuli/spore_stims/simple_05_A_a.gif","","","","",""
"","2751.154999998107","survey-multi-choice","106","202862","0.0-24.0","SS1619740157373","math_question","","","","","","","","","","","","{""Q0"":""6""}","[0]","6","",""
"","null","html-keyboard-response","107","203997","0.0-25.0-0.0","SS1619740157373","","","null","","","","","","<p><img src= images/blank.png width =""600"" height = ""600"" style=""position:fixed;top:50%; left:50%; transform: translate(-50%, -50%); border:5px solid black"">","","","","","","","",""
"","52.400000000488944","sequential-stimulus-presentation-old","108","219053","0.0-25.0-1.0","SS1619740157373","trial","","40","500","552.400000000489","images/stimuli/spore_stims/simple_12_A_a.gif","images/stimuli/spore_stims/simple_07_A_b.gif","forced_long","","8","simple_dissimilar","images/stimuli/spore_stims/simple_07_A_b.gif","","","","",""
"","null","html-keyboard-response","109","220355","0.0-25.0-0.1","SS1619740157373","","","null","","","","","","<p><img src= images/blank.png width =""600"" height = ""600"" style=""position:fixed;top:50%; left:50%; transform: translate(-50%, -50%); border:5px solid black"">","","","","","","","",""
"","89.42499999830034","sequential-stimulus-presentation-old","110","220949","0.0-25.0-1.1","SS1619740157373","trial","","40","500","589.4249999983003","images/stimuli/spore_stims/simple_12_A_a.gif","images/stimuli/spore_stims/simple_07_A_b.gif","forced_long","","8","simple_dissimilar","images/stimuli/spore_stims/simple_12_A_a.gif","","","","",""
"","null","html-keyboard-response","111","222100","0.0-25.0-0.2","SS1619740157373","","","null","","","","","","<p><img src= images/blank.png width =""600"" height = ""600"" style=""position:fixed;top:50%; left:50%; transform: translate(-50%, -50%); border:5px solid black"">","","","","","","","",""
"","1.3250000010884833","sequential-stimulus-presentation-old","112","222605","0.0-25.0-1.2","SS1619740157373","trial","","40","500","501.3250000010885","images/stimuli/spore_stims/simple_12_A_a.gif","images/stimuli/spore_stims/simple_07_A_b.gif","forced_long","","8","simple_dissimilar","images/stimuli/spore_stims/simple_07_A_b.gif","","","","",""
"","null","html-keyboard-response","113","223610","0.0-25.0-0.3","SS1619740157373","","","null","","","","","","<p><img src= images/blank.png width =""600"" height = ""600"" style=""position:fixed;top:50%; left:50%; transform: translate(-50%, -50%); border:5px solid black"">","","","","","","","",""
"","82.9299999968498","sequential-stimulus-presentation-old","114","224197","0.0-25.0-1.3","SS1619740157373","trial","","40","500","582.9299999968498","images/stimuli/spore_stims/simple_12_A_a.gif","images/stimuli/spore_stims/simple_07_A_b.gif","forced_long","","8","simple_dissimilar","images/stimuli/spore_stims/simple_12_A_a.gif","","","","",""
"","6187.199999996665","survey-multi-choice","115","230386","0.0-26.0","SS1619740157373","math_question","","","","","","","","","","","","{""Q0"":""17""}","[0]","17","",""
"","null","html-keyboard-response","116","231259","0.0-27.0-0.0","SS1619740157373","","","null","","","","","","<p><img src= images/blank.png width =""600"" height = ""600"" style=""position:fixed;top:50%; left:50%; transform: translate(-50%, -50%); border:5px solid black"">","","","","","","","",""
"","11.015000000043074","sequential-stimulus-presentation-old","117","231773","0.0-27.0-1.0","SS1619740157373","trial","","40","500","511.0150000000431","images/stimuli/spore_stims/complex_12_A_a.gif","images/stimuli/spore_stims/complex_17_A_b.gif","forced_short","","9","complex_dissimilar","images/stimuli/spore_stims/complex_17_A_b.gif","","","","",""
"","null","html-keyboard-response","118","233047","0.0-27.0-0.1","SS1619740157373","","","null","","","","","","<p><img src= images/blank.png width =""600"" height = ""600"" style=""position:fixed;top:50%; left:50%; transform: translate(-50%, -50%); border:5px solid black"">","","","","","","","",""
"","71.9649999991816","sequential-stimulus-presentation-old","119","233629","0.0-27.0-1.1","SS1619740157373","trial","","40","500","571.9649999991816","images/stimuli/spore_stims/complex_12_A_a.gif","images/stimuli/spore_stims/complex_17_A_b.gif","forced_short","","9","complex_dissimilar","images/stimuli/spore_stims/complex_17_A_b.gif","","","","",""
"","null","html-keyboard-response","120","234504","0.0-27.0-0.2","SS1619740157373","","","null","","","","","","<p><img src= images/blank.png width =""600"" height = ""600"" style=""position:fixed;top:50%; left:50%; transform: translate(-50%, -50%); border:5px solid black"">","","","","","","","",""
"","132.9249999980675","sequential-stimulus-presentation-old","121","235141","0.0-27.0-1.2","SS1619740157373","trial","","40","500","632.9249999980675","images/stimuli/spore_stims/complex_12_A_a.gif","images/stimuli/spore_stims/complex_17_A_b.gif","forced_short","","9","complex_dissimilar","images/stimuli/spore_stims/complex_17_A_b.gif","","","","",""
"","null","html-keyboard-response","122","236350","0.0-27.0-0.3","SS1619740157373","","","null","","","","","","<p><img src= images/blank.png width =""600"" height = ""600"" style=""position:fixed;top:50%; left:50%; transform: translate(-50%, -50%); border:5px solid black"">","","","","","","","",""
"","841.7800000024727","sequential-stimulus-presentation-old","123","237701","0.0-27.0-1.3","SS1619740157373","trial","","40","500","1341.7800000024727","images/stimuli/spore_stims/complex_12_A_a.gif","images/stimuli/spore_stims/complex_17_A_b.gif","forced_short","","9","complex_dissimilar","images/stimuli/spore_stims/complex_17_A_b.gif","","","","",""
"","null","html-keyboard-response","124","238947","0.0-27.0-0.4","SS1619740157373","","","null","","","","","","<p><img src= images/blank.png width =""600"" height = ""600"" style=""position:fixed;top:50%; left:50%; transform: translate(-50%, -50%); border:5px solid black"">","","","","","","","",""
"","18.294999998033745","sequential-stimulus-presentation-old","125","239469","0.0-27.0-1.4","SS1619740157373","trial","","40","500","518.2949999980337","images/stimuli/spore_stims/complex_12_A_a.gif","images/stimuli/spore_stims/complex_17_A_b.gif","forced_short","","9","complex_dissimilar","images/stimuli/spore_stims/complex_17_A_b.gif","","","","",""
"","4000.4450000014913","survey-multi-choice","126","243472","0.0-28.0","SS1619740157373","math_question","","","","","","","","","","","","{""Q0"":""11""}","[0]","11","",""
"","null","html-keyboard-response","127","244626","0.0-29.0-0.0","SS1619740157373","","","null","","","","","","<p><img src= images/blank.png width =""600"" height = ""600"" style=""position:fixed;top:50%; left:50%; transform: translate(-50%, -50%); border:5px solid black"">","","","","","","","",""
"","242.71500000031665","sequential-stimulus-presentation-old","128","245372","0.0-29.0-1.0","SS1619740157373","trial","","40","500","742.7150000003166","images/stimuli/spore_stims/simple_03_A_a.gif","images/stimuli/spore_stims/simple_18_A_b.gif","self_paced","","10","simple_dissimilar","images/stimuli/spore_stims/simple_18_A_b.gif","","","","",""
"","null","html-keyboard-response","129","246321","0.0-29.0-0.1","SS1619740157373","","","null","","","","","","<p><img src= images/blank.png width =""600"" height = ""600"" style=""position:fixed;top:50%; left:50%; transform: translate(-50%, -50%); border:5px solid black"">","","","","","","","",""
"","916.0100000008242","sequential-stimulus-presentation-old","130","247741","0.0-29.0-1.1","SS1619740157373","trial","","40","500","1416.0100000008242","images/stimuli/spore_stims/simple_03_A_a.gif","images/stimuli/spore_stims/simple_18_A_b.gif","self_paced","","10","simple_dissimilar","images/stimuli/spore_stims/simple_18_A_b.gif","","","","",""
"","null","html-keyboard-response","131","248892","0.0-29.0-0.2","SS1619740157373","","","null","","","","","","<p><img src= images/blank.png width =""600"" height = ""600"" style=""position:fixed;top:50%; left:50%; transform: translate(-50%, -50%); border:5px solid black"">","","","","","","","",""
"","708.9000000014494","sequential-stimulus-presentation-old","132","250109","0.0-29.0-1.2","SS1619740157373","trial","","40","500","1208.9000000014494","images/stimuli/spore_stims/simple_03_A_a.gif","images/stimuli/spore_stims/simple_18_A_b.gif","self_paced","","10","simple_dissimilar","images/stimuli/spore_stims/simple_18_A_b.gif","","","","",""
"","null","html-keyboard-response","133","250957","0.0-29.0-0.3","SS1619740157373","","","null","","","","","","<p><img src= images/blank.png width =""600"" height = ""600"" style=""position:fixed;top:50%; left:50%; transform: translate(-50%, -50%); border:5px solid black"">","","","","","","","",""
"","8.405000000493601","sequential-stimulus-presentation-old","134","251469","0.0-29.0-1.3","SS1619740157373","trial","","40","500","508.4050000004936","images/stimuli/spore_stims/simple_03_A_a.gif","images/stimuli/spore_stims/simple_18_A_b.gif","self_paced","","10","simple_dissimilar","images/stimuli/spore_stims/simple_18_A_b.gif","","","","",""
"","null","html-keyboard-response","135","252633","0.0-29.0-0.4","SS1619740157373","","","null","","","","","","<p><img src= images/blank.png width =""600"" height = ""600"" style=""position:fixed;top:50%; left:50%; transform: translate(-50%, -50%); border:5px solid black"">","","","","","","","",""
"","108.33000000275206","sequential-stimulus-presentation-old","136","253244","0.0-29.0-1.4","SS1619740157373","trial","","40","500","608.3300000027521","images/stimuli/spore_stims/simple_03_A_a.gif","images/stimuli/spore_stims/simple_18_A_b.gif","self_paced","","10","simple_dissimilar","images/stimuli/spore_stims/simple_18_A_b.gif","","","","",""
"","2987.8549999993993","survey-multi-choice","137","256234","0.0-30.0","SS1619740157373","math_question","","","","","","","","","","","","{""Q0"":""7""}","[0]","7","",""
"","null","html-keyboard-response","138","257094","0.0-31.0-0.0","SS1619740157373","","","null","","","","","","<p><img src= images/blank.png width =""600"" height = ""600"" style=""position:fixed;top:50%; left:50%; transform: translate(-50%, -50%); border:5px solid black"">","","","","","","","",""
"","32.06499999942025","sequential-stimulus-presentation-old","139","257637","0.0-31.0-1.0","SS1619740157373","trial","","40","500","532.0649999994203","images/stimuli/spore_stims/complex_09_A_b.gif","images/stimuli/spore_stims/complex_06_A_a.gif","self_paced","","11","complex_dissimilar","images/stimuli/spore_stims/complex_06_A_a.gif","","","","",""
"","null","html-keyboard-response","140","258605","0.0-31.0-0.1","SS1619740157373","","","null","","","","","","<p><img src= images/blank.png width =""600"" height = ""600"" style=""position:fixed;top:50%; left:50%; transform: translate(-50%, -50%); border:5px solid black"">","","","","","","","",""
"","1570.1350000017555","sequential-stimulus-presentation-old","141","260685","0.0-31.0-1.1","SS1619740157373","trial","","40","500","2070.1350000017555","images/stimuli/spore_stims/complex_09_A_b.gif","images/stimuli/spore_stims/complex_06_A_a.gif","self_paced","","11","complex_dissimilar","images/stimuli/spore_stims/complex_06_A_a.gif","","","","",""
"","null","html-keyboard-response","142","261645","0.0-31.0-0.2","SS1619740157373","","","null","","","","","","<p><img src= images/blank.png width =""600"" height = ""600"" style=""position:fixed;top:50%; left:50%; transform: translate(-50%, -50%); border:5px solid black"">","","","","","","","",""
"","27.14999999810243","sequential-stimulus-presentation-old","143","262181","0.0-31.0-1.2","SS1619740157373","trial","","40","500","527.1499999981024","images/stimuli/spore_stims/complex_09_A_b.gif","images/stimuli/spore_stims/complex_06_A_a.gif","self_paced","","11","complex_dissimilar","images/stimuli/spore_stims/complex_09_A_b.gif","","","","",""
"","null","html-keyboard-response","144","263470","0.0-31.0-0.3","SS1619740157373","","","null","","","","","","<p><img src= images/blank.png width =""600"" height = ""600"" style=""position:fixed;top:50%; left:50%; transform: translate(-50%, -50%); border:5px solid black"">","","","","","","","",""
"","206.56500000040978","sequential-stimulus-presentation-old","145","264180","0.0-31.0-1.3","SS1619740157373","trial","","40","500","706.5650000004098","images/stimuli/spore_stims/complex_09_A_b.gif","images/stimuli/spore_stims/complex_06_A_a.gif","self_paced","","11","complex_dissimilar","images/stimuli/spore_stims/complex_09_A_b.gif","","","","",""
"","null","html-keyboard-response","146","265342","0.0-31.0-0.4","SS1619740157373","","","null","","","","","","<p><img src= images/blank.png width =""600"" height = ""600"" style=""position:fixed;top:50%; left:50%; transform: translate(-50%, -50%); border:5px solid black"">","","","","","","","",""
"","74.11500000301749","sequential-stimulus-presentation-old","147","265924","0.0-31.0-1.4","SS1619740157373","trial","","40","500","574.1150000030175","images/stimuli/spore_stims/complex_09_A_b.gif","images/stimuli/spore_stims/complex_06_A_a.gif","self_paced","","11","complex_dissimilar","images/stimuli/spore_stims/complex_06_A_a.gif","","","","",""
"[{""page_index"":0,""viewing_time"":7896.64499999705}]","7896.824999999779","instructions","148","273823","0.0-32.0","SS1619740157373","instructions","","","","","","","","","","","","","","","",""
"","15999.04500000045","survey-likert","149","289826","0.0-33.0","SS1619740157373","similarity_question","","","","","","","","","","","","{""Q0"":1}","[0]","","images/stimuli/spore_stims/simple_13_A_a.gif","images/stimuli/spore_stims/simple_03_A_b.gif"
"","4277.359999999986","survey-likert","150","294110","0.0-34.0","SS1619740157373","similarity_question","","","","","","","","","","","","{""Q0"":0}","[0]","","images/stimuli/spore_stims/simple_12_A_a.gif","images/stimuli/spore_stims/simple_07_A_b.gif"
"","2567.3449999995064","survey-likert","151","296684","0.0-35.0","SS1619740157373","similarity_question","","","","","","","","","","","","{""Q0"":0}","[0]","","images/stimuli/spore_stims/simple_18_A_b.gif","images/stimuli/spore_stims/simple_03_A_a.gif"
"","8966.099999997823","survey-likert","152","305658","0.0-36.0","SS1619740157373","similarity_question","","","","","","","","","","","","{""Q0"":2}","[0]","","images/stimuli/spore_stims/complex_12_A_a.gif","images/stimuli/spore_stims/complex_17_A_b.gif"
"","9736.865000002552","survey-likert","153","315401","0.0-37.0","SS1619740157373","similarity_question","","","","","","","","","","","","{""Q0"":1}","[0]","","images/stimuli/spore_stims/complex_16_A_b.gif","images/stimuli/spore_stims/complex_05_A_a.gif"
"","9098.369999999646","survey-likert","154","324507","0.0-38.0","SS1619740157373","similarity_question","","","","","","","","","","","","{""Q0"":2}","[0]","","images/stimuli/spore_stims/complex_09_A_b.gif","images/stimuli/spore_stims/complex_06_A_a.gif"
"","5541.385000000475","survey-likert","155","330055","0.0-39.0","SS1619740157373","similarity_question","","","","","","","","","","","","{""Q0"":3}","[0]","","images/stimuli/spore_stims/simple_05_A_b.gif","images/stimuli/spore_stims/simple_10_A_a.gif"
"","4589.02499999752","survey-likert","156","334651","0.0-40.0","SS1619740157373","similarity_question","","","","","","","","","","","","{""Q0"":2}","[0]","","images/stimuli/spore_stims/simple_02_A_b.gif","images/stimuli/spore_stims/simple_14_A_a.gif"
"","10004.665000000386","survey-likert","157","344663","0.0-41.0","SS1619740157373","similarity_question","","","","","","","","","","","","{""Q0"":2}","[0]","","images/stimuli/spore_stims/complex_07_A_b.gif","images/stimuli/spore_stims/complex_08_A_a.gif"
"","13187.415000000386","survey-likert","158","357857","0.0-42.0","SS1619740157373","similarity_question","","","","","","","","","","","","{""Q0"":1}","[0]","","images/stimuli/spore_stims/complex_18_A_b.gif","images/stimuli/spore_stims/complex_20_A_a.gif"
"","4258.9699999989825","survey-likert","159","362122","0.0-43.0","SS1619740157373","similarity_question","","","","","","","","","","","","{""Q0"":0}","[0]","","images/stimuli/spore_stims/complex_14_A_b.gif","images/stimuli/spore_stims/complex_01_A_a.gif"
"","5764.039999998233","survey-likert","160","367894","0.0-44.0","SS1619740157373","similarity_question","","","","","","","","","","","","{""Q0"":4}","[0]","","images/stimuli/spore_stims/simple_04_A_b.gif","images/stimuli/spore_stims/simple_05_A_a.gif"
"[{""page_index"":0,""viewing_time"":6255.359999999229}]","6255.570000001171","instructions","161","374156","0.0-45.0","SS1619740157373","instructions","","","","","","","","","","","","","","","",""
"","5364.165000002657","survey-likert","162","379523","0.0-46.0","SS1619740157373","","","","","","","","","images/stimuli/spore_stims/simple_12_A_a.gif","","","","{""Q0"":1}","[0]","","",""
"","3023.9650000003166","survey-likert","163","382556","0.0-47.0","SS1619740157373","","","","","","","","","images/stimuli/spore_stims/simple_05_A_b.gif","","","","{""Q0"":1}","[0]","","",""
"","7296.5599999988335","survey-likert","164","389860","0.0-48.0","SS1619740157373","","","","","","","","","images/stimuli/spore_stims/complex_07_A_b.gif","","","","{""Q0"":4}","[0]","","",""
"","3964.2950000015553","survey-likert","165","393832","0.0-49.0","SS1619740157373","","","","","","","","","images/stimuli/spore_stims/simple_03_A_a.gif","","","","{""Q0"":1}","[0]","","",""
"","2559.574999999313","survey-likert","166","396398","0.0-50.0","SS1619740157373","","","","","","","","","images/stimuli/spore_stims/complex_20_A_a.gif","","","","{""Q0"":4}","[0]","","",""
"","1692.1849999998813","survey-likert","167","398098","0.0-51.0","SS1619740157373","","","","","","","","","images/stimuli/spore_stims/complex_09_A_b.gif","","","","{""Q0"":4}","[0]","","",""
"","3487.8800000005867","survey-likert","168","401592","0.0-52.0","SS1619740157373","","","","","","","","","images/stimuli/spore_stims/complex_14_A_b.gif","","","","{""Q0"":5}","[0]","","",""
"","5369.334999999381","survey-likert","169","406970","0.0-53.0","SS1619740157373","","","","","","","","","images/stimuli/spore_stims/complex_17_A_b.gif","","","","{""Q0"":4}","[0]","","",""
"","4683.904999998049","survey-likert","170","411662","0.0-54.0","SS1619740157373","","","","","","","","","images/stimuli/spore_stims/simple_02_A_b.gif","","","","{""Q0"":0}","[0]","","",""
"","2478.5049999990733","survey-likert","171","414148","0.0-55.0","SS1619740157373","","","","","","","","","images/stimuli/spore_stims/simple_03_A_b.gif","","","","{""Q0"":2}","[0]","","",""
"","3068.390000000363","survey-likert","172","417224","0.0-56.0","SS1619740157373","","","","","","","","","images/stimuli/spore_stims/simple_05_A_a.gif","","","","{""Q0"":1}","[0]","","",""
"","4617.974999997416","survey-likert","173","421850","0.0-57.0","SS1619740157373","","","","","","","","","images/stimuli/spore_stims/complex_16_A_b.gif","","","","{""Q0"":5}","[0]","","",""
"[{""page_index"":0,""viewing_time"":2175.6249999998254}]","2175.7700000016484","instructions","174","424032","0.0-58.0","SS1619740157373","instructions","","","","","","","","","","","","","","","",""
"","1825.1649999983492","demog-age","175","425861","0.0-59.0","SS1619740157373","","","","","","","","","","","","","{""age"":""21""}","","","",""
"","3025.7000000019325","demog-ethnic-US","176","428892","0.0-60.0","SS1619740157373","","","","","","","","","","","","","{""ethnicity"":[""Hispanic or Latino""]}","[0]","","",""
"","10532.26000000001","demog-gender-and-education","177","439432","0.0-61.0","SS1619740157373","","","","","","","","","","","","","{""gender"":""Male"",""education"":""Associate Degree/Technical certification""}","[0,1]","","",""
"","50592.95000000199","survey-text","178","490033","0.0-62.0","SS1619740157373","feedback","","","","","","","","","","","","{""Q0"":""sometimes the arrow down didnt work or worked late""}","","","",""
"[{""page_index"":0,""viewing_time"":3830.434999999823}]","3830.695000000531","instructions","179","493867","0.0-63.0","SS1619740157373","instructions","","","","","","","","","","","","","","","",""
