"view_history","rt","trial_type","trial_index","time_elapsed","internal_node_id","subject","stimulus_type","trial_stimulus","key_press","minimum_viewing_duration","trial_looking_time","block_deviant","block_background","exposure_type","stimulus","block_number","block_type","stimulus_displayed","responses","question_order","math_correct_answer","stimulus_left","stimulus_right"
"[{""page_index"":0,""viewing_time"":14812}]","14813","instructions","0","14816","0.0-0.0","SS1619740069780","","","","","","","","","","","","","","","","",""
"[{""page_index"":0,""viewing_time"":13885},{""page_index"":1,""viewing_time"":12346}]","26232.000000000007","instructions","1","43051","0.0-1.0","SS1619740069780","instructions","","","","","","","","","","","","","","","",""
"","7954","sequential-stimulus-presentation-old","2","51510","0.0-2.0","SS1619740069780","","","40","500","8454","null","null","self_paced","","","","","","","","",""
"","6375","sequential-stimulus-presentation-old","3","58389","0.0-3.0","SS1619740069780","","","40","500","6875","null","null","self_paced","","","","","","","","",""
"[{""page_index"":0,""viewing_time"":28975}]","28975","instructions","4","87365","0.0-4.0","SS1619740069780","instructions","","","","","","","","","","","","","","","",""
"","1943","sequential-stimulus-presentation-old","5","104314","0.0-5.0","SS1619740069780","","","40","500","2443","null","null","forced_long","","","","","","","","",""
"","3919","sequential-stimulus-presentation-old","6","108739","0.0-6.0","SS1619740069780","","","40","500","4419","null","null","forced_long","","","","","","","","",""
"[{""page_index"":0,""viewing_time"":3409}]","3409","instructions","7","112151","0.0-7.0","SS1619740069780","instructions","","","","","","","","","","","","","","","",""
"[{""page_index"":0,""viewing_time"":43382},{""page_index"":1,""viewing_time"":19107},{""page_index"":2,""viewing_time"":4230},{""page_index"":3,""viewing_time"":1615},{""page_index"":4,""viewing_time"":1122}]","69456","instructions","8","181611","0.0-8.0","SS1619740069780","instructions","","","","","","","","","","","","","","","",""
"","null","html-keyboard-response","9","182728","0.0-9.0-0.0","SS1619740069780","","","null","","","","","","<p><img src= images/blank.png width =""600"" height = ""600"" style=""position:fixed;top:50%; left:50%; transform: translate(-50%, -50%); border:5px solid black"">","","","","","","","",""
"","6194","sequential-stimulus-presentation-old","10","203926","0.0-9.0-1.0","SS1619740069780","trial","","40","500","6694","images/stimuli/spore_stims/complex_07_A_a.gif","images/stimuli/spore_stims/complex_09_A_b.gif","forced_long","","0","complex_dissimilar","images/stimuli/spore_stims/complex_09_A_b.gif","","","","",""
"","null","html-keyboard-response","11","205214","0.0-9.0-0.1","SS1619740069780","","","null","","","","","","<p><img src= images/blank.png width =""600"" height = ""600"" style=""position:fixed;top:50%; left:50%; transform: translate(-50%, -50%); border:5px solid black"">","","","","","","","",""
"","4057","sequential-stimulus-presentation-old","12","209775","0.0-9.0-1.1","SS1619740069780","trial","","40","500","4557","images/stimuli/spore_stims/complex_07_A_a.gif","images/stimuli/spore_stims/complex_09_A_b.gif","forced_long","","0","complex_dissimilar","images/stimuli/spore_stims/complex_09_A_b.gif","","","","",""
"","null","html-keyboard-response","13","210690","0.0-9.0-0.2","SS1619740069780","","","null","","","","","","<p><img src= images/blank.png width =""600"" height = ""600"" style=""position:fixed;top:50%; left:50%; transform: translate(-50%, -50%); border:5px solid black"">","","","","","","","",""
"","3510.000000000029","sequential-stimulus-presentation-old","14","214705","0.0-9.0-1.2","SS1619740069780","trial","","40","500","4010.000000000029","images/stimuli/spore_stims/complex_07_A_a.gif","images/stimuli/spore_stims/complex_09_A_b.gif","forced_long","","0","complex_dissimilar","images/stimuli/spore_stims/complex_09_A_b.gif","","","","",""
"","null","html-keyboard-response","15","215556","0.0-9.0-0.3","SS1619740069780","","","null","","","","","","<p><img src= images/blank.png width =""600"" height = ""600"" style=""position:fixed;top:50%; left:50%; transform: translate(-50%, -50%); border:5px solid black"">","","","","","","","",""
"","5351","sequential-stimulus-presentation-old","16","221411","0.0-9.0-1.3","SS1619740069780","trial","","40","500","5851","images/stimuli/spore_stims/complex_07_A_a.gif","images/stimuli/spore_stims/complex_09_A_b.gif","forced_long","","0","complex_dissimilar","images/stimuli/spore_stims/complex_09_A_b.gif","","","","",""
"","null","html-keyboard-response","17","222453","0.0-9.0-0.4","SS1619740069780","","","null","","","","","","<p><img src= images/blank.png width =""600"" height = ""600"" style=""position:fixed;top:50%; left:50%; transform: translate(-50%, -50%); border:5px solid black"">","","","","","","","",""
"","4339","sequential-stimulus-presentation-old","18","227297","0.0-9.0-1.4","SS1619740069780","trial","","40","500","4839","images/stimuli/spore_stims/complex_07_A_a.gif","images/stimuli/spore_stims/complex_09_A_b.gif","forced_long","","0","complex_dissimilar","images/stimuli/spore_stims/complex_09_A_b.gif","","","","",""
"","7503","survey-multi-choice","19","234805","0.0-10.0","SS1619740069780","math_question","","","","","","","","","","","","{""Q0"":""11""}","[0]","11","",""
"","null","html-keyboard-response","20","235847","0.0-11.0-0.0","SS1619740069780","","","null","","","","","","<p><img src= images/blank.png width =""600"" height = ""600"" style=""position:fixed;top:50%; left:50%; transform: translate(-50%, -50%); border:5px solid black"">","","","","","","","",""
"","6609.000000000029","sequential-stimulus-presentation-old","21","242961","0.0-11.0-1.0","SS1619740069780","trial","","40","500","7109.000000000029","images/stimuli/spore_stims/complex_10_A_b.gif","images/stimuli/spore_stims/complex_12_A_a.gif","self_paced","","1","complex_dissimilar","images/stimuli/spore_stims/complex_12_A_a.gif","","","","",""
"","null","html-keyboard-response","22","243797","0.0-11.0-0.1","SS1619740069780","","","null","","","","","","<p><img src= images/blank.png width =""600"" height = ""600"" style=""position:fixed;top:50%; left:50%; transform: translate(-50%, -50%); border:5px solid black"">","","","","","","","",""
"","6915.000000000029","sequential-stimulus-presentation-old","23","251217","0.0-11.0-1.1","SS1619740069780","trial","","40","500","7415.000000000029","images/stimuli/spore_stims/complex_10_A_b.gif","images/stimuli/spore_stims/complex_12_A_a.gif","self_paced","","1","complex_dissimilar","images/stimuli/spore_stims/complex_12_A_a.gif","","","","",""
"","null","html-keyboard-response","24","252106","0.0-11.0-0.2","SS1619740069780","","","null","","","","","","<p><img src= images/blank.png width =""600"" height = ""600"" style=""position:fixed;top:50%; left:50%; transform: translate(-50%, -50%); border:5px solid black"">","","","","","","","",""
"","4594.999999999971","sequential-stimulus-presentation-old","25","257205","0.0-11.0-1.2","SS1619740069780","trial","","40","500","5094.999999999971","images/stimuli/spore_stims/complex_10_A_b.gif","images/stimuli/spore_stims/complex_12_A_a.gif","self_paced","","1","complex_dissimilar","images/stimuli/spore_stims/complex_12_A_a.gif","","","","",""
"","null","html-keyboard-response","26","258081","0.0-11.0-0.3","SS1619740069780","","","null","","","","","","<p><img src= images/blank.png width =""600"" height = ""600"" style=""position:fixed;top:50%; left:50%; transform: translate(-50%, -50%); border:5px solid black"">","","","","","","","",""
"","6069.000000000029","sequential-stimulus-presentation-old","27","264654","0.0-11.0-1.3","SS1619740069780","trial","","40","500","6569.000000000029","images/stimuli/spore_stims/complex_10_A_b.gif","images/stimuli/spore_stims/complex_12_A_a.gif","self_paced","","1","complex_dissimilar","images/stimuli/spore_stims/complex_12_A_a.gif","","","","",""
"","null","html-keyboard-response","28","265905","0.0-11.0-0.4","SS1619740069780","","","null","","","","","","<p><img src= images/blank.png width =""600"" height = ""600"" style=""position:fixed;top:50%; left:50%; transform: translate(-50%, -50%); border:5px solid black"">","","","","","","","",""
"","6497","sequential-stimulus-presentation-old","29","272907","0.0-11.0-1.4","SS1619740069780","trial","","40","500","6997","images/stimuli/spore_stims/complex_10_A_b.gif","images/stimuli/spore_stims/complex_12_A_a.gif","self_paced","","1","complex_dissimilar","images/stimuli/spore_stims/complex_10_A_b.gif","","","","",""
"","null","html-keyboard-response","30","273793","0.0-11.0-0.5","SS1619740069780","","","null","","","","","","<p><img src= images/blank.png width =""600"" height = ""600"" style=""position:fixed;top:50%; left:50%; transform: translate(-50%, -50%); border:5px solid black"">","","","","","","","",""
"","7139.999999999942","sequential-stimulus-presentation-old","31","281438","0.0-11.0-1.5","SS1619740069780","trial","","40","500","7639.999999999942","images/stimuli/spore_stims/complex_10_A_b.gif","images/stimuli/spore_stims/complex_12_A_a.gif","self_paced","","1","complex_dissimilar","images/stimuli/spore_stims/complex_10_A_b.gif","","","","",""
"","4291","survey-multi-choice","32","285732","0.0-12.0","SS1619740069780","math_question","","","","","","","","","","","","{""Q0"":""9""}","[0]","9","",""
"","null","html-keyboard-response","33","286742","0.0-13.0-0.0","SS1619740069780","","","null","","","","","","<p><img src= images/blank.png width =""600"" height = ""600"" style=""position:fixed;top:50%; left:50%; transform: translate(-50%, -50%); border:5px solid black"">","","","","","","","",""
"","5979","sequential-stimulus-presentation-old","34","307727","0.0-13.0-1.0","SS1619740069780","trial","","40","500","6479","images/stimuli/spore_stims/complex_03_A_a.gif","images/stimuli/spore_stims/complex_20_A_b.gif","forced_long","","2","complex_dissimilar","images/stimuli/spore_stims/complex_20_A_b.gif","","","","",""
"","null","html-keyboard-response","35","308826","0.0-13.0-0.1","SS1619740069780","","","null","","","","","","<p><img src= images/blank.png width =""600"" height = ""600"" style=""position:fixed;top:50%; left:50%; transform: translate(-50%, -50%); border:5px solid black"">","","","","","","","",""
"","7186","sequential-stimulus-presentation-old","36","316517","0.0-13.0-1.1","SS1619740069780","trial","","40","500","7686","images/stimuli/spore_stims/complex_03_A_a.gif","images/stimuli/spore_stims/complex_20_A_b.gif","forced_long","","2","complex_dissimilar","images/stimuli/spore_stims/complex_20_A_b.gif","","","","",""
"","null","html-keyboard-response","37","317545","0.0-13.0-0.2","SS1619740069780","","","null","","","","","","<p><img src= images/blank.png width =""600"" height = ""600"" style=""position:fixed;top:50%; left:50%; transform: translate(-50%, -50%); border:5px solid black"">","","","","","","","",""
"","4084","sequential-stimulus-presentation-old","38","322133","0.0-13.0-1.2","SS1619740069780","trial","","40","500","4584","images/stimuli/spore_stims/complex_03_A_a.gif","images/stimuli/spore_stims/complex_20_A_b.gif","forced_long","","2","complex_dissimilar","images/stimuli/spore_stims/complex_20_A_b.gif","","","","",""
"","null","html-keyboard-response","39","323253","0.0-13.0-0.3","SS1619740069780","","","null","","","","","","<p><img src= images/blank.png width =""600"" height = ""600"" style=""position:fixed;top:50%; left:50%; transform: translate(-50%, -50%); border:5px solid black"">","","","","","","","",""
"","5181","sequential-stimulus-presentation-old","40","328938","0.0-13.0-1.3","SS1619740069780","trial","","40","500","5681","images/stimuli/spore_stims/complex_03_A_a.gif","images/stimuli/spore_stims/complex_20_A_b.gif","forced_long","","2","complex_dissimilar","images/stimuli/spore_stims/complex_20_A_b.gif","","","","",""
"","null","html-keyboard-response","41","330145","0.0-13.0-0.4","SS1619740069780","","","null","","","","","","<p><img src= images/blank.png width =""600"" height = ""600"" style=""position:fixed;top:50%; left:50%; transform: translate(-50%, -50%); border:5px solid black"">","","","","","","","",""
"","6455","sequential-stimulus-presentation-old","42","337105","0.0-13.0-1.4","SS1619740069780","trial","","40","500","6955","images/stimuli/spore_stims/complex_03_A_a.gif","images/stimuli/spore_stims/complex_20_A_b.gif","forced_long","","2","complex_dissimilar","images/stimuli/spore_stims/complex_20_A_b.gif","","","","",""
"","null","html-keyboard-response","43","337995","0.0-13.0-0.5","SS1619740069780","","","null","","","","","","<p><img src= images/blank.png width =""600"" height = ""600"" style=""position:fixed;top:50%; left:50%; transform: translate(-50%, -50%); border:5px solid black"">","","","","","","","",""
"","8925.000000000058","sequential-stimulus-presentation-old","44","347425","0.0-13.0-1.5","SS1619740069780","trial","","40","500","9425.000000000058","images/stimuli/spore_stims/complex_03_A_a.gif","images/stimuli/spore_stims/complex_20_A_b.gif","forced_long","","2","complex_dissimilar","images/stimuli/spore_stims/complex_20_A_b.gif","","","","",""
"","3722","survey-multi-choice","45","351151","0.0-14.0","SS1619740069780","math_question","","","","","","","","","","","","{""Q0"":""9""}","[0]","9","",""
"","null","html-keyboard-response","46","352403","0.0-15.0-0.0","SS1619740069780","","","null","","","","","","<p><img src= images/blank.png width =""600"" height = ""600"" style=""position:fixed;top:50%; left:50%; transform: translate(-50%, -50%); border:5px solid black"">","","","","","","","",""
"","12680.999999999942","sequential-stimulus-presentation-old","47","365590","0.0-15.0-1.0","SS1619740069780","trial","","40","500","13180.999999999942","images/stimuli/spore_stims/simple_05_A_b.gif","images/stimuli/spore_stims/simple_15_A_a.gif","forced_short","","3","simple_dissimilar","images/stimuli/spore_stims/simple_15_A_a.gif","","","","",""
"","null","html-keyboard-response","48","366865","0.0-15.0-0.1","SS1619740069780","","","null","","","","","","<p><img src= images/blank.png width =""600"" height = ""600"" style=""position:fixed;top:50%; left:50%; transform: translate(-50%, -50%); border:5px solid black"">","","","","","","","",""
"","7347","sequential-stimulus-presentation-old","49","374712","0.0-15.0-1.1","SS1619740069780","trial","","40","500","7847","images/stimuli/spore_stims/simple_05_A_b.gif","images/stimuli/spore_stims/simple_15_A_a.gif","forced_short","","3","simple_dissimilar","images/stimuli/spore_stims/simple_15_A_a.gif","","","","",""
"","null","html-keyboard-response","50","375736","0.0-15.0-0.2","SS1619740069780","","","null","","","","","","<p><img src= images/blank.png width =""600"" height = ""600"" style=""position:fixed;top:50%; left:50%; transform: translate(-50%, -50%); border:5px solid black"">","","","","","","","",""
"","2916","sequential-stimulus-presentation-old","51","379155","0.0-15.0-1.2","SS1619740069780","trial","","40","500","3416","images/stimuli/spore_stims/simple_05_A_b.gif","images/stimuli/spore_stims/simple_15_A_a.gif","forced_short","","3","simple_dissimilar","images/stimuli/spore_stims/simple_15_A_a.gif","","","","",""
"","null","html-keyboard-response","52","380379","0.0-15.0-0.3","SS1619740069780","","","null","","","","","","<p><img src= images/blank.png width =""600"" height = ""600"" style=""position:fixed;top:50%; left:50%; transform: translate(-50%, -50%); border:5px solid black"">","","","","","","","",""
"","2915","sequential-stimulus-presentation-old","53","383797","0.0-15.0-1.3","SS1619740069780","trial","","40","500","3415","images/stimuli/spore_stims/simple_05_A_b.gif","images/stimuli/spore_stims/simple_15_A_a.gif","forced_short","","3","simple_dissimilar","images/stimuli/spore_stims/simple_15_A_a.gif","","","","",""
"","6306","survey-multi-choice","54","390105","0.0-16.0","SS1619740069780","math_question","","","","","","","","","","","","{""Q0"":""13""}","[0]","13","",""
"","null","html-keyboard-response","55","391145","0.0-17.0-0.0","SS1619740069780","","","null","","","","","","<p><img src= images/blank.png width =""600"" height = ""600"" style=""position:fixed;top:50%; left:50%; transform: translate(-50%, -50%); border:5px solid black"">","","","","","","","",""
"","5940","sequential-stimulus-presentation-old","56","397589","0.0-17.0-1.0","SS1619740069780","trial","","40","500","6440","images/stimuli/spore_stims/simple_06_A_b.gif","images/stimuli/spore_stims/simple_11_A_a.gif","self_paced","","4","simple_dissimilar","images/stimuli/spore_stims/simple_11_A_a.gif","","","","",""
"","null","html-keyboard-response","57","398647","0.0-17.0-0.1","SS1619740069780","","","null","","","","","","<p><img src= images/blank.png width =""600"" height = ""600"" style=""position:fixed;top:50%; left:50%; transform: translate(-50%, -50%); border:5px solid black"">","","","","","","","",""
"","3208","sequential-stimulus-presentation-old","58","402360","0.0-17.0-1.1","SS1619740069780","trial","","40","500","3708","images/stimuli/spore_stims/simple_06_A_b.gif","images/stimuli/spore_stims/simple_11_A_a.gif","self_paced","","4","simple_dissimilar","images/stimuli/spore_stims/simple_11_A_a.gif","","","","",""
"","null","html-keyboard-response","59","403635","0.0-17.0-0.2","SS1619740069780","","","null","","","","","","<p><img src= images/blank.png width =""600"" height = ""600"" style=""position:fixed;top:50%; left:50%; transform: translate(-50%, -50%); border:5px solid black"">","","","","","","","",""
"","2661","sequential-stimulus-presentation-old","60","406802","0.0-17.0-1.2","SS1619740069780","trial","","40","500","3161","images/stimuli/spore_stims/simple_06_A_b.gif","images/stimuli/spore_stims/simple_11_A_a.gif","self_paced","","4","simple_dissimilar","images/stimuli/spore_stims/simple_11_A_a.gif","","","","",""
"","null","html-keyboard-response","61","407990","0.0-17.0-0.3","SS1619740069780","","","null","","","","","","<p><img src= images/blank.png width =""600"" height = ""600"" style=""position:fixed;top:50%; left:50%; transform: translate(-50%, -50%); border:5px solid black"">","","","","","","","",""
"","2804","sequential-stimulus-presentation-old","62","411300","0.0-17.0-1.3","SS1619740069780","trial","","40","500","3304","images/stimuli/spore_stims/simple_06_A_b.gif","images/stimuli/spore_stims/simple_11_A_a.gif","self_paced","","4","simple_dissimilar","images/stimuli/spore_stims/simple_11_A_a.gif","","","","",""
"","null","html-keyboard-response","63","412556","0.0-17.0-0.4","SS1619740069780","","","null","","","","","","<p><img src= images/blank.png width =""600"" height = ""600"" style=""position:fixed;top:50%; left:50%; transform: translate(-50%, -50%); border:5px solid black"">","","","","","","","",""
"","3709","sequential-stimulus-presentation-old","64","416770","0.0-17.0-1.4","SS1619740069780","trial","","40","500","4209","images/stimuli/spore_stims/simple_06_A_b.gif","images/stimuli/spore_stims/simple_11_A_a.gif","self_paced","","4","simple_dissimilar","images/stimuli/spore_stims/simple_11_A_a.gif","","","","",""
"","null","html-keyboard-response","65","418063","0.0-17.0-0.5","SS1619740069780","","","null","","","","","","<p><img src= images/blank.png width =""600"" height = ""600"" style=""position:fixed;top:50%; left:50%; transform: translate(-50%, -50%); border:5px solid black"">","","","","","","","",""
"","6055","sequential-stimulus-presentation-old","66","424622","0.0-17.0-1.5","SS1619740069780","trial","","40","500","6555","images/stimuli/spore_stims/simple_06_A_b.gif","images/stimuli/spore_stims/simple_11_A_a.gif","self_paced","","4","simple_dissimilar","images/stimuli/spore_stims/simple_06_A_b.gif","","","","",""
"","11825.000000000058","survey-multi-choice","67","436451","0.0-18.0","SS1619740069780","math_question","","","","","","","","","","","","{""Q0"":""16""}","[0]","16","",""
"","null","html-keyboard-response","68","437477","0.0-19.0-0.0","SS1619740069780","","","null","","","","","","<p><img src= images/blank.png width =""600"" height = ""600"" style=""position:fixed;top:50%; left:50%; transform: translate(-50%, -50%); border:5px solid black"">","","","","","","","",""
"","4214.999999999942","sequential-stimulus-presentation-old","69","442197","0.0-19.0-1.0","SS1619740069780","trial","","40","500","4714.999999999942","images/stimuli/spore_stims/simple_15_A_b.gif","images/stimuli/spore_stims/simple_04_A_a.gif","forced_short","","5","simple_dissimilar","images/stimuli/spore_stims/simple_04_A_a.gif","","","","",""
"","null","html-keyboard-response","70","443195","0.0-19.0-0.1","SS1619740069780","","","null","","","","","","<p><img src= images/blank.png width =""600"" height = ""600"" style=""position:fixed;top:50%; left:50%; transform: translate(-50%, -50%); border:5px solid black"">","","","","","","","",""
"","10413.000000000058","sequential-stimulus-presentation-old","71","454113","0.0-19.0-1.1","SS1619740069780","trial","","40","500","10913.000000000058","images/stimuli/spore_stims/simple_15_A_b.gif","images/stimuli/spore_stims/simple_04_A_a.gif","forced_short","","5","simple_dissimilar","images/stimuli/spore_stims/simple_04_A_a.gif","","","","",""
"","null","html-keyboard-response","72","455367","0.0-19.0-0.2","SS1619740069780","","","null","","","","","","<p><img src= images/blank.png width =""600"" height = ""600"" style=""position:fixed;top:50%; left:50%; transform: translate(-50%, -50%); border:5px solid black"">","","","","","","","",""
"","6578","sequential-stimulus-presentation-old","73","462450","0.0-19.0-1.2","SS1619740069780","trial","","40","500","7078","images/stimuli/spore_stims/simple_15_A_b.gif","images/stimuli/spore_stims/simple_04_A_a.gif","forced_short","","5","simple_dissimilar","images/stimuli/spore_stims/simple_04_A_a.gif","","","","",""
"","null","html-keyboard-response","74","463506","0.0-19.0-0.3","SS1619740069780","","","null","","","","","","<p><img src= images/blank.png width =""600"" height = ""600"" style=""position:fixed;top:50%; left:50%; transform: translate(-50%, -50%); border:5px solid black"">","","","","","","","",""
"","5859","sequential-stimulus-presentation-old","75","469870","0.0-19.0-1.3","SS1619740069780","trial","","40","500","6359","images/stimuli/spore_stims/simple_15_A_b.gif","images/stimuli/spore_stims/simple_04_A_a.gif","forced_short","","5","simple_dissimilar","images/stimuli/spore_stims/simple_04_A_a.gif","","","","",""
"","null","html-keyboard-response","76","470787","0.0-19.0-0.4","SS1619740069780","","","null","","","","","","<p><img src= images/blank.png width =""600"" height = ""600"" style=""position:fixed;top:50%; left:50%; transform: translate(-50%, -50%); border:5px solid black"">","","","","","","","",""
"","3203.000000000058","sequential-stimulus-presentation-old","77","474496","0.0-19.0-1.4","SS1619740069780","trial","","40","500","3703.000000000058","images/stimuli/spore_stims/simple_15_A_b.gif","images/stimuli/spore_stims/simple_04_A_a.gif","forced_short","","5","simple_dissimilar","images/stimuli/spore_stims/simple_04_A_a.gif","","","","",""
"","5344","survey-multi-choice","78","479843","0.0-20.0","SS1619740069780","math_question","","","","","","","","","","","","{""Q0"":""14""}","[0]","14","",""
"","null","html-keyboard-response","79","480810","0.0-21.0-0.0","SS1619740069780","","","null","","","","","","<p><img src= images/blank.png width =""600"" height = ""600"" style=""position:fixed;top:50%; left:50%; transform: translate(-50%, -50%); border:5px solid black"">","","","","","","","",""
"","2154.999999999942","sequential-stimulus-presentation-old","80","497971","0.0-21.0-1.0","SS1619740069780","trial","","40","500","2654.999999999942","images/stimuli/spore_stims/simple_09_A_b.gif","images/stimuli/spore_stims/simple_03_A_a.gif","forced_long","","6","simple_dissimilar","images/stimuli/spore_stims/simple_03_A_a.gif","","","","",""
"","null","html-keyboard-response","81","499182","0.0-21.0-0.1","SS1619740069780","","","null","","","","","","<p><img src= images/blank.png width =""600"" height = ""600"" style=""position:fixed;top:50%; left:50%; transform: translate(-50%, -50%); border:5px solid black"">","","","","","","","",""
"","5117.000000000058","sequential-stimulus-presentation-old","82","504804","0.0-21.0-1.1","SS1619740069780","trial","","40","500","5617.000000000058","images/stimuli/spore_stims/simple_09_A_b.gif","images/stimuli/spore_stims/simple_03_A_a.gif","forced_long","","6","simple_dissimilar","images/stimuli/spore_stims/simple_03_A_a.gif","","","","",""
"","null","html-keyboard-response","83","506037","0.0-21.0-0.2","SS1619740069780","","","null","","","","","","<p><img src= images/blank.png width =""600"" height = ""600"" style=""position:fixed;top:50%; left:50%; transform: translate(-50%, -50%); border:5px solid black"">","","","","","","","",""
"","4928.000000000058","sequential-stimulus-presentation-old","84","511471","0.0-21.0-1.2","SS1619740069780","trial","","40","500","5428.000000000058","images/stimuli/spore_stims/simple_09_A_b.gif","images/stimuli/spore_stims/simple_03_A_a.gif","forced_long","","6","simple_dissimilar","images/stimuli/spore_stims/simple_09_A_b.gif","","","","",""
"","null","html-keyboard-response","85","512384","0.0-21.0-0.3","SS1619740069780","","","null","","","","","","<p><img src= images/blank.png width =""600"" height = ""600"" style=""position:fixed;top:50%; left:50%; transform: translate(-50%, -50%); border:5px solid black"">","","","","","","","",""
"","5198.999999999942","sequential-stimulus-presentation-old","86","518089","0.0-21.0-1.3","SS1619740069780","trial","","40","500","5698.999999999942","images/stimuli/spore_stims/simple_09_A_b.gif","images/stimuli/spore_stims/simple_03_A_a.gif","forced_long","","6","simple_dissimilar","images/stimuli/spore_stims/simple_03_A_a.gif","","","","",""
"","null","html-keyboard-response","87","519079","0.0-21.0-0.4","SS1619740069780","","","null","","","","","","<p><img src= images/blank.png width =""600"" height = ""600"" style=""position:fixed;top:50%; left:50%; transform: translate(-50%, -50%); border:5px solid black"">","","","","","","","",""
"","3089","sequential-stimulus-presentation-old","88","522673","0.0-21.0-1.4","SS1619740069780","trial","","40","500","3589","images/stimuli/spore_stims/simple_09_A_b.gif","images/stimuli/spore_stims/simple_03_A_a.gif","forced_long","","6","simple_dissimilar","images/stimuli/spore_stims/simple_09_A_b.gif","","","","",""
"","6521","survey-multi-choice","89","529199","0.0-22.0","SS1619740069780","math_question","","","","","","","","","","","","{""Q0"":""16""}","[0]","16","",""
"","null","html-keyboard-response","90","530189","0.0-23.0-0.0","SS1619740069780","","","null","","","","","","<p><img src= images/blank.png width =""600"" height = ""600"" style=""position:fixed;top:50%; left:50%; transform: translate(-50%, -50%); border:5px solid black"">","","","","","","","",""
"","3050","sequential-stimulus-presentation-old","91","533744","0.0-23.0-1.0","SS1619740069780","trial","","40","500","3550","images/stimuli/spore_stims/complex_01_A_a.gif","images/stimuli/spore_stims/complex_06_A_b.gif","forced_short","","7","complex_dissimilar","images/stimuli/spore_stims/complex_06_A_b.gif","","","","",""
"","null","html-keyboard-response","92","534866","0.0-23.0-0.1","SS1619740069780","","","null","","","","","","<p><img src= images/blank.png width =""600"" height = ""600"" style=""position:fixed;top:50%; left:50%; transform: translate(-50%, -50%); border:5px solid black"">","","","","","","","",""
"","5959.999999999884","sequential-stimulus-presentation-old","93","541331","0.0-23.0-1.1","SS1619740069780","trial","","40","500","6459.999999999884","images/stimuli/spore_stims/complex_01_A_a.gif","images/stimuli/spore_stims/complex_06_A_b.gif","forced_short","","7","complex_dissimilar","images/stimuli/spore_stims/complex_06_A_b.gif","","","","",""
"","null","html-keyboard-response","94","542469","0.0-23.0-0.2","SS1619740069780","","","null","","","","","","<p><img src= images/blank.png width =""600"" height = ""600"" style=""position:fixed;top:50%; left:50%; transform: translate(-50%, -50%); border:5px solid black"">","","","","","","","",""
"","3318","sequential-stimulus-presentation-old","95","546292","0.0-23.0-1.2","SS1619740069780","trial","","40","500","3818","images/stimuli/spore_stims/complex_01_A_a.gif","images/stimuli/spore_stims/complex_06_A_b.gif","forced_short","","7","complex_dissimilar","images/stimuli/spore_stims/complex_06_A_b.gif","","","","",""
"","null","html-keyboard-response","96","547504","0.0-23.0-0.3","SS1619740069780","","","null","","","","","","<p><img src= images/blank.png width =""600"" height = ""600"" style=""position:fixed;top:50%; left:50%; transform: translate(-50%, -50%); border:5px solid black"">","","","","","","","",""
"","3174","sequential-stimulus-presentation-old","97","551184","0.0-23.0-1.3","SS1619740069780","trial","","40","500","3674","images/stimuli/spore_stims/complex_01_A_a.gif","images/stimuli/spore_stims/complex_06_A_b.gif","forced_short","","7","complex_dissimilar","images/stimuli/spore_stims/complex_06_A_b.gif","","","","",""
"","8270","survey-multi-choice","98","559460","0.0-24.0","SS1619740069780","math_question","","","","","","","","","","","","{""Q0"":""8""}","[0]","8","",""
"","null","html-keyboard-response","99","560499","0.0-25.0-0.0","SS1619740069780","","","null","","","","","","<p><img src= images/blank.png width =""600"" height = ""600"" style=""position:fixed;top:50%; left:50%; transform: translate(-50%, -50%); border:5px solid black"">","","","","","","","",""
"","2469","sequential-stimulus-presentation-old","100","563474","0.0-25.0-1.0","SS1619740069780","trial","","40","500","2969","images/stimuli/spore_stims/complex_17_A_a.gif","images/stimuli/spore_stims/complex_19_A_b.gif","forced_short","","8","complex_dissimilar","images/stimuli/spore_stims/complex_19_A_b.gif","","","","",""
"","null","html-keyboard-response","101","564673","0.0-25.0-0.1","SS1619740069780","","","null","","","","","","<p><img src= images/blank.png width =""600"" height = ""600"" style=""position:fixed;top:50%; left:50%; transform: translate(-50%, -50%); border:5px solid black"">","","","","","","","",""
"","5235.000000000116","sequential-stimulus-presentation-old","102","570415","0.0-25.0-1.1","SS1619740069780","trial","","40","500","5735.000000000116","images/stimuli/spore_stims/complex_17_A_a.gif","images/stimuli/spore_stims/complex_19_A_b.gif","forced_short","","8","complex_dissimilar","images/stimuli/spore_stims/complex_19_A_b.gif","","","","",""
"","null","html-keyboard-response","103","571619","0.0-25.0-0.2","SS1619740069780","","","null","","","","","","<p><img src= images/blank.png width =""600"" height = ""600"" style=""position:fixed;top:50%; left:50%; transform: translate(-50%, -50%); border:5px solid black"">","","","","","","","",""
"","3499","sequential-stimulus-presentation-old","104","575623","0.0-25.0-1.2","SS1619740069780","trial","","40","500","3999","images/stimuli/spore_stims/complex_17_A_a.gif","images/stimuli/spore_stims/complex_19_A_b.gif","forced_short","","8","complex_dissimilar","images/stimuli/spore_stims/complex_19_A_b.gif","","","","",""
"","null","html-keyboard-response","105","576454","0.0-25.0-0.3","SS1619740069780","","","null","","","","","","<p><img src= images/blank.png width =""600"" height = ""600"" style=""position:fixed;top:50%; left:50%; transform: translate(-50%, -50%); border:5px solid black"">","","","","","","","",""
"","2875","sequential-stimulus-presentation-old","106","579835","0.0-25.0-1.3","SS1619740069780","trial","","40","500","3375","images/stimuli/spore_stims/complex_17_A_a.gif","images/stimuli/spore_stims/complex_19_A_b.gif","forced_short","","8","complex_dissimilar","images/stimuli/spore_stims/complex_19_A_b.gif","","","","",""
"","null","html-keyboard-response","107","580754","0.0-25.0-0.4","SS1619740069780","","","null","","","","","","<p><img src= images/blank.png width =""600"" height = ""600"" style=""position:fixed;top:50%; left:50%; transform: translate(-50%, -50%); border:5px solid black"">","","","","","","","",""
"","5319","sequential-stimulus-presentation-old","108","586578","0.0-25.0-1.4","SS1619740069780","trial","","40","500","5819","images/stimuli/spore_stims/complex_17_A_a.gif","images/stimuli/spore_stims/complex_19_A_b.gif","forced_short","","8","complex_dissimilar","images/stimuli/spore_stims/complex_19_A_b.gif","","","","",""
"","null","html-keyboard-response","109","587848","0.0-25.0-0.5","SS1619740069780","","","null","","","","","","<p><img src= images/blank.png width =""600"" height = ""600"" style=""position:fixed;top:50%; left:50%; transform: translate(-50%, -50%); border:5px solid black"">","","","","","","","",""
"","2830","sequential-stimulus-presentation-old","110","591183","0.0-25.0-1.5","SS1619740069780","trial","","40","500","3330","images/stimuli/spore_stims/complex_17_A_a.gif","images/stimuli/spore_stims/complex_19_A_b.gif","forced_short","","8","complex_dissimilar","images/stimuli/spore_stims/complex_19_A_b.gif","","","","",""
"","3759","survey-multi-choice","111","594947","0.0-26.0","SS1619740069780","math_question","","","","","","","","","","","","{""Q0"":""10""}","[0]","10","",""
"","null","html-keyboard-response","112","596133","0.0-27.0-0.0","SS1619740069780","","","null","","","","","","<p><img src= images/blank.png width =""600"" height = ""600"" style=""position:fixed;top:50%; left:50%; transform: translate(-50%, -50%); border:5px solid black"">","","","","","","","",""
"","3945","sequential-stimulus-presentation-old","113","600586","0.0-27.0-1.0","SS1619740069780","trial","","40","500","4445","images/stimuli/spore_stims/simple_13_A_b.gif","images/stimuli/spore_stims/simple_08_A_a.gif","self_paced","","9","simple_dissimilar","images/stimuli/spore_stims/simple_08_A_a.gif","","","","",""
"","null","html-keyboard-response","114","601769","0.0-27.0-0.1","SS1619740069780","","","null","","","","","","<p><img src= images/blank.png width =""600"" height = ""600"" style=""position:fixed;top:50%; left:50%; transform: translate(-50%, -50%); border:5px solid black"">","","","","","","","",""
"","3800.0000000001164","sequential-stimulus-presentation-old","115","606074","0.0-27.0-1.1","SS1619740069780","trial","","40","500","4300.000000000116","images/stimuli/spore_stims/simple_13_A_b.gif","images/stimuli/spore_stims/simple_08_A_a.gif","self_paced","","9","simple_dissimilar","images/stimuli/spore_stims/simple_08_A_a.gif","","","","",""
"","null","html-keyboard-response","116","607256","0.0-27.0-0.2","SS1619740069780","","","null","","","","","","<p><img src= images/blank.png width =""600"" height = ""600"" style=""position:fixed;top:50%; left:50%; transform: translate(-50%, -50%); border:5px solid black"">","","","","","","","",""
"","5735","sequential-stimulus-presentation-old","117","613496","0.0-27.0-1.2","SS1619740069780","trial","","40","500","6235","images/stimuli/spore_stims/simple_13_A_b.gif","images/stimuli/spore_stims/simple_08_A_a.gif","self_paced","","9","simple_dissimilar","images/stimuli/spore_stims/simple_13_A_b.gif","","","","",""
"","null","html-keyboard-response","118","614321","0.0-27.0-0.3","SS1619740069780","","","null","","","","","","<p><img src= images/blank.png width =""600"" height = ""600"" style=""position:fixed;top:50%; left:50%; transform: translate(-50%, -50%); border:5px solid black"">","","","","","","","",""
"","4720","sequential-stimulus-presentation-old","119","619547","0.0-27.0-1.3","SS1619740069780","trial","","40","500","5220","images/stimuli/spore_stims/simple_13_A_b.gif","images/stimuli/spore_stims/simple_08_A_a.gif","self_paced","","9","simple_dissimilar","images/stimuli/spore_stims/simple_08_A_a.gif","","","","",""
"","6456","survey-multi-choice","120","626007","0.0-28.0","SS1619740069780","math_question","","","","","","","","","","","","{""Q0"":""18""}","[0]","18","",""
"","null","html-keyboard-response","121","626974","0.0-29.0-0.0","SS1619740069780","","","null","","","","","","<p><img src= images/blank.png width =""600"" height = ""600"" style=""position:fixed;top:50%; left:50%; transform: translate(-50%, -50%); border:5px solid black"">","","","","","","","",""
"","11445","sequential-stimulus-presentation-old","122","638925","0.0-29.0-1.0","SS1619740069780","trial","","40","500","11945","images/stimuli/spore_stims/complex_09_A_a.gif","images/stimuli/spore_stims/complex_04_A_b.gif","self_paced","","10","complex_dissimilar","images/stimuli/spore_stims/complex_04_A_b.gif","","","","",""
"","null","html-keyboard-response","123","639815","0.0-29.0-0.1","SS1619740069780","","","null","","","","","","<p><img src= images/blank.png width =""600"" height = ""600"" style=""position:fixed;top:50%; left:50%; transform: translate(-50%, -50%); border:5px solid black"">","","","","","","","",""
"","6279.999999999884","sequential-stimulus-presentation-old","124","646601","0.0-29.0-1.1","SS1619740069780","trial","","40","500","6779.999999999884","images/stimuli/spore_stims/complex_09_A_a.gif","images/stimuli/spore_stims/complex_04_A_b.gif","self_paced","","10","complex_dissimilar","images/stimuli/spore_stims/complex_04_A_b.gif","","","","",""
"","null","html-keyboard-response","125","647589","0.0-29.0-0.2","SS1619740069780","","","null","","","","","","<p><img src= images/blank.png width =""600"" height = ""600"" style=""position:fixed;top:50%; left:50%; transform: translate(-50%, -50%); border:5px solid black"">","","","","","","","",""
"","7727.999999999884","sequential-stimulus-presentation-old","126","655823","0.0-29.0-1.2","SS1619740069780","trial","","40","500","8227.999999999884","images/stimuli/spore_stims/complex_09_A_a.gif","images/stimuli/spore_stims/complex_04_A_b.gif","self_paced","","10","complex_dissimilar","images/stimuli/spore_stims/complex_04_A_b.gif","","","","",""
"","null","html-keyboard-response","127","656951","0.0-29.0-0.3","SS1619740069780","","","null","","","","","","<p><img src= images/blank.png width =""600"" height = ""600"" style=""position:fixed;top:50%; left:50%; transform: translate(-50%, -50%); border:5px solid black"">","","","","","","","",""
"","4591","sequential-stimulus-presentation-old","128","662049","0.0-29.0-1.3","SS1619740069780","trial","","40","500","5091","images/stimuli/spore_stims/complex_09_A_a.gif","images/stimuli/spore_stims/complex_04_A_b.gif","self_paced","","10","complex_dissimilar","images/stimuli/spore_stims/complex_04_A_b.gif","","","","",""
"","null","html-keyboard-response","129","662857","0.0-29.0-0.4","SS1619740069780","","","null","","","","","","<p><img src= images/blank.png width =""600"" height = ""600"" style=""position:fixed;top:50%; left:50%; transform: translate(-50%, -50%); border:5px solid black"">","","","","","","","",""
"","2183.9999999998836","sequential-stimulus-presentation-old","130","665548","0.0-29.0-1.4","SS1619740069780","trial","","40","500","2683.9999999998836","images/stimuli/spore_stims/complex_09_A_a.gif","images/stimuli/spore_stims/complex_04_A_b.gif","self_paced","","10","complex_dissimilar","images/stimuli/spore_stims/complex_04_A_b.gif","","","","",""
"","3887","survey-multi-choice","131","669439","0.0-30.0","SS1619740069780","math_question","","","","","","","","","","","","{""Q0"":""3""}","[0]","3","",""
"","null","html-keyboard-response","132","670497","0.0-31.0-0.0","SS1619740069780","","","null","","","","","","<p><img src= images/blank.png width =""600"" height = ""600"" style=""position:fixed;top:50%; left:50%; transform: translate(-50%, -50%); border:5px solid black"">","","","","","","","",""
"","843","sequential-stimulus-presentation-old","133","686347","0.0-31.0-1.0","SS1619740069780","trial","","40","500","1343","images/stimuli/spore_stims/simple_12_A_a.gif","images/stimuli/spore_stims/simple_17_A_b.gif","forced_long","","11","simple_dissimilar","images/stimuli/spore_stims/simple_17_A_b.gif","","","","",""
"","null","html-keyboard-response","134","687424","0.0-31.0-0.1","SS1619740069780","","","null","","","","","","<p><img src= images/blank.png width =""600"" height = ""600"" style=""position:fixed;top:50%; left:50%; transform: translate(-50%, -50%); border:5px solid black"">","","","","","","","",""
"","4365","sequential-stimulus-presentation-old","135","692293","0.0-31.0-1.1","SS1619740069780","trial","","40","500","4865","images/stimuli/spore_stims/simple_12_A_a.gif","images/stimuli/spore_stims/simple_17_A_b.gif","forced_long","","11","simple_dissimilar","images/stimuli/spore_stims/simple_17_A_b.gif","","","","",""
"","null","html-keyboard-response","136","693347","0.0-31.0-0.2","SS1619740069780","","","null","","","","","","<p><img src= images/blank.png width =""600"" height = ""600"" style=""position:fixed;top:50%; left:50%; transform: translate(-50%, -50%); border:5px solid black"">","","","","","","","",""
"","3740","sequential-stimulus-presentation-old","137","697597","0.0-31.0-1.2","SS1619740069780","trial","","40","500","4240","images/stimuli/spore_stims/simple_12_A_a.gif","images/stimuli/spore_stims/simple_17_A_b.gif","forced_long","","11","simple_dissimilar","images/stimuli/spore_stims/simple_17_A_b.gif","","","","",""
"","null","html-keyboard-response","138","698438","0.0-31.0-0.3","SS1619740069780","","","null","","","","","","<p><img src= images/blank.png width =""600"" height = ""600"" style=""position:fixed;top:50%; left:50%; transform: translate(-50%, -50%); border:5px solid black"">","","","","","","","",""
"","5586.999999999884","sequential-stimulus-presentation-old","139","704529","0.0-31.0-1.3","SS1619740069780","trial","","40","500","6086.999999999884","images/stimuli/spore_stims/simple_12_A_a.gif","images/stimuli/spore_stims/simple_17_A_b.gif","forced_long","","11","simple_dissimilar","images/stimuli/spore_stims/simple_17_A_b.gif","","","","",""
"[{""page_index"":0,""viewing_time"":4952}]","4952","instructions","140","709488","0.0-32.0","SS1619740069780","instructions","","","","","","","","","","","","","","","",""
"","12603","survey-likert","141","722095","0.0-33.0","SS1619740069780","similarity_question","","","","","","","","","","","","{""Q0"":3}","[0]","","images/stimuli/spore_stims/simple_06_A_b.gif","images/stimuli/spore_stims/simple_11_A_a.gif"
"","7362","survey-likert","142","729461","0.0-34.0","SS1619740069780","similarity_question","","","","","","","","","","","","{""Q0"":4}","[0]","","images/stimuli/spore_stims/complex_07_A_a.gif","images/stimuli/spore_stims/complex_09_A_b.gif"
"","9498","survey-likert","143","738964","0.0-35.0","SS1619740069780","similarity_question","","","","","","","","","","","","{""Q0"":1}","[0]","","images/stimuli/spore_stims/complex_09_A_a.gif","images/stimuli/spore_stims/complex_04_A_b.gif"
"","5343","survey-likert","144","744310","0.0-36.0","SS1619740069780","similarity_question","","","","","","","","","","","","{""Q0"":0}","[0]","","images/stimuli/spore_stims/complex_12_A_a.gif","images/stimuli/spore_stims/complex_10_A_b.gif"
"","6265","survey-likert","145","750579","0.0-37.0","SS1619740069780","similarity_question","","","","","","","","","","","","{""Q0"":0}","[0]","","images/stimuli/spore_stims/complex_19_A_b.gif","images/stimuli/spore_stims/complex_17_A_a.gif"
"","6371.000000000116","survey-likert","146","756953","0.0-38.0","SS1619740069780","similarity_question","","","","","","","","","","","","{""Q0"":4}","[0]","","images/stimuli/spore_stims/simple_03_A_a.gif","images/stimuli/spore_stims/simple_09_A_b.gif"
"","118466","survey-likert","147","875427","0.0-39.0","SS1619740069780","similarity_question","","","","","","","","","","","","{""Q0"":4}","[0]","","images/stimuli/spore_stims/simple_08_A_a.gif","images/stimuli/spore_stims/simple_13_A_b.gif"
"","4642","survey-likert","148","880073","0.0-40.0","SS1619740069780","similarity_question","","","","","","","","","","","","{""Q0"":5}","[0]","","images/stimuli/spore_stims/simple_15_A_b.gif","images/stimuli/spore_stims/simple_04_A_a.gif"
"","5821.000000000116","survey-likert","149","885898","0.0-41.0","SS1619740069780","similarity_question","","","","","","","","","","","","{""Q0"":0}","[0]","","images/stimuli/spore_stims/complex_03_A_a.gif","images/stimuli/spore_stims/complex_20_A_b.gif"
"","5190","survey-likert","150","891092","0.0-42.0","SS1619740069780","similarity_question","","","","","","","","","","","","{""Q0"":4}","[0]","","images/stimuli/spore_stims/simple_12_A_a.gif","images/stimuli/spore_stims/simple_17_A_b.gif"
"","6569.999999999884","survey-likert","151","897665","0.0-43.0","SS1619740069780","similarity_question","","","","","","","","","","","","{""Q0"":2}","[0]","","images/stimuli/spore_stims/complex_06_A_b.gif","images/stimuli/spore_stims/complex_01_A_a.gif"
"","4421","survey-likert","152","902091","0.0-44.0","SS1619740069780","similarity_question","","","","","","","","","","","","{""Q0"":4}","[0]","","images/stimuli/spore_stims/simple_05_A_b.gif","images/stimuli/spore_stims/simple_15_A_a.gif"
"[{""page_index"":0,""viewing_time"":4979.999999999884}]","4979.999999999884","instructions","153","907075","0.0-45.0","SS1619740069780","instructions","","","","","","","","","","","","","","","",""
"","6110","survey-likert","154","913189","0.0-46.0","SS1619740069780","","","","","","","","","images/stimuli/spore_stims/complex_10_A_b.gif","","","","{""Q0"":4}","[0]","","",""
"","5827","survey-likert","155","919019","0.0-47.0","SS1619740069780","","","","","","","","","images/stimuli/spore_stims/complex_09_A_a.gif","","","","{""Q0"":6}","[0]","","",""
"","7699","survey-likert","156","926722","0.0-48.0","SS1619740069780","","","","","","","","","images/stimuli/spore_stims/complex_20_A_b.gif","","","","{""Q0"":5}","[0]","","",""
"","6418","survey-likert","157","933144","0.0-49.0","SS1619740069780","","","","","","","","","images/stimuli/spore_stims/complex_17_A_a.gif","","","","{""Q0"":3}","[0]","","",""
"","6625","survey-likert","158","939772","0.0-50.0","SS1619740069780","","","","","","","","","images/stimuli/spore_stims/complex_01_A_a.gif","","","","{""Q0"":2}","[0]","","",""
"","3540","survey-likert","159","943316","0.0-51.0","SS1619740069780","","","","","","","","","images/stimuli/spore_stims/simple_03_A_a.gif","","","","{""Q0"":0}","[0]","","",""
"","6164","survey-likert","160","949483","0.0-52.0","SS1619740069780","","","","","","","","","images/stimuli/spore_stims/complex_07_A_a.gif","","","","{""Q0"":6}","[0]","","",""
"","3248","survey-likert","161","952736","0.0-53.0","SS1619740069780","","","","","","","","","images/stimuli/spore_stims/simple_11_A_a.gif","","","","{""Q0"":0}","[0]","","",""
"","2813","survey-likert","162","955553","0.0-54.0","SS1619740069780","","","","","","","","","images/stimuli/spore_stims/simple_12_A_a.gif","","","","{""Q0"":0}","[0]","","",""
"","2251","survey-likert","163","957809","0.0-55.0","SS1619740069780","","","","","","","","","images/stimuli/spore_stims/simple_15_A_b.gif","","","","{""Q0"":0}","[0]","","",""
"","2785","survey-likert","164","960598","0.0-56.0","SS1619740069780","","","","","","","","","images/stimuli/spore_stims/simple_15_A_a.gif","","","","{""Q0"":0}","[0]","","",""
"","2766","survey-likert","165","963370","0.0-57.0","SS1619740069780","","","","","","","","","images/stimuli/spore_stims/simple_13_A_b.gif","","","","{""Q0"":0}","[0]","","",""
"[{""page_index"":0,""viewing_time"":2322}]","2322","instructions","166","965697","0.0-58.0","SS1619740069780","instructions","","","","","","","","","","","","","","","",""
"","2215.0000000001164","demog-age","167","967923","0.0-59.0","SS1619740069780","","","","","","","","","","","","","{""age"":""21""}","","","",""
"","4133.999999999884","demog-ethnic-US","168","972063","0.0-60.0","SS1619740069780","","","","","","","","","","","","","{""ethnicity"":[""Hispanic or Latino""]}","[0]","","",""
"","15211","demog-gender-and-education","169","987279","0.0-61.0","SS1619740069780","","","","","","","","","","","","","{""gender"":""Female"",""education"":""Bachelor's Degree""}","[0,1]","","",""
"","13210.999999999884","survey-text","170","1000501","0.0-62.0","SS1619740069780","feedback","","","","","","","","","","","","{""Q0"":""Everything was fine.""}","","","",""
"[{""page_index"":0,""viewing_time"":1689}]","1689","instructions","171","1002193","0.0-63.0","SS1619740069780","instructions","","","","","","","","","","","","","","","",""
