"view_history","rt","trial_type","trial_index","time_elapsed","internal_node_id","subject","stimulus_type","trial_stimulus","key_press","minimum_viewing_duration","trial_looking_time","block_deviant","block_background","exposure_type","stimulus","block_number","block_type","stimulus_displayed","responses","question_order","math_correct_answer","stimulus_left","stimulus_right"
"[{""page_index"":0,""viewing_time"":13644.740000134334}]","13645.255000097677","instructions","0","13647","0.0-0.0","SS1619739859252","","","","","","","","","","","","","","","","",""
"[{""page_index"":0,""viewing_time"":28117.71999998018},{""page_index"":1,""viewing_time"":6912.130000069737}]","35030.030000023544","instructions","1","50678","0.0-1.0","SS1619739859252","instructions","","","","","","","","","","","","","","","",""
"","7108.014999888837","sequential-stimulus-presentation-old","2","58295","0.0-2.0","SS1619739859252","","","40","500","7608.014999888837","null","null","self_paced","","","","","","","","",""
"","4928.520000074059","sequential-stimulus-presentation-old","3","63726","0.0-3.0","SS1619739859252","","","40","500","5428.520000074059","null","null","self_paced","","","","","","","","",""
"[{""page_index"":0,""viewing_time"":21831.5949998796}]","21831.779999891296","instructions","4","85558","0.0-4.0","SS1619739859252","instructions","","","","","","","","","","","","","","","",""
"","821.1250000167638","sequential-stimulus-presentation-old","5","101382","0.0-5.0","SS1619739859252","","","40","500","1321.1250000167638","null","null","forced_long","","","","","","","","",""
"","5412.524999817833","sequential-stimulus-presentation-old","6","107301","0.0-6.0","SS1619739859252","","","40","500","5912.524999817833","null","null","forced_long","","","","","","","","",""
"[{""page_index"":0,""viewing_time"":5463.040000060573}]","5463.239999953657","instructions","7","112765","0.0-7.0","SS1619739859252","instructions","","","","","","","","","","","","","","","",""
"[{""page_index"":0,""viewing_time"":13031.320000067353},{""page_index"":1,""viewing_time"":18880.02000004053},{""page_index"":2,""viewing_time"":7367.845000000671},{""page_index"":3,""viewing_time"":6703.985000029206},{""page_index"":4,""viewing_time"":1359.9599997978657}]","47343.31000014208","instructions","8","160109","0.0-8.0","SS1619739859252","instructions","","","","","","","","","","","","","","","",""
"","null","html-keyboard-response","9","161079","0.0-9.0-0.0","SS1619739859252","","","null","","","","","","<p><img src= images/blank.png width =""600"" height = ""600"" style=""position:fixed;top:50%; left:50%; transform: translate(-50%, -50%); border:5px solid black"">","","","","","","","",""
"","1791.4799998980016","sequential-stimulus-presentation-old","10","163373","0.0-9.0-1.0","SS1619739859252","trial","","40","500","2291.4799998980016","images/stimuli/spore_stims/complex_13_A_a.gif","images/stimuli/spore_stims/complex_04_A_b.gif","forced_short","","0","complex_dissimilar","images/stimuli/spore_stims/complex_04_A_b.gif","","","","",""
"","null","html-keyboard-response","11","164479","0.0-9.0-0.1","SS1619739859252","","","null","","","","","","<p><img src= images/blank.png width =""600"" height = ""600"" style=""position:fixed;top:50%; left:50%; transform: translate(-50%, -50%); border:5px solid black"">","","","","","","","",""
"","10711.395000107586","sequential-stimulus-presentation-old","12","175694","0.0-9.0-1.1","SS1619739859252","trial","","40","500","11211.395000107586","images/stimuli/spore_stims/complex_13_A_a.gif","images/stimuli/spore_stims/complex_04_A_b.gif","forced_short","","0","complex_dissimilar","images/stimuli/spore_stims/complex_04_A_b.gif","","","","",""
"","null","html-keyboard-response","13","176873","0.0-9.0-0.2","SS1619739859252","","","null","","","","","","<p><img src= images/blank.png width =""600"" height = ""600"" style=""position:fixed;top:50%; left:50%; transform: translate(-50%, -50%); border:5px solid black"">","","","","","","","",""
"","4614.765000063926","sequential-stimulus-presentation-old","14","181990","0.0-9.0-1.2","SS1619739859252","trial","","40","500","5114.765000063926","images/stimuli/spore_stims/complex_13_A_a.gif","images/stimuli/spore_stims/complex_04_A_b.gif","forced_short","","0","complex_dissimilar","images/stimuli/spore_stims/complex_13_A_a.gif","","","","",""
"","null","html-keyboard-response","15","183007","0.0-9.0-0.3","SS1619739859252","","","null","","","","","","<p><img src= images/blank.png width =""600"" height = ""600"" style=""position:fixed;top:50%; left:50%; transform: translate(-50%, -50%); border:5px solid black"">","","","","","","","",""
"","5559.550000121817","sequential-stimulus-presentation-old","16","189070","0.0-9.0-1.3","SS1619739859252","trial","","40","500","6059.550000121817","images/stimuli/spore_stims/complex_13_A_a.gif","images/stimuli/spore_stims/complex_04_A_b.gif","forced_short","","0","complex_dissimilar","images/stimuli/spore_stims/complex_13_A_a.gif","","","","",""
"","3942.2799998428673","survey-multi-choice","17","193014","0.0-10.0","SS1619739859252","math_question","","","","","","","","","","","","{""Q0"":""14""}","[0]","14","",""
"","null","html-keyboard-response","18","194311","0.0-11.0-0.0","SS1619739859252","","","null","","","","","","<p><img src= images/blank.png width =""600"" height = ""600"" style=""position:fixed;top:50%; left:50%; transform: translate(-50%, -50%); border:5px solid black"">","","","","","","","",""
"","4151.640000054613","sequential-stimulus-presentation-old","19","198966","0.0-11.0-1.0","SS1619739859252","trial","","40","500","4651.640000054613","images/stimuli/spore_stims/complex_05_A_b.gif","images/stimuli/spore_stims/complex_08_A_a.gif","self_paced","","1","complex_dissimilar","images/stimuli/spore_stims/complex_08_A_a.gif","","","","",""
"","null","html-keyboard-response","20","200139","0.0-11.0-0.1","SS1619739859252","","","null","","","","","","<p><img src= images/blank.png width =""600"" height = ""600"" style=""position:fixed;top:50%; left:50%; transform: translate(-50%, -50%); border:5px solid black"">","","","","","","","",""
"","3228.95499994047","sequential-stimulus-presentation-old","21","203870","0.0-11.0-1.1","SS1619739859252","trial","","40","500","3728.95499994047","images/stimuli/spore_stims/complex_05_A_b.gif","images/stimuli/spore_stims/complex_08_A_a.gif","self_paced","","1","complex_dissimilar","images/stimuli/spore_stims/complex_08_A_a.gif","","","","",""
"","null","html-keyboard-response","22","204809","0.0-11.0-0.2","SS1619739859252","","","null","","","","","","<p><img src= images/blank.png width =""600"" height = ""600"" style=""position:fixed;top:50%; left:50%; transform: translate(-50%, -50%); border:5px solid black"">","","","","","","","",""
"","5949.960000114515","sequential-stimulus-presentation-old","23","211262","0.0-11.0-1.2","SS1619739859252","trial","","40","500","6449.960000114515","images/stimuli/spore_stims/complex_05_A_b.gif","images/stimuli/spore_stims/complex_08_A_a.gif","self_paced","","1","complex_dissimilar","images/stimuli/spore_stims/complex_05_A_b.gif","","","","",""
"","null","html-keyboard-response","24","212520","0.0-11.0-0.3","SS1619739859252","","","null","","","","","","<p><img src= images/blank.png width =""600"" height = ""600"" style=""position:fixed;top:50%; left:50%; transform: translate(-50%, -50%); border:5px solid black"">","","","","","","","",""
"","1263.3399998303503","sequential-stimulus-presentation-old","25","214286","0.0-11.0-1.3","SS1619739859252","trial","","40","500","1763.3399998303503","images/stimuli/spore_stims/complex_05_A_b.gif","images/stimuli/spore_stims/complex_08_A_a.gif","self_paced","","1","complex_dissimilar","images/stimuli/spore_stims/complex_08_A_a.gif","","","","",""
"","null","html-keyboard-response","26","215577","0.0-11.0-0.4","SS1619739859252","","","null","","","","","","<p><img src= images/blank.png width =""600"" height = ""600"" style=""position:fixed;top:50%; left:50%; transform: translate(-50%, -50%); border:5px solid black"">","","","","","","","",""
"","2198.0999999213964","sequential-stimulus-presentation-old","27","218278","0.0-11.0-1.4","SS1619739859252","trial","","40","500","2698.0999999213964","images/stimuli/spore_stims/complex_05_A_b.gif","images/stimuli/spore_stims/complex_08_A_a.gif","self_paced","","1","complex_dissimilar","images/stimuli/spore_stims/complex_05_A_b.gif","","","","",""
"","3374.9200000893325","survey-multi-choice","28","221654","0.0-12.0","SS1619739859252","math_question","","","","","","","","","","","","{""Q0"":""8""}","[0]","8","",""
"","null","html-keyboard-response","29","222512","0.0-13.0-0.0","SS1619739859252","","","null","","","","","","<p><img src= images/blank.png width =""600"" height = ""600"" style=""position:fixed;top:50%; left:50%; transform: translate(-50%, -50%); border:5px solid black"">","","","","","","","",""
"","1676.1049998458475","sequential-stimulus-presentation-old","30","239189","0.0-13.0-1.0","SS1619739859252","trial","","40","500","2176.1049998458475","images/stimuli/spore_stims/complex_02_A_b.gif","images/stimuli/spore_stims/complex_14_A_a.gif","forced_long","","2","complex_dissimilar","images/stimuli/spore_stims/complex_14_A_a.gif","","","","",""
"","null","html-keyboard-response","31","240493","0.0-13.0-0.1","SS1619739859252","","","null","","","","","","<p><img src= images/blank.png width =""600"" height = ""600"" style=""position:fixed;top:50%; left:50%; transform: translate(-50%, -50%); border:5px solid black"">","","","","","","","",""
"","1537.0200001634657","sequential-stimulus-presentation-old","32","242533","0.0-13.0-1.1","SS1619739859252","trial","","40","500","2037.0200001634657","images/stimuli/spore_stims/complex_02_A_b.gif","images/stimuli/spore_stims/complex_14_A_a.gif","forced_long","","2","complex_dissimilar","images/stimuli/spore_stims/complex_14_A_a.gif","","","","",""
"","null","html-keyboard-response","33","243739","0.0-13.0-0.2","SS1619739859252","","","null","","","","","","<p><img src= images/blank.png width =""600"" height = ""600"" style=""position:fixed;top:50%; left:50%; transform: translate(-50%, -50%); border:5px solid black"">","","","","","","","",""
"","5643.720000050962","sequential-stimulus-presentation-old","34","249893","0.0-13.0-1.2","SS1619739859252","trial","","40","500","6143.720000050962","images/stimuli/spore_stims/complex_02_A_b.gif","images/stimuli/spore_stims/complex_14_A_a.gif","forced_long","","2","complex_dissimilar","images/stimuli/spore_stims/complex_14_A_a.gif","","","","",""
"","null","html-keyboard-response","35","250727","0.0-13.0-0.3","SS1619739859252","","","null","","","","","","<p><img src= images/blank.png width =""600"" height = ""600"" style=""position:fixed;top:50%; left:50%; transform: translate(-50%, -50%); border:5px solid black"">","","","","","","","",""
"","938.4050001390278","sequential-stimulus-presentation-old","36","252173","0.0-13.0-1.3","SS1619739859252","trial","","40","500","1438.4050001390278","images/stimuli/spore_stims/complex_02_A_b.gif","images/stimuli/spore_stims/complex_14_A_a.gif","forced_long","","2","complex_dissimilar","images/stimuli/spore_stims/complex_14_A_a.gif","","","","",""
"","null","html-keyboard-response","37","253342","0.0-13.0-0.4","SS1619739859252","","","null","","","","","","<p><img src= images/blank.png width =""600"" height = ""600"" style=""position:fixed;top:50%; left:50%; transform: translate(-50%, -50%); border:5px solid black"">","","","","","","","",""
"","7679.92000002414","sequential-stimulus-presentation-old","38","261525","0.0-13.0-1.4","SS1619739859252","trial","","40","500","8179.92000002414","images/stimuli/spore_stims/complex_02_A_b.gif","images/stimuli/spore_stims/complex_14_A_a.gif","forced_long","","2","complex_dissimilar","images/stimuli/spore_stims/complex_14_A_a.gif","","","","",""
"","null","html-keyboard-response","39","262438","0.0-13.0-0.5","SS1619739859252","","","null","","","","","","<p><img src= images/blank.png width =""600"" height = ""600"" style=""position:fixed;top:50%; left:50%; transform: translate(-50%, -50%); border:5px solid black"">","","","","","","","",""
"","9872.6500000339","sequential-stimulus-presentation-old","40","272813","0.0-13.0-1.5","SS1619739859252","trial","","40","500","10372.6500000339","images/stimuli/spore_stims/complex_02_A_b.gif","images/stimuli/spore_stims/complex_14_A_a.gif","forced_long","","2","complex_dissimilar","images/stimuli/spore_stims/complex_14_A_a.gif","","","","",""
"","4758.360000094399","survey-multi-choice","41","277573","0.0-14.0","SS1619739859252","math_question","","","","","","","","","","","","{""Q0"":""13""}","[0]","13","",""
"","null","html-keyboard-response","42","278488","0.0-15.0-0.0","SS1619739859252","","","null","","","","","","<p><img src= images/blank.png width =""600"" height = ""600"" style=""position:fixed;top:50%; left:50%; transform: translate(-50%, -50%); border:5px solid black"">","","","","","","","",""
"","1494.450000114739","sequential-stimulus-presentation-old","43","280485","0.0-15.0-1.0","SS1619739859252","trial","","40","500","1994.450000114739","images/stimuli/spore_stims/simple_09_A_b.gif","images/stimuli/spore_stims/simple_05_A_a.gif","forced_short","","3","simple_dissimilar","images/stimuli/spore_stims/simple_05_A_a.gif","","","","",""
"","null","html-keyboard-response","44","281729","0.0-15.0-0.1","SS1619739859252","","","null","","","","","","<p><img src= images/blank.png width =""600"" height = ""600"" style=""position:fixed;top:50%; left:50%; transform: translate(-50%, -50%); border:5px solid black"">","","","","","","","",""
"","2430.1249999552965","sequential-stimulus-presentation-old","45","284661","0.0-15.0-1.1","SS1619739859252","trial","","40","500","2930.1249999552965","images/stimuli/spore_stims/simple_09_A_b.gif","images/stimuli/spore_stims/simple_05_A_a.gif","forced_short","","3","simple_dissimilar","images/stimuli/spore_stims/simple_09_A_b.gif","","","","",""
"","null","html-keyboard-response","46","285832","0.0-15.0-0.2","SS1619739859252","","","null","","","","","","<p><img src= images/blank.png width =""600"" height = ""600"" style=""position:fixed;top:50%; left:50%; transform: translate(-50%, -50%); border:5px solid black"">","","","","","","","",""
"","2897.8450000286102","sequential-stimulus-presentation-old","47","289245","0.0-15.0-1.2","SS1619739859252","trial","","40","500","3397.8450000286102","images/stimuli/spore_stims/simple_09_A_b.gif","images/stimuli/spore_stims/simple_05_A_a.gif","forced_short","","3","simple_dissimilar","images/stimuli/spore_stims/simple_05_A_a.gif","","","","",""
"","null","html-keyboard-response","48","290400","0.0-15.0-0.3","SS1619739859252","","","null","","","","","","<p><img src= images/blank.png width =""600"" height = ""600"" style=""position:fixed;top:50%; left:50%; transform: translate(-50%, -50%); border:5px solid black"">","","","","","","","",""
"","3901.8149999901652","sequential-stimulus-presentation-old","49","294805","0.0-15.0-1.3","SS1619739859252","trial","","40","500","4401.814999990165","images/stimuli/spore_stims/simple_09_A_b.gif","images/stimuli/spore_stims/simple_05_A_a.gif","forced_short","","3","simple_dissimilar","images/stimuli/spore_stims/simple_05_A_a.gif","","","","",""
"","null","html-keyboard-response","50","295634","0.0-15.0-0.4","SS1619739859252","","","null","","","","","","<p><img src= images/blank.png width =""600"" height = ""600"" style=""position:fixed;top:50%; left:50%; transform: translate(-50%, -50%); border:5px solid black"">","","","","","","","",""
"","4123.989999992773","sequential-stimulus-presentation-old","51","300261","0.0-15.0-1.4","SS1619739859252","trial","","40","500","4623.989999992773","images/stimuli/spore_stims/simple_09_A_b.gif","images/stimuli/spore_stims/simple_05_A_a.gif","forced_short","","3","simple_dissimilar","images/stimuli/spore_stims/simple_05_A_a.gif","","","","",""
"","2966.3500001188368","survey-multi-choice","52","303229","0.0-16.0","SS1619739859252","math_question","","","","","","","","","","","","{""Q0"":""3""}","[0]","3","",""
"","null","html-keyboard-response","53","304299","0.0-17.0-0.0","SS1619739859252","","","null","","","","","","<p><img src= images/blank.png width =""600"" height = ""600"" style=""position:fixed;top:50%; left:50%; transform: translate(-50%, -50%); border:5px solid black"">","","","","","","","",""
"","5443.399999989197","sequential-stimulus-presentation-old","54","310245","0.0-17.0-1.0","SS1619739859252","trial","","40","500","5943.399999989197","images/stimuli/spore_stims/complex_02_A_a.gif","images/stimuli/spore_stims/complex_10_A_b.gif","self_paced","","4","complex_dissimilar","images/stimuli/spore_stims/complex_10_A_b.gif","","","","",""
"","null","html-keyboard-response","55","311287","0.0-17.0-0.1","SS1619739859252","","","null","","","","","","<p><img src= images/blank.png width =""600"" height = ""600"" style=""position:fixed;top:50%; left:50%; transform: translate(-50%, -50%); border:5px solid black"">","","","","","","","",""
"","2226.7899999860674","sequential-stimulus-presentation-old","56","314029","0.0-17.0-1.1","SS1619739859252","trial","","40","500","2726.7899999860674","images/stimuli/spore_stims/complex_02_A_a.gif","images/stimuli/spore_stims/complex_10_A_b.gif","self_paced","","4","complex_dissimilar","images/stimuli/spore_stims/complex_10_A_b.gif","","","","",""
"","null","html-keyboard-response","57","314961","0.0-17.0-0.2","SS1619739859252","","","null","","","","","","<p><img src= images/blank.png width =""600"" height = ""600"" style=""position:fixed;top:50%; left:50%; transform: translate(-50%, -50%); border:5px solid black"">","","","","","","","",""
"","308.8349997997284","sequential-stimulus-presentation-old","58","315773","0.0-17.0-1.2","SS1619739859252","trial","","40","500","808.8349997997284","images/stimuli/spore_stims/complex_02_A_a.gif","images/stimuli/spore_stims/complex_10_A_b.gif","self_paced","","4","complex_dissimilar","images/stimuli/spore_stims/complex_10_A_b.gif","","","","",""
"","null","html-keyboard-response","59","317056","0.0-17.0-0.3","SS1619739859252","","","null","","","","","","<p><img src= images/blank.png width =""600"" height = ""600"" style=""position:fixed;top:50%; left:50%; transform: translate(-50%, -50%); border:5px solid black"">","","","","","","","",""
"","2670.909999869764","sequential-stimulus-presentation-old","60","320229","0.0-17.0-1.3","SS1619739859252","trial","","40","500","3170.909999869764","images/stimuli/spore_stims/complex_02_A_a.gif","images/stimuli/spore_stims/complex_10_A_b.gif","self_paced","","4","complex_dissimilar","images/stimuli/spore_stims/complex_10_A_b.gif","","","","",""
"","6894.025000045076","survey-multi-choice","61","327125","0.0-18.0","SS1619739859252","math_question","","","","","","","","","","","","{""Q0"":""14""}","[0]","14","",""
"","null","html-keyboard-response","62","328422","0.0-19.0-0.0","SS1619739859252","","","null","","","","","","<p><img src= images/blank.png width =""600"" height = ""600"" style=""position:fixed;top:50%; left:50%; transform: translate(-50%, -50%); border:5px solid black"">","","","","","","","",""
"","911.3150001503527","sequential-stimulus-presentation-old","63","329837","0.0-19.0-1.0","SS1619739859252","trial","","40","500","1411.3150001503527","images/stimuli/spore_stims/simple_05_A_b.gif","images/stimuli/spore_stims/simple_04_A_a.gif","forced_short","","5","simple_dissimilar","images/stimuli/spore_stims/simple_04_A_a.gif","","","","",""
"","null","html-keyboard-response","64","330806","0.0-19.0-0.1","SS1619739859252","","","null","","","","","","<p><img src= images/blank.png width =""600"" height = ""600"" style=""position:fixed;top:50%; left:50%; transform: translate(-50%, -50%); border:5px solid black"">","","","","","","","",""
"","1551.8000000156462","sequential-stimulus-presentation-old","65","332861","0.0-19.0-1.1","SS1619739859252","trial","","40","500","2051.800000015646","images/stimuli/spore_stims/simple_05_A_b.gif","images/stimuli/spore_stims/simple_04_A_a.gif","forced_short","","5","simple_dissimilar","images/stimuli/spore_stims/simple_05_A_b.gif","","","","",""
"","null","html-keyboard-response","66","333771","0.0-19.0-0.2","SS1619739859252","","","null","","","","","","<p><img src= images/blank.png width =""600"" height = ""600"" style=""position:fixed;top:50%; left:50%; transform: translate(-50%, -50%); border:5px solid black"">","","","","","","","",""
"","1730.9049998875707","sequential-stimulus-presentation-old","67","336005","0.0-19.0-1.2","SS1619739859252","trial","","40","500","2230.9049998875707","images/stimuli/spore_stims/simple_05_A_b.gif","images/stimuli/spore_stims/simple_04_A_a.gif","forced_short","","5","simple_dissimilar","images/stimuli/spore_stims/simple_04_A_a.gif","","","","",""
"","null","html-keyboard-response","68","337072","0.0-19.0-0.3","SS1619739859252","","","null","","","","","","<p><img src= images/blank.png width =""600"" height = ""600"" style=""position:fixed;top:50%; left:50%; transform: translate(-50%, -50%); border:5px solid black"">","","","","","","","",""
"","3549.8999999836087","sequential-stimulus-presentation-old","69","341125","0.0-19.0-1.3","SS1619739859252","trial","","40","500","4049.8999999836087","images/stimuli/spore_stims/simple_05_A_b.gif","images/stimuli/spore_stims/simple_04_A_a.gif","forced_short","","5","simple_dissimilar","images/stimuli/spore_stims/simple_04_A_a.gif","","","","",""
"","null","html-keyboard-response","70","342281","0.0-19.0-0.4","SS1619739859252","","","null","","","","","","<p><img src= images/blank.png width =""600"" height = ""600"" style=""position:fixed;top:50%; left:50%; transform: translate(-50%, -50%); border:5px solid black"">","","","","","","","",""
"","1598.8100001122802","sequential-stimulus-presentation-old","71","344389","0.0-19.0-1.4","SS1619739859252","trial","","40","500","2098.8100001122802","images/stimuli/spore_stims/simple_05_A_b.gif","images/stimuli/spore_stims/simple_04_A_a.gif","forced_short","","5","simple_dissimilar","images/stimuli/spore_stims/simple_04_A_a.gif","","","","",""
"","2510.7549999374896","survey-multi-choice","72","346901","0.0-20.0","SS1619739859252","math_question","","","","","","","","","","","","{""Q0"":""14""}","[0]","14","",""
"","null","html-keyboard-response","73","347904","0.0-21.0-0.0","SS1619739859252","","","null","","","","","","<p><img src= images/blank.png width =""600"" height = ""600"" style=""position:fixed;top:50%; left:50%; transform: translate(-50%, -50%); border:5px solid black"">","","","","","","","",""
"","153.94000010564923","sequential-stimulus-presentation-old","74","363061","0.0-21.0-1.0","SS1619739859252","trial","","40","500","653.9400001056492","images/stimuli/spore_stims/simple_11_A_a.gif","images/stimuli/spore_stims/simple_12_A_b.gif","forced_long","","6","simple_dissimilar","images/stimuli/spore_stims/simple_12_A_b.gif","","","","",""
"","null","html-keyboard-response","75","364036","0.0-21.0-0.1","SS1619739859252","","","null","","","","","","<p><img src= images/blank.png width =""600"" height = ""600"" style=""position:fixed;top:50%; left:50%; transform: translate(-50%, -50%); border:5px solid black"">","","","","","","","",""
"","306.51000002399087","sequential-stimulus-presentation-old","76","364853","0.0-21.0-1.1","SS1619739859252","trial","","40","500","806.5100000239909","images/stimuli/spore_stims/simple_11_A_a.gif","images/stimuli/spore_stims/simple_12_A_b.gif","forced_long","","6","simple_dissimilar","images/stimuli/spore_stims/simple_12_A_b.gif","","","","",""
"","null","html-keyboard-response","77","365836","0.0-21.0-0.2","SS1619739859252","","","null","","","","","","<p><img src= images/blank.png width =""600"" height = ""600"" style=""position:fixed;top:50%; left:50%; transform: translate(-50%, -50%); border:5px solid black"">","","","","","","","",""
"","626.240000128746","sequential-stimulus-presentation-old","78","366965","0.0-21.0-1.2","SS1619739859252","trial","","40","500","1126.240000128746","images/stimuli/spore_stims/simple_11_A_a.gif","images/stimuli/spore_stims/simple_12_A_b.gif","forced_long","","6","simple_dissimilar","images/stimuli/spore_stims/simple_12_A_b.gif","","","","",""
"","null","html-keyboard-response","79","368203","0.0-21.0-0.3","SS1619739859252","","","null","","","","","","<p><img src= images/blank.png width =""600"" height = ""600"" style=""position:fixed;top:50%; left:50%; transform: translate(-50%, -50%); border:5px solid black"">","","","","","","","",""
"","3243.9300001133233","sequential-stimulus-presentation-old","80","371949","0.0-21.0-1.3","SS1619739859252","trial","","40","500","3743.9300001133233","images/stimuli/spore_stims/simple_11_A_a.gif","images/stimuli/spore_stims/simple_12_A_b.gif","forced_long","","6","simple_dissimilar","images/stimuli/spore_stims/simple_11_A_a.gif","","","","",""
"","null","html-keyboard-response","81","373218","0.0-21.0-0.4","SS1619739859252","","","null","","","","","","<p><img src= images/blank.png width =""600"" height = ""600"" style=""position:fixed;top:50%; left:50%; transform: translate(-50%, -50%); border:5px solid black"">","","","","","","","",""
"","795.6149999517947","sequential-stimulus-presentation-old","82","374517","0.0-21.0-1.4","SS1619739859252","trial","","40","500","1295.6149999517947","images/stimuli/spore_stims/simple_11_A_a.gif","images/stimuli/spore_stims/simple_12_A_b.gif","forced_long","","6","simple_dissimilar","images/stimuli/spore_stims/simple_12_A_b.gif","","","","",""
"","null","html-keyboard-response","83","375669","0.0-21.0-0.5","SS1619739859252","","","null","","","","","","<p><img src= images/blank.png width =""600"" height = ""600"" style=""position:fixed;top:50%; left:50%; transform: translate(-50%, -50%); border:5px solid black"">","","","","","","","",""
"","122.30499996803701","sequential-stimulus-presentation-old","84","376293","0.0-21.0-1.5","SS1619739859252","trial","","40","500","622.304999968037","images/stimuli/spore_stims/simple_11_A_a.gif","images/stimuli/spore_stims/simple_12_A_b.gif","forced_long","","6","simple_dissimilar","images/stimuli/spore_stims/simple_11_A_a.gif","","","","",""
"","3942.619999870658","survey-multi-choice","85","380237","0.0-22.0","SS1619739859252","math_question","","","","","","","","","","","","{""Q0"":""13""}","[0]","13","",""
"","null","html-keyboard-response","86","381528","0.0-23.0-0.0","SS1619739859252","","","null","","","","","","<p><img src= images/blank.png width =""600"" height = ""600"" style=""position:fixed;top:50%; left:50%; transform: translate(-50%, -50%); border:5px solid black"">","","","","","","","",""
"","1486.44999996759","sequential-stimulus-presentation-old","87","383517","0.0-23.0-1.0","SS1619739859252","trial","","40","500","1986.44999996759","images/stimuli/spore_stims/simple_13_A_a.gif","images/stimuli/spore_stims/simple_19_A_b.gif","self_paced","","7","simple_dissimilar","images/stimuli/spore_stims/simple_19_A_b.gif","","","","",""
"","null","html-keyboard-response","88","384805","0.0-23.0-0.1","SS1619739859252","","","null","","","","","","<p><img src= images/blank.png width =""600"" height = ""600"" style=""position:fixed;top:50%; left:50%; transform: translate(-50%, -50%); border:5px solid black"">","","","","","","","",""
"","1263.9550000894815","sequential-stimulus-presentation-old","89","386573","0.0-23.0-1.1","SS1619739859252","trial","","40","500","1763.9550000894815","images/stimuli/spore_stims/simple_13_A_a.gif","images/stimuli/spore_stims/simple_19_A_b.gif","self_paced","","7","simple_dissimilar","images/stimuli/spore_stims/simple_19_A_b.gif","","","","",""
"","null","html-keyboard-response","90","387399","0.0-23.0-0.2","SS1619739859252","","","null","","","","","","<p><img src= images/blank.png width =""600"" height = ""600"" style=""position:fixed;top:50%; left:50%; transform: translate(-50%, -50%); border:5px solid black"">","","","","","","","",""
"","2838.8799999374896","sequential-stimulus-presentation-old","91","390741","0.0-23.0-1.2","SS1619739859252","trial","","40","500","3338.8799999374896","images/stimuli/spore_stims/simple_13_A_a.gif","images/stimuli/spore_stims/simple_19_A_b.gif","self_paced","","7","simple_dissimilar","images/stimuli/spore_stims/simple_19_A_b.gif","","","","",""
"","null","html-keyboard-response","92","391802","0.0-23.0-0.3","SS1619739859252","","","null","","","","","","<p><img src= images/blank.png width =""600"" height = ""600"" style=""position:fixed;top:50%; left:50%; transform: translate(-50%, -50%); border:5px solid black"">","","","","","","","",""
"","4355.135000078008","sequential-stimulus-presentation-old","93","396661","0.0-23.0-1.3","SS1619739859252","trial","","40","500","4855.135000078008","images/stimuli/spore_stims/simple_13_A_a.gif","images/stimuli/spore_stims/simple_19_A_b.gif","self_paced","","7","simple_dissimilar","images/stimuli/spore_stims/simple_19_A_b.gif","","","","",""
"","2181.944999843836","survey-multi-choice","94","398845","0.0-24.0","SS1619739859252","math_question","","","","","","","","","","","","{""Q0"":""10""}","[0]","10","",""
"","null","html-keyboard-response","95","400031","0.0-25.0-0.0","SS1619739859252","","","null","","","","","","<p><img src= images/blank.png width =""600"" height = ""600"" style=""position:fixed;top:50%; left:50%; transform: translate(-50%, -50%); border:5px solid black"">","","","","","","","",""
"","1329.6600000467151","sequential-stimulus-presentation-old","96","416373","0.0-25.0-1.0","SS1619739859252","trial","","40","500","1829.6600000467151","images/stimuli/spore_stims/simple_18_A_b.gif","images/stimuli/spore_stims/simple_09_A_a.gif","forced_long","","8","simple_dissimilar","images/stimuli/spore_stims/simple_09_A_a.gif","","","","",""
"","null","html-keyboard-response","97","417190","0.0-25.0-0.1","SS1619739859252","","","null","","","","","","<p><img src= images/blank.png width =""600"" height = ""600"" style=""position:fixed;top:50%; left:50%; transform: translate(-50%, -50%); border:5px solid black"">","","","","","","","",""
"","446.72499992884696","sequential-stimulus-presentation-old","98","418141","0.0-25.0-1.1","SS1619739859252","trial","","40","500","946.724999928847","images/stimuli/spore_stims/simple_18_A_b.gif","images/stimuli/spore_stims/simple_09_A_a.gif","forced_long","","8","simple_dissimilar","images/stimuli/spore_stims/simple_09_A_a.gif","","","","",""
"","null","html-keyboard-response","99","419439","0.0-25.0-0.2","SS1619739859252","","","null","","","","","","<p><img src= images/blank.png width =""600"" height = ""600"" style=""position:fixed;top:50%; left:50%; transform: translate(-50%, -50%); border:5px solid black"">","","","","","","","",""
"","1542.0899998862296","sequential-stimulus-presentation-old","100","421485","0.0-25.0-1.2","SS1619739859252","trial","","40","500","2042.0899998862296","images/stimuli/spore_stims/simple_18_A_b.gif","images/stimuli/spore_stims/simple_09_A_a.gif","forced_long","","8","simple_dissimilar","images/stimuli/spore_stims/simple_09_A_a.gif","","","","",""
"","null","html-keyboard-response","101","422526","0.0-25.0-0.3","SS1619739859252","","","null","","","","","","<p><img src= images/blank.png width =""600"" height = ""600"" style=""position:fixed;top:50%; left:50%; transform: translate(-50%, -50%); border:5px solid black"">","","","","","","","",""
"","158.35499996319413","sequential-stimulus-presentation-old","102","423189","0.0-25.0-1.3","SS1619739859252","trial","","40","500","658.3549999631941","images/stimuli/spore_stims/simple_18_A_b.gif","images/stimuli/spore_stims/simple_09_A_a.gif","forced_long","","8","simple_dissimilar","images/stimuli/spore_stims/simple_09_A_a.gif","","","","",""
"","null","html-keyboard-response","103","424251","0.0-25.0-0.4","SS1619739859252","","","null","","","","","","<p><img src= images/blank.png width =""600"" height = ""600"" style=""position:fixed;top:50%; left:50%; transform: translate(-50%, -50%); border:5px solid black"">","","","","","","","",""
"","82.62000000104308","sequential-stimulus-presentation-old","104","424837","0.0-25.0-1.4","SS1619739859252","trial","","40","500","582.6200000010431","images/stimuli/spore_stims/simple_18_A_b.gif","images/stimuli/spore_stims/simple_09_A_a.gif","forced_long","","8","simple_dissimilar","images/stimuli/spore_stims/simple_09_A_a.gif","","","","",""
"","2334.345000097528","survey-multi-choice","105","427173","0.0-26.0","SS1619739859252","math_question","","","","","","","","","","","","{""Q0"":""11""}","[0]","11","",""
"","null","html-keyboard-response","106","428444","0.0-27.0-0.0","SS1619739859252","","","null","","","","","","<p><img src= images/blank.png width =""600"" height = ""600"" style=""position:fixed;top:50%; left:50%; transform: translate(-50%, -50%); border:5px solid black"">","","","","","","","",""
"","2113.4450000245124","sequential-stimulus-presentation-old","107","431069","0.0-27.0-1.0","SS1619739859252","trial","","40","500","2613.4450000245124","images/stimuli/spore_stims/complex_03_A_b.gif","images/stimuli/spore_stims/complex_09_A_a.gif","forced_short","","9","complex_dissimilar","images/stimuli/spore_stims/complex_09_A_a.gif","","","","",""
"","null","html-keyboard-response","108","432119","0.0-27.0-0.1","SS1619739859252","","","null","","","","","","<p><img src= images/blank.png width =""600"" height = ""600"" style=""position:fixed;top:50%; left:50%; transform: translate(-50%, -50%); border:5px solid black"">","","","","","","","",""
"","4141.9049999676645","sequential-stimulus-presentation-old","109","436765","0.0-27.0-1.1","SS1619739859252","trial","","40","500","4641.9049999676645","images/stimuli/spore_stims/complex_03_A_b.gif","images/stimuli/spore_stims/complex_09_A_a.gif","forced_short","","9","complex_dissimilar","images/stimuli/spore_stims/complex_09_A_a.gif","","","","",""
"","null","html-keyboard-response","110","437897","0.0-27.0-0.2","SS1619739859252","","","null","","","","","","<p><img src= images/blank.png width =""600"" height = ""600"" style=""position:fixed;top:50%; left:50%; transform: translate(-50%, -50%); border:5px solid black"">","","","","","","","",""
"","3291.905000107363","sequential-stimulus-presentation-old","111","441693","0.0-27.0-1.2","SS1619739859252","trial","","40","500","3791.905000107363","images/stimuli/spore_stims/complex_03_A_b.gif","images/stimuli/spore_stims/complex_09_A_a.gif","forced_short","","9","complex_dissimilar","images/stimuli/spore_stims/complex_03_A_b.gif","","","","",""
"","null","html-keyboard-response","112","442960","0.0-27.0-0.3","SS1619739859252","","","null","","","","","","<p><img src= images/blank.png width =""600"" height = ""600"" style=""position:fixed;top:50%; left:50%; transform: translate(-50%, -50%); border:5px solid black"">","","","","","","","",""
"","1741.7650001589209","sequential-stimulus-presentation-old","113","445205","0.0-27.0-1.3","SS1619739859252","trial","","40","500","2241.765000158921","images/stimuli/spore_stims/complex_03_A_b.gif","images/stimuli/spore_stims/complex_09_A_a.gif","forced_short","","9","complex_dissimilar","images/stimuli/spore_stims/complex_03_A_b.gif","","","","",""
"","null","html-keyboard-response","114","446290","0.0-27.0-0.4","SS1619739859252","","","null","","","","","","<p><img src= images/blank.png width =""600"" height = ""600"" style=""position:fixed;top:50%; left:50%; transform: translate(-50%, -50%); border:5px solid black"">","","","","","","","",""
"","894.8399999644607","sequential-stimulus-presentation-old","115","447701","0.0-27.0-1.4","SS1619739859252","trial","","40","500","1394.8399999644607","images/stimuli/spore_stims/complex_03_A_b.gif","images/stimuli/spore_stims/complex_09_A_a.gif","forced_short","","9","complex_dissimilar","images/stimuli/spore_stims/complex_09_A_a.gif","","","","",""
"","null","html-keyboard-response","116","448956","0.0-27.0-0.5","SS1619739859252","","","null","","","","","","<p><img src= images/blank.png width =""600"" height = ""600"" style=""position:fixed;top:50%; left:50%; transform: translate(-50%, -50%); border:5px solid black"">","","","","","","","",""
"","1440.2499999850988","sequential-stimulus-presentation-old","117","450901","0.0-27.0-1.5","SS1619739859252","trial","","40","500","1940.2499999850988","images/stimuli/spore_stims/complex_03_A_b.gif","images/stimuli/spore_stims/complex_09_A_a.gif","forced_short","","9","complex_dissimilar","images/stimuli/spore_stims/complex_09_A_a.gif","","","","",""
"","2478.5099998116493","survey-multi-choice","118","453381","0.0-28.0","SS1619739859252","math_question","","","","","","","","","","","","{""Q0"":""10""}","[0]","10","",""
"","null","html-keyboard-response","119","454297","0.0-29.0-0.0","SS1619739859252","","","null","","","","","","<p><img src= images/blank.png width =""600"" height = ""600"" style=""position:fixed;top:50%; left:50%; transform: translate(-50%, -50%); border:5px solid black"">","","","","","","","",""
"","1255.86499995552","sequential-stimulus-presentation-old","120","470557","0.0-29.0-1.0","SS1619739859252","trial","","40","500","1755.86499995552","images/stimuli/spore_stims/complex_20_A_b.gif","images/stimuli/spore_stims/complex_11_A_a.gif","forced_long","","10","complex_dissimilar","images/stimuli/spore_stims/complex_11_A_a.gif","","","","",""
"","null","html-keyboard-response","121","471643","0.0-29.0-0.1","SS1619739859252","","","null","","","","","","<p><img src= images/blank.png width =""600"" height = ""600"" style=""position:fixed;top:50%; left:50%; transform: translate(-50%, -50%); border:5px solid black"">","","","","","","","",""
"","1875.304999994114","sequential-stimulus-presentation-old","122","474021","0.0-29.0-1.1","SS1619739859252","trial","","40","500","2375.304999994114","images/stimuli/spore_stims/complex_20_A_b.gif","images/stimuli/spore_stims/complex_11_A_a.gif","forced_long","","10","complex_dissimilar","images/stimuli/spore_stims/complex_11_A_a.gif","","","","",""
"","null","html-keyboard-response","123","475238","0.0-29.0-0.2","SS1619739859252","","","null","","","","","","<p><img src= images/blank.png width =""600"" height = ""600"" style=""position:fixed;top:50%; left:50%; transform: translate(-50%, -50%); border:5px solid black"">","","","","","","","",""
"","2656.05999995023","sequential-stimulus-presentation-old","124","478396","0.0-29.0-1.2","SS1619739859252","trial","","40","500","3156.05999995023","images/stimuli/spore_stims/complex_20_A_b.gif","images/stimuli/spore_stims/complex_11_A_a.gif","forced_long","","10","complex_dissimilar","images/stimuli/spore_stims/complex_20_A_b.gif","","","","",""
"","null","html-keyboard-response","125","479701","0.0-29.0-0.3","SS1619739859252","","","null","","","","","","<p><img src= images/blank.png width =""600"" height = ""600"" style=""position:fixed;top:50%; left:50%; transform: translate(-50%, -50%); border:5px solid black"">","","","","","","","",""
"","416.9250000268221","sequential-stimulus-presentation-old","126","480622","0.0-29.0-1.3","SS1619739859252","trial","","40","500","916.9250000268221","images/stimuli/spore_stims/complex_20_A_b.gif","images/stimuli/spore_stims/complex_11_A_a.gif","forced_long","","10","complex_dissimilar","images/stimuli/spore_stims/complex_11_A_a.gif","","","","",""
"","null","html-keyboard-response","127","481903","0.0-29.0-0.4","SS1619739859252","","","null","","","","","","<p><img src= images/blank.png width =""600"" height = ""600"" style=""position:fixed;top:50%; left:50%; transform: translate(-50%, -50%); border:5px solid black"">","","","","","","","",""
"","1087.4700001440942","sequential-stimulus-presentation-old","128","483493","0.0-29.0-1.4","SS1619739859252","trial","","40","500","1587.4700001440942","images/stimuli/spore_stims/complex_20_A_b.gif","images/stimuli/spore_stims/complex_11_A_a.gif","forced_long","","10","complex_dissimilar","images/stimuli/spore_stims/complex_11_A_a.gif","","","","",""
"","8301.68000003323","survey-multi-choice","129","491797","0.0-30.0","SS1619739859252","math_question","","","","","","","","","","","","{""Q0"":""15""}","[0]","15","",""
"","null","html-keyboard-response","130","493018","0.0-31.0-0.0","SS1619739859252","","","null","","","","","","<p><img src= images/blank.png width =""600"" height = ""600"" style=""position:fixed;top:50%; left:50%; transform: translate(-50%, -50%); border:5px solid black"">","","","","","","","",""
"","3595.6900001037866","sequential-stimulus-presentation-old","131","497117","0.0-31.0-1.0","SS1619739859252","trial","","40","500","4095.6900001037866","images/stimuli/spore_stims/simple_14_A_b.gif","images/stimuli/spore_stims/simple_19_A_a.gif","self_paced","","11","simple_dissimilar","images/stimuli/spore_stims/simple_19_A_a.gif","","","","",""
"","null","html-keyboard-response","132","497975","0.0-31.0-0.1","SS1619739859252","","","null","","","","","","<p><img src= images/blank.png width =""600"" height = ""600"" style=""position:fixed;top:50%; left:50%; transform: translate(-50%, -50%); border:5px solid black"">","","","","","","","",""
"","749.6599999722093","sequential-stimulus-presentation-old","133","499229","0.0-31.0-1.1","SS1619739859252","trial","","40","500","1249.6599999722093","images/stimuli/spore_stims/simple_14_A_b.gif","images/stimuli/spore_stims/simple_19_A_a.gif","self_paced","","11","simple_dissimilar","images/stimuli/spore_stims/simple_19_A_a.gif","","","","",""
"","null","html-keyboard-response","134","500314","0.0-31.0-0.2","SS1619739859252","","","null","","","","","","<p><img src= images/blank.png width =""600"" height = ""600"" style=""position:fixed;top:50%; left:50%; transform: translate(-50%, -50%); border:5px solid black"">","","","","","","","",""
"","877.4949999060482","sequential-stimulus-presentation-old","135","501694","0.0-31.0-1.2","SS1619739859252","trial","","40","500","1377.4949999060482","images/stimuli/spore_stims/simple_14_A_b.gif","images/stimuli/spore_stims/simple_19_A_a.gif","self_paced","","11","simple_dissimilar","images/stimuli/spore_stims/simple_19_A_a.gif","","","","",""
"","null","html-keyboard-response","136","502999","0.0-31.0-0.3","SS1619739859252","","","null","","","","","","<p><img src= images/blank.png width =""600"" height = ""600"" style=""position:fixed;top:50%; left:50%; transform: translate(-50%, -50%); border:5px solid black"">","","","","","","","",""
"","902.6900001335889","sequential-stimulus-presentation-old","137","504405","0.0-31.0-1.3","SS1619739859252","trial","","40","500","1402.690000133589","images/stimuli/spore_stims/simple_14_A_b.gif","images/stimuli/spore_stims/simple_19_A_a.gif","self_paced","","11","simple_dissimilar","images/stimuli/spore_stims/simple_19_A_a.gif","","","","",""
"","null","html-keyboard-response","138","505216","0.0-31.0-0.4","SS1619739859252","","","null","","","","","","<p><img src= images/blank.png width =""600"" height = ""600"" style=""position:fixed;top:50%; left:50%; transform: translate(-50%, -50%); border:5px solid black"">","","","","","","","",""
"","3051.4399998355657","sequential-stimulus-presentation-old","139","508781","0.0-31.0-1.4","SS1619739859252","trial","","40","500","3551.4399998355657","images/stimuli/spore_stims/simple_14_A_b.gif","images/stimuli/spore_stims/simple_19_A_a.gif","self_paced","","11","simple_dissimilar","images/stimuli/spore_stims/simple_14_A_b.gif","","","","",""
"[{""page_index"":0,""viewing_time"":7726.020000176504}]","7726.205000188202","instructions","140","516509","0.0-32.0","SS1619739859252","instructions","","","","","","","","","","","","","","","",""
"","7820.795000065118","survey-likert","141","524333","0.0-33.0","SS1619739859252","similarity_question","","","","","","","","","","","","{""Q0"":2}","[0]","","images/stimuli/spore_stims/complex_09_A_a.gif","images/stimuli/spore_stims/complex_03_A_b.gif"
"","5833.074999973178","survey-likert","142","530173","0.0-34.0","SS1619739859252","similarity_question","","","","","","","","","","","","{""Q0"":3}","[0]","","images/stimuli/spore_stims/complex_02_A_a.gif","images/stimuli/spore_stims/complex_10_A_b.gif"
"","3048.919999971986","survey-likert","143","533229","0.0-35.0","SS1619739859252","similarity_question","","","","","","","","","","","","{""Q0"":4}","[0]","","images/stimuli/spore_stims/simple_19_A_b.gif","images/stimuli/spore_stims/simple_13_A_a.gif"
"","2274.459999985993","survey-likert","144","535509","0.0-36.0","SS1619739859252","similarity_question","","","","","","","","","","","","{""Q0"":4}","[0]","","images/stimuli/spore_stims/simple_11_A_a.gif","images/stimuli/spore_stims/simple_12_A_b.gif"
"","2162.745000096038","survey-likert","145","537678","0.0-37.0","SS1619739859252","similarity_question","","","","","","","","","","","","{""Q0"":5}","[0]","","images/stimuli/spore_stims/simple_09_A_b.gif","images/stimuli/spore_stims/simple_05_A_a.gif"
"","6154.055000049993","survey-likert","146","543837","0.0-38.0","SS1619739859252","similarity_question","","","","","","","","","","","","{""Q0"":1}","[0]","","images/stimuli/spore_stims/complex_20_A_b.gif","images/stimuli/spore_stims/complex_11_A_a.gif"
"","2465.745000168681","survey-likert","147","546309","0.0-39.0","SS1619739859252","similarity_question","","","","","","","","","","","","{""Q0"":6}","[0]","","images/stimuli/spore_stims/simple_19_A_a.gif","images/stimuli/spore_stims/simple_14_A_b.gif"
"","6266.729999799281","survey-likert","148","552581","0.0-40.0","SS1619739859252","similarity_question","","","","","","","","","","","","{""Q0"":4}","[0]","","images/stimuli/spore_stims/complex_04_A_b.gif","images/stimuli/spore_stims/complex_13_A_a.gif"
"","4240.6100002117455","survey-likert","149","556829","0.0-41.0","SS1619739859252","similarity_question","","","","","","","","","","","","{""Q0"":4}","[0]","","images/stimuli/spore_stims/simple_18_A_b.gif","images/stimuli/spore_stims/simple_09_A_a.gif"
"","5601.754999952391","survey-likert","150","562437","0.0-42.0","SS1619739859252","similarity_question","","","","","","","","","","","","{""Q0"":5}","[0]","","images/stimuli/spore_stims/complex_02_A_b.gif","images/stimuli/spore_stims/complex_14_A_a.gif"
"","2155.1599998492748","survey-likert","151","564598","0.0-43.0","SS1619739859252","similarity_question","","","","","","","","","","","","{""Q0"":6}","[0]","","images/stimuli/spore_stims/simple_05_A_b.gif","images/stimuli/spore_stims/simple_04_A_a.gif"
"","4840.155000099912","survey-likert","152","569445","0.0-44.0","SS1619739859252","similarity_question","","","","","","","","","","","","{""Q0"":4}","[0]","","images/stimuli/spore_stims/complex_05_A_b.gif","images/stimuli/spore_stims/complex_08_A_a.gif"
"[{""page_index"":0,""viewing_time"":6025.709999958053}]","6025.900000007823","instructions","153","575477","0.0-45.0","SS1619739859252","instructions","","","","","","","","","","","","","","","",""
"","3860.9299999661744","survey-likert","154","579341","0.0-46.0","SS1619739859252","","","","","","","","","images/stimuli/spore_stims/complex_03_A_b.gif","","","","{""Q0"":4}","[0]","","",""
"","7248.780000023544","survey-likert","155","586597","0.0-47.0","SS1619739859252","","","","","","","","","images/stimuli/spore_stims/complex_14_A_a.gif","","","","{""Q0"":4}","[0]","","",""
"","3553.749999962747","survey-likert","156","590157","0.0-48.0","SS1619739859252","","","","","","","","","images/stimuli/spore_stims/complex_04_A_b.gif","","","","{""Q0"":2}","[0]","","",""
"","3562.734999926761","survey-likert","157","593725","0.0-49.0","SS1619739859252","","","","","","","","","images/stimuli/spore_stims/simple_09_A_a.gif","","","","{""Q0"":1}","[0]","","",""
"","1762.0500000193715","survey-likert","158","595493","0.0-50.0","SS1619739859252","","","","","","","","","images/stimuli/spore_stims/simple_04_A_a.gif","","","","{""Q0"":0}","[0]","","",""
"","1546.0849998053163","survey-likert","159","597045","0.0-51.0","SS1619739859252","","","","","","","","","images/stimuli/spore_stims/simple_09_A_b.gif","","","","{""Q0"":1}","[0]","","",""
"","4814.770000055432","survey-likert","160","601869","0.0-52.0","SS1619739859252","","","","","","","","","images/stimuli/spore_stims/simple_12_A_b.gif","","","","{""Q0"":1}","[0]","","",""
"","3474.55000015907","survey-likert","161","605349","0.0-53.0","SS1619739859252","","","","","","","","","images/stimuli/spore_stims/complex_02_A_a.gif","","","","{""Q0"":4}","[0]","","",""
"","2329.5549999456853","survey-likert","162","607685","0.0-54.0","SS1619739859252","","","","","","","","","images/stimuli/spore_stims/simple_14_A_b.gif","","","","{""Q0"":1}","[0]","","",""
"","2353.6000000312924","survey-likert","163","610045","0.0-55.0","SS1619739859252","","","","","","","","","images/stimuli/spore_stims/complex_20_A_b.gif","","","","{""Q0"":5}","[0]","","",""
"","3080.159999895841","survey-likert","164","613133","0.0-56.0","SS1619739859252","","","","","","","","","images/stimuli/spore_stims/complex_05_A_b.gif","","","","{""Q0"":4}","[0]","","",""
"","1777.9300000984222","survey-likert","165","614917","0.0-57.0","SS1619739859252","","","","","","","","","images/stimuli/spore_stims/simple_19_A_b.gif","","","","{""Q0"":0}","[0]","","",""
"[{""page_index"":0,""viewing_time"":3306.554999900982}]","3306.689999997616","instructions","166","618229","0.0-58.0","SS1619739859252","instructions","","","","","","","","","","","","","","","",""
"","3234.8100000526756","demog-age","167","621469","0.0-59.0","SS1619739859252","","","","","","","","","","","","","{""age"":""18""}","","","",""
"","3115.754999918863","demog-ethnic-US","168","624589","0.0-60.0","SS1619739859252","","","","","","","","","","","","","{""ethnicity"":[""White""]}","[0]","","",""
"","9098.07000006549","demog-gender-and-education","169","633693","0.0-61.0","SS1619739859252","","","","","","","","","","","","","{""gender"":""Male"",""education"":""High school diploma""}","[0,1]","","",""
"","57719.904999947175","survey-text","170","691421","0.0-62.0","SS1619739859252","feedback","","","","","","","","","","","","{""Q0"":""The animation was not lagging :)""}","","","",""
"[{""page_index"":0,""viewing_time"":3013.3450001012534}]","3013.725000200793","instructions","171","694437","0.0-63.0","SS1619739859252","instructions","","","","","","","","","","","","","","","",""
