"view_history","rt","trial_type","trial_index","time_elapsed","internal_node_id","subject","stimulus_type","trial_stimulus","key_press","minimum_viewing_duration","trial_looking_time","block_deviant","block_background","exposure_type","stimulus","block_number","block_type","stimulus_displayed","responses","question_order","math_correct_answer","stimulus_left","stimulus_right"
"[{""page_index"":0,""viewing_time"":15047.76500002481}]","15048.175000119954","instructions","0","15049","0.0-0.0","SS1619740178247","","","","","","","","","","","","","","","","",""
"[{""page_index"":0,""viewing_time"":13059.70500013791},{""page_index"":1,""viewing_time"":7613.544999854639}]","20673.430000199005","instructions","1","37736","0.0-1.0","SS1619740178247","instructions","","","","","","","","","","","","","","","",""
"","8380.099999951199","sequential-stimulus-presentation-old","2","46634","0.0-2.0","SS1619740178247","","","40","500","8880.099999951199","null","null","self_paced","","","","","","","","",""
"","6723.689999897033","sequential-stimulus-presentation-old","3","53865","0.0-3.0","SS1619740178247","","","40","500","7223.689999897033","null","null","self_paced","","","","","","","","",""
"[{""page_index"":0,""viewing_time"":16530.29999998398}]","16530.52999987267","instructions","4","70397","0.0-4.0","SS1619740178247","instructions","","","","","","","","","","","","","","","",""
"","2781.639999942854","sequential-stimulus-presentation-old","5","88196","0.0-5.0","SS1619740178247","","","40","500","3281.639999942854","null","null","forced_long","","","","","","","","",""
"","10556.370000122115","sequential-stimulus-presentation-old","6","99255","0.0-6.0","SS1619740178247","","","40","500","11056.370000122115","null","null","forced_long","","","","","","","","",""
"[{""page_index"":0,""viewing_time"":4492.460000095889}]","4492.700000060722","instructions","7","103749","0.0-7.0","SS1619740178247","instructions","","","","","","","","","","","","","","","",""
"[{""page_index"":0,""viewing_time"":10870.855000102893},{""page_index"":1,""viewing_time"":7197.524999966845},{""page_index"":2,""viewing_time"":10872.934999875724},{""page_index"":3,""viewing_time"":996.430000057444},{""page_index"":4,""viewing_time"":1217.600000090897}]","31155.625000130385","instructions","8","134906","0.0-8.0","SS1619740178247","instructions","","","","","","","","","","","","","","","",""
"","null","html-keyboard-response","9","135905","0.0-9.0-0.0","SS1619740178247","","","null","","","","","","<p><img src= images/blank.png width =""600"" height = ""600"" style=""position:fixed;top:50%; left:50%; transform: translate(-50%, -50%); border:5px solid black"">","","","","","","","",""
"","3344.120000023395","sequential-stimulus-presentation-old","10","139753","0.0-9.0-1.0","SS1619740178247","trial","","40","500","3844.120000023395","images/stimuli/spore_stims/complex_07_A_b.gif","images/stimuli/spore_stims/complex_11_A_a.gif","forced_short","","0","complex_dissimilar","images/stimuli/spore_stims/complex_11_A_a.gif","","","","",""
"","null","html-keyboard-response","11","140643","0.0-9.0-0.1","SS1619740178247","","","null","","","","","","<p><img src= images/blank.png width =""600"" height = ""600"" style=""position:fixed;top:50%; left:50%; transform: translate(-50%, -50%); border:5px solid black"">","","","","","","","",""
"","82143.32000003196","sequential-stimulus-presentation-old","12","223290","0.0-9.0-1.1","SS1619740178247","trial","","40","500","82643.32000003196","images/stimuli/spore_stims/complex_07_A_b.gif","images/stimuli/spore_stims/complex_11_A_a.gif","forced_short","","0","complex_dissimilar","images/stimuli/spore_stims/complex_11_A_a.gif","","","","",""
"","null","html-keyboard-response","13","224198","0.0-9.0-0.2","SS1619740178247","","","null","","","","","","<p><img src= images/blank.png width =""600"" height = ""600"" style=""position:fixed;top:50%; left:50%; transform: translate(-50%, -50%); border:5px solid black"">","","","","","","","",""
"","6875.340000027791","sequential-stimulus-presentation-old","14","231591","0.0-9.0-1.2","SS1619740178247","trial","","40","500","7375.340000027791","images/stimuli/spore_stims/complex_07_A_b.gif","images/stimuli/spore_stims/complex_11_A_a.gif","forced_short","","0","complex_dissimilar","images/stimuli/spore_stims/complex_11_A_a.gif","","","","",""
"","null","html-keyboard-response","15","232469","0.0-9.0-0.3","SS1619740178247","","","null","","","","","","<p><img src= images/blank.png width =""600"" height = ""600"" style=""position:fixed;top:50%; left:50%; transform: translate(-50%, -50%); border:5px solid black"">","","","","","","","",""
"","707.325000083074","sequential-stimulus-presentation-old","16","233683","0.0-9.0-1.3","SS1619740178247","trial","","40","500","1207.325000083074","images/stimuli/spore_stims/complex_07_A_b.gif","images/stimuli/spore_stims/complex_11_A_a.gif","forced_short","","0","complex_dissimilar","images/stimuli/spore_stims/complex_11_A_a.gif","","","","",""
"","null","html-keyboard-response","17","234954","0.0-9.0-0.4","SS1619740178247","","","null","","","","","","<p><img src= images/blank.png width =""600"" height = ""600"" style=""position:fixed;top:50%; left:50%; transform: translate(-50%, -50%); border:5px solid black"">","","","","","","","",""
"","3823.6449998803437","sequential-stimulus-presentation-old","18","239281","0.0-9.0-1.4","SS1619740178247","trial","","40","500","4323.644999880344","images/stimuli/spore_stims/complex_07_A_b.gif","images/stimuli/spore_stims/complex_11_A_a.gif","forced_short","","0","complex_dissimilar","images/stimuli/spore_stims/complex_11_A_a.gif","","","","",""
"","null","html-keyboard-response","19","240322","0.0-9.0-0.5","SS1619740178247","","","null","","","","","","<p><img src= images/blank.png width =""600"" height = ""600"" style=""position:fixed;top:50%; left:50%; transform: translate(-50%, -50%); border:5px solid black"">","","","","","","","",""
"","54693.86500003748","sequential-stimulus-presentation-old","20","295520","0.0-9.0-1.5","SS1619740178247","trial","","40","500","55193.86500003748","images/stimuli/spore_stims/complex_07_A_b.gif","images/stimuli/spore_stims/complex_11_A_a.gif","forced_short","","0","complex_dissimilar","images/stimuli/spore_stims/complex_11_A_a.gif","","","","",""
"","9223.650000058115","survey-multi-choice","21","304753","0.0-10.0","SS1619740178247","math_question","","","","","","","","","","","","{""Q0"":""14""}","[0]","14","",""
"","null","html-keyboard-response","22","306021","0.0-11.0-0.0","SS1619740178247","","","null","","","","","","<p><img src= images/blank.png width =""600"" height = ""600"" style=""position:fixed;top:50%; left:50%; transform: translate(-50%, -50%); border:5px solid black"">","","","","","","","",""
"","6542.904999805614","sequential-stimulus-presentation-old","23","327567","0.0-11.0-1.0","SS1619740178247","trial","","40","500","7042.904999805614","images/stimuli/spore_stims/simple_11_A_a.gif","images/stimuli/spore_stims/simple_08_A_b.gif","forced_long","","1","simple_dissimilar","images/stimuli/spore_stims/simple_08_A_b.gif","","","","",""
"","null","html-keyboard-response","24","328853","0.0-11.0-0.1","SS1619740178247","","","null","","","","","","<p><img src= images/blank.png width =""600"" height = ""600"" style=""position:fixed;top:50%; left:50%; transform: translate(-50%, -50%); border:5px solid black"">","","","","","","","",""
"","46931.52499990538","sequential-stimulus-presentation-old","25","376288","0.0-11.0-1.1","SS1619740178247","trial","","40","500","47431.52499990538","images/stimuli/spore_stims/simple_11_A_a.gif","images/stimuli/spore_stims/simple_08_A_b.gif","forced_long","","1","simple_dissimilar","images/stimuli/spore_stims/simple_11_A_a.gif","","","","",""
"","null","html-keyboard-response","26","377354","0.0-11.0-0.2","SS1619740178247","","","null","","","","","","<p><img src= images/blank.png width =""600"" height = ""600"" style=""position:fixed;top:50%; left:50%; transform: translate(-50%, -50%); border:5px solid black"">","","","","","","","",""
"","4908.880000002682","sequential-stimulus-presentation-old","27","382768","0.0-11.0-1.2","SS1619740178247","trial","","40","500","5408.880000002682","images/stimuli/spore_stims/simple_11_A_a.gif","images/stimuli/spore_stims/simple_08_A_b.gif","forced_long","","1","simple_dissimilar","images/stimuli/spore_stims/simple_08_A_b.gif","","","","",""
"","null","html-keyboard-response","28","384070","0.0-11.0-0.3","SS1619740178247","","","null","","","","","","<p><img src= images/blank.png width =""600"" height = ""600"" style=""position:fixed;top:50%; left:50%; transform: translate(-50%, -50%); border:5px solid black"">","","","","","","","",""
"","424.39000005833805","sequential-stimulus-presentation-old","29","385000","0.0-11.0-1.3","SS1619740178247","trial","","40","500","924.390000058338","images/stimuli/spore_stims/simple_11_A_a.gif","images/stimuli/spore_stims/simple_08_A_b.gif","forced_long","","1","simple_dissimilar","images/stimuli/spore_stims/simple_08_A_b.gif","","","","",""
"","5143.05999991484","survey-multi-choice","30","390147","0.0-12.0","SS1619740178247","math_question","","","","","","","","","","","","{""Q0"":""9""}","[0]","9","",""
"","null","html-keyboard-response","31","391384","0.0-13.0-0.0","SS1619740178247","","","null","","","","","","<p><img src= images/blank.png width =""600"" height = ""600"" style=""position:fixed;top:50%; left:50%; transform: translate(-50%, -50%); border:5px solid black"">","","","","","","","",""
"","43026.42500004731","sequential-stimulus-presentation-old","32","434913","0.0-13.0-1.0","SS1619740178247","trial","","40","500","43526.42500004731","images/stimuli/spore_stims/simple_13_A_a.gif","images/stimuli/spore_stims/simple_19_A_b.gif","self_paced","","2","simple_dissimilar","images/stimuli/spore_stims/simple_19_A_b.gif","","","","",""
"","null","html-keyboard-response","33","435875","0.0-13.0-0.1","SS1619740178247","","","null","","","","","","<p><img src= images/blank.png width =""600"" height = ""600"" style=""position:fixed;top:50%; left:50%; transform: translate(-50%, -50%); border:5px solid black"">","","","","","","","",""
"","39826.83999999426","sequential-stimulus-presentation-old","34","476215","0.0-13.0-1.1","SS1619740178247","trial","","40","500","40326.83999999426","images/stimuli/spore_stims/simple_13_A_a.gif","images/stimuli/spore_stims/simple_19_A_b.gif","self_paced","","2","simple_dissimilar","images/stimuli/spore_stims/simple_13_A_a.gif","","","","",""
"","null","html-keyboard-response","35","477421","0.0-13.0-0.2","SS1619740178247","","","null","","","","","","<p><img src= images/blank.png width =""600"" height = ""600"" style=""position:fixed;top:50%; left:50%; transform: translate(-50%, -50%); border:5px solid black"">","","","","","","","",""
"","19837.129999883473","sequential-stimulus-presentation-old","36","497765","0.0-13.0-1.2","SS1619740178247","trial","","40","500","20337.129999883473","images/stimuli/spore_stims/simple_13_A_a.gif","images/stimuli/spore_stims/simple_19_A_b.gif","self_paced","","2","simple_dissimilar","images/stimuli/spore_stims/simple_19_A_b.gif","","","","",""
"","null","html-keyboard-response","37","498598","0.0-13.0-0.3","SS1619740178247","","","null","","","","","","<p><img src= images/blank.png width =""600"" height = ""600"" style=""position:fixed;top:50%; left:50%; transform: translate(-50%, -50%); border:5px solid black"">","","","","","","","",""
"","46792.36999992281","sequential-stimulus-presentation-old","38","545895","0.0-13.0-1.3","SS1619740178247","trial","","40","500","47292.36999992281","images/stimuli/spore_stims/simple_13_A_a.gif","images/stimuli/spore_stims/simple_19_A_b.gif","self_paced","","2","simple_dissimilar","images/stimuli/spore_stims/simple_13_A_a.gif","","","","",""
"","null","html-keyboard-response","39","547084","0.0-13.0-0.4","SS1619740178247","","","null","","","","","","<p><img src= images/blank.png width =""600"" height = ""600"" style=""position:fixed;top:50%; left:50%; transform: translate(-50%, -50%); border:5px solid black"">","","","","","","","",""
"","19030.75999999419","sequential-stimulus-presentation-old","40","566629","0.0-13.0-1.4","SS1619740178247","trial","","40","500","19530.75999999419","images/stimuli/spore_stims/simple_13_A_a.gif","images/stimuli/spore_stims/simple_19_A_b.gif","self_paced","","2","simple_dissimilar","images/stimuli/spore_stims/simple_19_A_b.gif","","","","",""
"","3277.4849999696016","survey-multi-choice","41","569910","0.0-14.0","SS1619740178247","math_question","","","","","","","","","","","","{""Q0"":""17""}","[0]","17","",""
"","null","html-keyboard-response","42","571109","0.0-15.0-0.0","SS1619740178247","","","null","","","","","","<p><img src= images/blank.png width =""600"" height = ""600"" style=""position:fixed;top:50%; left:50%; transform: translate(-50%, -50%); border:5px solid black"">","","","","","","","",""
"","3746.5749999973923","sequential-stimulus-presentation-old","43","589864","0.0-15.0-1.0","SS1619740178247","trial","","40","500","4246.574999997392","images/stimuli/spore_stims/complex_04_A_b.gif","images/stimuli/spore_stims/complex_19_A_a.gif","forced_long","","3","complex_dissimilar","images/stimuli/spore_stims/complex_19_A_a.gif","","","","",""
"","null","html-keyboard-response","44","591131","0.0-15.0-0.1","SS1619740178247","","","null","","","","","","<p><img src= images/blank.png width =""600"" height = ""600"" style=""position:fixed;top:50%; left:50%; transform: translate(-50%, -50%); border:5px solid black"">","","","","","","","",""
"","13714.57999991253","sequential-stimulus-presentation-old","45","605350","0.0-15.0-1.1","SS1619740178247","trial","","40","500","14214.57999991253","images/stimuli/spore_stims/complex_04_A_b.gif","images/stimuli/spore_stims/complex_19_A_a.gif","forced_long","","3","complex_dissimilar","images/stimuli/spore_stims/complex_19_A_a.gif","","","","",""
"","null","html-keyboard-response","46","606292","0.0-15.0-0.2","SS1619740178247","","","null","","","","","","<p><img src= images/blank.png width =""600"" height = ""600"" style=""position:fixed;top:50%; left:50%; transform: translate(-50%, -50%); border:5px solid black"">","","","","","","","",""
"","453.4150001127273","sequential-stimulus-presentation-old","47","607252","0.0-15.0-1.2","SS1619740178247","trial","","40","500","953.4150001127273","images/stimuli/spore_stims/complex_04_A_b.gif","images/stimuli/spore_stims/complex_19_A_a.gif","forced_long","","3","complex_dissimilar","images/stimuli/spore_stims/complex_19_A_a.gif","","","","",""
"","null","html-keyboard-response","48","608180","0.0-15.0-0.3","SS1619740178247","","","null","","","","","","<p><img src= images/blank.png width =""600"" height = ""600"" style=""position:fixed;top:50%; left:50%; transform: translate(-50%, -50%); border:5px solid black"">","","","","","","","",""
"","191.5349999908358","sequential-stimulus-presentation-old","49","608874","0.0-15.0-1.3","SS1619740178247","trial","","40","500","691.5349999908358","images/stimuli/spore_stims/complex_04_A_b.gif","images/stimuli/spore_stims/complex_19_A_a.gif","forced_long","","3","complex_dissimilar","images/stimuli/spore_stims/complex_19_A_a.gif","","","","",""
"","3157.545000081882","survey-multi-choice","50","612033","0.0-16.0","SS1619740178247","math_question","","","","","","","","","","","","{""Q0"":""10""}","[0]","10","",""
"","null","html-keyboard-response","51","612941","0.0-17.0-0.0","SS1619740178247","","","null","","","","","","<p><img src= images/blank.png width =""600"" height = ""600"" style=""position:fixed;top:50%; left:50%; transform: translate(-50%, -50%); border:5px solid black"">","","","","","","","",""
"","36351.130000082776","sequential-stimulus-presentation-old","52","664299","0.0-17.0-1.0","SS1619740178247","trial","","40","500","36851.130000082776","images/stimuli/spore_stims/complex_15_A_b.gif","images/stimuli/spore_stims/complex_02_A_a.gif","forced_long","","4","complex_dissimilar","images/stimuli/spore_stims/complex_02_A_a.gif","","","","",""
"","null","html-keyboard-response","53","665313","0.0-17.0-0.1","SS1619740178247","","","null","","","","","","<p><img src= images/blank.png width =""600"" height = ""600"" style=""position:fixed;top:50%; left:50%; transform: translate(-50%, -50%); border:5px solid black"">","","","","","","","",""
"","36661.659999983385","sequential-stimulus-presentation-old","54","702488","0.0-17.0-1.1","SS1619740178247","trial","","40","500","37161.659999983385","images/stimuli/spore_stims/complex_15_A_b.gif","images/stimuli/spore_stims/complex_02_A_a.gif","forced_long","","4","complex_dissimilar","images/stimuli/spore_stims/complex_02_A_a.gif","","","","",""
"","null","html-keyboard-response","55","703666","0.0-17.0-0.2","SS1619740178247","","","null","","","","","","<p><img src= images/blank.png width =""600"" height = ""600"" style=""position:fixed;top:50%; left:50%; transform: translate(-50%, -50%); border:5px solid black"">","","","","","","","",""
"","6695.27000002563","sequential-stimulus-presentation-old","56","710879","0.0-17.0-1.2","SS1619740178247","trial","","40","500","7195.27000002563","images/stimuli/spore_stims/complex_15_A_b.gif","images/stimuli/spore_stims/complex_02_A_a.gif","forced_long","","4","complex_dissimilar","images/stimuli/spore_stims/complex_02_A_a.gif","","","","",""
"","null","html-keyboard-response","57","711845","0.0-17.0-0.3","SS1619740178247","","","null","","","","","","<p><img src= images/blank.png width =""600"" height = ""600"" style=""position:fixed;top:50%; left:50%; transform: translate(-50%, -50%); border:5px solid black"">","","","","","","","",""
"","755.0550000742078","sequential-stimulus-presentation-old","58","713109","0.0-17.0-1.3","SS1619740178247","trial","","40","500","1255.0550000742078","images/stimuli/spore_stims/complex_15_A_b.gif","images/stimuli/spore_stims/complex_02_A_a.gif","forced_long","","4","complex_dissimilar","images/stimuli/spore_stims/complex_02_A_a.gif","","","","",""
"","null","html-keyboard-response","59","714378","0.0-17.0-0.4","SS1619740178247","","","null","","","","","","<p><img src= images/blank.png width =""600"" height = ""600"" style=""position:fixed;top:50%; left:50%; transform: translate(-50%, -50%); border:5px solid black"">","","","","","","","",""
"","36857.26499999873","sequential-stimulus-presentation-old","60","751748","0.0-17.0-1.4","SS1619740178247","trial","","40","500","37357.26499999873","images/stimuli/spore_stims/complex_15_A_b.gif","images/stimuli/spore_stims/complex_02_A_a.gif","forced_long","","4","complex_dissimilar","images/stimuli/spore_stims/complex_15_A_b.gif","","","","",""
"","3254.475000081584","survey-multi-choice","61","755004","0.0-18.0","SS1619740178247","math_question","","","","","","","","","","","","{""Q0"":""8""}","[0]","8","",""
"","null","html-keyboard-response","62","756212","0.0-19.0-0.0","SS1619740178247","","","null","","","","","","<p><img src= images/blank.png width =""600"" height = ""600"" style=""position:fixed;top:50%; left:50%; transform: translate(-50%, -50%); border:5px solid black"">","","","","","","","",""
"","142563.1750000175","sequential-stimulus-presentation-old","63","899286","0.0-19.0-1.0","SS1619740178247","trial","","40","500","143063.1750000175","images/stimuli/spore_stims/simple_06_A_b.gif","images/stimuli/spore_stims/simple_02_A_a.gif","self_paced","","5","simple_dissimilar","images/stimuli/spore_stims/simple_02_A_a.gif","","","","",""
"","null","html-keyboard-response","64","900518","0.0-19.0-0.1","SS1619740178247","","","null","","","","","","<p><img src= images/blank.png width =""600"" height = ""600"" style=""position:fixed;top:50%; left:50%; transform: translate(-50%, -50%); border:5px solid black"">","","","","","","","",""
"","10440.48500014469","sequential-stimulus-presentation-old","65","911462","0.0-19.0-1.1","SS1619740178247","trial","","40","500","10940.48500014469","images/stimuli/spore_stims/simple_06_A_b.gif","images/stimuli/spore_stims/simple_02_A_a.gif","self_paced","","5","simple_dissimilar","images/stimuli/spore_stims/simple_02_A_a.gif","","","","",""
"","null","html-keyboard-response","66","912578","0.0-19.0-0.2","SS1619740178247","","","null","","","","","","<p><img src= images/blank.png width =""600"" height = ""600"" style=""position:fixed;top:50%; left:50%; transform: translate(-50%, -50%); border:5px solid black"">","","","","","","","",""
"","48033.91500003636","sequential-stimulus-presentation-old","67","961127","0.0-19.0-1.2","SS1619740178247","trial","","40","500","48533.91500003636","images/stimuli/spore_stims/simple_06_A_b.gif","images/stimuli/spore_stims/simple_02_A_a.gif","self_paced","","5","simple_dissimilar","images/stimuli/spore_stims/simple_02_A_a.gif","","","","",""
"","null","html-keyboard-response","68","961945","0.0-19.0-0.3","SS1619740178247","","","null","","","","","","<p><img src= images/blank.png width =""600"" height = ""600"" style=""position:fixed;top:50%; left:50%; transform: translate(-50%, -50%); border:5px solid black"">","","","","","","","",""
"","461.0150000080466","sequential-stimulus-presentation-old","69","962920","0.0-19.0-1.3","SS1619740178247","trial","","40","500","961.0150000080466","images/stimuli/spore_stims/simple_06_A_b.gif","images/stimuli/spore_stims/simple_02_A_a.gif","self_paced","","5","simple_dissimilar","images/stimuli/spore_stims/simple_02_A_a.gif","","","","",""
"","2503.885000012815","survey-multi-choice","70","965426","0.0-20.0","SS1619740178247","math_question","","","","","","","","","","","","{""Q0"":""3""}","[0]","3","",""
"","null","html-keyboard-response","71","966259","0.0-21.0-0.0","SS1619740178247","","","null","","","","","","<p><img src= images/blank.png width =""600"" height = ""600"" style=""position:fixed;top:50%; left:50%; transform: translate(-50%, -50%); border:5px solid black"">","","","","","","","",""
"","1540.294999955222","sequential-stimulus-presentation-old","72","968303","0.0-21.0-1.0","SS1619740178247","trial","","40","500","2040.294999955222","images/stimuli/spore_stims/simple_20_A_a.gif","images/stimuli/spore_stims/simple_17_A_b.gif","forced_short","","6","simple_dissimilar","images/stimuli/spore_stims/simple_17_A_b.gif","","","","",""
"","null","html-keyboard-response","73","969138","0.0-21.0-0.1","SS1619740178247","","","null","","","","","","<p><img src= images/blank.png width =""600"" height = ""600"" style=""position:fixed;top:50%; left:50%; transform: translate(-50%, -50%); border:5px solid black"">","","","","","","","",""
"","21288.32000005059","sequential-stimulus-presentation-old","74","990929","0.0-21.0-1.1","SS1619740178247","trial","","40","500","21788.32000005059","images/stimuli/spore_stims/simple_20_A_a.gif","images/stimuli/spore_stims/simple_17_A_b.gif","forced_short","","6","simple_dissimilar","images/stimuli/spore_stims/simple_17_A_b.gif","","","","",""
"","null","html-keyboard-response","75","992030","0.0-21.0-0.2","SS1619740178247","","","null","","","","","","<p><img src= images/blank.png width =""600"" height = ""600"" style=""position:fixed;top:50%; left:50%; transform: translate(-50%, -50%); border:5px solid black"">","","","","","","","",""
"","23026.36000001803","sequential-stimulus-presentation-old","76","1015560","0.0-21.0-1.2","SS1619740178247","trial","","40","500","23526.36000001803","images/stimuli/spore_stims/simple_20_A_a.gif","images/stimuli/spore_stims/simple_17_A_b.gif","forced_short","","6","simple_dissimilar","images/stimuli/spore_stims/simple_17_A_b.gif","","","","",""
"","null","html-keyboard-response","77","1016726","0.0-21.0-0.3","SS1619740178247","","","null","","","","","","<p><img src= images/blank.png width =""600"" height = ""600"" style=""position:fixed;top:50%; left:50%; transform: translate(-50%, -50%); border:5px solid black"">","","","","","","","",""
"","5610.295000020415","sequential-stimulus-presentation-old","78","1022840","0.0-21.0-1.3","SS1619740178247","trial","","40","500","6110.295000020415","images/stimuli/spore_stims/simple_20_A_a.gif","images/stimuli/spore_stims/simple_17_A_b.gif","forced_short","","6","simple_dissimilar","images/stimuli/spore_stims/simple_17_A_b.gif","","","","",""
"","null","html-keyboard-response","79","1023817","0.0-21.0-0.4","SS1619740178247","","","null","","","","","","<p><img src= images/blank.png width =""600"" height = ""600"" style=""position:fixed;top:50%; left:50%; transform: translate(-50%, -50%); border:5px solid black"">","","","","","","","",""
"","4805.91500014998","sequential-stimulus-presentation-old","80","1029126","0.0-21.0-1.4","SS1619740178247","trial","","40","500","5305.91500014998","images/stimuli/spore_stims/simple_20_A_a.gif","images/stimuli/spore_stims/simple_17_A_b.gif","forced_short","","6","simple_dissimilar","images/stimuli/spore_stims/simple_17_A_b.gif","","","","",""
"","2708.2050000317395","survey-multi-choice","81","1031835","0.0-22.0","SS1619740178247","math_question","","","","","","","","","","","","{""Q0"":""10""}","[0]","10","",""
"","null","html-keyboard-response","82","1032707","0.0-23.0-0.0","SS1619740178247","","","null","","","","","","<p><img src= images/blank.png width =""600"" height = ""600"" style=""position:fixed;top:50%; left:50%; transform: translate(-50%, -50%); border:5px solid black"">","","","","","","","",""
"","25445.50499995239","sequential-stimulus-presentation-old","83","1058656","0.0-23.0-1.0","SS1619740178247","trial","","40","500","25945.50499995239","images/stimuli/spore_stims/simple_05_A_a.gif","images/stimuli/spore_stims/simple_09_A_b.gif","forced_short","","7","simple_dissimilar","images/stimuli/spore_stims/simple_09_A_b.gif","","","","",""
"","null","html-keyboard-response","84","1059897","0.0-23.0-0.1","SS1619740178247","","","null","","","","","","<p><img src= images/blank.png width =""600"" height = ""600"" style=""position:fixed;top:50%; left:50%; transform: translate(-50%, -50%); border:5px solid black"">","","","","","","","",""
"","49193.355000112206","sequential-stimulus-presentation-old","85","1109593","0.0-23.0-1.1","SS1619740178247","trial","","40","500","49693.355000112206","images/stimuli/spore_stims/simple_05_A_a.gif","images/stimuli/spore_stims/simple_09_A_b.gif","forced_short","","7","simple_dissimilar","images/stimuli/spore_stims/simple_09_A_b.gif","","","","",""
"","null","html-keyboard-response","86","1110454","0.0-23.0-0.2","SS1619740178247","","","null","","","","","","<p><img src= images/blank.png width =""600"" height = ""600"" style=""position:fixed;top:50%; left:50%; transform: translate(-50%, -50%); border:5px solid black"">","","","","","","","",""
"","1904.6000000089407","sequential-stimulus-presentation-old","87","1112885","0.0-23.0-1.2","SS1619740178247","trial","","40","500","2404.6000000089407","images/stimuli/spore_stims/simple_05_A_a.gif","images/stimuli/spore_stims/simple_09_A_b.gif","forced_short","","7","simple_dissimilar","images/stimuli/spore_stims/simple_05_A_a.gif","","","","",""
"","null","html-keyboard-response","88","1114076","0.0-23.0-0.3","SS1619740178247","","","null","","","","","","<p><img src= images/blank.png width =""600"" height = ""600"" style=""position:fixed;top:50%; left:50%; transform: translate(-50%, -50%); border:5px solid black"">","","","","","","","",""
"","33345.369999995455","sequential-stimulus-presentation-old","89","1147928","0.0-23.0-1.3","SS1619740178247","trial","","40","500","33845.369999995455","images/stimuli/spore_stims/simple_05_A_a.gif","images/stimuli/spore_stims/simple_09_A_b.gif","forced_short","","7","simple_dissimilar","images/stimuli/spore_stims/simple_09_A_b.gif","","","","",""
"","null","html-keyboard-response","90","1148759","0.0-23.0-0.4","SS1619740178247","","","null","","","","","","<p><img src= images/blank.png width =""600"" height = ""600"" style=""position:fixed;top:50%; left:50%; transform: translate(-50%, -50%); border:5px solid black"">","","","","","","","",""
"","417.77499997988343","sequential-stimulus-presentation-old","91","1149690","0.0-23.0-1.4","SS1619740178247","trial","","40","500","917.7749999798834","images/stimuli/spore_stims/simple_05_A_a.gif","images/stimuli/spore_stims/simple_09_A_b.gif","forced_short","","7","simple_dissimilar","images/stimuli/spore_stims/simple_09_A_b.gif","","","","",""
"","null","html-keyboard-response","92","1150770","0.0-23.0-0.5","SS1619740178247","","","null","","","","","","<p><img src= images/blank.png width =""600"" height = ""600"" style=""position:fixed;top:50%; left:50%; transform: translate(-50%, -50%); border:5px solid black"">","","","","","","","",""
"","2943.5700001195073","sequential-stimulus-presentation-old","93","1154217","0.0-23.0-1.5","SS1619740178247","trial","","40","500","3443.5700001195073","images/stimuli/spore_stims/simple_05_A_a.gif","images/stimuli/spore_stims/simple_09_A_b.gif","forced_short","","7","simple_dissimilar","images/stimuli/spore_stims/simple_09_A_b.gif","","","","",""
"","2805.6050001177937","survey-multi-choice","94","1157026","0.0-24.0","SS1619740178247","math_question","","","","","","","","","","","","{""Q0"":""6""}","[0]","6","",""
"","null","html-keyboard-response","95","1157971","0.0-25.0-0.0","SS1619740178247","","","null","","","","","","<p><img src= images/blank.png width =""600"" height = ""600"" style=""position:fixed;top:50%; left:50%; transform: translate(-50%, -50%); border:5px solid black"">","","","","","","","",""
"","1360.6149998959154","sequential-stimulus-presentation-old","96","1159836","0.0-25.0-1.0","SS1619740178247","trial","","40","500","1860.6149998959154","images/stimuli/spore_stims/complex_09_A_a.gif","images/stimuli/spore_stims/complex_20_A_b.gif","forced_short","","8","complex_dissimilar","images/stimuli/spore_stims/complex_20_A_b.gif","","","","",""
"","null","html-keyboard-response","97","1160868","0.0-25.0-0.1","SS1619740178247","","","null","","","","","","<p><img src= images/blank.png width =""600"" height = ""600"" style=""position:fixed;top:50%; left:50%; transform: translate(-50%, -50%); border:5px solid black"">","","","","","","","",""
"","5525.284999981523","sequential-stimulus-presentation-old","98","1166905","0.0-25.0-1.1","SS1619740178247","trial","","40","500","6025.284999981523","images/stimuli/spore_stims/complex_09_A_a.gif","images/stimuli/spore_stims/complex_20_A_b.gif","forced_short","","8","complex_dissimilar","images/stimuli/spore_stims/complex_20_A_b.gif","","","","",""
"","null","html-keyboard-response","99","1168071","0.0-25.0-0.2","SS1619740178247","","","null","","","","","","<p><img src= images/blank.png width =""600"" height = ""600"" style=""position:fixed;top:50%; left:50%; transform: translate(-50%, -50%); border:5px solid black"">","","","","","","","",""
"","4533.749999944121","sequential-stimulus-presentation-old","100","1173109","0.0-25.0-1.2","SS1619740178247","trial","","40","500","5033.749999944121","images/stimuli/spore_stims/complex_09_A_a.gif","images/stimuli/spore_stims/complex_20_A_b.gif","forced_short","","8","complex_dissimilar","images/stimuli/spore_stims/complex_20_A_b.gif","","","","",""
"","null","html-keyboard-response","101","1174372","0.0-25.0-0.3","SS1619740178247","","","null","","","","","","<p><img src= images/blank.png width =""600"" height = ""600"" style=""position:fixed;top:50%; left:50%; transform: translate(-50%, -50%); border:5px solid black"">","","","","","","","",""
"","3331.8650000728667","sequential-stimulus-presentation-old","102","1178208","0.0-25.0-1.3","SS1619740178247","trial","","40","500","3831.8650000728667","images/stimuli/spore_stims/complex_09_A_a.gif","images/stimuli/spore_stims/complex_20_A_b.gif","forced_short","","8","complex_dissimilar","images/stimuli/spore_stims/complex_09_A_a.gif","","","","",""
"","null","html-keyboard-response","103","1179064","0.0-25.0-0.4","SS1619740178247","","","null","","","","","","<p><img src= images/blank.png width =""600"" height = ""600"" style=""position:fixed;top:50%; left:50%; transform: translate(-50%, -50%); border:5px solid black"">","","","","","","","",""
"","4963.664999930188","sequential-stimulus-presentation-old","104","1184530","0.0-25.0-1.4","SS1619740178247","trial","","40","500","5463.664999930188","images/stimuli/spore_stims/complex_09_A_a.gif","images/stimuli/spore_stims/complex_20_A_b.gif","forced_short","","8","complex_dissimilar","images/stimuli/spore_stims/complex_20_A_b.gif","","","","",""
"","2970.1299997977912","survey-multi-choice","105","1187503","0.0-26.0","SS1619740178247","math_question","","","","","","","","","","","","{""Q0"":""18""}","[0]","18","",""
"","null","html-keyboard-response","106","1188390","0.0-27.0-0.0","SS1619740178247","","","null","","","","","","<p><img src= images/blank.png width =""600"" height = ""600"" style=""position:fixed;top:50%; left:50%; transform: translate(-50%, -50%); border:5px solid black"">","","","","","","","",""
"","15500.915000215173","sequential-stimulus-presentation-old","107","1204394","0.0-27.0-1.0","SS1619740178247","trial","","40","500","16000.915000215173","images/stimuli/spore_stims/complex_10_A_b.gif","images/stimuli/spore_stims/complex_13_A_a.gif","self_paced","","9","complex_dissimilar","images/stimuli/spore_stims/complex_13_A_a.gif","","","","",""
"","null","html-keyboard-response","108","1205445","0.0-27.0-0.1","SS1619740178247","","","null","","","","","","<p><img src= images/blank.png width =""600"" height = ""600"" style=""position:fixed;top:50%; left:50%; transform: translate(-50%, -50%); border:5px solid black"">","","","","","","","",""
"","1621.4650000911206","sequential-stimulus-presentation-old","109","1207571","0.0-27.0-1.1","SS1619740178247","trial","","40","500","2121.4650000911206","images/stimuli/spore_stims/complex_10_A_b.gif","images/stimuli/spore_stims/complex_13_A_a.gif","self_paced","","9","complex_dissimilar","images/stimuli/spore_stims/complex_13_A_a.gif","","","","",""
"","null","html-keyboard-response","110","1208682","0.0-27.0-0.2","SS1619740178247","","","null","","","","","","<p><img src= images/blank.png width =""600"" height = ""600"" style=""position:fixed;top:50%; left:50%; transform: translate(-50%, -50%); border:5px solid black"">","","","","","","","",""
"","2508.3550000563264","sequential-stimulus-presentation-old","111","1211707","0.0-27.0-1.2","SS1619740178247","trial","","40","500","3008.3550000563264","images/stimuli/spore_stims/complex_10_A_b.gif","images/stimuli/spore_stims/complex_13_A_a.gif","self_paced","","9","complex_dissimilar","images/stimuli/spore_stims/complex_13_A_a.gif","","","","",""
"","null","html-keyboard-response","112","1212744","0.0-27.0-0.3","SS1619740178247","","","null","","","","","","<p><img src= images/blank.png width =""600"" height = ""600"" style=""position:fixed;top:50%; left:50%; transform: translate(-50%, -50%); border:5px solid black"">","","","","","","","",""
"","3529.1949999518692","sequential-stimulus-presentation-old","113","1216778","0.0-27.0-1.3","SS1619740178247","trial","","40","500","4029.1949999518692","images/stimuli/spore_stims/complex_10_A_b.gif","images/stimuli/spore_stims/complex_13_A_a.gif","self_paced","","9","complex_dissimilar","images/stimuli/spore_stims/complex_13_A_a.gif","","","","",""
"","2646.6850000433624","survey-multi-choice","114","1219427","0.0-28.0","SS1619740178247","math_question","","","","","","","","","","","","{""Q0"":""9""}","[0]","9","",""
"","null","html-keyboard-response","115","1220510","0.0-29.0-0.0","SS1619740178247","","","null","","","","","","<p><img src= images/blank.png width =""600"" height = ""600"" style=""position:fixed;top:50%; left:50%; transform: translate(-50%, -50%); border:5px solid black"">","","","","","","","",""
"","734151.2849999126","sequential-stimulus-presentation-old","116","1969668","0.0-29.0-1.0","SS1619740178247","trial","","40","500","734651.2849999126","images/stimuli/spore_stims/simple_14_A_a.gif","images/stimuli/spore_stims/simple_03_A_b.gif","forced_long","","10","simple_dissimilar","images/stimuli/spore_stims/simple_03_A_b.gif","","","","",""
"","null","html-keyboard-response","117","1970887","0.0-29.0-0.1","SS1619740178247","","","null","","","","","","<p><img src= images/blank.png width =""600"" height = ""600"" style=""position:fixed;top:50%; left:50%; transform: translate(-50%, -50%); border:5px solid black"">","","","","","","","",""
"","4696.865000063553","sequential-stimulus-presentation-old","118","1976088","0.0-29.0-1.1","SS1619740178247","trial","","40","500","5196.865000063553","images/stimuli/spore_stims/simple_14_A_a.gif","images/stimuli/spore_stims/simple_03_A_b.gif","forced_long","","10","simple_dissimilar","images/stimuli/spore_stims/simple_03_A_b.gif","","","","",""
"","null","html-keyboard-response","119","1977252","0.0-29.0-0.2","SS1619740178247","","","null","","","","","","<p><img src= images/blank.png width =""600"" height = ""600"" style=""position:fixed;top:50%; left:50%; transform: translate(-50%, -50%); border:5px solid black"">","","","","","","","",""
"","3010.000000009313","sequential-stimulus-presentation-old","120","1980767","0.0-29.0-1.2","SS1619740178247","trial","","40","500","3510.000000009313","images/stimuli/spore_stims/simple_14_A_a.gif","images/stimuli/spore_stims/simple_03_A_b.gif","forced_long","","10","simple_dissimilar","images/stimuli/spore_stims/simple_03_A_b.gif","","","","",""
"","null","html-keyboard-response","121","1981987","0.0-29.0-0.3","SS1619740178247","","","null","","","","","","<p><img src= images/blank.png width =""600"" height = ""600"" style=""position:fixed;top:50%; left:50%; transform: translate(-50%, -50%); border:5px solid black"">","","","","","","","",""
"","5966.264999937266","sequential-stimulus-presentation-old","122","1988457","0.0-29.0-1.3","SS1619740178247","trial","","40","500","6466.264999937266","images/stimuli/spore_stims/simple_14_A_a.gif","images/stimuli/spore_stims/simple_03_A_b.gif","forced_long","","10","simple_dissimilar","images/stimuli/spore_stims/simple_03_A_b.gif","","","","",""
"","null","html-keyboard-response","123","1989706","0.0-29.0-0.4","SS1619740178247","","","null","","","","","","<p><img src= images/blank.png width =""600"" height = ""600"" style=""position:fixed;top:50%; left:50%; transform: translate(-50%, -50%); border:5px solid black"">","","","","","","","",""
"","4516.014999942854","sequential-stimulus-presentation-old","124","1994725","0.0-29.0-1.4","SS1619740178247","trial","","40","500","5016.014999942854","images/stimuli/spore_stims/simple_14_A_a.gif","images/stimuli/spore_stims/simple_03_A_b.gif","forced_long","","10","simple_dissimilar","images/stimuli/spore_stims/simple_03_A_b.gif","","","","",""
"","null","html-keyboard-response","125","1995673","0.0-29.0-0.5","SS1619740178247","","","null","","","","","","<p><img src= images/blank.png width =""600"" height = ""600"" style=""position:fixed;top:50%; left:50%; transform: translate(-50%, -50%); border:5px solid black"">","","","","","","","",""
"","2456.6450000274926","sequential-stimulus-presentation-old","126","1998633","0.0-29.0-1.5","SS1619740178247","trial","","40","500","2956.6450000274926","images/stimuli/spore_stims/simple_14_A_a.gif","images/stimuli/spore_stims/simple_03_A_b.gif","forced_long","","10","simple_dissimilar","images/stimuli/spore_stims/simple_03_A_b.gif","","","","",""
"","2678.489999845624","survey-multi-choice","127","2001313","0.0-30.0","SS1619740178247","math_question","","","","","","","","","","","","{""Q0"":""10""}","[0]","10","",""
"","null","html-keyboard-response","128","2002246","0.0-31.0-0.0","SS1619740178247","","","null","","","","","","<p><img src= images/blank.png width =""600"" height = ""600"" style=""position:fixed;top:50%; left:50%; transform: translate(-50%, -50%); border:5px solid black"">","","","","","","","",""
"","3278.7299999035895","sequential-stimulus-presentation-old","129","2006029","0.0-31.0-1.0","SS1619740178247","trial","","40","500","3778.7299999035895","images/stimuli/spore_stims/complex_16_A_a.gif","images/stimuli/spore_stims/complex_05_A_b.gif","self_paced","","11","complex_dissimilar","images/stimuli/spore_stims/complex_05_A_b.gif","","","","",""
"","null","html-keyboard-response","130","2007306","0.0-31.0-0.1","SS1619740178247","","","null","","","","","","<p><img src= images/blank.png width =""600"" height = ""600"" style=""position:fixed;top:50%; left:50%; transform: translate(-50%, -50%); border:5px solid black"">","","","","","","","",""
"","2746.4250000193715","sequential-stimulus-presentation-old","131","2010570","0.0-31.0-1.1","SS1619740178247","trial","","40","500","3246.4250000193715","images/stimuli/spore_stims/complex_16_A_a.gif","images/stimuli/spore_stims/complex_05_A_b.gif","self_paced","","11","complex_dissimilar","images/stimuli/spore_stims/complex_05_A_b.gif","","","","",""
"","null","html-keyboard-response","132","2011686","0.0-31.0-0.2","SS1619740178247","","","null","","","","","","<p><img src= images/blank.png width =""600"" height = ""600"" style=""position:fixed;top:50%; left:50%; transform: translate(-50%, -50%); border:5px solid black"">","","","","","","","",""
"","3495.125000132248","sequential-stimulus-presentation-old","133","2015690","0.0-31.0-1.2","SS1619740178247","trial","","40","500","3995.125000132248","images/stimuli/spore_stims/complex_16_A_a.gif","images/stimuli/spore_stims/complex_05_A_b.gif","self_paced","","11","complex_dissimilar","images/stimuli/spore_stims/complex_05_A_b.gif","","","","",""
"","null","html-keyboard-response","134","2016657","0.0-31.0-0.3","SS1619740178247","","","null","","","","","","<p><img src= images/blank.png width =""600"" height = ""600"" style=""position:fixed;top:50%; left:50%; transform: translate(-50%, -50%); border:5px solid black"">","","","","","","","",""
"","3362.4600002076477","sequential-stimulus-presentation-old","135","2020525","0.0-31.0-1.3","SS1619740178247","trial","","40","500","3862.4600002076477","images/stimuli/spore_stims/complex_16_A_a.gif","images/stimuli/spore_stims/complex_05_A_b.gif","self_paced","","11","complex_dissimilar","images/stimuli/spore_stims/complex_05_A_b.gif","","","","",""
"","null","html-keyboard-response","136","2021658","0.0-31.0-0.4","SS1619740178247","","","null","","","","","","<p><img src= images/blank.png width =""600"" height = ""600"" style=""position:fixed;top:50%; left:50%; transform: translate(-50%, -50%); border:5px solid black"">","","","","","","","",""
"","1763.4950000792742","sequential-stimulus-presentation-old","137","2023935","0.0-31.0-1.4","SS1619740178247","trial","","40","500","2263.495000079274","images/stimuli/spore_stims/complex_16_A_a.gif","images/stimuli/spore_stims/complex_05_A_b.gif","self_paced","","11","complex_dissimilar","images/stimuli/spore_stims/complex_05_A_b.gif","","","","",""
"[{""page_index"":0,""viewing_time"":4141.390000004321}]","4141.579999821261","instructions","138","2028079","0.0-32.0","SS1619740178247","instructions","","","","","","","","","","","","","","","",""
"","7454.519999912009","survey-likert","139","2035543","0.0-33.0","SS1619740178247","similarity_question","","","","","","","","","","","","{""Q0"":4}","[0]","","images/stimuli/spore_stims/simple_20_A_a.gif","images/stimuli/spore_stims/simple_17_A_b.gif"
"","7286.510000005364","survey-likert","140","2042835","0.0-34.0","SS1619740178247","similarity_question","","","","","","","","","","","","{""Q0"":2}","[0]","","images/stimuli/spore_stims/complex_19_A_a.gif","images/stimuli/spore_stims/complex_04_A_b.gif"
"","6036.689999978989","survey-likert","141","2048875","0.0-35.0","SS1619740178247","similarity_question","","","","","","","","","","","","{""Q0"":0}","[0]","","images/stimuli/spore_stims/complex_15_A_b.gif","images/stimuli/spore_stims/complex_02_A_a.gif"
"","8292.690000031143","survey-likert","142","2057170","0.0-36.0","SS1619740178247","similarity_question","","","","","","","","","","","","{""Q0"":5}","[0]","","images/stimuli/spore_stims/simple_02_A_a.gif","images/stimuli/spore_stims/simple_06_A_b.gif"
"","4263.915000017732","survey-likert","143","2061438","0.0-37.0","SS1619740178247","similarity_question","","","","","","","","","","","","{""Q0"":0}","[0]","","images/stimuli/spore_stims/complex_13_A_a.gif","images/stimuli/spore_stims/complex_10_A_b.gif"
"","2788.9499999582767","survey-likert","144","2064229","0.0-38.0","SS1619740178247","similarity_question","","","","","","","","","","","","{""Q0"":0}","[0]","","images/stimuli/spore_stims/complex_11_A_a.gif","images/stimuli/spore_stims/complex_07_A_b.gif"
"","4726.950000040233","survey-likert","145","2068959","0.0-39.0","SS1619740178247","similarity_question","","","","","","","","","","","","{""Q0"":0}","[0]","","images/stimuli/spore_stims/complex_16_A_a.gif","images/stimuli/spore_stims/complex_05_A_b.gif"
"","6611.610000021756","survey-likert","146","2075574","0.0-40.0","SS1619740178247","similarity_question","","","","","","","","","","","","{""Q0"":2}","[0]","","images/stimuli/spore_stims/simple_13_A_a.gif","images/stimuli/spore_stims/simple_19_A_b.gif"
"","4580.659999977797","survey-likert","147","2080157","0.0-41.0","SS1619740178247","similarity_question","","","","","","","","","","","","{""Q0"":4}","[0]","","images/stimuli/spore_stims/simple_05_A_a.gif","images/stimuli/spore_stims/simple_09_A_b.gif"
"","8129.704999970272","survey-likert","148","2088289","0.0-42.0","SS1619740178247","similarity_question","","","","","","","","","","","","{""Q0"":1}","[0]","","images/stimuli/spore_stims/complex_09_A_a.gif","images/stimuli/spore_stims/complex_20_A_b.gif"
"","3416.704999981448","survey-likert","149","2091709","0.0-43.0","SS1619740178247","similarity_question","","","","","","","","","","","","{""Q0"":3}","[0]","","images/stimuli/spore_stims/simple_14_A_a.gif","images/stimuli/spore_stims/simple_03_A_b.gif"
"","5815.5699998606","survey-likert","150","2097527","0.0-44.0","SS1619740178247","similarity_question","","","","","","","","","","","","{""Q0"":3}","[0]","","images/stimuli/spore_stims/simple_08_A_b.gif","images/stimuli/spore_stims/simple_11_A_a.gif"
"[{""page_index"":0,""viewing_time"":5493.144999956712}]","5493.349999887869","instructions","151","2103022","0.0-45.0","SS1619740178247","instructions","","","","","","","","","","","","","","","",""
"","5667.774999979883","survey-likert","152","2108693","0.0-46.0","SS1619740178247","","","","","","","","","images/stimuli/spore_stims/simple_08_A_b.gif","","","","{""Q0"":0}","[0]","","",""
"","3817.0999998692423","survey-likert","153","2112513","0.0-47.0","SS1619740178247","","","","","","","","","images/stimuli/spore_stims/simple_17_A_b.gif","","","","{""Q0"":0}","[0]","","",""
"","4241.625000024214","survey-likert","154","2116757","0.0-48.0","SS1619740178247","","","","","","","","","images/stimuli/spore_stims/complex_13_A_a.gif","","","","{""Q0"":4}","[0]","","",""
"","3422.705000033602","survey-likert","155","2120182","0.0-49.0","SS1619740178247","","","","","","","","","images/stimuli/spore_stims/complex_19_A_a.gif","","","","{""Q0"":5}","[0]","","",""
"","2597.550000064075","survey-likert","156","2122783","0.0-50.0","SS1619740178247","","","","","","","","","images/stimuli/spore_stims/simple_02_A_a.gif","","","","{""Q0"":0}","[0]","","",""
"","4642.620000056922","survey-likert","157","2127429","0.0-51.0","SS1619740178247","","","","","","","","","images/stimuli/spore_stims/complex_20_A_b.gif","","","","{""Q0"":5}","[0]","","",""
"","2966.810000129044","survey-likert","158","2130399","0.0-52.0","SS1619740178247","","","","","","","","","images/stimuli/spore_stims/complex_16_A_a.gif","","","","{""Q0"":6}","[0]","","",""
"","2968.8699999824166","survey-likert","159","2133370","0.0-53.0","SS1619740178247","","","","","","","","","images/stimuli/spore_stims/complex_07_A_b.gif","","","","{""Q0"":5}","[0]","","",""
"","3439.6949999500066","survey-likert","160","2136813","0.0-54.0","SS1619740178247","","","","","","","","","images/stimuli/spore_stims/simple_14_A_a.gif","","","","{""Q0"":1}","[0]","","",""
"","3500.220000045374","survey-likert","161","2140317","0.0-55.0","SS1619740178247","","","","","","","","","images/stimuli/spore_stims/complex_02_A_a.gif","","","","{""Q0"":4}","[0]","","",""
"","3082.5300000142306","survey-likert","162","2143402","0.0-56.0","SS1619740178247","","","","","","","","","images/stimuli/spore_stims/simple_13_A_a.gif","","","","{""Q0"":0}","[0]","","",""
"","2397.564999992028","survey-likert","163","2145802","0.0-57.0","SS1619740178247","","","","","","","","","images/stimuli/spore_stims/simple_05_A_a.gif","","","","{""Q0"":0}","[0]","","",""
"[{""page_index"":0,""viewing_time"":2559.5249999314547}]","2559.6849999856204","instructions","164","2148364","0.0-58.0","SS1619740178247","instructions","","","","","","","","","","","","","","","",""
"","2985.249999910593","demog-age","165","2151352","0.0-59.0","SS1619740178247","","","","","","","","","","","","","{""age"":""37""}","","","",""
"","1930.739999981597","demog-ethnic-US","166","2153287","0.0-60.0","SS1619740178247","","","","","","","","","","","","","{""ethnicity"":[""Asian""]}","[0]","","",""
"","4685.739999869838","demog-gender-and-education","167","2157980","0.0-61.0","SS1619740178247","","","","","","","","","","","","","{""gender"":""Male"",""education"":""Master's Degree""}","[0,1]","","",""
"","8570.234999991953","survey-text","168","2166554","0.0-62.0","SS1619740178247","feedback","","","","","","","","","","","","{""Q0"":""No issues encountered""}","","","",""
"[{""page_index"":0,""viewing_time"":1169.6350001730025}]","1169.7949999943376","instructions","169","2167727","0.0-63.0","SS1619740178247","instructions","","","","","","","","","","","","","","","",""
