"view_history","rt","trial_type","trial_index","time_elapsed","internal_node_id","subject","stimulus_type","trial_stimulus","key_press","minimum_viewing_duration","trial_looking_time","block_deviant","block_background","exposure_type","stimulus","block_number","block_type","stimulus_displayed","responses","question_order","math_correct_answer","stimulus_left","stimulus_right"
"[{""page_index"":0,""viewing_time"":2283.5200000554323}]","2284.059999976307","instructions","0","2288","0.0-0.0","SS1619740056133","","","","","","","","","","","","","","","","",""
"[{""page_index"":0,""viewing_time"":2878.969999961555},{""page_index"":1,""viewing_time"":7048.455000040121}]","9927.840000018477","instructions","1","14232","0.0-1.0","SS1619740056133","instructions","","","","","","","","","","","","","","","",""
"","6361.5650000283495","sequential-stimulus-presentation-old","2","21110","0.0-2.0","SS1619740056133","","","40","500","6861.5650000283495","null","null","self_paced","","","","","","","","",""
"","4057.7899999916553","sequential-stimulus-presentation-old","3","25678","0.0-3.0","SS1619740056133","","","40","500","4557.789999991655","null","null","self_paced","","","","","","","","",""
"[{""page_index"":0,""viewing_time"":10876.279999967664}]","10876.644999952987","instructions","4","36561","0.0-4.0","SS1619740056133","instructions","","","","","","","","","","","","","","","",""
"","270.79500001855195","sequential-stimulus-presentation-old","5","51851","0.0-5.0","SS1619740056133","","","40","500","770.795000018552","null","null","forced_long","","","","","","","","",""
"","98.89000002294779","sequential-stimulus-presentation-old","6","52459","0.0-6.0","SS1619740056133","","","40","500","598.8900000229478","null","null","forced_long","","","","","","","","",""
"[{""page_index"":0,""viewing_time"":3490.5799999833107}]","3490.9900000784546","instructions","7","55953","0.0-7.0","SS1619740056133","instructions","","","","","","","","","","","","","","","",""
"[{""page_index"":0,""viewing_time"":1611.6400000173599},{""page_index"":1,""viewing_time"":2736.8449999485165},{""page_index"":2,""viewing_time"":1822.3350000334904},{""page_index"":3,""viewing_time"":1448.7450000597164},{""page_index"":4,""viewing_time"":1080.1699999719858}]","8700.07500005886","instructions","8","64655","0.0-8.0","SS1619740056133","instructions","","","","","","","","","","","","","","","",""
"","null","html-keyboard-response","9","65883","0.0-9.0-0.0","SS1619740056133","","","null","","","","","","<p><img src= images/blank.png width =""600"" height = ""600"" style=""position:fixed;top:50%; left:50%; transform: translate(-50%, -50%); border:5px solid black"">","","","","","","","",""
"","3006.4349999884143","sequential-stimulus-presentation-old","10","69400","0.0-9.0-1.0","SS1619740056133","trial","","40","500","3506.4349999884143","images/stimuli/spore_stims/complex_10_A_b.gif","images/stimuli/spore_stims/complex_16_A_a.gif","self_paced","","0","complex_dissimilar","images/stimuli/spore_stims/complex_16_A_a.gif","","","","",""
"","null","html-keyboard-response","11","70461","0.0-9.0-0.1","SS1619740056133","","","null","","","","","","<p><img src= images/blank.png width =""600"" height = ""600"" style=""position:fixed;top:50%; left:50%; transform: translate(-50%, -50%); border:5px solid black"">","","","","","","","",""
"","1501.5099999727681","sequential-stimulus-presentation-old","12","72495","0.0-9.0-1.1","SS1619740056133","trial","","40","500","2001.5099999727681","images/stimuli/spore_stims/complex_10_A_b.gif","images/stimuli/spore_stims/complex_16_A_a.gif","self_paced","","0","complex_dissimilar","images/stimuli/spore_stims/complex_16_A_a.gif","","","","",""
"","null","html-keyboard-response","13","73796","0.0-9.0-0.2","SS1619740056133","","","null","","","","","","<p><img src= images/blank.png width =""600"" height = ""600"" style=""position:fixed;top:50%; left:50%; transform: translate(-50%, -50%); border:5px solid black"">","","","","","","","",""
"","2850.3250000067055","sequential-stimulus-presentation-old","14","77161","0.0-9.0-1.2","SS1619740056133","trial","","40","500","3350.3250000067055","images/stimuli/spore_stims/complex_10_A_b.gif","images/stimuli/spore_stims/complex_16_A_a.gif","self_paced","","0","complex_dissimilar","images/stimuli/spore_stims/complex_16_A_a.gif","","","","",""
"","null","html-keyboard-response","15","78103","0.0-9.0-0.3","SS1619740056133","","","null","","","","","","<p><img src= images/blank.png width =""600"" height = ""600"" style=""position:fixed;top:50%; left:50%; transform: translate(-50%, -50%); border:5px solid black"">","","","","","","","",""
"","675.7999999681488","sequential-stimulus-presentation-old","16","79295","0.0-9.0-1.3","SS1619740056133","trial","","40","500","1175.7999999681488","images/stimuli/spore_stims/complex_10_A_b.gif","images/stimuli/spore_stims/complex_16_A_a.gif","self_paced","","0","complex_dissimilar","images/stimuli/spore_stims/complex_16_A_a.gif","","","","",""
"","null","html-keyboard-response","17","80459","0.0-9.0-0.4","SS1619740056133","","","null","","","","","","<p><img src= images/blank.png width =""600"" height = ""600"" style=""position:fixed;top:50%; left:50%; transform: translate(-50%, -50%); border:5px solid black"">","","","","","","","",""
"","383.0649999435991","sequential-stimulus-presentation-old","18","81350","0.0-9.0-1.4","SS1619740056133","trial","","40","500","883.0649999435991","images/stimuli/spore_stims/complex_10_A_b.gif","images/stimuli/spore_stims/complex_16_A_a.gif","self_paced","","0","complex_dissimilar","images/stimuli/spore_stims/complex_16_A_a.gif","","","","",""
"","4082.219999982044","survey-multi-choice","19","85444","0.0-10.0","SS1619740056133","math_question","","","","","","","","","","","","{""Q0"":""8""}","[0]","8","",""
"","null","html-keyboard-response","20","86361","0.0-11.0-0.0","SS1619740056133","","","null","","","","","","<p><img src= images/blank.png width =""600"" height = ""600"" style=""position:fixed;top:50%; left:50%; transform: translate(-50%, -50%); border:5px solid black"">","","","","","","","",""
"","5693.304999964312","sequential-stimulus-presentation-old","21","92571","0.0-11.0-1.0","SS1619740056133","trial","","40","500","6193.304999964312","images/stimuli/spore_stims/complex_03_A_b.gif","images/stimuli/spore_stims/complex_18_A_a.gif","self_paced","","1","complex_dissimilar","images/stimuli/spore_stims/complex_18_A_a.gif","","","","",""
"","null","html-keyboard-response","22","93623","0.0-11.0-0.1","SS1619740056133","","","null","","","","","","<p><img src= images/blank.png width =""600"" height = ""600"" style=""position:fixed;top:50%; left:50%; transform: translate(-50%, -50%); border:5px solid black"">","","","","","","","",""
"","840.0949999922886","sequential-stimulus-presentation-old","23","94976","0.0-11.0-1.1","SS1619740056133","trial","","40","500","1340.0949999922886","images/stimuli/spore_stims/complex_03_A_b.gif","images/stimuli/spore_stims/complex_18_A_a.gif","self_paced","","1","complex_dissimilar","images/stimuli/spore_stims/complex_03_A_b.gif","","","","",""
"","null","html-keyboard-response","24","96005","0.0-11.0-0.2","SS1619740056133","","","null","","","","","","<p><img src= images/blank.png width =""600"" height = ""600"" style=""position:fixed;top:50%; left:50%; transform: translate(-50%, -50%); border:5px solid black"">","","","","","","","",""
"","1411.6749999811873","sequential-stimulus-presentation-old","25","97920","0.0-11.0-1.2","SS1619740056133","trial","","40","500","1911.6749999811873","images/stimuli/spore_stims/complex_03_A_b.gif","images/stimuli/spore_stims/complex_18_A_a.gif","self_paced","","1","complex_dissimilar","images/stimuli/spore_stims/complex_18_A_a.gif","","","","",""
"","null","html-keyboard-response","26","99041","0.0-11.0-0.3","SS1619740056133","","","null","","","","","","<p><img src= images/blank.png width =""600"" height = ""600"" style=""position:fixed;top:50%; left:50%; transform: translate(-50%, -50%); border:5px solid black"">","","","","","","","",""
"","283.5950000444427","sequential-stimulus-presentation-old","27","99839","0.0-11.0-1.3","SS1619740056133","trial","","40","500","783.5950000444427","images/stimuli/spore_stims/complex_03_A_b.gif","images/stimuli/spore_stims/complex_18_A_a.gif","self_paced","","1","complex_dissimilar","images/stimuli/spore_stims/complex_18_A_a.gif","","","","",""
"","null","html-keyboard-response","28","101125","0.0-11.0-0.4","SS1619740056133","","","null","","","","","","<p><img src= images/blank.png width =""600"" height = ""600"" style=""position:fixed;top:50%; left:50%; transform: translate(-50%, -50%); border:5px solid black"">","","","","","","","",""
"","46.06000008061528","sequential-stimulus-presentation-old","29","101680","0.0-11.0-1.4","SS1619740056133","trial","","40","500","546.0600000806153","images/stimuli/spore_stims/complex_03_A_b.gif","images/stimuli/spore_stims/complex_18_A_a.gif","self_paced","","1","complex_dissimilar","images/stimuli/spore_stims/complex_03_A_b.gif","","","","",""
"","3345.8199999295175","survey-multi-choice","30","105035","0.0-12.0","SS1619740056133","math_question","","","","","","","","","","","","{""Q0"":""8""}","[0]","8","",""
"","null","html-keyboard-response","31","106178","0.0-13.0-0.0","SS1619740056133","","","null","","","","","","<p><img src= images/blank.png width =""600"" height = ""600"" style=""position:fixed;top:50%; left:50%; transform: translate(-50%, -50%); border:5px solid black"">","","","","","","","",""
"","2428.899999940768","sequential-stimulus-presentation-old","32","109121","0.0-13.0-1.0","SS1619740056133","trial","","40","500","2928.899999940768","images/stimuli/spore_stims/simple_13_A_b.gif","images/stimuli/spore_stims/simple_04_A_a.gif","forced_short","","2","simple_dissimilar","images/stimuli/spore_stims/simple_04_A_a.gif","","","","",""
"","null","html-keyboard-response","33","110072","0.0-13.0-0.1","SS1619740056133","","","null","","","","","","<p><img src= images/blank.png width =""600"" height = ""600"" style=""position:fixed;top:50%; left:50%; transform: translate(-50%, -50%); border:5px solid black"">","","","","","","","",""
"","134.9649999756366","sequential-stimulus-presentation-old","34","110721","0.0-13.0-1.1","SS1619740056133","trial","","40","500","634.9649999756366","images/stimuli/spore_stims/simple_13_A_b.gif","images/stimuli/spore_stims/simple_04_A_a.gif","forced_short","","2","simple_dissimilar","images/stimuli/spore_stims/simple_04_A_a.gif","","","","",""
"","null","html-keyboard-response","35","111570","0.0-13.0-0.2","SS1619740056133","","","null","","","","","","<p><img src= images/blank.png width =""600"" height = ""600"" style=""position:fixed;top:50%; left:50%; transform: translate(-50%, -50%); border:5px solid black"">","","","","","","","",""
"","3412.0099999709055","sequential-stimulus-presentation-old","36","115499","0.0-13.0-1.2","SS1619740056133","trial","","40","500","3912.0099999709055","images/stimuli/spore_stims/simple_13_A_b.gif","images/stimuli/spore_stims/simple_04_A_a.gif","forced_short","","2","simple_dissimilar","images/stimuli/spore_stims/simple_04_A_a.gif","","","","",""
"","null","html-keyboard-response","37","116336","0.0-13.0-0.3","SS1619740056133","","","null","","","","","","<p><img src= images/blank.png width =""600"" height = ""600"" style=""position:fixed;top:50%; left:50%; transform: translate(-50%, -50%); border:5px solid black"">","","","","","","","",""
"","1703.9449999574572","sequential-stimulus-presentation-old","38","118555","0.0-13.0-1.3","SS1619740056133","trial","","40","500","2203.944999957457","images/stimuli/spore_stims/simple_13_A_b.gif","images/stimuli/spore_stims/simple_04_A_a.gif","forced_short","","2","simple_dissimilar","images/stimuli/spore_stims/simple_04_A_a.gif","","","","",""
"","3699.125000042841","survey-multi-choice","39","122262","0.0-14.0","SS1619740056133","math_question","","","","","","","","","","","","{""Q0"":""5""}","[0]","5","",""
"","null","html-keyboard-response","40","123494","0.0-15.0-0.0","SS1619740056133","","","null","","","","","","<p><img src= images/blank.png width =""600"" height = ""600"" style=""position:fixed;top:50%; left:50%; transform: translate(-50%, -50%); border:5px solid black"">","","","","","","","",""
"","3207.18999998644","sequential-stimulus-presentation-old","41","127220","0.0-15.0-1.0","SS1619740056133","trial","","40","500","3707.18999998644","images/stimuli/spore_stims/complex_17_A_b.gif","images/stimuli/spore_stims/complex_09_A_a.gif","forced_short","","3","complex_dissimilar","images/stimuli/spore_stims/complex_09_A_a.gif","","","","",""
"","null","html-keyboard-response","42","128280","0.0-15.0-0.1","SS1619740056133","","","null","","","","","","<p><img src= images/blank.png width =""600"" height = ""600"" style=""position:fixed;top:50%; left:50%; transform: translate(-50%, -50%); border:5px solid black"">","","","","","","","",""
"","12294.65000005439","sequential-stimulus-presentation-old","43","141080","0.0-15.0-1.1","SS1619740056133","trial","","40","500","12794.65000005439","images/stimuli/spore_stims/complex_17_A_b.gif","images/stimuli/spore_stims/complex_09_A_a.gif","forced_short","","3","complex_dissimilar","images/stimuli/spore_stims/complex_17_A_b.gif","","","","",""
"","null","html-keyboard-response","44","142103","0.0-15.0-0.2","SS1619740056133","","","null","","","","","","<p><img src= images/blank.png width =""600"" height = ""600"" style=""position:fixed;top:50%; left:50%; transform: translate(-50%, -50%); border:5px solid black"">","","","","","","","",""
"","307.97500000335276","sequential-stimulus-presentation-old","45","142921","0.0-15.0-1.2","SS1619740056133","trial","","40","500","807.9750000033528","images/stimuli/spore_stims/complex_17_A_b.gif","images/stimuli/spore_stims/complex_09_A_a.gif","forced_short","","3","complex_dissimilar","images/stimuli/spore_stims/complex_17_A_b.gif","","","","",""
"","null","html-keyboard-response","46","143852","0.0-15.0-0.3","SS1619740056133","","","null","","","","","","<p><img src= images/blank.png width =""600"" height = ""600"" style=""position:fixed;top:50%; left:50%; transform: translate(-50%, -50%); border:5px solid black"">","","","","","","","",""
"","395.16999991610646","sequential-stimulus-presentation-old","47","144765","0.0-15.0-1.3","SS1619740056133","trial","","40","500","895.1699999161065","images/stimuli/spore_stims/complex_17_A_b.gif","images/stimuli/spore_stims/complex_09_A_a.gif","forced_short","","3","complex_dissimilar","images/stimuli/spore_stims/complex_09_A_a.gif","","","","",""
"","2463.279999908991","survey-multi-choice","48","147236","0.0-16.0","SS1619740056133","math_question","","","","","","","","","","","","{""Q0"":""11""}","[0]","11","",""
"","null","html-keyboard-response","49","148167","0.0-17.0-0.0","SS1619740056133","","","null","","","","","","<p><img src= images/blank.png width =""600"" height = ""600"" style=""position:fixed;top:50%; left:50%; transform: translate(-50%, -50%); border:5px solid black"">","","","","","","","",""
"","3119.0750000532717","sequential-stimulus-presentation-old","50","166304","0.0-17.0-1.0","SS1619740056133","trial","","40","500","3619.0750000532717","images/stimuli/spore_stims/complex_11_A_a.gif","images/stimuli/spore_stims/complex_07_A_b.gif","forced_long","","4","complex_dissimilar","images/stimuli/spore_stims/complex_07_A_b.gif","","","","",""
"","null","html-keyboard-response","51","167605","0.0-17.0-0.1","SS1619740056133","","","null","","","","","","<p><img src= images/blank.png width =""600"" height = ""600"" style=""position:fixed;top:50%; left:50%; transform: translate(-50%, -50%); border:5px solid black"">","","","","","","","",""
"","2116.4349999744445","sequential-stimulus-presentation-old","52","170240","0.0-17.0-1.1","SS1619740056133","trial","","40","500","2616.4349999744445","images/stimuli/spore_stims/complex_11_A_a.gif","images/stimuli/spore_stims/complex_07_A_b.gif","forced_long","","4","complex_dissimilar","images/stimuli/spore_stims/complex_07_A_b.gif","","","","",""
"","null","html-keyboard-response","53","171206","0.0-17.0-0.2","SS1619740056133","","","null","","","","","","<p><img src= images/blank.png width =""600"" height = ""600"" style=""position:fixed;top:50%; left:50%; transform: translate(-50%, -50%); border:5px solid black"">","","","","","","","",""
"","459.2549999943003","sequential-stimulus-presentation-old","54","172185","0.0-17.0-1.2","SS1619740056133","trial","","40","500","959.2549999943003","images/stimuli/spore_stims/complex_11_A_a.gif","images/stimuli/spore_stims/complex_07_A_b.gif","forced_long","","4","complex_dissimilar","images/stimuli/spore_stims/complex_07_A_b.gif","","","","",""
"","null","html-keyboard-response","55","173458","0.0-17.0-0.3","SS1619740056133","","","null","","","","","","<p><img src= images/blank.png width =""600"" height = ""600"" style=""position:fixed;top:50%; left:50%; transform: translate(-50%, -50%); border:5px solid black"">","","","","","","","",""
"","603.1799999764189","sequential-stimulus-presentation-old","56","174570","0.0-17.0-1.3","SS1619740056133","trial","","40","500","1103.179999976419","images/stimuli/spore_stims/complex_11_A_a.gif","images/stimuli/spore_stims/complex_07_A_b.gif","forced_long","","4","complex_dissimilar","images/stimuli/spore_stims/complex_11_A_a.gif","","","","",""
"","null","html-keyboard-response","57","175396","0.0-17.0-0.4","SS1619740056133","","","null","","","","","","<p><img src= images/blank.png width =""600"" height = ""600"" style=""position:fixed;top:50%; left:50%; transform: translate(-50%, -50%); border:5px solid black"">","","","","","","","",""
"","340.62999999150634","sequential-stimulus-presentation-old","58","176249","0.0-17.0-1.4","SS1619740056133","trial","","40","500","840.6299999915063","images/stimuli/spore_stims/complex_11_A_a.gif","images/stimuli/spore_stims/complex_07_A_b.gif","forced_long","","4","complex_dissimilar","images/stimuli/spore_stims/complex_07_A_b.gif","","","","",""
"","null","html-keyboard-response","59","177506","0.0-17.0-0.5","SS1619740056133","","","null","","","","","","<p><img src= images/blank.png width =""600"" height = ""600"" style=""position:fixed;top:50%; left:50%; transform: translate(-50%, -50%); border:5px solid black"">","","","","","","","",""
"","19.24000005237758","sequential-stimulus-presentation-old","60","178042","0.0-17.0-1.5","SS1619740056133","trial","","40","500","519.2400000523776","images/stimuli/spore_stims/complex_11_A_a.gif","images/stimuli/spore_stims/complex_07_A_b.gif","forced_long","","4","complex_dissimilar","images/stimuli/spore_stims/complex_07_A_b.gif","","","","",""
"","3107.635000022128","survey-multi-choice","61","181155","0.0-18.0","SS1619740056133","math_question","","","","","","","","","","","","{""Q0"":""7""}","[0]","7","",""
"","null","html-keyboard-response","62","182168","0.0-19.0-0.0","SS1619740056133","","","null","","","","","","<p><img src= images/blank.png width =""600"" height = ""600"" style=""position:fixed;top:50%; left:50%; transform: translate(-50%, -50%); border:5px solid black"">","","","","","","","",""
"","496.87999999150634","sequential-stimulus-presentation-old","63","197671","0.0-19.0-1.0","SS1619740056133","trial","","40","500","996.8799999915063","images/stimuli/spore_stims/simple_12_A_b.gif","images/stimuli/spore_stims/simple_13_A_a.gif","forced_long","","5","simple_dissimilar","images/stimuli/spore_stims/simple_13_A_a.gif","","","","",""
"","null","html-keyboard-response","64","198616","0.0-19.0-0.1","SS1619740056133","","","null","","","","","","<p><img src= images/blank.png width =""600"" height = ""600"" style=""position:fixed;top:50%; left:50%; transform: translate(-50%, -50%); border:5px solid black"">","","","","","","","",""
"","170.8199999993667","sequential-stimulus-presentation-old","65","199301","0.0-19.0-1.1","SS1619740056133","trial","","40","500","670.8199999993667","images/stimuli/spore_stims/simple_12_A_b.gif","images/stimuli/spore_stims/simple_13_A_a.gif","forced_long","","5","simple_dissimilar","images/stimuli/spore_stims/simple_12_A_b.gif","","","","",""
"","null","html-keyboard-response","66","200391","0.0-19.0-0.2","SS1619740056133","","","null","","","","","","<p><img src= images/blank.png width =""600"" height = ""600"" style=""position:fixed;top:50%; left:50%; transform: translate(-50%, -50%); border:5px solid black"">","","","","","","","",""
"","496.92000006325543","sequential-stimulus-presentation-old","67","201399","0.0-19.0-1.2","SS1619740056133","trial","","40","500","996.9200000632554","images/stimuli/spore_stims/simple_12_A_b.gif","images/stimuli/spore_stims/simple_13_A_a.gif","forced_long","","5","simple_dissimilar","images/stimuli/spore_stims/simple_13_A_a.gif","","","","",""
"","null","html-keyboard-response","68","202308","0.0-19.0-0.3","SS1619740056133","","","null","","","","","","<p><img src= images/blank.png width =""600"" height = ""600"" style=""position:fixed;top:50%; left:50%; transform: translate(-50%, -50%); border:5px solid black"">","","","","","","","",""
"","1017.9249999346212","sequential-stimulus-presentation-old","69","203849","0.0-19.0-1.3","SS1619740056133","trial","","40","500","1517.9249999346212","images/stimuli/spore_stims/simple_12_A_b.gif","images/stimuli/spore_stims/simple_13_A_a.gif","forced_long","","5","simple_dissimilar","images/stimuli/spore_stims/simple_12_A_b.gif","","","","",""
"","3365.04999990575","survey-multi-choice","70","207222","0.0-20.0","SS1619740056133","math_question","","","","","","","","","","","","{""Q0"":""14""}","[0]","14","",""
"","null","html-keyboard-response","71","208439","0.0-21.0-0.0","SS1619740056133","","","null","","","","","","<p><img src= images/blank.png width =""600"" height = ""600"" style=""position:fixed;top:50%; left:50%; transform: translate(-50%, -50%); border:5px solid black"">","","","","","","","",""
"","840.7349999761209","sequential-stimulus-presentation-old","72","209787","0.0-21.0-1.0","SS1619740056133","trial","","40","500","1340.734999976121","images/stimuli/spore_stims/simple_04_A_b.gif","images/stimuli/spore_stims/simple_17_A_a.gif","forced_short","","6","simple_dissimilar","images/stimuli/spore_stims/simple_17_A_a.gif","","","","",""
"","null","html-keyboard-response","73","210623","0.0-21.0-0.1","SS1619740056133","","","null","","","","","","<p><img src= images/blank.png width =""600"" height = ""600"" style=""position:fixed;top:50%; left:50%; transform: translate(-50%, -50%); border:5px solid black"">","","","","","","","",""
"","12.359999935142696","sequential-stimulus-presentation-old","74","211148","0.0-21.0-1.1","SS1619740056133","trial","","40","500","512.3599999351427","images/stimuli/spore_stims/simple_04_A_b.gif","images/stimuli/spore_stims/simple_17_A_a.gif","forced_short","","6","simple_dissimilar","images/stimuli/spore_stims/simple_17_A_a.gif","","","","",""
"","null","html-keyboard-response","75","212296","0.0-21.0-0.2","SS1619740056133","","","null","","","","","","<p><img src= images/blank.png width =""600"" height = ""600"" style=""position:fixed;top:50%; left:50%; transform: translate(-50%, -50%); border:5px solid black"">","","","","","","","",""
"","234.39499991945922","sequential-stimulus-presentation-old","76","213045","0.0-21.0-1.2","SS1619740056133","trial","","40","500","734.3949999194592","images/stimuli/spore_stims/simple_04_A_b.gif","images/stimuli/spore_stims/simple_17_A_a.gif","forced_short","","6","simple_dissimilar","images/stimuli/spore_stims/simple_04_A_b.gif","","","","",""
"","null","html-keyboard-response","77","214219","0.0-21.0-0.3","SS1619740056133","","","null","","","","","","<p><img src= images/blank.png width =""600"" height = ""600"" style=""position:fixed;top:50%; left:50%; transform: translate(-50%, -50%); border:5px solid black"">","","","","","","","",""
"","451.16999989841133","sequential-stimulus-presentation-old","78","215200","0.0-21.0-1.3","SS1619740056133","trial","","40","500","951.1699998984113","images/stimuli/spore_stims/simple_04_A_b.gif","images/stimuli/spore_stims/simple_17_A_a.gif","forced_short","","6","simple_dissimilar","images/stimuli/spore_stims/simple_17_A_a.gif","","","","",""
"","null","html-keyboard-response","79","216313","0.0-21.0-0.4","SS1619740056133","","","null","","","","","","<p><img src= images/blank.png width =""600"" height = ""600"" style=""position:fixed;top:50%; left:50%; transform: translate(-50%, -50%); border:5px solid black"">","","","","","","","",""
"","383.99000000208616","sequential-stimulus-presentation-old","80","217206","0.0-21.0-1.4","SS1619740056133","trial","","40","500","883.9900000020862","images/stimuli/spore_stims/simple_04_A_b.gif","images/stimuli/spore_stims/simple_17_A_a.gif","forced_short","","6","simple_dissimilar","images/stimuli/spore_stims/simple_17_A_a.gif","","","","",""
"","3292.144999955781","survey-multi-choice","81","220503","0.0-22.0","SS1619740056133","math_question","","","","","","","","","","","","{""Q0"":""16""}","[0]","16","",""
"","null","html-keyboard-response","82","221623","0.0-23.0-0.0","SS1619740056133","","","null","","","","","","<p><img src= images/blank.png width =""600"" height = ""600"" style=""position:fixed;top:50%; left:50%; transform: translate(-50%, -50%); border:5px solid black"">","","","","","","","",""
"","131.10999995842576","sequential-stimulus-presentation-old","83","222275","0.0-23.0-1.0","SS1619740056133","trial","","40","500","631.1099999584258","images/stimuli/spore_stims/simple_14_A_b.gif","images/stimuli/spore_stims/simple_18_A_a.gif","self_paced","","7","simple_dissimilar","images/stimuli/spore_stims/simple_18_A_a.gif","","","","",""
"","null","html-keyboard-response","84","223424","0.0-23.0-0.1","SS1619740056133","","","null","","","","","","<p><img src= images/blank.png width =""600"" height = ""600"" style=""position:fixed;top:50%; left:50%; transform: translate(-50%, -50%); border:5px solid black"">","","","","","","","",""
"","530.9750000014901","sequential-stimulus-presentation-old","85","224469","0.0-23.0-1.1","SS1619740056133","trial","","40","500","1030.9750000014901","images/stimuli/spore_stims/simple_14_A_b.gif","images/stimuli/spore_stims/simple_18_A_a.gif","self_paced","","7","simple_dissimilar","images/stimuli/spore_stims/simple_18_A_a.gif","","","","",""
"","null","html-keyboard-response","86","225515","0.0-23.0-0.2","SS1619740056133","","","null","","","","","","<p><img src= images/blank.png width =""600"" height = ""600"" style=""position:fixed;top:50%; left:50%; transform: translate(-50%, -50%); border:5px solid black"">","","","","","","","",""
"","393.3700000634417","sequential-stimulus-presentation-old","87","226429","0.0-23.0-1.2","SS1619740056133","trial","","40","500","893.3700000634417","images/stimuli/spore_stims/simple_14_A_b.gif","images/stimuli/spore_stims/simple_18_A_a.gif","self_paced","","7","simple_dissimilar","images/stimuli/spore_stims/simple_18_A_a.gif","","","","",""
"","null","html-keyboard-response","88","227659","0.0-23.0-0.3","SS1619740056133","","","null","","","","","","<p><img src= images/blank.png width =""600"" height = ""600"" style=""position:fixed;top:50%; left:50%; transform: translate(-50%, -50%); border:5px solid black"">","","","","","","","",""
"","2791.819999925792","sequential-stimulus-presentation-old","89","230965","0.0-23.0-1.3","SS1619740056133","trial","","40","500","3291.819999925792","images/stimuli/spore_stims/simple_14_A_b.gif","images/stimuli/spore_stims/simple_18_A_a.gif","self_paced","","7","simple_dissimilar","images/stimuli/spore_stims/simple_18_A_a.gif","","","","",""
"","null","html-keyboard-response","90","232043","0.0-23.0-0.4","SS1619740056133","","","null","","","","","","<p><img src= images/blank.png width =""600"" height = ""600"" style=""position:fixed;top:50%; left:50%; transform: translate(-50%, -50%); border:5px solid black"">","","","","","","","",""
"","296.6650000307709","sequential-stimulus-presentation-old","91","232854","0.0-23.0-1.4","SS1619740056133","trial","","40","500","796.6650000307709","images/stimuli/spore_stims/simple_14_A_b.gif","images/stimuli/spore_stims/simple_18_A_a.gif","self_paced","","7","simple_dissimilar","images/stimuli/spore_stims/simple_18_A_a.gif","","","","",""
"","null","html-keyboard-response","92","233847","0.0-23.0-0.5","SS1619740056133","","","null","","","","","","<p><img src= images/blank.png width =""600"" height = ""600"" style=""position:fixed;top:50%; left:50%; transform: translate(-50%, -50%); border:5px solid black"">","","","","","","","",""
"","917.8300000494346","sequential-stimulus-presentation-old","93","235281","0.0-23.0-1.5","SS1619740056133","trial","","40","500","1417.8300000494346","images/stimuli/spore_stims/simple_14_A_b.gif","images/stimuli/spore_stims/simple_18_A_a.gif","self_paced","","7","simple_dissimilar","images/stimuli/spore_stims/simple_18_A_a.gif","","","","",""
"","4924.639999982901","survey-multi-choice","94","240217","0.0-24.0","SS1619740056133","math_question","","","","","","","","","","","","{""Q0"":""13""}","[0]","13","",""
"","null","html-keyboard-response","95","241393","0.0-25.0-0.0","SS1619740056133","","","null","","","","","","<p><img src= images/blank.png width =""600"" height = ""600"" style=""position:fixed;top:50%; left:50%; transform: translate(-50%, -50%); border:5px solid black"">","","","","","","","",""
"","9897.245000000112","sequential-stimulus-presentation-old","96","266300","0.0-25.0-1.0","SS1619740056133","trial","","40","500","10397.245000000112","images/stimuli/spore_stims/complex_20_A_b.gif","images/stimuli/spore_stims/complex_01_A_a.gif","forced_long","","8","complex_dissimilar","images/stimuli/spore_stims/complex_01_A_a.gif","","","","",""
"","null","html-keyboard-response","97","267348","0.0-25.0-0.1","SS1619740056133","","","null","","","","","","<p><img src= images/blank.png width =""600"" height = ""600"" style=""position:fixed;top:50%; left:50%; transform: translate(-50%, -50%); border:5px solid black"">","","","","","","","",""
"","366.8199999956414","sequential-stimulus-presentation-old","98","268233","0.0-25.0-1.1","SS1619740056133","trial","","40","500","866.8199999956414","images/stimuli/spore_stims/complex_20_A_b.gif","images/stimuli/spore_stims/complex_01_A_a.gif","forced_long","","8","complex_dissimilar","images/stimuli/spore_stims/complex_01_A_a.gif","","","","",""
"","null","html-keyboard-response","99","269110","0.0-25.0-0.2","SS1619740056133","","","null","","","","","","<p><img src= images/blank.png width =""600"" height = ""600"" style=""position:fixed;top:50%; left:50%; transform: translate(-50%, -50%); border:5px solid black"">","","","","","","","",""
"","136.11500000115484","sequential-stimulus-presentation-old","100","269757","0.0-25.0-1.2","SS1619740056133","trial","","40","500","636.1150000011548","images/stimuli/spore_stims/complex_20_A_b.gif","images/stimuli/spore_stims/complex_01_A_a.gif","forced_long","","8","complex_dissimilar","images/stimuli/spore_stims/complex_01_A_a.gif","","","","",""
"","null","html-keyboard-response","101","270938","0.0-25.0-0.3","SS1619740056133","","","null","","","","","","<p><img src= images/blank.png width =""600"" height = ""600"" style=""position:fixed;top:50%; left:50%; transform: translate(-50%, -50%); border:5px solid black"">","","","","","","","",""
"","246.87000003177673","sequential-stimulus-presentation-old","102","271693","0.0-25.0-1.3","SS1619740056133","trial","","40","500","746.8700000317767","images/stimuli/spore_stims/complex_20_A_b.gif","images/stimuli/spore_stims/complex_01_A_a.gif","forced_long","","8","complex_dissimilar","images/stimuli/spore_stims/complex_01_A_a.gif","","","","",""
"","null","html-keyboard-response","103","272708","0.0-25.0-0.4","SS1619740056133","","","null","","","","","","<p><img src= images/blank.png width =""600"" height = ""600"" style=""position:fixed;top:50%; left:50%; transform: translate(-50%, -50%); border:5px solid black"">","","","","","","","",""
"","2600.635000038892","sequential-stimulus-presentation-old","104","275820","0.0-25.0-1.4","SS1619740056133","trial","","40","500","3100.635000038892","images/stimuli/spore_stims/complex_20_A_b.gif","images/stimuli/spore_stims/complex_01_A_a.gif","forced_long","","8","complex_dissimilar","images/stimuli/spore_stims/complex_01_A_a.gif","","","","",""
"","3380.585000035353","survey-multi-choice","105","279209","0.0-26.0","SS1619740056133","math_question","","","","","","","","","","","","{""Q0"":""18""}","[0]","18","",""
"","null","html-keyboard-response","106","280213","0.0-27.0-0.0","SS1619740056133","","","null","","","","","","<p><img src= images/blank.png width =""600"" height = ""600"" style=""position:fixed;top:50%; left:50%; transform: translate(-50%, -50%); border:5px solid black"">","","","","","","","",""
"","8532.370000029914","sequential-stimulus-presentation-old","107","303758","0.0-27.0-1.0","SS1619740056133","trial","","40","500","9032.370000029914","images/stimuli/spore_stims/simple_05_A_a.gif","images/stimuli/spore_stims/simple_11_A_b.gif","forced_long","","9","simple_dissimilar","images/stimuli/spore_stims/simple_11_A_b.gif","","","","",""
"","null","html-keyboard-response","108","304804","0.0-27.0-0.1","SS1619740056133","","","null","","","","","","<p><img src= images/blank.png width =""600"" height = ""600"" style=""position:fixed;top:50%; left:50%; transform: translate(-50%, -50%); border:5px solid black"">","","","","","","","",""
"","3284.1599999228492","sequential-stimulus-presentation-old","109","308616","0.0-27.0-1.1","SS1619740056133","trial","","40","500","3784.1599999228492","images/stimuli/spore_stims/simple_05_A_a.gif","images/stimuli/spore_stims/simple_11_A_b.gif","forced_long","","9","simple_dissimilar","images/stimuli/spore_stims/simple_11_A_b.gif","","","","",""
"","null","html-keyboard-response","110","309615","0.0-27.0-0.2","SS1619740056133","","","null","","","","","","<p><img src= images/blank.png width =""600"" height = ""600"" style=""position:fixed;top:50%; left:50%; transform: translate(-50%, -50%); border:5px solid black"">","","","","","","","",""
"","455.93499997630715","sequential-stimulus-presentation-old","111","310586","0.0-27.0-1.2","SS1619740056133","trial","","40","500","955.9349999763072","images/stimuli/spore_stims/simple_05_A_a.gif","images/stimuli/spore_stims/simple_11_A_b.gif","forced_long","","9","simple_dissimilar","images/stimuli/spore_stims/simple_11_A_b.gif","","","","",""
"","null","html-keyboard-response","112","311523","0.0-27.0-0.3","SS1619740056133","","","null","","","","","","<p><img src= images/blank.png width =""600"" height = ""600"" style=""position:fixed;top:50%; left:50%; transform: translate(-50%, -50%); border:5px solid black"">","","","","","","","",""
"","140.19499998539686","sequential-stimulus-presentation-old","113","312182","0.0-27.0-1.3","SS1619740056133","trial","","40","500","640.1949999853969","images/stimuli/spore_stims/simple_05_A_a.gif","images/stimuli/spore_stims/simple_11_A_b.gif","forced_long","","9","simple_dissimilar","images/stimuli/spore_stims/simple_11_A_b.gif","","","","",""
"","null","html-keyboard-response","114","313405","0.0-27.0-0.4","SS1619740056133","","","null","","","","","","<p><img src= images/blank.png width =""600"" height = ""600"" style=""position:fixed;top:50%; left:50%; transform: translate(-50%, -50%); border:5px solid black"">","","","","","","","",""
"","75.89500001631677","sequential-stimulus-presentation-old","115","313994","0.0-27.0-1.4","SS1619740056133","trial","","40","500","575.8950000163168","images/stimuli/spore_stims/simple_05_A_a.gif","images/stimuli/spore_stims/simple_11_A_b.gif","forced_long","","9","simple_dissimilar","images/stimuli/spore_stims/simple_11_A_b.gif","","","","",""
"","3373.660000041127","survey-multi-choice","116","317380","0.0-28.0","SS1619740056133","math_question","","","","","","","","","","","","{""Q0"":""7""}","[0]","7","",""
"","null","html-keyboard-response","117","318599","0.0-29.0-0.0","SS1619740056133","","","null","","","","","","<p><img src= images/blank.png width =""600"" height = ""600"" style=""position:fixed;top:50%; left:50%; transform: translate(-50%, -50%); border:5px solid black"">","","","","","","","",""
"","243.52999997790903","sequential-stimulus-presentation-old","118","319356","0.0-29.0-1.0","SS1619740056133","trial","","40","500","743.529999977909","images/stimuli/spore_stims/simple_02_A_b.gif","images/stimuli/spore_stims/simple_01_A_a.gif","self_paced","","10","simple_dissimilar","images/stimuli/spore_stims/simple_01_A_a.gif","","","","",""
"","null","html-keyboard-response","119","320229","0.0-29.0-0.1","SS1619740056133","","","null","","","","","","<p><img src= images/blank.png width =""600"" height = ""600"" style=""position:fixed;top:50%; left:50%; transform: translate(-50%, -50%); border:5px solid black"">","","","","","","","",""
"","1039.5600000629202","sequential-stimulus-presentation-old","120","321792","0.0-29.0-1.1","SS1619740056133","trial","","40","500","1539.5600000629202","images/stimuli/spore_stims/simple_02_A_b.gif","images/stimuli/spore_stims/simple_01_A_a.gif","self_paced","","10","simple_dissimilar","images/stimuli/spore_stims/simple_01_A_a.gif","","","","",""
"","null","html-keyboard-response","121","322773","0.0-29.0-0.2","SS1619740056133","","","null","","","","","","<p><img src= images/blank.png width =""600"" height = ""600"" style=""position:fixed;top:50%; left:50%; transform: translate(-50%, -50%); border:5px solid black"">","","","","","","","",""
"","10.684999986551702","sequential-stimulus-presentation-old","122","323296","0.0-29.0-1.2","SS1619740056133","trial","","40","500","510.6849999865517","images/stimuli/spore_stims/simple_02_A_b.gif","images/stimuli/spore_stims/simple_01_A_a.gif","self_paced","","10","simple_dissimilar","images/stimuli/spore_stims/simple_01_A_a.gif","","","","",""
"","null","html-keyboard-response","123","324454","0.0-29.0-0.3","SS1619740056133","","","null","","","","","","<p><img src= images/blank.png width =""600"" height = ""600"" style=""position:fixed;top:50%; left:50%; transform: translate(-50%, -50%); border:5px solid black"">","","","","","","","",""
"","928.0400000279769","sequential-stimulus-presentation-old","124","325903","0.0-29.0-1.3","SS1619740056133","trial","","40","500","1428.040000027977","images/stimuli/spore_stims/simple_02_A_b.gif","images/stimuli/spore_stims/simple_01_A_a.gif","self_paced","","10","simple_dissimilar","images/stimuli/spore_stims/simple_01_A_a.gif","","","","",""
"","null","html-keyboard-response","125","326887","0.0-29.0-0.4","SS1619740056133","","","null","","","","","","<p><img src= images/blank.png width =""600"" height = ""600"" style=""position:fixed;top:50%; left:50%; transform: translate(-50%, -50%); border:5px solid black"">","","","","","","","",""
"","630.7249999372289","sequential-stimulus-presentation-old","126","328055","0.0-29.0-1.4","SS1619740056133","trial","","40","500","1130.7249999372289","images/stimuli/spore_stims/simple_02_A_b.gif","images/stimuli/spore_stims/simple_01_A_a.gif","self_paced","","10","simple_dissimilar","images/stimuli/spore_stims/simple_01_A_a.gif","","","","",""
"","3615.405000047758","survey-multi-choice","127","331679","0.0-30.0","SS1619740056133","math_question","","","","","","","","","","","","{""Q0"":""14""}","[0]","14","",""
"","null","html-keyboard-response","128","332544","0.0-31.0-0.0","SS1619740056133","","","null","","","","","","<p><img src= images/blank.png width =""600"" height = ""600"" style=""position:fixed;top:50%; left:50%; transform: translate(-50%, -50%); border:5px solid black"">","","","","","","","",""
"","1054.8749999143183","sequential-stimulus-presentation-old","129","334113","0.0-31.0-1.0","SS1619740056133","trial","","40","500","1554.8749999143183","images/stimuli/spore_stims/complex_02_A_a.gif","images/stimuli/spore_stims/complex_18_A_b.gif","forced_short","","11","complex_dissimilar","images/stimuli/spore_stims/complex_18_A_b.gif","","","","",""
"","null","html-keyboard-response","130","335032","0.0-31.0-0.1","SS1619740056133","","","null","","","","","","<p><img src= images/blank.png width =""600"" height = ""600"" style=""position:fixed;top:50%; left:50%; transform: translate(-50%, -50%); border:5px solid black"">","","","","","","","",""
"","192.90499994531274","sequential-stimulus-presentation-old","131","335739","0.0-31.0-1.1","SS1619740056133","trial","","40","500","692.9049999453127","images/stimuli/spore_stims/complex_02_A_a.gif","images/stimuli/spore_stims/complex_18_A_b.gif","forced_short","","11","complex_dissimilar","images/stimuli/spore_stims/complex_18_A_b.gif","","","","",""
"","null","html-keyboard-response","132","336957","0.0-31.0-0.2","SS1619740056133","","","null","","","","","","<p><img src= images/blank.png width =""600"" height = ""600"" style=""position:fixed;top:50%; left:50%; transform: translate(-50%, -50%); border:5px solid black"">","","","","","","","",""
"","185.42500003241003","sequential-stimulus-presentation-old","133","337658","0.0-31.0-1.2","SS1619740056133","trial","","40","500","685.42500003241","images/stimuli/spore_stims/complex_02_A_a.gif","images/stimuli/spore_stims/complex_18_A_b.gif","forced_short","","11","complex_dissimilar","images/stimuli/spore_stims/complex_18_A_b.gif","","","","",""
"","null","html-keyboard-response","134","338667","0.0-31.0-0.3","SS1619740056133","","","null","","","","","","<p><img src= images/blank.png width =""600"" height = ""600"" style=""position:fixed;top:50%; left:50%; transform: translate(-50%, -50%); border:5px solid black"">","","","","","","","",""
"","2901.564999949187","sequential-stimulus-presentation-old","135","342076","0.0-31.0-1.3","SS1619740056133","trial","","40","500","3401.564999949187","images/stimuli/spore_stims/complex_02_A_a.gif","images/stimuli/spore_stims/complex_18_A_b.gif","forced_short","","11","complex_dissimilar","images/stimuli/spore_stims/complex_02_A_a.gif","","","","",""
"","null","html-keyboard-response","136","343186","0.0-31.0-0.4","SS1619740056133","","","null","","","","","","<p><img src= images/blank.png width =""600"" height = ""600"" style=""position:fixed;top:50%; left:50%; transform: translate(-50%, -50%); border:5px solid black"">","","","","","","","",""
"","259.77500004228204","sequential-stimulus-presentation-old","137","343969","0.0-31.0-1.4","SS1619740056133","trial","","40","500","759.775000042282","images/stimuli/spore_stims/complex_02_A_a.gif","images/stimuli/spore_stims/complex_18_A_b.gif","forced_short","","11","complex_dissimilar","images/stimuli/spore_stims/complex_18_A_b.gif","","","","",""
"[{""page_index"":0,""viewing_time"":4368.5099999420345}]","4368.879999965429","instructions","138","348346","0.0-32.0","SS1619740056133","instructions","","","","","","","","","","","","","","","",""
"","4494.67500008177","survey-likert","139","352847","0.0-33.0","SS1619740056133","similarity_question","","","","","","","","","","","","{""Q0"":2}","[0]","","images/stimuli/spore_stims/simple_13_A_a.gif","images/stimuli/spore_stims/simple_12_A_b.gif"
"","2629.619999905117","survey-likert","140","355482","0.0-34.0","SS1619740056133","similarity_question","","","","","","","","","","","","{""Q0"":2}","[0]","","images/stimuli/spore_stims/complex_09_A_a.gif","images/stimuli/spore_stims/complex_17_A_b.gif"
"","8060.664999997243","survey-likert","141","363550","0.0-35.0","SS1619740056133","similarity_question","","","","","","","","","","","","{""Q0"":1}","[0]","","images/stimuli/spore_stims/complex_20_A_b.gif","images/stimuli/spore_stims/complex_01_A_a.gif"
"","2578.129999921657","survey-likert","142","366134","0.0-36.0","SS1619740056133","similarity_question","","","","","","","","","","","","{""Q0"":1}","[0]","","images/stimuli/spore_stims/complex_16_A_a.gif","images/stimuli/spore_stims/complex_10_A_b.gif"
"","4588.274999987334","survey-likert","143","370729","0.0-37.0","SS1619740056133","similarity_question","","","","","","","","","","","","{""Q0"":0}","[0]","","images/stimuli/spore_stims/complex_18_A_b.gif","images/stimuli/spore_stims/complex_02_A_a.gif"
"","5040.334999910556","survey-likert","144","375776","0.0-38.0","SS1619740056133","similarity_question","","","","","","","","","","","","{""Q0"":5}","[0]","","images/stimuli/spore_stims/simple_13_A_b.gif","images/stimuli/spore_stims/simple_04_A_a.gif"
"","2762.3950000852346","survey-likert","145","378544","0.0-39.0","SS1619740056133","similarity_question","","","","","","","","","","","","{""Q0"":3}","[0]","","images/stimuli/spore_stims/complex_03_A_b.gif","images/stimuli/spore_stims/complex_18_A_a.gif"
"","3062.1850000461563","survey-likert","146","381613","0.0-40.0","SS1619740056133","similarity_question","","","","","","","","","","","","{""Q0"":5}","[0]","","images/stimuli/spore_stims/simple_02_A_b.gif","images/stimuli/spore_stims/simple_01_A_a.gif"
"","4093.570000026375","survey-likert","147","385711","0.0-41.0","SS1619740056133","similarity_question","","","","","","","","","","","","{""Q0"":4}","[0]","","images/stimuli/spore_stims/simple_11_A_b.gif","images/stimuli/spore_stims/simple_05_A_a.gif"
"","3760.66000002902","survey-likert","148","389478","0.0-42.0","SS1619740056133","similarity_question","","","","","","","","","","","","{""Q0"":1}","[0]","","images/stimuli/spore_stims/complex_11_A_a.gif","images/stimuli/spore_stims/complex_07_A_b.gif"
"","3649.749999982305","survey-likert","149","393133","0.0-43.0","SS1619740056133","similarity_question","","","","","","","","","","","","{""Q0"":5}","[0]","","images/stimuli/spore_stims/simple_04_A_b.gif","images/stimuli/spore_stims/simple_17_A_a.gif"
"","2900.7699999492615","survey-likert","150","396041","0.0-44.0","SS1619740056133","similarity_question","","","","","","","","","","","","{""Q0"":3}","[0]","","images/stimuli/spore_stims/simple_18_A_a.gif","images/stimuli/spore_stims/simple_14_A_b.gif"
"[{""page_index"":0,""viewing_time"":1438.9150000642985}]","1439.310000045225","instructions","151","397484","0.0-45.0","SS1619740056133","instructions","","","","","","","","","","","","","","","",""
"","2923.6650000093505","survey-likert","152","400413","0.0-46.0","SS1619740056133","","","","","","","","","images/stimuli/spore_stims/simple_13_A_b.gif","","","","{""Q0"":3}","[0]","","",""
"","4112.859999993816","survey-likert","153","404532","0.0-47.0","SS1619740056133","","","","","","","","","images/stimuli/spore_stims/simple_04_A_b.gif","","","","{""Q0"":2}","[0]","","",""
"","2859.829999972135","survey-likert","154","407400","0.0-48.0","SS1619740056133","","","","","","","","","images/stimuli/spore_stims/complex_02_A_a.gif","","","","{""Q0"":4}","[0]","","",""
"","1985.495000029914","survey-likert","155","409391","0.0-49.0","SS1619740056133","","","","","","","","","images/stimuli/spore_stims/complex_03_A_b.gif","","","","{""Q0"":3}","[0]","","",""
"","2010.8199999667704","survey-likert","156","411408","0.0-50.0","SS1619740056133","","","","","","","","","images/stimuli/spore_stims/simple_11_A_b.gif","","","","{""Q0"":2}","[0]","","",""
"","4699.60000005085","survey-likert","157","416114","0.0-51.0","SS1619740056133","","","","","","","","","images/stimuli/spore_stims/complex_01_A_a.gif","","","","{""Q0"":3}","[0]","","",""
"","8453.16500007175","survey-likert","158","424573","0.0-52.0","SS1619740056133","","","","","","","","","images/stimuli/spore_stims/simple_12_A_b.gif","","","","{""Q0"":0}","[0]","","",""
"","3259.6550000598654","survey-likert","159","427838","0.0-53.0","SS1619740056133","","","","","","","","","images/stimuli/spore_stims/complex_17_A_b.gif","","","","{""Q0"":0}","[0]","","",""
"","1960.7500000856817","survey-likert","160","429804","0.0-54.0","SS1619740056133","","","","","","","","","images/stimuli/spore_stims/simple_01_A_a.gif","","","","{""Q0"":0}","[0]","","",""
"","5096.484999987297","survey-likert","161","434906","0.0-55.0","SS1619740056133","","","","","","","","","images/stimuli/spore_stims/complex_07_A_b.gif","","","","{""Q0"":0}","[0]","","",""
"","2049.460000009276","survey-likert","162","436960","0.0-56.0","SS1619740056133","","","","","","","","","images/stimuli/spore_stims/complex_10_A_b.gif","","","","{""Q0"":0}","[0]","","",""
"","1959.305000025779","survey-likert","163","438924","0.0-57.0","SS1619740056133","","","","","","","","","images/stimuli/spore_stims/simple_18_A_a.gif","","","","{""Q0"":0}","[0]","","",""
"[{""page_index"":0,""viewing_time"":1635.755000053905}]","1636.4149999571964","instructions","164","440564","0.0-58.0","SS1619740056133","instructions","","","","","","","","","","","","","","","",""
"","2144.510000012815","demog-age","165","442720","0.0-59.0","SS1619740056133","","","","","","","","","","","","","{""age"":""25""}","","","",""
"","2985.285000060685","demog-ethnic-US","166","445715","0.0-60.0","SS1619740056133","","","","","","","","","","","","","{""ethnicity"":[""Hispanic or Latino""]}","[0]","","",""
"","5345.860000001267","demog-gender-and-education","167","451067","0.0-61.0","SS1619740056133","","","","","","","","","","","","","{""gender"":""Male"",""education"":""Master's Degree""}","[0,1]","","",""
"","4699.374999967404","survey-text","168","455775","0.0-62.0","SS1619740056133","feedback","","","","","","","","","","","","{""Q0"":""no""}","","","",""
"[{""page_index"":0,""viewing_time"":2100.0749999657273}]","2100.4350000293925","instructions","169","457880","0.0-63.0","SS1619740056133","instructions","","","","","","","","","","","","","","","",""
