"view_history","rt","trial_type","trial_index","time_elapsed","internal_node_id","subject","stimulus_type","trial_stimulus","key_press","minimum_viewing_duration","trial_looking_time","block_deviant","block_background","exposure_type","stimulus","block_number","block_type","stimulus_displayed","responses","question_order","math_correct_answer","stimulus_left","stimulus_right"
"[{""page_index"":0,""viewing_time"":164966.5849999874}]","164967.14500000235","instructions","0","164971","0.0-0.0","SS1619739958178","","","","","","","","","","","","","","","","",""
"[{""page_index"":0,""viewing_time"":240043.5099999886},{""page_index"":1,""viewing_time"":12887.915000028443}]","252931.6300000064","instructions","1","419905","0.0-1.0","SS1619739958178","instructions","","","","","","","","","","","","","","","",""
"","25721.075000008568","sequential-stimulus-presentation-old","2","446132","0.0-2.0","SS1619739958178","","","40","500","26221.075000008568","null","null","self_paced","","","","","","","","",""
"","25694.52000001911","sequential-stimulus-presentation-old","3","472329","0.0-3.0","SS1619739958178","","","40","500","26194.52000001911","null","null","self_paced","","","","","","","","",""
"[{""page_index"":0,""viewing_time"":24199.190000013914}]","24199.45000001462","instructions","4","496530","0.0-4.0","SS1619739958178","instructions","","","","","","","","","","","","","","","",""
"","2477.6749999728054","sequential-stimulus-presentation-old","5","514009","0.0-5.0","SS1619739958178","","","40","500","2977.6749999728054","null","null","forced_long","","","","","","","","",""
"","3003.0349999433383","sequential-stimulus-presentation-old","6","517514","0.0-6.0","SS1619739958178","","","40","500","3503.0349999433383","null","null","forced_long","","","","","","","","",""
"[{""page_index"":0,""viewing_time"":4445.62999997288}]","4445.8599999779835","instructions","7","521962","0.0-7.0","SS1619739958178","instructions","","","","","","","","","","","","","","","",""
"[{""page_index"":0,""viewing_time"":36447.13499996578},{""page_index"":1,""viewing_time"":20344.080000009853},{""page_index"":2,""viewing_time"":8407.875000033528},{""page_index"":3,""viewing_time"":1799.9999999883585},{""page_index"":4,""viewing_time"":1535.9499999904074}]","68535.26999999303","instructions","8","590497","0.0-8.0","SS1619739958178","instructions","","","","","","","","","","","","","","","",""
"","null","html-keyboard-response","9","591512","0.0-9.0-0.0","SS1619739958178","","","null","","","","","","<p><img src= images/blank.png width =""600"" height = ""600"" style=""position:fixed;top:50%; left:50%; transform: translate(-50%, -50%); border:5px solid black"">","","","","","","","",""
"","1640.6950000091456","sequential-stimulus-presentation-old","10","608161","0.0-9.0-1.0","SS1619739958178","trial","","40","500","2140.6950000091456","images/stimuli/spore_stims/simple_09_A_b.gif","images/stimuli/spore_stims/simple_11_A_a.gif","forced_long","","0","simple_dissimilar","images/stimuli/spore_stims/simple_11_A_a.gif","","","","",""
"","null","html-keyboard-response","11","609204","0.0-9.0-0.1","SS1619739958178","","","null","","","","","","<p><img src= images/blank.png width =""600"" height = ""600"" style=""position:fixed;top:50%; left:50%; transform: translate(-50%, -50%); border:5px solid black"">","","","","","","","",""
"","11925.684999965597","sequential-stimulus-presentation-old","12","621635","0.0-9.0-1.1","SS1619739958178","trial","","40","500","12425.684999965597","images/stimuli/spore_stims/simple_09_A_b.gif","images/stimuli/spore_stims/simple_11_A_a.gif","forced_long","","0","simple_dissimilar","images/stimuli/spore_stims/simple_11_A_a.gif","","","","",""
"","null","html-keyboard-response","13","622835","0.0-9.0-0.2","SS1619739958178","","","null","","","","","","<p><img src= images/blank.png width =""600"" height = ""600"" style=""position:fixed;top:50%; left:50%; transform: translate(-50%, -50%); border:5px solid black"">","","","","","","","",""
"","422.62999998638406","sequential-stimulus-presentation-old","14","623763","0.0-9.0-1.2","SS1619739958178","trial","","40","500","922.6299999863841","images/stimuli/spore_stims/simple_09_A_b.gif","images/stimuli/spore_stims/simple_11_A_a.gif","forced_long","","0","simple_dissimilar","images/stimuli/spore_stims/simple_11_A_a.gif","","","","",""
"","null","html-keyboard-response","15","624627","0.0-9.0-0.3","SS1619739958178","","","null","","","","","","<p><img src= images/blank.png width =""600"" height = ""600"" style=""position:fixed;top:50%; left:50%; transform: translate(-50%, -50%); border:5px solid black"">","","","","","","","",""
"","5046.185000042897","sequential-stimulus-presentation-old","16","630178","0.0-9.0-1.3","SS1619739958178","trial","","40","500","5546.185000042897","images/stimuli/spore_stims/simple_09_A_b.gif","images/stimuli/spore_stims/simple_11_A_a.gif","forced_long","","0","simple_dissimilar","images/stimuli/spore_stims/simple_09_A_b.gif","","","","",""
"","null","html-keyboard-response","17","631261","0.0-9.0-0.4","SS1619739958178","","","null","","","","","","<p><img src= images/blank.png width =""600"" height = ""600"" style=""position:fixed;top:50%; left:50%; transform: translate(-50%, -50%); border:5px solid black"">","","","","","","","",""
"","710.6550000025891","sequential-stimulus-presentation-old","18","632475","0.0-9.0-1.4","SS1619739958178","trial","","40","500","1210.655000002589","images/stimuli/spore_stims/simple_09_A_b.gif","images/stimuli/spore_stims/simple_11_A_a.gif","forced_long","","0","simple_dissimilar","images/stimuli/spore_stims/simple_11_A_a.gif","","","","",""
"","3328.009999997448","survey-multi-choice","19","635810","0.0-10.0","SS1619739958178","math_question","","","","","","","","","","","","{""Q0"":""2""}","[0]","2","",""
"","null","html-keyboard-response","20","636679","0.0-11.0-0.0","SS1619739958178","","","null","","","","","","<p><img src= images/blank.png width =""600"" height = ""600"" style=""position:fixed;top:50%; left:50%; transform: translate(-50%, -50%); border:5px solid black"">","","","","","","","",""
"","684.0500000398606","sequential-stimulus-presentation-old","21","637867","0.0-11.0-1.0","SS1619739958178","trial","","40","500","1184.0500000398606","images/stimuli/spore_stims/complex_14_A_b.gif","images/stimuli/spore_stims/complex_07_A_a.gif","forced_short","","1","complex_dissimilar","images/stimuli/spore_stims/complex_07_A_a.gif","","","","",""
"","null","html-keyboard-response","22","639051","0.0-11.0-0.1","SS1619739958178","","","null","","","","","","<p><img src= images/blank.png width =""600"" height = ""600"" style=""position:fixed;top:50%; left:50%; transform: translate(-50%, -50%); border:5px solid black"">","","","","","","","",""
"","5437.715000007302","sequential-stimulus-presentation-old","23","644994","0.0-11.0-1.1","SS1619739958178","trial","","40","500","5937.715000007302","images/stimuli/spore_stims/complex_14_A_b.gif","images/stimuli/spore_stims/complex_07_A_a.gif","forced_short","","1","complex_dissimilar","images/stimuli/spore_stims/complex_07_A_a.gif","","","","",""
"","null","html-keyboard-response","24","645906","0.0-11.0-0.2","SS1619739958178","","","null","","","","","","<p><img src= images/blank.png width =""600"" height = ""600"" style=""position:fixed;top:50%; left:50%; transform: translate(-50%, -50%); border:5px solid black"">","","","","","","","",""
"","9053.484999982174","sequential-stimulus-presentation-old","25","655467","0.0-11.0-1.2","SS1619739958178","trial","","40","500","9553.484999982174","images/stimuli/spore_stims/complex_14_A_b.gif","images/stimuli/spore_stims/complex_07_A_a.gif","forced_short","","1","complex_dissimilar","images/stimuli/spore_stims/complex_07_A_a.gif","","","","",""
"","null","html-keyboard-response","26","656551","0.0-11.0-0.3","SS1619739958178","","","null","","","","","","<p><img src= images/blank.png width =""600"" height = ""600"" style=""position:fixed;top:50%; left:50%; transform: translate(-50%, -50%); border:5px solid black"">","","","","","","","",""
"","19032.27500000503","sequential-stimulus-presentation-old","27","676091","0.0-11.0-1.3","SS1619739958178","trial","","40","500","19532.27500000503","images/stimuli/spore_stims/complex_14_A_b.gif","images/stimuli/spore_stims/complex_07_A_a.gif","forced_short","","1","complex_dissimilar","images/stimuli/spore_stims/complex_14_A_b.gif","","","","",""
"","2779.8949999851175","survey-multi-choice","28","678874","0.0-12.0","SS1619739958178","math_question","","","","","","","","","","","","{""Q0"":""5""}","[0]","5","",""
"","null","html-keyboard-response","29","680041","0.0-13.0-0.0","SS1619739958178","","","null","","","","","","<p><img src= images/blank.png width =""600"" height = ""600"" style=""position:fixed;top:50%; left:50%; transform: translate(-50%, -50%); border:5px solid black"">","","","","","","","",""
"","1939.1949999844655","sequential-stimulus-presentation-old","30","696986","0.0-13.0-1.0","SS1619739958178","trial","","40","500","2439.1949999844655","images/stimuli/spore_stims/complex_13_A_a.gif","images/stimuli/spore_stims/complex_02_A_b.gif","forced_long","","2","complex_dissimilar","images/stimuli/spore_stims/complex_02_A_b.gif","","","","",""
"","null","html-keyboard-response","31","698177","0.0-13.0-0.1","SS1619739958178","","","null","","","","","","<p><img src= images/blank.png width =""600"" height = ""600"" style=""position:fixed;top:50%; left:50%; transform: translate(-50%, -50%); border:5px solid black"">","","","","","","","",""
"","6171.80000001099","sequential-stimulus-presentation-old","32","704857","0.0-13.0-1.1","SS1619739958178","trial","","40","500","6671.80000001099","images/stimuli/spore_stims/complex_13_A_a.gif","images/stimuli/spore_stims/complex_02_A_b.gif","forced_long","","2","complex_dissimilar","images/stimuli/spore_stims/complex_13_A_a.gif","","","","",""
"","null","html-keyboard-response","33","705755","0.0-13.0-0.2","SS1619739958178","","","null","","","","","","<p><img src= images/blank.png width =""600"" height = ""600"" style=""position:fixed;top:50%; left:50%; transform: translate(-50%, -50%); border:5px solid black"">","","","","","","","",""
"","2986.3100000075065","sequential-stimulus-presentation-old","34","709826","0.0-13.0-1.2","SS1619739958178","trial","","40","500","3486.3100000075065","images/stimuli/spore_stims/complex_13_A_a.gif","images/stimuli/spore_stims/complex_02_A_b.gif","forced_long","","2","complex_dissimilar","images/stimuli/spore_stims/complex_02_A_b.gif","","","","",""
"","null","html-keyboard-response","35","710735","0.0-13.0-0.3","SS1619739958178","","","null","","","","","","<p><img src= images/blank.png width =""600"" height = ""600"" style=""position:fixed;top:50%; left:50%; transform: translate(-50%, -50%); border:5px solid black"">","","","","","","","",""
"","2083.7950000423007","sequential-stimulus-presentation-old","36","713321","0.0-13.0-1.3","SS1619739958178","trial","","40","500","2583.7950000423007","images/stimuli/spore_stims/complex_13_A_a.gif","images/stimuli/spore_stims/complex_02_A_b.gif","forced_long","","2","complex_dissimilar","images/stimuli/spore_stims/complex_02_A_b.gif","","","","",""
"","null","html-keyboard-response","37","714521","0.0-13.0-0.4","SS1619739958178","","","null","","","","","","<p><img src= images/blank.png width =""600"" height = ""600"" style=""position:fixed;top:50%; left:50%; transform: translate(-50%, -50%); border:5px solid black"">","","","","","","","",""
"","1486.3550000009127","sequential-stimulus-presentation-old","38","716513","0.0-13.0-1.4","SS1619739958178","trial","","40","500","1986.3550000009127","images/stimuli/spore_stims/complex_13_A_a.gif","images/stimuli/spore_stims/complex_02_A_b.gif","forced_long","","2","complex_dissimilar","images/stimuli/spore_stims/complex_02_A_b.gif","","","","",""
"","2684.3600000138395","survey-multi-choice","39","719201","0.0-14.0","SS1619739958178","math_question","","","","","","","","","","","","{""Q0"":""5""}","[0]","5","",""
"","null","html-keyboard-response","40","720151","0.0-15.0-0.0","SS1619739958178","","","null","","","","","","<p><img src= images/blank.png width =""600"" height = ""600"" style=""position:fixed;top:50%; left:50%; transform: translate(-50%, -50%); border:5px solid black"">","","","","","","","",""
"","528.409999969881","sequential-stimulus-presentation-old","41","721186","0.0-15.0-1.0","SS1619739958178","trial","","40","500","1028.409999969881","images/stimuli/spore_stims/complex_17_A_b.gif","images/stimuli/spore_stims/complex_19_A_a.gif","forced_short","","3","complex_dissimilar","images/stimuli/spore_stims/complex_19_A_a.gif","","","","",""
"","null","html-keyboard-response","42","722295","0.0-15.0-0.1","SS1619739958178","","","null","","","","","","<p><img src= images/blank.png width =""600"" height = ""600"" style=""position:fixed;top:50%; left:50%; transform: translate(-50%, -50%); border:5px solid black"">","","","","","","","",""
"","755.6449999683537","sequential-stimulus-presentation-old","43","723553","0.0-15.0-1.1","SS1619739958178","trial","","40","500","1255.6449999683537","images/stimuli/spore_stims/complex_17_A_b.gif","images/stimuli/spore_stims/complex_19_A_a.gif","forced_short","","3","complex_dissimilar","images/stimuli/spore_stims/complex_19_A_a.gif","","","","",""
"","null","html-keyboard-response","44","724420","0.0-15.0-0.2","SS1619739958178","","","null","","","","","","<p><img src= images/blank.png width =""600"" height = ""600"" style=""position:fixed;top:50%; left:50%; transform: translate(-50%, -50%); border:5px solid black"">","","","","","","","",""
"","819.6300000417978","sequential-stimulus-presentation-old","45","725745","0.0-15.0-1.2","SS1619739958178","trial","","40","500","1319.6300000417978","images/stimuli/spore_stims/complex_17_A_b.gif","images/stimuli/spore_stims/complex_19_A_a.gif","forced_short","","3","complex_dissimilar","images/stimuli/spore_stims/complex_19_A_a.gif","","","","",""
"","null","html-keyboard-response","46","726825","0.0-15.0-0.3","SS1619739958178","","","null","","","","","","<p><img src= images/blank.png width =""600"" height = ""600"" style=""position:fixed;top:50%; left:50%; transform: translate(-50%, -50%); border:5px solid black"">","","","","","","","",""
"","1417.5650000106543","sequential-stimulus-presentation-old","47","728745","0.0-15.0-1.3","SS1619739958178","trial","","40","500","1917.5650000106543","images/stimuli/spore_stims/complex_17_A_b.gif","images/stimuli/spore_stims/complex_19_A_a.gif","forced_short","","3","complex_dissimilar","images/stimuli/spore_stims/complex_17_A_b.gif","","","","",""
"","null","html-keyboard-response","48","729745","0.0-15.0-0.4","SS1619739958178","","","null","","","","","","<p><img src= images/blank.png width =""600"" height = ""600"" style=""position:fixed;top:50%; left:50%; transform: translate(-50%, -50%); border:5px solid black"">","","","","","","","",""
"","1605.58500001207","sequential-stimulus-presentation-old","49","731858","0.0-15.0-1.4","SS1619739958178","trial","","40","500","2105.58500001207","images/stimuli/spore_stims/complex_17_A_b.gif","images/stimuli/spore_stims/complex_19_A_a.gif","forced_short","","3","complex_dissimilar","images/stimuli/spore_stims/complex_17_A_b.gif","","","","",""
"","9890.8250000095","survey-multi-choice","50","741754","0.0-16.0","SS1619739958178","math_question","","","","","","","","","","","","{""Q0"":""8""}","[0]","8","",""
"","null","html-keyboard-response","51","743001","0.0-17.0-0.0","SS1619739958178","","","null","","","","","","<p><img src= images/blank.png width =""600"" height = ""600"" style=""position:fixed;top:50%; left:50%; transform: translate(-50%, -50%); border:5px solid black"">","","","","","","","",""
"","4162.320000003092","sequential-stimulus-presentation-old","52","762170","0.0-17.0-1.0","SS1619739958178","trial","","40","500","4662.320000003092","images/stimuli/spore_stims/simple_13_A_a.gif","images/stimuli/spore_stims/simple_14_A_b.gif","forced_long","","4","simple_dissimilar","images/stimuli/spore_stims/simple_14_A_b.gif","","","","",""
"","null","html-keyboard-response","53","763127","0.0-17.0-0.1","SS1619739958178","","","null","","","","","","<p><img src= images/blank.png width =""600"" height = ""600"" style=""position:fixed;top:50%; left:50%; transform: translate(-50%, -50%); border:5px solid black"">","","","","","","","",""
"","4800.195000017993","sequential-stimulus-presentation-old","54","768434","0.0-17.0-1.1","SS1619739958178","trial","","40","500","5300.195000017993","images/stimuli/spore_stims/simple_13_A_a.gif","images/stimuli/spore_stims/simple_14_A_b.gif","forced_long","","4","simple_dissimilar","images/stimuli/spore_stims/simple_14_A_b.gif","","","","",""
"","null","html-keyboard-response","55","769640","0.0-17.0-0.2","SS1619739958178","","","null","","","","","","<p><img src= images/blank.png width =""600"" height = ""600"" style=""position:fixed;top:50%; left:50%; transform: translate(-50%, -50%); border:5px solid black"">","","","","","","","",""
"","905.7349999784492","sequential-stimulus-presentation-old","56","771050","0.0-17.0-1.2","SS1619739958178","trial","","40","500","1405.7349999784492","images/stimuli/spore_stims/simple_13_A_a.gif","images/stimuli/spore_stims/simple_14_A_b.gif","forced_long","","4","simple_dissimilar","images/stimuli/spore_stims/simple_14_A_b.gif","","","","",""
"","null","html-keyboard-response","57","772096","0.0-17.0-0.3","SS1619739958178","","","null","","","","","","<p><img src= images/blank.png width =""600"" height = ""600"" style=""position:fixed;top:50%; left:50%; transform: translate(-50%, -50%); border:5px solid black"">","","","","","","","",""
"","10491.659999999683","sequential-stimulus-presentation-old","58","783090","0.0-17.0-1.3","SS1619739958178","trial","","40","500","10991.659999999683","images/stimuli/spore_stims/simple_13_A_a.gif","images/stimuli/spore_stims/simple_14_A_b.gif","forced_long","","4","simple_dissimilar","images/stimuli/spore_stims/simple_13_A_a.gif","","","","",""
"","null","html-keyboard-response","59","784222","0.0-17.0-0.4","SS1619739958178","","","null","","","","","","<p><img src= images/blank.png width =""600"" height = ""600"" style=""position:fixed;top:50%; left:50%; transform: translate(-50%, -50%); border:5px solid black"">","","","","","","","",""
"","2581.5549999824725","sequential-stimulus-presentation-old","60","787313","0.0-17.0-1.4","SS1619739958178","trial","","40","500","3081.5549999824725","images/stimuli/spore_stims/simple_13_A_a.gif","images/stimuli/spore_stims/simple_14_A_b.gif","forced_long","","4","simple_dissimilar","images/stimuli/spore_stims/simple_14_A_b.gif","","","","",""
"","2575.2099999808706","survey-multi-choice","61","789890","0.0-18.0","SS1619739958178","math_question","","","","","","","","","","","","{""Q0"":""4""}","[0]","4","",""
"","null","html-keyboard-response","62","791101","0.0-19.0-0.0","SS1619739958178","","","null","","","","","","<p><img src= images/blank.png width =""600"" height = ""600"" style=""position:fixed;top:50%; left:50%; transform: translate(-50%, -50%); border:5px solid black"">","","","","","","","",""
"","442.2599999816157","sequential-stimulus-presentation-old","63","792050","0.0-19.0-1.0","SS1619739958178","trial","","40","500","942.2599999816157","images/stimuli/spore_stims/simple_20_A_b.gif","images/stimuli/spore_stims/simple_06_A_a.gif","forced_short","","5","simple_dissimilar","images/stimuli/spore_stims/simple_06_A_a.gif","","","","",""
"","null","html-keyboard-response","64","792911","0.0-19.0-0.1","SS1619739958178","","","null","","","","","","<p><img src= images/blank.png width =""600"" height = ""600"" style=""position:fixed;top:50%; left:50%; transform: translate(-50%, -50%); border:5px solid black"">","","","","","","","",""
"","161.3950000028126","sequential-stimulus-presentation-old","65","793578","0.0-19.0-1.1","SS1619739958178","trial","","40","500","661.3950000028126","images/stimuli/spore_stims/simple_20_A_b.gif","images/stimuli/spore_stims/simple_06_A_a.gif","forced_short","","5","simple_dissimilar","images/stimuli/spore_stims/simple_20_A_b.gif","","","","",""
"","null","html-keyboard-response","66","794467","0.0-19.0-0.2","SS1619739958178","","","null","","","","","","<p><img src= images/blank.png width =""600"" height = ""600"" style=""position:fixed;top:50%; left:50%; transform: translate(-50%, -50%); border:5px solid black"">","","","","","","","",""
"","163.93999999854714","sequential-stimulus-presentation-old","67","795138","0.0-19.0-1.2","SS1619739958178","trial","","40","500","663.9399999985471","images/stimuli/spore_stims/simple_20_A_b.gif","images/stimuli/spore_stims/simple_06_A_a.gif","forced_short","","5","simple_dissimilar","images/stimuli/spore_stims/simple_06_A_a.gif","","","","",""
"","null","html-keyboard-response","68","796191","0.0-19.0-0.3","SS1619739958178","","","null","","","","","","<p><img src= images/blank.png width =""600"" height = ""600"" style=""position:fixed;top:50%; left:50%; transform: translate(-50%, -50%); border:5px solid black"">","","","","","","","",""
"","624.6750000282191","sequential-stimulus-presentation-old","69","797321","0.0-19.0-1.3","SS1619739958178","trial","","40","500","1124.675000028219","images/stimuli/spore_stims/simple_20_A_b.gif","images/stimuli/spore_stims/simple_06_A_a.gif","forced_short","","5","simple_dissimilar","images/stimuli/spore_stims/simple_06_A_a.gif","","","","",""
"","null","html-keyboard-response","70","798274","0.0-19.0-0.4","SS1619739958178","","","null","","","","","","<p><img src= images/blank.png width =""600"" height = ""600"" style=""position:fixed;top:50%; left:50%; transform: translate(-50%, -50%); border:5px solid black"">","","","","","","","",""
"","929.2700000223704","sequential-stimulus-presentation-old","71","799706","0.0-19.0-1.4","SS1619739958178","trial","","40","500","1429.2700000223704","images/stimuli/spore_stims/simple_20_A_b.gif","images/stimuli/spore_stims/simple_06_A_a.gif","forced_short","","5","simple_dissimilar","images/stimuli/spore_stims/simple_06_A_a.gif","","","","",""
"","null","html-keyboard-response","72","800571","0.0-19.0-0.5","SS1619739958178","","","null","","","","","","<p><img src= images/blank.png width =""600"" height = ""600"" style=""position:fixed;top:50%; left:50%; transform: translate(-50%, -50%); border:5px solid black"">","","","","","","","",""
"","196.02999999187887","sequential-stimulus-presentation-old","73","801274","0.0-19.0-1.5","SS1619739958178","trial","","40","500","696.0299999918789","images/stimuli/spore_stims/simple_20_A_b.gif","images/stimuli/spore_stims/simple_06_A_a.gif","forced_short","","5","simple_dissimilar","images/stimuli/spore_stims/simple_20_A_b.gif","","","","",""
"","2270.4349999548867","survey-multi-choice","74","803546","0.0-20.0","SS1619739958178","math_question","","","","","","","","","","","","{""Q0"":""5""}","[0]","5","",""
"","null","html-keyboard-response","75","804523","0.0-21.0-0.0","SS1619739958178","","","null","","","","","","<p><img src= images/blank.png width =""600"" height = ""600"" style=""position:fixed;top:50%; left:50%; transform: translate(-50%, -50%); border:5px solid black"">","","","","","","","",""
"","4645.814999996219","sequential-stimulus-presentation-old","76","824180","0.0-21.0-1.0","SS1619739958178","trial","","40","500","5145.814999996219","images/stimuli/spore_stims/complex_04_A_a.gif","images/stimuli/spore_stims/complex_05_A_b.gif","forced_long","","6","complex_dissimilar","images/stimuli/spore_stims/complex_05_A_b.gif","","","","",""
"","null","html-keyboard-response","77","825408","0.0-21.0-0.1","SS1619739958178","","","null","","","","","","<p><img src= images/blank.png width =""600"" height = ""600"" style=""position:fixed;top:50%; left:50%; transform: translate(-50%, -50%); border:5px solid black"">","","","","","","","",""
"","2278.80999998888","sequential-stimulus-presentation-old","78","828194","0.0-21.0-1.1","SS1619739958178","trial","","40","500","2778.80999998888","images/stimuli/spore_stims/complex_04_A_a.gif","images/stimuli/spore_stims/complex_05_A_b.gif","forced_long","","6","complex_dissimilar","images/stimuli/spore_stims/complex_04_A_a.gif","","","","",""
"","null","html-keyboard-response","79","829116","0.0-21.0-0.2","SS1619739958178","","","null","","","","","","<p><img src= images/blank.png width =""600"" height = ""600"" style=""position:fixed;top:50%; left:50%; transform: translate(-50%, -50%); border:5px solid black"">","","","","","","","",""
"","563.350000011269","sequential-stimulus-presentation-old","80","830187","0.0-21.0-1.2","SS1619739958178","trial","","40","500","1063.350000011269","images/stimuli/spore_stims/complex_04_A_a.gif","images/stimuli/spore_stims/complex_05_A_b.gif","forced_long","","6","complex_dissimilar","images/stimuli/spore_stims/complex_05_A_b.gif","","","","",""
"","null","html-keyboard-response","81","831105","0.0-21.0-0.3","SS1619739958178","","","null","","","","","","<p><img src= images/blank.png width =""600"" height = ""600"" style=""position:fixed;top:50%; left:50%; transform: translate(-50%, -50%); border:5px solid black"">","","","","","","","",""
"","1114.9150000419468","sequential-stimulus-presentation-old","82","832722","0.0-21.0-1.3","SS1619739958178","trial","","40","500","1614.9150000419468","images/stimuli/spore_stims/complex_04_A_a.gif","images/stimuli/spore_stims/complex_05_A_b.gif","forced_long","","6","complex_dissimilar","images/stimuli/spore_stims/complex_05_A_b.gif","","","","",""
"","null","html-keyboard-response","83","833842","0.0-21.0-0.4","SS1619739958178","","","null","","","","","","<p><img src= images/blank.png width =""600"" height = ""600"" style=""position:fixed;top:50%; left:50%; transform: translate(-50%, -50%); border:5px solid black"">","","","","","","","",""
"","965.4650000156835","sequential-stimulus-presentation-old","84","835314","0.0-21.0-1.4","SS1619739958178","trial","","40","500","1465.4650000156835","images/stimuli/spore_stims/complex_04_A_a.gif","images/stimuli/spore_stims/complex_05_A_b.gif","forced_long","","6","complex_dissimilar","images/stimuli/spore_stims/complex_05_A_b.gif","","","","",""
"","3518.2849999982864","survey-multi-choice","85","838834","0.0-22.0","SS1619739958178","math_question","","","","","","","","","","","","{""Q0"":""7""}","[0]","7","",""
"","null","html-keyboard-response","86","840044","0.0-23.0-0.0","SS1619739958178","","","null","","","","","","<p><img src= images/blank.png width =""600"" height = ""600"" style=""position:fixed;top:50%; left:50%; transform: translate(-50%, -50%); border:5px solid black"">","","","","","","","",""
"","595.195000001695","sequential-stimulus-presentation-old","87","841147","0.0-23.0-1.0","SS1619739958178","trial","","40","500","1095.195000001695","images/stimuli/spore_stims/simple_10_A_b.gif","images/stimuli/spore_stims/simple_16_A_a.gif","self_paced","","7","simple_dissimilar","images/stimuli/spore_stims/simple_16_A_a.gif","","","","",""
"","null","html-keyboard-response","88","842439","0.0-23.0-0.1","SS1619739958178","","","null","","","","","","<p><img src= images/blank.png width =""600"" height = ""600"" style=""position:fixed;top:50%; left:50%; transform: translate(-50%, -50%); border:5px solid black"">","","","","","","","",""
"","324.4800000102259","sequential-stimulus-presentation-old","89","843266","0.0-23.0-1.1","SS1619739958178","trial","","40","500","824.4800000102259","images/stimuli/spore_stims/simple_10_A_b.gif","images/stimuli/spore_stims/simple_16_A_a.gif","self_paced","","7","simple_dissimilar","images/stimuli/spore_stims/simple_10_A_b.gif","","","","",""
"","null","html-keyboard-response","90","844329","0.0-23.0-0.2","SS1619739958178","","","null","","","","","","<p><img src= images/blank.png width =""600"" height = ""600"" style=""position:fixed;top:50%; left:50%; transform: translate(-50%, -50%); border:5px solid black"">","","","","","","","",""
"","146.53999998699874","sequential-stimulus-presentation-old","91","844978","0.0-23.0-1.2","SS1619739958178","trial","","40","500","646.5399999869987","images/stimuli/spore_stims/simple_10_A_b.gif","images/stimuli/spore_stims/simple_16_A_a.gif","self_paced","","7","simple_dissimilar","images/stimuli/spore_stims/simple_16_A_a.gif","","","","",""
"","null","html-keyboard-response","92","846089","0.0-23.0-0.3","SS1619739958178","","","null","","","","","","<p><img src= images/blank.png width =""600"" height = ""600"" style=""position:fixed;top:50%; left:50%; transform: translate(-50%, -50%); border:5px solid black"">","","","","","","","",""
"","853.1800000346266","sequential-stimulus-presentation-old","93","847450","0.0-23.0-1.3","SS1619739958178","trial","","40","500","1353.1800000346266","images/stimuli/spore_stims/simple_10_A_b.gif","images/stimuli/spore_stims/simple_16_A_a.gif","self_paced","","7","simple_dissimilar","images/stimuli/spore_stims/simple_16_A_a.gif","","","","",""
"","null","html-keyboard-response","94","848355","0.0-23.0-0.4","SS1619739958178","","","null","","","","","","<p><img src= images/blank.png width =""600"" height = ""600"" style=""position:fixed;top:50%; left:50%; transform: translate(-50%, -50%); border:5px solid black"">","","","","","","","",""
"","153.98000000277534","sequential-stimulus-presentation-old","95","849018","0.0-23.0-1.4","SS1619739958178","trial","","40","500","653.9800000027753","images/stimuli/spore_stims/simple_10_A_b.gif","images/stimuli/spore_stims/simple_16_A_a.gif","self_paced","","7","simple_dissimilar","images/stimuli/spore_stims/simple_16_A_a.gif","","","","",""
"","3826.6249999869615","survey-multi-choice","96","852850","0.0-24.0","SS1619739958178","math_question","","","","","","","","","","","","{""Q0"":""6""}","[0]","6","",""
"","null","html-keyboard-response","97","853814","0.0-25.0-0.0","SS1619739958178","","","null","","","","","","<p><img src= images/blank.png width =""600"" height = ""600"" style=""position:fixed;top:50%; left:50%; transform: translate(-50%, -50%); border:5px solid black"">","","","","","","","",""
"","317.7000000141561","sequential-stimulus-presentation-old","98","854634","0.0-25.0-1.0","SS1619739958178","trial","","40","500","817.7000000141561","images/stimuli/spore_stims/simple_18_A_a.gif","images/stimuli/spore_stims/simple_13_A_b.gif","forced_short","","8","simple_dissimilar","images/stimuli/spore_stims/simple_13_A_b.gif","","","","",""
"","null","html-keyboard-response","99","855910","0.0-25.0-0.1","SS1619739958178","","","null","","","","","","<p><img src= images/blank.png width =""600"" height = ""600"" style=""position:fixed;top:50%; left:50%; transform: translate(-50%, -50%); border:5px solid black"">","","","","","","","",""
"","529.854999971576","sequential-stimulus-presentation-old","100","856946","0.0-25.0-1.1","SS1619739958178","trial","","40","500","1029.854999971576","images/stimuli/spore_stims/simple_18_A_a.gif","images/stimuli/spore_stims/simple_13_A_b.gif","forced_short","","8","simple_dissimilar","images/stimuli/spore_stims/simple_13_A_b.gif","","","","",""
"","null","html-keyboard-response","101","857966","0.0-25.0-0.2","SS1619739958178","","","null","","","","","","<p><img src= images/blank.png width =""600"" height = ""600"" style=""position:fixed;top:50%; left:50%; transform: translate(-50%, -50%); border:5px solid black"">","","","","","","","",""
"","576.3000000151806","sequential-stimulus-presentation-old","102","859050","0.0-25.0-1.2","SS1619739958178","trial","","40","500","1076.3000000151806","images/stimuli/spore_stims/simple_18_A_a.gif","images/stimuli/spore_stims/simple_13_A_b.gif","forced_short","","8","simple_dissimilar","images/stimuli/spore_stims/simple_13_A_b.gif","","","","",""
"","null","html-keyboard-response","103","859914","0.0-25.0-0.3","SS1619739958178","","","null","","","","","","<p><img src= images/blank.png width =""600"" height = ""600"" style=""position:fixed;top:50%; left:50%; transform: translate(-50%, -50%); border:5px solid black"">","","","","","","","",""
"","475.6850000121631","sequential-stimulus-presentation-old","104","860898","0.0-25.0-1.3","SS1619739958178","trial","","40","500","975.6850000121631","images/stimuli/spore_stims/simple_18_A_a.gif","images/stimuli/spore_stims/simple_13_A_b.gif","forced_short","","8","simple_dissimilar","images/stimuli/spore_stims/simple_13_A_b.gif","","","","",""
"","null","html-keyboard-response","105","862097","0.0-25.0-0.4","SS1619739958178","","","null","","","","","","<p><img src= images/blank.png width =""600"" height = ""600"" style=""position:fixed;top:50%; left:50%; transform: translate(-50%, -50%); border:5px solid black"">","","","","","","","",""
"","235.84500001743436","sequential-stimulus-presentation-old","106","862841","0.0-25.0-1.4","SS1619739958178","trial","","40","500","735.8450000174344","images/stimuli/spore_stims/simple_18_A_a.gif","images/stimuli/spore_stims/simple_13_A_b.gif","forced_short","","8","simple_dissimilar","images/stimuli/spore_stims/simple_18_A_a.gif","","","","",""
"","null","html-keyboard-response","107","863844","0.0-25.0-0.5","SS1619739958178","","","null","","","","","","<p><img src= images/blank.png width =""600"" height = ""600"" style=""position:fixed;top:50%; left:50%; transform: translate(-50%, -50%); border:5px solid black"">","","","","","","","",""
"","355.20499997073784","sequential-stimulus-presentation-old","108","864706","0.0-25.0-1.5","SS1619739958178","trial","","40","500","855.2049999707378","images/stimuli/spore_stims/simple_18_A_a.gif","images/stimuli/spore_stims/simple_13_A_b.gif","forced_short","","8","simple_dissimilar","images/stimuli/spore_stims/simple_18_A_a.gif","","","","",""
"","2618.2600000174716","survey-multi-choice","109","867329","0.0-26.0","SS1619739958178","math_question","","","","","","","","","","","","{""Q0"":""5""}","[0]","5","",""
"","null","html-keyboard-response","110","868488","0.0-27.0-0.0","SS1619739958178","","","null","","","","","","<p><img src= images/blank.png width =""600"" height = ""600"" style=""position:fixed;top:50%; left:50%; transform: translate(-50%, -50%); border:5px solid black"">","","","","","","","",""
"","277.8849999886006","sequential-stimulus-presentation-old","111","869273","0.0-27.0-1.0","SS1619739958178","trial","","40","500","777.8849999886006","images/stimuli/spore_stims/simple_17_A_b.gif","images/stimuli/spore_stims/simple_03_A_a.gif","self_paced","","9","simple_dissimilar","images/stimuli/spore_stims/simple_03_A_a.gif","","","","",""
"","null","html-keyboard-response","112","870526","0.0-27.0-0.1","SS1619739958178","","","null","","","","","","<p><img src= images/blank.png width =""600"" height = ""600"" style=""position:fixed;top:50%; left:50%; transform: translate(-50%, -50%); border:5px solid black"">","","","","","","","",""
"","88.49499997450039","sequential-stimulus-presentation-old","113","871122","0.0-27.0-1.1","SS1619739958178","trial","","40","500","588.4949999745004","images/stimuli/spore_stims/simple_17_A_b.gif","images/stimuli/spore_stims/simple_03_A_a.gif","self_paced","","9","simple_dissimilar","images/stimuli/spore_stims/simple_17_A_b.gif","","","","",""
"","null","html-keyboard-response","114","872203","0.0-27.0-0.2","SS1619739958178","","","null","","","","","","<p><img src= images/blank.png width =""600"" height = ""600"" style=""position:fixed;top:50%; left:50%; transform: translate(-50%, -50%); border:5px solid black"">","","","","","","","",""
"","857.5500000151806","sequential-stimulus-presentation-old","115","873570","0.0-27.0-1.2","SS1619739958178","trial","","40","500","1357.5500000151806","images/stimuli/spore_stims/simple_17_A_b.gif","images/stimuli/spore_stims/simple_03_A_a.gif","self_paced","","9","simple_dissimilar","images/stimuli/spore_stims/simple_03_A_a.gif","","","","",""
"","null","html-keyboard-response","116","874515","0.0-27.0-0.3","SS1619739958178","","","null","","","","","","<p><img src= images/blank.png width =""600"" height = ""600"" style=""position:fixed;top:50%; left:50%; transform: translate(-50%, -50%); border:5px solid black"">","","","","","","","",""
"","115.60000001918525","sequential-stimulus-presentation-old","117","875138","0.0-27.0-1.3","SS1619739958178","trial","","40","500","615.6000000191852","images/stimuli/spore_stims/simple_17_A_b.gif","images/stimuli/spore_stims/simple_03_A_a.gif","self_paced","","9","simple_dissimilar","images/stimuli/spore_stims/simple_03_A_a.gif","","","","",""
"","null","html-keyboard-response","118","876186","0.0-27.0-0.4","SS1619739958178","","","null","","","","","","<p><img src= images/blank.png width =""600"" height = ""600"" style=""position:fixed;top:50%; left:50%; transform: translate(-50%, -50%); border:5px solid black"">","","","","","","","",""
"","75.84999996470287","sequential-stimulus-presentation-old","119","876769","0.0-27.0-1.4","SS1619739958178","trial","","40","500","575.8499999647029","images/stimuli/spore_stims/simple_17_A_b.gif","images/stimuli/spore_stims/simple_03_A_a.gif","self_paced","","9","simple_dissimilar","images/stimuli/spore_stims/simple_03_A_a.gif","","","","",""
"","2756.729999964591","survey-multi-choice","120","879529","0.0-28.0","SS1619739958178","math_question","","","","","","","","","","","","{""Q0"":""3""}","[0]","3","",""
"","null","html-keyboard-response","121","880622","0.0-29.0-0.0","SS1619739958178","","","null","","","","","","<p><img src= images/blank.png width =""600"" height = ""600"" style=""position:fixed;top:50%; left:50%; transform: translate(-50%, -50%); border:5px solid black"">","","","","","","","",""
"","543.9950000145473","sequential-stimulus-presentation-old","122","881674","0.0-29.0-1.0","SS1619739958178","trial","","40","500","1043.9950000145473","images/stimuli/spore_stims/complex_02_A_a.gif","images/stimuli/spore_stims/complex_15_A_b.gif","self_paced","","10","complex_dissimilar","images/stimuli/spore_stims/complex_15_A_b.gif","","","","",""
"","null","html-keyboard-response","123","882488","0.0-29.0-0.1","SS1619739958178","","","null","","","","","","<p><img src= images/blank.png width =""600"" height = ""600"" style=""position:fixed;top:50%; left:50%; transform: translate(-50%, -50%); border:5px solid black"">","","","","","","","",""
"","1253.8699999568053","sequential-stimulus-presentation-old","124","884250","0.0-29.0-1.1","SS1619739958178","trial","","40","500","1753.8699999568053","images/stimuli/spore_stims/complex_02_A_a.gif","images/stimuli/spore_stims/complex_15_A_b.gif","self_paced","","10","complex_dissimilar","images/stimuli/spore_stims/complex_15_A_b.gif","","","","",""
"","null","html-keyboard-response","125","885183","0.0-29.0-0.2","SS1619739958178","","","null","","","","","","<p><img src= images/blank.png width =""600"" height = ""600"" style=""position:fixed;top:50%; left:50%; transform: translate(-50%, -50%); border:5px solid black"">","","","","","","","",""
"","4180.44500000542","sequential-stimulus-presentation-old","126","889874","0.0-29.0-1.2","SS1619739958178","trial","","40","500","4680.44500000542","images/stimuli/spore_stims/complex_02_A_a.gif","images/stimuli/spore_stims/complex_15_A_b.gif","self_paced","","10","complex_dissimilar","images/stimuli/spore_stims/complex_15_A_b.gif","","","","",""
"","null","html-keyboard-response","127","890894","0.0-29.0-0.3","SS1619739958178","","","null","","","","","","<p><img src= images/blank.png width =""600"" height = ""600"" style=""position:fixed;top:50%; left:50%; transform: translate(-50%, -50%); border:5px solid black"">","","","","","","","",""
"","293.8999999896623","sequential-stimulus-presentation-old","128","891698","0.0-29.0-1.3","SS1619739958178","trial","","40","500","793.8999999896623","images/stimuli/spore_stims/complex_02_A_a.gif","images/stimuli/spore_stims/complex_15_A_b.gif","self_paced","","10","complex_dissimilar","images/stimuli/spore_stims/complex_15_A_b.gif","","","","",""
"","null","html-keyboard-response","129","892514","0.0-29.0-0.4","SS1619739958178","","","null","","","","","","<p><img src= images/blank.png width =""600"" height = ""600"" style=""position:fixed;top:50%; left:50%; transform: translate(-50%, -50%); border:5px solid black"">","","","","","","","",""
"","2854.730000020936","sequential-stimulus-presentation-old","130","895873","0.0-29.0-1.4","SS1619739958178","trial","","40","500","3354.730000020936","images/stimuli/spore_stims/complex_02_A_a.gif","images/stimuli/spore_stims/complex_15_A_b.gif","self_paced","","10","complex_dissimilar","images/stimuli/spore_stims/complex_15_A_b.gif","","","","",""
"","null","html-keyboard-response","131","896760","0.0-29.0-0.5","SS1619739958178","","","null","","","","","","<p><img src= images/blank.png width =""600"" height = ""600"" style=""position:fixed;top:50%; left:50%; transform: translate(-50%, -50%); border:5px solid black"">","","","","","","","",""
"","274.11499997833744","sequential-stimulus-presentation-old","132","897538","0.0-29.0-1.5","SS1619739958178","trial","","40","500","774.1149999783374","images/stimuli/spore_stims/complex_02_A_a.gif","images/stimuli/spore_stims/complex_15_A_b.gif","self_paced","","10","complex_dissimilar","images/stimuli/spore_stims/complex_15_A_b.gif","","","","",""
"","4184.019999986049","survey-multi-choice","133","901729","0.0-30.0","SS1619739958178","math_question","","","","","","","","","","","","{""Q0"":""9""}","[0]","9","",""
"","null","html-keyboard-response","134","902563","0.0-31.0-0.0","SS1619739958178","","","null","","","","","","<p><img src= images/blank.png width =""600"" height = ""600"" style=""position:fixed;top:50%; left:50%; transform: translate(-50%, -50%); border:5px solid black"">","","","","","","","",""
"","1352.3300000233576","sequential-stimulus-presentation-old","135","904425","0.0-31.0-1.0","SS1619739958178","trial","","40","500","1852.3300000233576","images/stimuli/spore_stims/complex_15_A_a.gif","images/stimuli/spore_stims/complex_11_A_b.gif","self_paced","","11","complex_dissimilar","images/stimuli/spore_stims/complex_11_A_b.gif","","","","",""
"","null","html-keyboard-response","136","905568","0.0-31.0-0.1","SS1619739958178","","","null","","","","","","<p><img src= images/blank.png width =""600"" height = ""600"" style=""position:fixed;top:50%; left:50%; transform: translate(-50%, -50%); border:5px solid black"">","","","","","","","",""
"","665.3850000002421","sequential-stimulus-presentation-old","137","906737","0.0-31.0-1.1","SS1619739958178","trial","","40","500","1165.3850000002421","images/stimuli/spore_stims/complex_15_A_a.gif","images/stimuli/spore_stims/complex_11_A_b.gif","self_paced","","11","complex_dissimilar","images/stimuli/spore_stims/complex_15_A_a.gif","","","","",""
"","null","html-keyboard-response","138","907720","0.0-31.0-0.2","SS1619739958178","","","null","","","","","","<p><img src= images/blank.png width =""600"" height = ""600"" style=""position:fixed;top:50%; left:50%; transform: translate(-50%, -50%); border:5px solid black"">","","","","","","","",""
"","333.2700000028126","sequential-stimulus-presentation-old","139","908562","0.0-31.0-1.2","SS1619739958178","trial","","40","500","833.2700000028126","images/stimuli/spore_stims/complex_15_A_a.gif","images/stimuli/spore_stims/complex_11_A_b.gif","self_paced","","11","complex_dissimilar","images/stimuli/spore_stims/complex_11_A_b.gif","","","","",""
"","null","html-keyboard-response","140","909800","0.0-31.0-0.3","SS1619739958178","","","null","","","","","","<p><img src= images/blank.png width =""600"" height = ""600"" style=""position:fixed;top:50%; left:50%; transform: translate(-50%, -50%); border:5px solid black"">","","","","","","","",""
"","426.8249999731779","sequential-stimulus-presentation-old","141","910730","0.0-31.0-1.3","SS1619739958178","trial","","40","500","926.8249999731779","images/stimuli/spore_stims/complex_15_A_a.gif","images/stimuli/spore_stims/complex_11_A_b.gif","self_paced","","11","complex_dissimilar","images/stimuli/spore_stims/complex_11_A_b.gif","","","","",""
"[{""page_index"":0,""viewing_time"":22280.19999997923}]","22280.41000000667","instructions","142","933018","0.0-32.0","SS1619739958178","instructions","","","","","","","","","","","","","","","",""
"","12412.959999986924","survey-likert","143","945434","0.0-33.0","SS1619739958178","similarity_question","","","","","","","","","","","","{""Q0"":3}","[0]","","images/stimuli/spore_stims/complex_15_A_a.gif","images/stimuli/spore_stims/complex_11_A_b.gif"
"","5452.809999987949","survey-likert","144","950890","0.0-34.0","SS1619739958178","similarity_question","","","","","","","","","","","","{""Q0"":3}","[0]","","images/stimuli/spore_stims/complex_05_A_b.gif","images/stimuli/spore_stims/complex_04_A_a.gif"
"","3676.9550000317395","survey-likert","145","954570","0.0-35.0","SS1619739958178","similarity_question","","","","","","","","","","","","{""Q0"":1}","[0]","","images/stimuli/spore_stims/simple_03_A_a.gif","images/stimuli/spore_stims/simple_17_A_b.gif"
"","2612.3999999836087","survey-likert","146","957186","0.0-36.0","SS1619739958178","similarity_question","","","","","","","","","","","","{""Q0"":2}","[0]","","images/stimuli/spore_stims/simple_18_A_a.gif","images/stimuli/spore_stims/simple_13_A_b.gif"
"","4661.540000000969","survey-likert","147","961850","0.0-37.0","SS1619739958178","similarity_question","","","","","","","","","","","","{""Q0"":2}","[0]","","images/stimuli/spore_stims/complex_13_A_a.gif","images/stimuli/spore_stims/complex_02_A_b.gif"
"","4692.274999979418","survey-likert","148","966546","0.0-38.0","SS1619739958178","similarity_question","","","","","","","","","","","","{""Q0"":2}","[0]","","images/stimuli/spore_stims/complex_02_A_a.gif","images/stimuli/spore_stims/complex_15_A_b.gif"
"","2196.475000004284","survey-likert","149","968746","0.0-39.0","SS1619739958178","similarity_question","","","","","","","","","","","","{""Q0"":0}","[0]","","images/stimuli/spore_stims/simple_14_A_b.gif","images/stimuli/spore_stims/simple_13_A_a.gif"
"","3413.234999985434","survey-likert","150","972162","0.0-40.0","SS1619739958178","similarity_question","","","","","","","","","","","","{""Q0"":0}","[0]","","images/stimuli/spore_stims/complex_07_A_a.gif","images/stimuli/spore_stims/complex_14_A_b.gif"
"","3156.950000033248","survey-likert","151","975322","0.0-41.0","SS1619739958178","similarity_question","","","","","","","","","","","","{""Q0"":2}","[0]","","images/stimuli/spore_stims/complex_17_A_b.gif","images/stimuli/spore_stims/complex_19_A_a.gif"
"","2916.979999979958","survey-likert","152","978242","0.0-42.0","SS1619739958178","similarity_question","","","","","","","","","","","","{""Q0"":0}","[0]","","images/stimuli/spore_stims/simple_06_A_a.gif","images/stimuli/spore_stims/simple_20_A_b.gif"
"","2677.1500000031665","survey-likert","153","980922","0.0-43.0","SS1619739958178","similarity_question","","","","","","","","","","","","{""Q0"":0}","[0]","","images/stimuli/spore_stims/simple_11_A_a.gif","images/stimuli/spore_stims/simple_09_A_b.gif"
"","2740.6299999565817","survey-likert","154","983666","0.0-44.0","SS1619739958178","similarity_question","","","","","","","","","","","","{""Q0"":0}","[0]","","images/stimuli/spore_stims/simple_16_A_a.gif","images/stimuli/spore_stims/simple_10_A_b.gif"
"[{""page_index"":0,""viewing_time"":51181.42500001704}]","51181.73000001116","instructions","155","1034849","0.0-45.0","SS1619739958178","instructions","","","","","","","","","","","","","","","",""
"","7861.060000024736","survey-likert","156","1042713","0.0-46.0","SS1619739958178","","","","","","","","","images/stimuli/spore_stims/complex_11_A_b.gif","","","","{""Q0"":1}","[0]","","",""
"","6866.3850000011735","survey-likert","157","1049585","0.0-47.0","SS1619739958178","","","","","","","","","images/stimuli/spore_stims/complex_13_A_a.gif","","","","{""Q0"":4}","[0]","","",""
"","2980.8499999926426","survey-likert","158","1052569","0.0-48.0","SS1619739958178","","","","","","","","","images/stimuli/spore_stims/simple_13_A_b.gif","","","","{""Q0"":0}","[0]","","",""
"","3964.8700000252575","survey-likert","159","1056537","0.0-49.0","SS1619739958178","","","","","","","","","images/stimuli/spore_stims/complex_19_A_a.gif","","","","{""Q0"":5}","[0]","","",""
"","3149.039999989327","survey-likert","160","1059689","0.0-50.0","SS1619739958178","","","","","","","","","images/stimuli/spore_stims/simple_13_A_a.gif","","","","{""Q0"":0}","[0]","","",""
"","3946.6600000159815","survey-likert","161","1063641","0.0-51.0","SS1619739958178","","","","","","","","","images/stimuli/spore_stims/simple_09_A_b.gif","","","","{""Q0"":2}","[0]","","",""
"","3764.9600000004284","survey-likert","162","1067409","0.0-52.0","SS1619739958178","","","","","","","","","images/stimuli/spore_stims/simple_03_A_a.gif","","","","{""Q0"":1}","[0]","","",""
"","3301.350000023376","survey-likert","163","1070714","0.0-53.0","SS1619739958178","","","","","","","","","images/stimuli/spore_stims/complex_04_A_a.gif","","","","{""Q0"":4}","[0]","","",""
"","1740.8399999840185","survey-likert","164","1072458","0.0-54.0","SS1619739958178","","","","","","","","","images/stimuli/spore_stims/simple_20_A_b.gif","","","","{""Q0"":1}","[0]","","",""
"","2116.894999984652","survey-likert","165","1074578","0.0-55.0","SS1619739958178","","","","","","","","","images/stimuli/spore_stims/complex_07_A_a.gif","","","","{""Q0"":5}","[0]","","",""
"","3292.025000031572","survey-likert","166","1077873","0.0-56.0","SS1619739958178","","","","","","","","","images/stimuli/spore_stims/simple_10_A_b.gif","","","","{""Q0"":1}","[0]","","",""
"","5932.429999986198","survey-likert","167","1083810","0.0-57.0","SS1619739958178","","","","","","","","","images/stimuli/spore_stims/complex_02_A_a.gif","","","","{""Q0"":5}","[0]","","",""
"[{""page_index"":0,""viewing_time"":6315.645000024233}]","6315.920000022743","instructions","168","1090129","0.0-58.0","SS1619739958178","instructions","","","","","","","","","","","","","","","",""
"","2841.5900000254624","demog-age","169","1092978","0.0-59.0","SS1619739958178","","","","","","","","","","","","","{""age"":""23""}","","","",""
"","4457.909999997355","demog-ethnic-US","170","1097442","0.0-60.0","SS1619739958178","","","","","","","","","","","","","{""ethnicity"":[""Hispanic or Latino""]}","[0]","","",""
"","15372.320000024047","demog-gender-and-education","171","1112818","0.0-61.0","SS1619739958178","","","","","","","","","","","","","{""gender"":""Female"",""education"":""Bachelor's Degree""}","[0,1]","","",""
"","10906.895000021905","survey-text","172","1123730","0.0-62.0","SS1619739958178","feedback","","","","","","","","","","","","{""Q0"":""NOTHING""}","","","",""
"[{""page_index"":0,""viewing_time"":1668.7350000138395}]","1668.9550000010058","instructions","173","1125402","0.0-63.0","SS1619739958178","instructions","","","","","","","","","","","","","","","",""
