"view_history","rt","trial_type","trial_index","time_elapsed","internal_node_id","subject","stimulus_type","trial_stimulus","key_press","minimum_viewing_duration","trial_looking_time","block_deviant","block_background","exposure_type","stimulus","block_number","block_type","stimulus_displayed","responses","question_order","math_correct_answer","stimulus_left","stimulus_right"
"[{""page_index"":0,""viewing_time"":17930.365000000165}]","17931.055000000924","instructions","0","17933","0.0-0.0","SS1619739921017","","","","","","","","","","","","","","","","",""
"[{""page_index"":0,""viewing_time"":22078.130000001693},{""page_index"":1,""viewing_time"":11912.080000001879}]","33990.49999999988","instructions","1","53928","0.0-1.0","SS1619739921017","instructions","","","","","","","","","","","","","","","",""
"","12909.220000001369","sequential-stimulus-presentation-old","2","67343","0.0-2.0","SS1619739921017","","","40","500","13409.220000001369","null","null","self_paced","","","","","","","","",""
"","8470.934999997553","sequential-stimulus-presentation-old","3","76319","0.0-3.0","SS1619739921017","","","40","500","8970.934999997553","null","null","self_paced","","","","","","","","",""
"[{""page_index"":0,""viewing_time"":18580.934999998135}]","18581.22000000003","instructions","4","94902","0.0-4.0","SS1619739921017","instructions","","","","","","","","","","","","","","","",""
"","8079.499999999825","sequential-stimulus-presentation-old","5","117985","0.0-5.0","SS1619739921017","","","40","500","8579.499999999825","null","null","forced_long","","","","","","","","",""
"","12449.534999999742","sequential-stimulus-presentation-old","6","130937","0.0-6.0","SS1619739921017","","","40","500","12949.534999999742","null","null","forced_long","","","","","","","","",""
"[{""page_index"":0,""viewing_time"":7335.2149999991525}]","7335.420000003069","instructions","7","138274","0.0-7.0","SS1619739921017","instructions","","","","","","","","","","","","","","","",""
"[{""page_index"":0,""viewing_time"":30236.100000001898},{""page_index"":1,""viewing_time"":12471.794999997655},{""page_index"":2,""viewing_time"":8514.654999999038},{""page_index"":3,""viewing_time"":1970.8000000027823},{""page_index"":4,""viewing_time"":1705.3549999982351}]","54899.18000000034","instructions","8","193176","0.0-8.0","SS1619739921017","instructions","","","","","","","","","","","","","","","",""
"","null","html-keyboard-response","9","194318","0.0-9.0-0.0","SS1619739921017","","","null","","","","","","<p><img src= images/blank.png width =""600"" height = ""600"" style=""position:fixed;top:50%; left:50%; transform: translate(-50%, -50%); border:5px solid black"">","","","","","","","",""
"","22924.900000005437","sequential-stimulus-presentation-old","10","217747","0.0-9.0-1.0","SS1619739921017","trial","","40","500","23424.900000005437","images/stimuli/spore_stims/simple_13_A_a.gif","images/stimuli/spore_stims/simple_05_A_b.gif","self_paced","","0","simple_dissimilar","images/stimuli/spore_stims/simple_05_A_b.gif","","","","",""
"","null","html-keyboard-response","11","218690","0.0-9.0-0.1","SS1619739921017","","","null","","","","","","<p><img src= images/blank.png width =""600"" height = ""600"" style=""position:fixed;top:50%; left:50%; transform: translate(-50%, -50%); border:5px solid black"">","","","","","","","",""
"","17021.520000002056","sequential-stimulus-presentation-old","12","236220","0.0-9.0-1.1","SS1619739921017","trial","","40","500","17521.520000002056","images/stimuli/spore_stims/simple_13_A_a.gif","images/stimuli/spore_stims/simple_05_A_b.gif","self_paced","","0","simple_dissimilar","images/stimuli/spore_stims/simple_05_A_b.gif","","","","",""
"","null","html-keyboard-response","13","237266","0.0-9.0-0.2","SS1619739921017","","","null","","","","","","<p><img src= images/blank.png width =""600"" height = ""600"" style=""position:fixed;top:50%; left:50%; transform: translate(-50%, -50%); border:5px solid black"">","","","","","","","",""
"","4081.8249999938416","sequential-stimulus-presentation-old","14","241856","0.0-9.0-1.2","SS1619739921017","trial","","40","500","4581.824999993842","images/stimuli/spore_stims/simple_13_A_a.gif","images/stimuli/spore_stims/simple_05_A_b.gif","self_paced","","0","simple_dissimilar","images/stimuli/spore_stims/simple_05_A_b.gif","","","","",""
"","null","html-keyboard-response","15","243018","0.0-9.0-0.3","SS1619739921017","","","null","","","","","","<p><img src= images/blank.png width =""600"" height = ""600"" style=""position:fixed;top:50%; left:50%; transform: translate(-50%, -50%); border:5px solid black"">","","","","","","","",""
"","12261.435000000347","sequential-stimulus-presentation-old","16","255783","0.0-9.0-1.3","SS1619739921017","trial","","40","500","12761.435000000347","images/stimuli/spore_stims/simple_13_A_a.gif","images/stimuli/spore_stims/simple_05_A_b.gif","self_paced","","0","simple_dissimilar","images/stimuli/spore_stims/simple_13_A_a.gif","","","","",""
"","null","html-keyboard-response","17","256678","0.0-9.0-0.4","SS1619739921017","","","null","","","","","","<p><img src= images/blank.png width =""600"" height = ""600"" style=""position:fixed;top:50%; left:50%; transform: translate(-50%, -50%); border:5px solid black"">","","","","","","","",""
"","6355.435000004945","sequential-stimulus-presentation-old","18","263540","0.0-9.0-1.4","SS1619739921017","trial","","40","500","6855.435000004945","images/stimuli/spore_stims/simple_13_A_a.gif","images/stimuli/spore_stims/simple_05_A_b.gif","self_paced","","0","simple_dissimilar","images/stimuli/spore_stims/simple_05_A_b.gif","","","","",""
"","null","html-keyboard-response","19","264394","0.0-9.0-0.5","SS1619739921017","","","null","","","","","","<p><img src= images/blank.png width =""600"" height = ""600"" style=""position:fixed;top:50%; left:50%; transform: translate(-50%, -50%); border:5px solid black"">","","","","","","","",""
"","6083.57000000251","sequential-stimulus-presentation-old","20","270982","0.0-9.0-1.5","SS1619739921017","trial","","40","500","6583.57000000251","images/stimuli/spore_stims/simple_13_A_a.gif","images/stimuli/spore_stims/simple_05_A_b.gif","self_paced","","0","simple_dissimilar","images/stimuli/spore_stims/simple_05_A_b.gif","","","","",""
"","5135.475000002771","survey-multi-choice","21","276121","0.0-10.0","SS1619739921017","math_question","","","","","","","","","","","","{""Q0"":""2""}","[0]","2","",""
"","null","html-keyboard-response","22","277382","0.0-11.0-0.0","SS1619739921017","","","null","","","","","","<p><img src= images/blank.png width =""600"" height = ""600"" style=""position:fixed;top:50%; left:50%; transform: translate(-50%, -50%); border:5px solid black"">","","","","","","","",""
"","23065.17999999778","sequential-stimulus-presentation-old","23","300951","0.0-11.0-1.0","SS1619739921017","trial","","40","500","23565.17999999778","images/stimuli/spore_stims/complex_10_A_a.gif","images/stimuli/spore_stims/complex_01_A_b.gif","self_paced","","1","complex_dissimilar","images/stimuli/spore_stims/complex_01_A_b.gif","","","","",""
"","null","html-keyboard-response","24","301801","0.0-11.0-0.1","SS1619739921017","","","null","","","","","","<p><img src= images/blank.png width =""600"" height = ""600"" style=""position:fixed;top:50%; left:50%; transform: translate(-50%, -50%); border:5px solid black"">","","","","","","","",""
"","18500.684999999066","sequential-stimulus-presentation-old","25","320807","0.0-11.0-1.1","SS1619739921017","trial","","40","500","19000.684999999066","images/stimuli/spore_stims/complex_10_A_a.gif","images/stimuli/spore_stims/complex_01_A_b.gif","self_paced","","1","complex_dissimilar","images/stimuli/spore_stims/complex_01_A_b.gif","","","","",""
"","null","html-keyboard-response","26","321763","0.0-11.0-0.2","SS1619739921017","","","null","","","","","","<p><img src= images/blank.png width =""600"" height = ""600"" style=""position:fixed;top:50%; left:50%; transform: translate(-50%, -50%); border:5px solid black"">","","","","","","","",""
"","5551.37499999546","sequential-stimulus-presentation-old","27","327822","0.0-11.0-1.2","SS1619739921017","trial","","40","500","6051.37499999546","images/stimuli/spore_stims/complex_10_A_a.gif","images/stimuli/spore_stims/complex_01_A_b.gif","self_paced","","1","complex_dissimilar","images/stimuli/spore_stims/complex_01_A_b.gif","","","","",""
"","null","html-keyboard-response","28","328783","0.0-11.0-0.3","SS1619739921017","","","null","","","","","","<p><img src= images/blank.png width =""600"" height = ""600"" style=""position:fixed;top:50%; left:50%; transform: translate(-50%, -50%); border:5px solid black"">","","","","","","","",""
"","3027.2449999974924","sequential-stimulus-presentation-old","29","332318","0.0-11.0-1.3","SS1619739921017","trial","","40","500","3527.2449999974924","images/stimuli/spore_stims/complex_10_A_a.gif","images/stimuli/spore_stims/complex_01_A_b.gif","self_paced","","1","complex_dissimilar","images/stimuli/spore_stims/complex_01_A_b.gif","","","","",""
"","null","html-keyboard-response","30","333429","0.0-11.0-0.4","SS1619739921017","","","null","","","","","","<p><img src= images/blank.png width =""600"" height = ""600"" style=""position:fixed;top:50%; left:50%; transform: translate(-50%, -50%); border:5px solid black"">","","","","","","","",""
"","13233.404999999038","sequential-stimulus-presentation-old","31","347168","0.0-11.0-1.4","SS1619739921017","trial","","40","500","13733.404999999038","images/stimuli/spore_stims/complex_10_A_a.gif","images/stimuli/spore_stims/complex_01_A_b.gif","self_paced","","1","complex_dissimilar","images/stimuli/spore_stims/complex_10_A_a.gif","","","","",""
"","4852.05500000302","survey-multi-choice","32","352022","0.0-12.0","SS1619739921017","math_question","","","","","","","","","","","","{""Q0"":""6""}","[0]","6","",""
"","null","html-keyboard-response","33","353097","0.0-13.0-0.0","SS1619739921017","","","null","","","","","","<p><img src= images/blank.png width =""600"" height = ""600"" style=""position:fixed;top:50%; left:50%; transform: translate(-50%, -50%); border:5px solid black"">","","","","","","","",""
"","28833.70499999728","sequential-stimulus-presentation-old","34","382438","0.0-13.0-1.0","SS1619739921017","trial","","40","500","29333.70499999728","images/stimuli/spore_stims/simple_20_A_b.gif","images/stimuli/spore_stims/simple_07_A_a.gif","self_paced","","2","simple_dissimilar","images/stimuli/spore_stims/simple_07_A_a.gif","","","","",""
"","null","html-keyboard-response","35","383264","0.0-13.0-0.1","SS1619739921017","","","null","","","","","","<p><img src= images/blank.png width =""600"" height = ""600"" style=""position:fixed;top:50%; left:50%; transform: translate(-50%, -50%); border:5px solid black"">","","","","","","","",""
"","25646.930000002612","sequential-stimulus-presentation-old","36","409417","0.0-13.0-1.1","SS1619739921017","trial","","40","500","26146.930000002612","images/stimuli/spore_stims/simple_20_A_b.gif","images/stimuli/spore_stims/simple_07_A_a.gif","self_paced","","2","simple_dissimilar","images/stimuli/spore_stims/simple_07_A_a.gif","","","","",""
"","null","html-keyboard-response","37","410393","0.0-13.0-0.2","SS1619739921017","","","null","","","","","","<p><img src= images/blank.png width =""600"" height = ""600"" style=""position:fixed;top:50%; left:50%; transform: translate(-50%, -50%); border:5px solid black"">","","","","","","","",""
"","4131.755000002158","sequential-stimulus-presentation-old","38","415033","0.0-13.0-1.2","SS1619739921017","trial","","40","500","4631.755000002158","images/stimuli/spore_stims/simple_20_A_b.gif","images/stimuli/spore_stims/simple_07_A_a.gif","self_paced","","2","simple_dissimilar","images/stimuli/spore_stims/simple_07_A_a.gif","","","","",""
"","null","html-keyboard-response","39","416145","0.0-13.0-0.3","SS1619739921017","","","null","","","","","","<p><img src= images/blank.png width =""600"" height = ""600"" style=""position:fixed;top:50%; left:50%; transform: translate(-50%, -50%); border:5px solid black"">","","","","","","","",""
"","5183.775000004971","sequential-stimulus-presentation-old","40","421833","0.0-13.0-1.3","SS1619739921017","trial","","40","500","5683.775000004971","images/stimuli/spore_stims/simple_20_A_b.gif","images/stimuli/spore_stims/simple_07_A_a.gif","self_paced","","2","simple_dissimilar","images/stimuli/spore_stims/simple_20_A_b.gif","","","","",""
"","5800.165000000561","survey-multi-choice","41","427636","0.0-14.0","SS1619739921017","math_question","","","","","","","","","","","","{""Q0"":""3""}","[0]","3","",""
"","null","html-keyboard-response","42","428736","0.0-15.0-0.0","SS1619739921017","","","null","","","","","","<p><img src= images/blank.png width =""600"" height = ""600"" style=""position:fixed;top:50%; left:50%; transform: translate(-50%, -50%); border:5px solid black"">","","","","","","","",""
"","7602.624999999534","sequential-stimulus-presentation-old","43","451347","0.0-15.0-1.0","SS1619739921017","trial","","40","500","8102.624999999534","images/stimuli/spore_stims/complex_14_A_a.gif","images/stimuli/spore_stims/complex_03_A_b.gif","forced_long","","3","complex_dissimilar","images/stimuli/spore_stims/complex_03_A_b.gif","","","","",""
"","null","html-keyboard-response","44","452358","0.0-15.0-0.1","SS1619739921017","","","null","","","","","","<p><img src= images/blank.png width =""600"" height = ""600"" style=""position:fixed;top:50%; left:50%; transform: translate(-50%, -50%); border:5px solid black"">","","","","","","","",""
"","18932.349999995495","sequential-stimulus-presentation-old","45","471798","0.0-15.0-1.1","SS1619739921017","trial","","40","500","19432.349999995495","images/stimuli/spore_stims/complex_14_A_a.gif","images/stimuli/spore_stims/complex_03_A_b.gif","forced_long","","3","complex_dissimilar","images/stimuli/spore_stims/complex_03_A_b.gif","","","","",""
"","null","html-keyboard-response","46","472638","0.0-15.0-0.2","SS1619739921017","","","null","","","","","","<p><img src= images/blank.png width =""600"" height = ""600"" style=""position:fixed;top:50%; left:50%; transform: translate(-50%, -50%); border:5px solid black"">","","","","","","","",""
"","5397.100000001956","sequential-stimulus-presentation-old","47","478539","0.0-15.0-1.2","SS1619739921017","trial","","40","500","5897.100000001956","images/stimuli/spore_stims/complex_14_A_a.gif","images/stimuli/spore_stims/complex_03_A_b.gif","forced_long","","3","complex_dissimilar","images/stimuli/spore_stims/complex_14_A_a.gif","","","","",""
"","null","html-keyboard-response","48","479455","0.0-15.0-0.3","SS1619739921017","","","null","","","","","","<p><img src= images/blank.png width =""600"" height = ""600"" style=""position:fixed;top:50%; left:50%; transform: translate(-50%, -50%); border:5px solid black"">","","","","","","","",""
"","13492.85499999678","sequential-stimulus-presentation-old","49","493453","0.0-15.0-1.3","SS1619739921017","trial","","40","500","13992.85499999678","images/stimuli/spore_stims/complex_14_A_a.gif","images/stimuli/spore_stims/complex_03_A_b.gif","forced_long","","3","complex_dissimilar","images/stimuli/spore_stims/complex_03_A_b.gif","","","","",""
"","null","html-keyboard-response","50","494641","0.0-15.0-0.4","SS1619739921017","","","null","","","","","","<p><img src= images/blank.png width =""600"" height = ""600"" style=""position:fixed;top:50%; left:50%; transform: translate(-50%, -50%); border:5px solid black"">","","","","","","","",""
"","7902.730000001611","sequential-stimulus-presentation-old","51","503052","0.0-15.0-1.4","SS1619739921017","trial","","40","500","8402.730000001611","images/stimuli/spore_stims/complex_14_A_a.gif","images/stimuli/spore_stims/complex_03_A_b.gif","forced_long","","3","complex_dissimilar","images/stimuli/spore_stims/complex_03_A_b.gif","","","","",""
"","null","html-keyboard-response","52","504192","0.0-15.0-0.5","SS1619739921017","","","null","","","","","","<p><img src= images/blank.png width =""600"" height = ""600"" style=""position:fixed;top:50%; left:50%; transform: translate(-50%, -50%); border:5px solid black"">","","","","","","","",""
"","1294.6200000005774","sequential-stimulus-presentation-old","53","505996","0.0-15.0-1.5","SS1619739921017","trial","","40","500","1794.6200000005774","images/stimuli/spore_stims/complex_14_A_a.gif","images/stimuli/spore_stims/complex_03_A_b.gif","forced_long","","3","complex_dissimilar","images/stimuli/spore_stims/complex_14_A_a.gif","","","","",""
"","5216.485000004468","survey-multi-choice","54","511214","0.0-16.0","SS1619739921017","math_question","","","","","","","","","","","","{""Q0"":""6""}","[0]","6","",""
"","null","html-keyboard-response","55","512324","0.0-17.0-0.0","SS1619739921017","","","null","","","","","","<p><img src= images/blank.png width =""600"" height = ""600"" style=""position:fixed;top:50%; left:50%; transform: translate(-50%, -50%); border:5px solid black"">","","","","","","","",""
"","3075.8449999995064","sequential-stimulus-presentation-old","56","530406","0.0-17.0-1.0","SS1619739921017","trial","","40","500","3575.8449999995064","images/stimuli/spore_stims/simple_17_A_b.gif","images/stimuli/spore_stims/simple_11_A_a.gif","forced_long","","4","simple_dissimilar","images/stimuli/spore_stims/simple_11_A_a.gif","","","","",""
"","null","html-keyboard-response","57","531397","0.0-17.0-0.1","SS1619739921017","","","null","","","","","","<p><img src= images/blank.png width =""600"" height = ""600"" style=""position:fixed;top:50%; left:50%; transform: translate(-50%, -50%); border:5px solid black"">","","","","","","","",""
"","2605.904999996652","sequential-stimulus-presentation-old","58","534508","0.0-17.0-1.1","SS1619739921017","trial","","40","500","3105.904999996652","images/stimuli/spore_stims/simple_17_A_b.gif","images/stimuli/spore_stims/simple_11_A_a.gif","forced_long","","4","simple_dissimilar","images/stimuli/spore_stims/simple_17_A_b.gif","","","","",""
"","null","html-keyboard-response","59","535404","0.0-17.0-0.2","SS1619739921017","","","null","","","","","","<p><img src= images/blank.png width =""600"" height = ""600"" style=""position:fixed;top:50%; left:50%; transform: translate(-50%, -50%); border:5px solid black"">","","","","","","","",""
"","1894.9700000012526","sequential-stimulus-presentation-old","60","537806","0.0-17.0-1.2","SS1619739921017","trial","","40","500","2394.9700000012526","images/stimuli/spore_stims/simple_17_A_b.gif","images/stimuli/spore_stims/simple_11_A_a.gif","forced_long","","4","simple_dissimilar","images/stimuli/spore_stims/simple_11_A_a.gif","","","","",""
"","null","html-keyboard-response","61","539012","0.0-17.0-0.3","SS1619739921017","","","null","","","","","","<p><img src= images/blank.png width =""600"" height = ""600"" style=""position:fixed;top:50%; left:50%; transform: translate(-50%, -50%); border:5px solid black"">","","","","","","","",""
"","500.8349999987986","sequential-stimulus-presentation-old","62","540021","0.0-17.0-1.3","SS1619739921017","trial","","40","500","1000.8349999987986","images/stimuli/spore_stims/simple_17_A_b.gif","images/stimuli/spore_stims/simple_11_A_a.gif","forced_long","","4","simple_dissimilar","images/stimuli/spore_stims/simple_11_A_a.gif","","","","",""
"","null","html-keyboard-response","63","541156","0.0-17.0-0.4","SS1619739921017","","","null","","","","","","<p><img src= images/blank.png width =""600"" height = ""600"" style=""position:fixed;top:50%; left:50%; transform: translate(-50%, -50%); border:5px solid black"">","","","","","","","",""
"","840.570000000298","sequential-stimulus-presentation-old","64","542501","0.0-17.0-1.4","SS1619739921017","trial","","40","500","1340.570000000298","images/stimuli/spore_stims/simple_17_A_b.gif","images/stimuli/spore_stims/simple_11_A_a.gif","forced_long","","4","simple_dissimilar","images/stimuli/spore_stims/simple_11_A_a.gif","","","","",""
"","null","html-keyboard-response","65","543527","0.0-17.0-0.5","SS1619739921017","","","null","","","","","","<p><img src= images/blank.png width =""600"" height = ""600"" style=""position:fixed;top:50%; left:50%; transform: translate(-50%, -50%); border:5px solid black"">","","","","","","","",""
"","1559.8850000023376","sequential-stimulus-presentation-old","66","545596","0.0-17.0-1.5","SS1619739921017","trial","","40","500","2059.8850000023376","images/stimuli/spore_stims/simple_17_A_b.gif","images/stimuli/spore_stims/simple_11_A_a.gif","forced_long","","4","simple_dissimilar","images/stimuli/spore_stims/simple_17_A_b.gif","","","","",""
"","13580.99499999662","survey-multi-choice","67","559179","0.0-18.0","SS1619739921017","math_question","","","","","","","","","","","","{""Q0"":""8""}","[0]","8","",""
"","null","html-keyboard-response","68","560225","0.0-19.0-0.0","SS1619739921017","","","null","","","","","","<p><img src= images/blank.png width =""600"" height = ""600"" style=""position:fixed;top:50%; left:50%; transform: translate(-50%, -50%); border:5px solid black"">","","","","","","","",""
"","21905.42000000272","sequential-stimulus-presentation-old","69","597136","0.0-19.0-1.0","SS1619739921017","trial","","40","500","22405.42000000272","images/stimuli/spore_stims/simple_13_A_b.gif","images/stimuli/spore_stims/simple_04_A_a.gif","forced_long","","5","simple_dissimilar","images/stimuli/spore_stims/simple_04_A_a.gif","","","","",""
"","null","html-keyboard-response","70","597993","0.0-19.0-0.1","SS1619739921017","","","null","","","","","","<p><img src= images/blank.png width =""600"" height = ""600"" style=""position:fixed;top:50%; left:50%; transform: translate(-50%, -50%); border:5px solid black"">","","","","","","","",""
"","26307.610000003362","sequential-stimulus-presentation-old","71","624809","0.0-19.0-1.1","SS1619739921017","trial","","40","500","26807.610000003362","images/stimuli/spore_stims/simple_13_A_b.gif","images/stimuli/spore_stims/simple_04_A_a.gif","forced_long","","5","simple_dissimilar","images/stimuli/spore_stims/simple_04_A_a.gif","","","","",""
"","null","html-keyboard-response","72","625746","0.0-19.0-0.2","SS1619739921017","","","null","","","","","","<p><img src= images/blank.png width =""600"" height = ""600"" style=""position:fixed;top:50%; left:50%; transform: translate(-50%, -50%); border:5px solid black"">","","","","","","","",""
"","9996.24000000034","sequential-stimulus-presentation-old","73","636248","0.0-19.0-1.2","SS1619739921017","trial","","40","500","10496.24000000034","images/stimuli/spore_stims/simple_13_A_b.gif","images/stimuli/spore_stims/simple_04_A_a.gif","forced_long","","5","simple_dissimilar","images/stimuli/spore_stims/simple_04_A_a.gif","","","","",""
"","null","html-keyboard-response","74","637473","0.0-19.0-0.3","SS1619739921017","","","null","","","","","","<p><img src= images/blank.png width =""600"" height = ""600"" style=""position:fixed;top:50%; left:50%; transform: translate(-50%, -50%); border:5px solid black"">","","","","","","","",""
"","3125.4550000012387","sequential-stimulus-presentation-old","75","641104","0.0-19.0-1.3","SS1619739921017","trial","","40","500","3625.4550000012387","images/stimuli/spore_stims/simple_13_A_b.gif","images/stimuli/spore_stims/simple_04_A_a.gif","forced_long","","5","simple_dissimilar","images/stimuli/spore_stims/simple_04_A_a.gif","","","","",""
"","null","html-keyboard-response","76","642139","0.0-19.0-0.4","SS1619739921017","","","null","","","","","","<p><img src= images/blank.png width =""600"" height = ""600"" style=""position:fixed;top:50%; left:50%; transform: translate(-50%, -50%); border:5px solid black"">","","","","","","","",""
"","50728.61499999999","sequential-stimulus-presentation-old","77","693375","0.0-19.0-1.4","SS1619739921017","trial","","40","500","51228.61499999999","images/stimuli/spore_stims/simple_13_A_b.gif","images/stimuli/spore_stims/simple_04_A_a.gif","forced_long","","5","simple_dissimilar","images/stimuli/spore_stims/simple_04_A_a.gif","","","","",""
"","null","html-keyboard-response","78","694584","0.0-19.0-0.5","SS1619739921017","","","null","","","","","","<p><img src= images/blank.png width =""600"" height = ""600"" style=""position:fixed;top:50%; left:50%; transform: translate(-50%, -50%); border:5px solid black"">","","","","","","","",""
"","9152.524999997695","sequential-stimulus-presentation-old","79","704242","0.0-19.0-1.5","SS1619739921017","trial","","40","500","9652.524999997695","images/stimuli/spore_stims/simple_13_A_b.gif","images/stimuli/spore_stims/simple_04_A_a.gif","forced_long","","5","simple_dissimilar","images/stimuli/spore_stims/simple_13_A_b.gif","","","","",""
"","10135.634999998612","survey-multi-choice","80","714380","0.0-20.0","SS1619739921017","math_question","","","","","","","","","","","","{""Q0"":""13""}","[0]","13","",""
"","null","html-keyboard-response","81","715325","0.0-21.0-0.0","SS1619739921017","","","null","","","","","","<p><img src= images/blank.png width =""600"" height = ""600"" style=""position:fixed;top:50%; left:50%; transform: translate(-50%, -50%); border:5px solid black"">","","","","","","","",""
"","15918.195000005653","sequential-stimulus-presentation-old","82","746252","0.0-21.0-1.0","SS1619739921017","trial","","40","500","16418.195000005653","images/stimuli/spore_stims/complex_20_A_b.gif","images/stimuli/spore_stims/complex_13_A_a.gif","forced_long","","6","complex_dissimilar","images/stimuli/spore_stims/complex_13_A_a.gif","","","","",""
"","null","html-keyboard-response","83","747538","0.0-21.0-0.1","SS1619739921017","","","null","","","","","","<p><img src= images/blank.png width =""600"" height = ""600"" style=""position:fixed;top:50%; left:50%; transform: translate(-50%, -50%); border:5px solid black"">","","","","","","","",""
"","8857.949999997858","sequential-stimulus-presentation-old","84","756901","0.0-21.0-1.1","SS1619739921017","trial","","40","500","9357.949999997858","images/stimuli/spore_stims/complex_20_A_b.gif","images/stimuli/spore_stims/complex_13_A_a.gif","forced_long","","6","complex_dissimilar","images/stimuli/spore_stims/complex_20_A_b.gif","","","","",""
"","null","html-keyboard-response","85","757970","0.0-21.0-0.2","SS1619739921017","","","null","","","","","","<p><img src= images/blank.png width =""600"" height = ""600"" style=""position:fixed;top:50%; left:50%; transform: translate(-50%, -50%); border:5px solid black"">","","","","","","","",""
"","2805.3599999984726","sequential-stimulus-presentation-old","86","761283","0.0-21.0-1.2","SS1619739921017","trial","","40","500","3305.3599999984726","images/stimuli/spore_stims/complex_20_A_b.gif","images/stimuli/spore_stims/complex_13_A_a.gif","forced_long","","6","complex_dissimilar","images/stimuli/spore_stims/complex_13_A_a.gif","","","","",""
"","null","html-keyboard-response","87","762424","0.0-21.0-0.3","SS1619739921017","","","null","","","","","","<p><img src= images/blank.png width =""600"" height = ""600"" style=""position:fixed;top:50%; left:50%; transform: translate(-50%, -50%); border:5px solid black"">","","","","","","","",""
"","488.0399999965448","sequential-stimulus-presentation-old","88","763420","0.0-21.0-1.3","SS1619739921017","trial","","40","500","988.0399999965448","images/stimuli/spore_stims/complex_20_A_b.gif","images/stimuli/spore_stims/complex_13_A_a.gif","forced_long","","6","complex_dissimilar","images/stimuli/spore_stims/complex_20_A_b.gif","","","","",""
"","null","html-keyboard-response","89","764524","0.0-21.0-0.4","SS1619739921017","","","null","","","","","","<p><img src= images/blank.png width =""600"" height = ""600"" style=""position:fixed;top:50%; left:50%; transform: translate(-50%, -50%); border:5px solid black"">","","","","","","","",""
"","1594.1349999993108","sequential-stimulus-presentation-old","90","766626","0.0-21.0-1.4","SS1619739921017","trial","","40","500","2094.134999999311","images/stimuli/spore_stims/complex_20_A_b.gif","images/stimuli/spore_stims/complex_13_A_a.gif","forced_long","","6","complex_dissimilar","images/stimuli/spore_stims/complex_13_A_a.gif","","","","",""
"","3974.9300000040093","survey-multi-choice","91","770604","0.0-22.0","SS1619739921017","math_question","","","","","","","","","","","","{""Q0"":""7""}","[0]","7","",""
"","null","html-keyboard-response","92","771469","0.0-23.0-0.0","SS1619739921017","","","null","","","","","","<p><img src= images/blank.png width =""600"" height = ""600"" style=""position:fixed;top:50%; left:50%; transform: translate(-50%, -50%); border:5px solid black"">","","","","","","","",""
"","4266.3200000023935","sequential-stimulus-presentation-old","93","776243","0.0-23.0-1.0","SS1619739921017","trial","","40","500","4766.3200000023935","images/stimuli/spore_stims/complex_08_A_b.gif","images/stimuli/spore_stims/complex_07_A_a.gif","forced_short","","7","complex_dissimilar","images/stimuli/spore_stims/complex_07_A_a.gif","","","","",""
"","null","html-keyboard-response","94","777341","0.0-23.0-0.1","SS1619739921017","","","null","","","","","","<p><img src= images/blank.png width =""600"" height = ""600"" style=""position:fixed;top:50%; left:50%; transform: translate(-50%, -50%); border:5px solid black"">","","","","","","","",""
"","5751.564999998664","sequential-stimulus-presentation-old","95","783597","0.0-23.0-1.1","SS1619739921017","trial","","40","500","6251.564999998664","images/stimuli/spore_stims/complex_08_A_b.gif","images/stimuli/spore_stims/complex_07_A_a.gif","forced_short","","7","complex_dissimilar","images/stimuli/spore_stims/complex_07_A_a.gif","","","","",""
"","null","html-keyboard-response","96","784806","0.0-23.0-0.2","SS1619739921017","","","null","","","","","","<p><img src= images/blank.png width =""600"" height = ""600"" style=""position:fixed;top:50%; left:50%; transform: translate(-50%, -50%); border:5px solid black"">","","","","","","","",""
"","3458.1899999974994","sequential-stimulus-presentation-old","97","788772","0.0-23.0-1.2","SS1619739921017","trial","","40","500","3958.1899999974994","images/stimuli/spore_stims/complex_08_A_b.gif","images/stimuli/spore_stims/complex_07_A_a.gif","forced_short","","7","complex_dissimilar","images/stimuli/spore_stims/complex_08_A_b.gif","","","","",""
"","null","html-keyboard-response","98","790028","0.0-23.0-0.3","SS1619739921017","","","null","","","","","","<p><img src= images/blank.png width =""600"" height = ""600"" style=""position:fixed;top:50%; left:50%; transform: translate(-50%, -50%); border:5px solid black"">","","","","","","","",""
"","1846.3200000042561","sequential-stimulus-presentation-old","99","792381","0.0-23.0-1.3","SS1619739921017","trial","","40","500","2346.320000004256","images/stimuli/spore_stims/complex_08_A_b.gif","images/stimuli/spore_stims/complex_07_A_a.gif","forced_short","","7","complex_dissimilar","images/stimuli/spore_stims/complex_08_A_b.gif","","","","",""
"","4787.290000000154","survey-multi-choice","100","797173","0.0-24.0","SS1619739921017","math_question","","","","","","","","","","","","{""Q0"":""9""}","[0]","9","",""
"","null","html-keyboard-response","101","798289","0.0-25.0-0.0","SS1619739921017","","","null","","","","","","<p><img src= images/blank.png width =""600"" height = ""600"" style=""position:fixed;top:50%; left:50%; transform: translate(-50%, -50%); border:5px solid black"">","","","","","","","",""
"","7005.055000001565","sequential-stimulus-presentation-old","102","805798","0.0-25.0-1.0","SS1619739921017","trial","","40","500","7505.055000001565","images/stimuli/spore_stims/complex_05_A_a.gif","images/stimuli/spore_stims/complex_02_A_b.gif","self_paced","","8","complex_dissimilar","images/stimuli/spore_stims/complex_02_A_b.gif","","","","",""
"","null","html-keyboard-response","103","806953","0.0-25.0-0.1","SS1619739921017","","","null","","","","","","<p><img src= images/blank.png width =""600"" height = ""600"" style=""position:fixed;top:50%; left:50%; transform: translate(-50%, -50%); border:5px solid black"">","","","","","","","",""
"","301.8599999996368","sequential-stimulus-presentation-old","104","807762","0.0-25.0-1.1","SS1619739921017","trial","","40","500","801.8599999996368","images/stimuli/spore_stims/complex_05_A_a.gif","images/stimuli/spore_stims/complex_02_A_b.gif","self_paced","","8","complex_dissimilar","images/stimuli/spore_stims/complex_02_A_b.gif","","","","",""
"","null","html-keyboard-response","105","808920","0.0-25.0-0.2","SS1619739921017","","","null","","","","","","<p><img src= images/blank.png width =""600"" height = ""600"" style=""position:fixed;top:50%; left:50%; transform: translate(-50%, -50%); border:5px solid black"">","","","","","","","",""
"","1211.5950000006706","sequential-stimulus-presentation-old","106","810636","0.0-25.0-1.2","SS1619739921017","trial","","40","500","1711.5950000006706","images/stimuli/spore_stims/complex_05_A_a.gif","images/stimuli/spore_stims/complex_02_A_b.gif","self_paced","","8","complex_dissimilar","images/stimuli/spore_stims/complex_02_A_b.gif","","","","",""
"","null","html-keyboard-response","107","811587","0.0-25.0-0.3","SS1619739921017","","","null","","","","","","<p><img src= images/blank.png width =""600"" height = ""600"" style=""position:fixed;top:50%; left:50%; transform: translate(-50%, -50%); border:5px solid black"">","","","","","","","",""
"","79.94999999937136","sequential-stimulus-presentation-old","108","812173","0.0-25.0-1.3","SS1619739921017","trial","","40","500","579.9499999993714","images/stimuli/spore_stims/complex_05_A_a.gif","images/stimuli/spore_stims/complex_02_A_b.gif","self_paced","","8","complex_dissimilar","images/stimuli/spore_stims/complex_02_A_b.gif","","","","",""
"","null","html-keyboard-response","109","813362","0.0-25.0-0.4","SS1619739921017","","","null","","","","","","<p><img src= images/blank.png width =""600"" height = ""600"" style=""position:fixed;top:50%; left:50%; transform: translate(-50%, -50%); border:5px solid black"">","","","","","","","",""
"","3676.2699999962933","sequential-stimulus-presentation-old","110","817545","0.0-25.0-1.4","SS1619739921017","trial","","40","500","4176.269999996293","images/stimuli/spore_stims/complex_05_A_a.gif","images/stimuli/spore_stims/complex_02_A_b.gif","self_paced","","8","complex_dissimilar","images/stimuli/spore_stims/complex_05_A_a.gif","","","","",""
"","null","html-keyboard-response","111","818691","0.0-25.0-0.5","SS1619739921017","","","null","","","","","","<p><img src= images/blank.png width =""600"" height = ""600"" style=""position:fixed;top:50%; left:50%; transform: translate(-50%, -50%); border:5px solid black"">","","","","","","","",""
"","14191.370000000577","sequential-stimulus-presentation-old","112","833389","0.0-25.0-1.5","SS1619739921017","trial","","40","500","14691.370000000577","images/stimuli/spore_stims/complex_05_A_a.gif","images/stimuli/spore_stims/complex_02_A_b.gif","self_paced","","8","complex_dissimilar","images/stimuli/spore_stims/complex_05_A_a.gif","","","","",""
"","8681.849999993574","survey-multi-choice","113","842074","0.0-26.0","SS1619739921017","math_question","","","","","","","","","","","","{""Q0"":""13""}","[0]","13","",""
"","null","html-keyboard-response","114","843092","0.0-27.0-0.0","SS1619739921017","","","null","","","","","","<p><img src= images/blank.png width =""600"" height = ""600"" style=""position:fixed;top:50%; left:50%; transform: translate(-50%, -50%); border:5px solid black"">","","","","","","","",""
"","1841.6449999930337","sequential-stimulus-presentation-old","115","845440","0.0-27.0-1.0","SS1619739921017","trial","","40","500","2341.6449999930337","images/stimuli/spore_stims/simple_14_A_a.gif","images/stimuli/spore_stims/simple_08_A_b.gif","forced_short","","9","simple_dissimilar","images/stimuli/spore_stims/simple_08_A_b.gif","","","","",""
"","null","html-keyboard-response","116","846458","0.0-27.0-0.1","SS1619739921017","","","null","","","","","","<p><img src= images/blank.png width =""600"" height = ""600"" style=""position:fixed;top:50%; left:50%; transform: translate(-50%, -50%); border:5px solid black"">","","","","","","","",""
"","126.16999999596737","sequential-stimulus-presentation-old","117","847090","0.0-27.0-1.1","SS1619739921017","trial","","40","500","626.1699999959674","images/stimuli/spore_stims/simple_14_A_a.gif","images/stimuli/spore_stims/simple_08_A_b.gif","forced_short","","9","simple_dissimilar","images/stimuli/spore_stims/simple_08_A_b.gif","","","","",""
"","null","html-keyboard-response","118","848148","0.0-27.0-0.2","SS1619739921017","","","null","","","","","","<p><img src= images/blank.png width =""600"" height = ""600"" style=""position:fixed;top:50%; left:50%; transform: translate(-50%, -50%); border:5px solid black"">","","","","","","","",""
"","216.78000000258908","sequential-stimulus-presentation-old","119","848870","0.0-27.0-1.2","SS1619739921017","trial","","40","500","716.7800000025891","images/stimuli/spore_stims/simple_14_A_a.gif","images/stimuli/spore_stims/simple_08_A_b.gif","forced_short","","9","simple_dissimilar","images/stimuli/spore_stims/simple_08_A_b.gif","","","","",""
"","null","html-keyboard-response","120","850090","0.0-27.0-0.3","SS1619739921017","","","null","","","","","","<p><img src= images/blank.png width =""600"" height = ""600"" style=""position:fixed;top:50%; left:50%; transform: translate(-50%, -50%); border:5px solid black"">","","","","","","","",""
"","875.4400000034366","sequential-stimulus-presentation-old","121","851471","0.0-27.0-1.3","SS1619739921017","trial","","40","500","1375.4400000034366","images/stimuli/spore_stims/simple_14_A_a.gif","images/stimuli/spore_stims/simple_08_A_b.gif","forced_short","","9","simple_dissimilar","images/stimuli/spore_stims/simple_08_A_b.gif","","","","",""
"","null","html-keyboard-response","122","852716","0.0-27.0-0.4","SS1619739921017","","","null","","","","","","<p><img src= images/blank.png width =""600"" height = ""600"" style=""position:fixed;top:50%; left:50%; transform: translate(-50%, -50%); border:5px solid black"">","","","","","","","",""
"","70.53499999886844","sequential-stimulus-presentation-old","123","853291","0.0-27.0-1.4","SS1619739921017","trial","","40","500","570.5349999988684","images/stimuli/spore_stims/simple_14_A_a.gif","images/stimuli/spore_stims/simple_08_A_b.gif","forced_short","","9","simple_dissimilar","images/stimuli/spore_stims/simple_08_A_b.gif","","","","",""
"","null","html-keyboard-response","124","854235","0.0-27.0-0.5","SS1619739921017","","","null","","","","","","<p><img src= images/blank.png width =""600"" height = ""600"" style=""position:fixed;top:50%; left:50%; transform: translate(-50%, -50%); border:5px solid black"">","","","","","","","",""
"","393.2300000014948","sequential-stimulus-presentation-old","125","855134","0.0-27.0-1.5","SS1619739921017","trial","","40","500","893.2300000014948","images/stimuli/spore_stims/simple_14_A_a.gif","images/stimuli/spore_stims/simple_08_A_b.gif","forced_short","","9","simple_dissimilar","images/stimuli/spore_stims/simple_08_A_b.gif","","","","",""
"","3771.1300000010524","survey-multi-choice","126","858908","0.0-28.0","SS1619739921017","math_question","","","","","","","","","","","","{""Q0"":""9""}","[0]","9","",""
"","null","html-keyboard-response","127","860119","0.0-29.0-0.0","SS1619739921017","","","null","","","","","","<p><img src= images/blank.png width =""600"" height = ""600"" style=""position:fixed;top:50%; left:50%; transform: translate(-50%, -50%); border:5px solid black"">","","","","","","","",""
"","5846.2599999983795","sequential-stimulus-presentation-old","128","866470","0.0-29.0-1.0","SS1619739921017","trial","","40","500","6346.2599999983795","images/stimuli/spore_stims/complex_12_A_a.gif","images/stimuli/spore_stims/complex_11_A_b.gif","forced_short","","10","complex_dissimilar","images/stimuli/spore_stims/complex_11_A_b.gif","","","","",""
"","null","html-keyboard-response","129","867592","0.0-29.0-0.1","SS1619739921017","","","null","","","","","","<p><img src= images/blank.png width =""600"" height = ""600"" style=""position:fixed;top:50%; left:50%; transform: translate(-50%, -50%); border:5px solid black"">","","","","","","","",""
"","5284.685000005877","sequential-stimulus-presentation-old","130","873383","0.0-29.0-1.1","SS1619739921017","trial","","40","500","5784.685000005877","images/stimuli/spore_stims/complex_12_A_a.gif","images/stimuli/spore_stims/complex_11_A_b.gif","forced_short","","10","complex_dissimilar","images/stimuli/spore_stims/complex_11_A_b.gif","","","","",""
"","null","html-keyboard-response","131","874254","0.0-29.0-0.2","SS1619739921017","","","null","","","","","","<p><img src= images/blank.png width =""600"" height = ""600"" style=""position:fixed;top:50%; left:50%; transform: translate(-50%, -50%); border:5px solid black"">","","","","","","","",""
"","2684.515000000829","sequential-stimulus-presentation-old","132","877447","0.0-29.0-1.2","SS1619739921017","trial","","40","500","3184.515000000829","images/stimuli/spore_stims/complex_12_A_a.gif","images/stimuli/spore_stims/complex_11_A_b.gif","forced_short","","10","complex_dissimilar","images/stimuli/spore_stims/complex_11_A_b.gif","","","","",""
"","null","html-keyboard-response","133","878325","0.0-29.0-0.3","SS1619739921017","","","null","","","","","","<p><img src= images/blank.png width =""600"" height = ""600"" style=""position:fixed;top:50%; left:50%; transform: translate(-50%, -50%); border:5px solid black"">","","","","","","","",""
"","4182.6300000030315","sequential-stimulus-presentation-old","134","883015","0.0-29.0-1.3","SS1619739921017","trial","","40","500","4682.6300000030315","images/stimuli/spore_stims/complex_12_A_a.gif","images/stimuli/spore_stims/complex_11_A_b.gif","forced_short","","10","complex_dissimilar","images/stimuli/spore_stims/complex_12_A_a.gif","","","","",""
"","null","html-keyboard-response","135","884000","0.0-29.0-0.4","SS1619739921017","","","null","","","","","","<p><img src= images/blank.png width =""600"" height = ""600"" style=""position:fixed;top:50%; left:50%; transform: translate(-50%, -50%); border:5px solid black"">","","","","","","","",""
"","3805.850000004284","sequential-stimulus-presentation-old","136","888312","0.0-29.0-1.4","SS1619739921017","trial","","40","500","4305.850000004284","images/stimuli/spore_stims/complex_12_A_a.gif","images/stimuli/spore_stims/complex_11_A_b.gif","forced_short","","10","complex_dissimilar","images/stimuli/spore_stims/complex_11_A_b.gif","","","","",""
"","null","html-keyboard-response","137","889271","0.0-29.0-0.5","SS1619739921017","","","null","","","","","","<p><img src= images/blank.png width =""600"" height = ""600"" style=""position:fixed;top:50%; left:50%; transform: translate(-50%, -50%); border:5px solid black"">","","","","","","","",""
"","2004.0399999998044","sequential-stimulus-presentation-old","138","891783","0.0-29.0-1.5","SS1619739921017","trial","","40","500","2504.0399999998044","images/stimuli/spore_stims/complex_12_A_a.gif","images/stimuli/spore_stims/complex_11_A_b.gif","forced_short","","10","complex_dissimilar","images/stimuli/spore_stims/complex_11_A_b.gif","","","","",""
"","4482.32999999891","survey-multi-choice","139","896268","0.0-30.0","SS1619739921017","math_question","","","","","","","","","","","","{""Q0"":""4""}","[0]","4","",""
"","null","html-keyboard-response","140","897301","0.0-31.0-0.0","SS1619739921017","","","null","","","","","","<p><img src= images/blank.png width =""600"" height = ""600"" style=""position:fixed;top:50%; left:50%; transform: translate(-50%, -50%); border:5px solid black"">","","","","","","","",""
"","1000.5200000014156","sequential-stimulus-presentation-old","141","898808","0.0-31.0-1.0","SS1619739921017","trial","","40","500","1500.5200000014156","images/stimuli/spore_stims/simple_15_A_b.gif","images/stimuli/spore_stims/simple_12_A_a.gif","forced_short","","11","simple_dissimilar","images/stimuli/spore_stims/simple_12_A_a.gif","","","","",""
"","null","html-keyboard-response","142","899775","0.0-31.0-0.1","SS1619739921017","","","null","","","","","","<p><img src= images/blank.png width =""600"" height = ""600"" style=""position:fixed;top:50%; left:50%; transform: translate(-50%, -50%); border:5px solid black"">","","","","","","","",""
"","1405.0799999968149","sequential-stimulus-presentation-old","143","901687","0.0-31.0-1.1","SS1619739921017","trial","","40","500","1905.0799999968149","images/stimuli/spore_stims/simple_15_A_b.gif","images/stimuli/spore_stims/simple_12_A_a.gif","forced_short","","11","simple_dissimilar","images/stimuli/spore_stims/simple_12_A_a.gif","","","","",""
"","null","html-keyboard-response","144","902943","0.0-31.0-0.2","SS1619739921017","","","null","","","","","","<p><img src= images/blank.png width =""600"" height = ""600"" style=""position:fixed;top:50%; left:50%; transform: translate(-50%, -50%); border:5px solid black"">","","","","","","","",""
"","120.4349999971455","sequential-stimulus-presentation-old","145","903569","0.0-31.0-1.2","SS1619739921017","trial","","40","500","620.4349999971455","images/stimuli/spore_stims/simple_15_A_b.gif","images/stimuli/spore_stims/simple_12_A_a.gif","forced_short","","11","simple_dissimilar","images/stimuli/spore_stims/simple_12_A_a.gif","","","","",""
"","null","html-keyboard-response","146","904613","0.0-31.0-0.3","SS1619739921017","","","null","","","","","","<p><img src= images/blank.png width =""600"" height = ""600"" style=""position:fixed;top:50%; left:50%; transform: translate(-50%, -50%); border:5px solid black"">","","","","","","","",""
"","104.3400000052061","sequential-stimulus-presentation-old","147","905225","0.0-31.0-1.3","SS1619739921017","trial","","40","500","604.3400000052061","images/stimuli/spore_stims/simple_15_A_b.gif","images/stimuli/spore_stims/simple_12_A_a.gif","forced_short","","11","simple_dissimilar","images/stimuli/spore_stims/simple_12_A_a.gif","","","","",""
"[{""page_index"":0,""viewing_time"":5305.565000002505}]","5305.925000000629","instructions","148","910534","0.0-32.0","SS1619739921017","instructions","","","","","","","","","","","","","","","",""
"","10198.684999995749","survey-likert","149","920737","0.0-33.0","SS1619739921017","similarity_question","","","","","","","","","","","","{""Q0"":4}","[0]","","images/stimuli/spore_stims/simple_04_A_a.gif","images/stimuli/spore_stims/simple_13_A_b.gif"
"","15192.069999997271","survey-likert","150","935935","0.0-34.0","SS1619739921017","similarity_question","","","","","","","","","","","","{""Q0"":2}","[0]","","images/stimuli/spore_stims/complex_13_A_a.gif","images/stimuli/spore_stims/complex_20_A_b.gif"
"","10322.415000002366","survey-likert","151","946263","0.0-35.0","SS1619739921017","similarity_question","","","","","","","","","","","","{""Q0"":2}","[0]","","images/stimuli/spore_stims/simple_14_A_a.gif","images/stimuli/spore_stims/simple_08_A_b.gif"
"","13680.624999993597","survey-likert","152","959950","0.0-36.0","SS1619739921017","similarity_question","","","","","","","","","","","","{""Q0"":2}","[0]","","images/stimuli/spore_stims/complex_12_A_a.gif","images/stimuli/spore_stims/complex_11_A_b.gif"
"","6304.900000002701","survey-likert","153","966256","0.0-37.0","SS1619739921017","similarity_question","","","","","","","","","","","","{""Q0"":4}","[0]","","images/stimuli/spore_stims/simple_17_A_b.gif","images/stimuli/spore_stims/simple_11_A_a.gif"
"","8891.689999996684","survey-likert","154","975148","0.0-38.0","SS1619739921017","similarity_question","","","","","","","","","","","","{""Q0"":3}","[0]","","images/stimuli/spore_stims/complex_01_A_b.gif","images/stimuli/spore_stims/complex_10_A_a.gif"
"","11108.795000000042","survey-likert","155","986258","0.0-39.0","SS1619739921017","similarity_question","","","","","","","","","","","","{""Q0"":1}","[0]","","images/stimuli/spore_stims/complex_03_A_b.gif","images/stimuli/spore_stims/complex_14_A_a.gif"
"","11614.414999996428","survey-likert","156","997876","0.0-40.0","SS1619739921017","similarity_question","","","","","","","","","","","","{""Q0"":4}","[0]","","images/stimuli/spore_stims/complex_08_A_b.gif","images/stimuli/spore_stims/complex_07_A_a.gif"
"","7654.050000004703","survey-likert","157","1005534","0.0-41.0","SS1619739921017","similarity_question","","","","","","","","","","","","{""Q0"":3}","[0]","","images/stimuli/spore_stims/complex_02_A_b.gif","images/stimuli/spore_stims/complex_05_A_a.gif"
"","6893.930000005639","survey-likert","158","1012432","0.0-42.0","SS1619739921017","similarity_question","","","","","","","","","","","","{""Q0"":2}","[0]","","images/stimuli/spore_stims/simple_07_A_a.gif","images/stimuli/spore_stims/simple_20_A_b.gif"
"","6695.175000000745","survey-likert","159","1019131","0.0-43.0","SS1619739921017","similarity_question","","","","","","","","","","","","{""Q0"":4}","[0]","","images/stimuli/spore_stims/simple_05_A_b.gif","images/stimuli/spore_stims/simple_13_A_a.gif"
"","6623.895000004326","survey-likert","160","1025759","0.0-44.0","SS1619739921017","similarity_question","","","","","","","","","","","","{""Q0"":4}","[0]","","images/stimuli/spore_stims/simple_12_A_a.gif","images/stimuli/spore_stims/simple_15_A_b.gif"
"[{""page_index"":0,""viewing_time"":5620.640000000945}]","5620.934999998892","instructions","161","1031383","0.0-45.0","SS1619739921017","instructions","","","","","","","","","","","","","","","",""
"","7161.319999999367","survey-likert","162","1038549","0.0-46.0","SS1619739921017","","","","","","","","","images/stimuli/spore_stims/complex_12_A_a.gif","","","","{""Q0"":4}","[0]","","",""
"","6155.265000001178","survey-likert","163","1044708","0.0-47.0","SS1619739921017","","","","","","","","","images/stimuli/spore_stims/simple_08_A_b.gif","","","","{""Q0"":2}","[0]","","",""
"","5337.084999999264","survey-likert","164","1050050","0.0-48.0","SS1619739921017","","","","","","","","","images/stimuli/spore_stims/simple_05_A_b.gif","","","","{""Q0"":2}","[0]","","",""
"","5462.220000001136","survey-likert","165","1055518","0.0-49.0","SS1619739921017","","","","","","","","","images/stimuli/spore_stims/complex_20_A_b.gif","","","","{""Q0"":4}","[0]","","",""
"","19937.70000000205","survey-likert","166","1075459","0.0-50.0","SS1619739921017","","","","","","","","","images/stimuli/spore_stims/simple_12_A_a.gif","","","","{""Q0"":2}","[0]","","",""
"","9813.090000003343","survey-likert","167","1085277","0.0-51.0","SS1619739921017","","","","","","","","","images/stimuli/spore_stims/complex_08_A_b.gif","","","","{""Q0"":4}","[0]","","",""
"","29569.149999995716","survey-likert","168","1114852","0.0-52.0","SS1619739921017","","","","","","","","","images/stimuli/spore_stims/complex_05_A_a.gif","","","","{""Q0"":5}","[0]","","",""
"","15927.250000000698","survey-likert","169","1130784","0.0-53.0","SS1619739921017","","","","","","","","","images/stimuli/spore_stims/complex_14_A_a.gif","","","","{""Q0"":4}","[0]","","",""
"","6562.12000000244","survey-likert","170","1137356","0.0-54.0","SS1619739921017","","","","","","","","","images/stimuli/spore_stims/simple_13_A_b.gif","","","","{""Q0"":3}","[0]","","",""
"","7223.360000003595","survey-likert","171","1144583","0.0-55.0","SS1619739921017","","","","","","","","","images/stimuli/spore_stims/simple_07_A_a.gif","","","","{""Q0"":2}","[0]","","",""
"","6581.66999999946","survey-likert","172","1151170","0.0-56.0","SS1619739921017","","","","","","","","","images/stimuli/spore_stims/simple_17_A_b.gif","","","","{""Q0"":2}","[0]","","",""
"","6446.3799999940675","survey-likert","173","1157621","0.0-57.0","SS1619739921017","","","","","","","","","images/stimuli/spore_stims/complex_01_A_b.gif","","","","{""Q0"":2}","[0]","","",""
"[{""page_index"":0,""viewing_time"":3393.7900000019}]","3394.0550000041258","instructions","174","1161018","0.0-58.0","SS1619739921017","instructions","","","","","","","","","","","","","","","",""
"","4176.739999995334","demog-age","175","1165200","0.0-59.0","SS1619739921017","","","","","","","","","","","","","{""age"":""33""}","","","",""
"","4663.020000000019","demog-ethnic-US","176","1169870","0.0-60.0","SS1619739921017","","","","","","","","","","","","","{""ethnicity"":[""Black or African American""]}","[0]","","",""
"","9715.254999995697","demog-gender-and-education","177","1179590","0.0-61.0","SS1619739921017","","","","","","","","","","","","","{""gender"":""Female"",""education"":""Master's Degree""}","[0,1]","","",""
"","8263.86500000069","survey-text","178","1187860","0.0-62.0","SS1619739921017","feedback","","","","","","","","","","","","{""Q0"":""None""}","","","",""
"[{""page_index"":0,""viewing_time"":13757.290000001201}]","13757.579999997513","instructions","179","1201621","0.0-63.0","SS1619739921017","instructions","","","","","","","","","","","","","","","",""
