"view_history","rt","trial_type","trial_index","time_elapsed","internal_node_id","subject","stimulus_type","trial_stimulus","key_press","minimum_viewing_duration","trial_looking_time","block_deviant","block_background","exposure_type","stimulus","block_number","block_type","stimulus_displayed","responses","question_order","math_correct_answer","stimulus_left","stimulus_right"
"[{""page_index"":0,""viewing_time"":6941.435000000638}]","6942.810000000463","instructions","0","6945","0.0-0.0","SS1619740033074","","","","","","","","","","","","","","","","",""
"[{""page_index"":0,""viewing_time"":13757.330000000366},{""page_index"":1,""viewing_time"":3656.124999994063}]","17413.76499999751","instructions","1","26367","0.0-1.0","SS1619740033074","instructions","","","","","","","","","","","","","","","",""
"","4998.785000003409","sequential-stimulus-presentation-old","2","31870","0.0-2.0","SS1619740033074","","","40","500","5498.785000003409","null","null","self_paced","","","","","","","","",""
"","4758.800000003248","sequential-stimulus-presentation-old","3","37131","0.0-3.0","SS1619740033074","","","40","500","5258.800000003248","null","null","self_paced","","","","","","","","",""
"[{""page_index"":0,""viewing_time"":33013.10999999987}]","33013.780000001134","instructions","4","70150","0.0-4.0","SS1619740033074","instructions","","","","","","","","","","","","","","","",""
"","31.445000000530854","sequential-stimulus-presentation-old","5","85189","0.0-5.0","SS1619740033074","","","40","500","531.4450000005309","null","null","forced_long","","","","","","","","",""
"","6169.114999996964","sequential-stimulus-presentation-old","6","91861","0.0-6.0","SS1619740033074","","","40","500","6669.114999996964","null","null","forced_long","","","","","","","","",""
"[{""page_index"":0,""viewing_time"":3114.159999997355}]","3114.4750000021304","instructions","7","94977","0.0-7.0","SS1619740033074","instructions","","","","","","","","","","","","","","","",""
"[{""page_index"":0,""viewing_time"":6228.530000000319},{""page_index"":1,""viewing_time"":6771.119999997609},{""page_index"":2,""viewing_time"":4939.265000000887},{""page_index"":3,""viewing_time"":2065.6899999958114},{""page_index"":4,""viewing_time"":1063.1199999988894}]","21068.02500000049","instructions","8","116048","0.0-8.0","SS1619740033074","instructions","","","","","","","","","","","","","","","",""
"","null","html-keyboard-response","9","117071","0.0-9.0-0.0","SS1619740033074","","","null","","","","","","<p><img src= images/blank.png width =""600"" height = ""600"" style=""position:fixed;top:50%; left:50%; transform: translate(-50%, -50%); border:5px solid black"">","","","","","","","",""
"","126.46500000118976","sequential-stimulus-presentation-old","10","132211","0.0-9.0-1.0","SS1619740033074","trial","","40","500","626.4650000011898","images/stimuli/spore_stims/complex_09_A_b.gif","images/stimuli/spore_stims/complex_08_A_a.gif","forced_long","","0","complex_dissimilar","images/stimuli/spore_stims/complex_08_A_a.gif","","","","",""
"","null","html-keyboard-response","11","133435","0.0-9.0-0.1","SS1619740033074","","","null","","","","","","<p><img src= images/blank.png width =""600"" height = ""600"" style=""position:fixed;top:50%; left:50%; transform: translate(-50%, -50%); border:5px solid black"">","","","","","","","",""
"","1263.635000002978","sequential-stimulus-presentation-old","12","135205","0.0-9.0-1.1","SS1619740033074","trial","","40","500","1763.635000002978","images/stimuli/spore_stims/complex_09_A_b.gif","images/stimuli/spore_stims/complex_08_A_a.gif","forced_long","","0","complex_dissimilar","images/stimuli/spore_stims/complex_09_A_b.gif","","","","",""
"","null","html-keyboard-response","13","136143","0.0-9.0-0.2","SS1619740033074","","","null","","","","","","<p><img src= images/blank.png width =""600"" height = ""600"" style=""position:fixed;top:50%; left:50%; transform: translate(-50%, -50%); border:5px solid black"">","","","","","","","",""
"","2193.0349999965983","sequential-stimulus-presentation-old","14","138840","0.0-9.0-1.2","SS1619740033074","trial","","40","500","2693.0349999965983","images/stimuli/spore_stims/complex_09_A_b.gif","images/stimuli/spore_stims/complex_08_A_a.gif","forced_long","","0","complex_dissimilar","images/stimuli/spore_stims/complex_08_A_a.gif","","","","",""
"","null","html-keyboard-response","15","139894","0.0-9.0-0.3","SS1619740033074","","","null","","","","","","<p><img src= images/blank.png width =""600"" height = ""600"" style=""position:fixed;top:50%; left:50%; transform: translate(-50%, -50%); border:5px solid black"">","","","","","","","",""
"","638.1899999978486","sequential-stimulus-presentation-old","16","141041","0.0-9.0-1.3","SS1619740033074","trial","","40","500","1138.1899999978486","images/stimuli/spore_stims/complex_09_A_b.gif","images/stimuli/spore_stims/complex_08_A_a.gif","forced_long","","0","complex_dissimilar","images/stimuli/spore_stims/complex_08_A_a.gif","","","","",""
"","null","html-keyboard-response","17","142031","0.0-9.0-0.4","SS1619740033074","","","null","","","","","","<p><img src= images/blank.png width =""600"" height = ""600"" style=""position:fixed;top:50%; left:50%; transform: translate(-50%, -50%); border:5px solid black"">","","","","","","","",""
"","1037.2200000056182","sequential-stimulus-presentation-old","18","143574","0.0-9.0-1.4","SS1619740033074","trial","","40","500","1537.2200000056182","images/stimuli/spore_stims/complex_09_A_b.gif","images/stimuli/spore_stims/complex_08_A_a.gif","forced_long","","0","complex_dissimilar","images/stimuli/spore_stims/complex_08_A_a.gif","","","","",""
"","null","html-keyboard-response","19","144741","0.0-9.0-0.5","SS1619740033074","","","null","","","","","","<p><img src= images/blank.png width =""600"" height = ""600"" style=""position:fixed;top:50%; left:50%; transform: translate(-50%, -50%); border:5px solid black"">","","","","","","","",""
"","3034.699999996519","sequential-stimulus-presentation-old","20","148282","0.0-9.0-1.5","SS1619740033074","trial","","40","500","3534.699999996519","images/stimuli/spore_stims/complex_09_A_b.gif","images/stimuli/spore_stims/complex_08_A_a.gif","forced_long","","0","complex_dissimilar","images/stimuli/spore_stims/complex_08_A_a.gif","","","","",""
"","4754.150000000664","survey-multi-choice","21","153040","0.0-10.0","SS1619740033074","math_question","","","","","","","","","","","","{""Q0"":""15""}","[0]","15","",""
"","null","html-keyboard-response","22","153997","0.0-11.0-0.0","SS1619740033074","","","null","","","","","","<p><img src= images/blank.png width =""600"" height = ""600"" style=""position:fixed;top:50%; left:50%; transform: translate(-50%, -50%); border:5px solid black"">","","","","","","","",""
"","2718.9199999993434","sequential-stimulus-presentation-old","23","157222","0.0-11.0-1.0","SS1619740033074","trial","","40","500","3218.9199999993434","images/stimuli/spore_stims/simple_10_A_a.gif","images/stimuli/spore_stims/simple_06_A_b.gif","forced_short","","1","simple_dissimilar","images/stimuli/spore_stims/simple_06_A_b.gif","","","","",""
"","null","html-keyboard-response","24","158522","0.0-11.0-0.1","SS1619740033074","","","null","","","","","","<p><img src= images/blank.png width =""600"" height = ""600"" style=""position:fixed;top:50%; left:50%; transform: translate(-50%, -50%); border:5px solid black"">","","","","","","","",""
"","2959.244999998191","sequential-stimulus-presentation-old","25","161986","0.0-11.0-1.1","SS1619740033074","trial","","40","500","3459.244999998191","images/stimuli/spore_stims/simple_10_A_a.gif","images/stimuli/spore_stims/simple_06_A_b.gif","forced_short","","1","simple_dissimilar","images/stimuli/spore_stims/simple_06_A_b.gif","","","","",""
"","null","html-keyboard-response","26","163011","0.0-11.0-0.2","SS1619740033074","","","null","","","","","","<p><img src= images/blank.png width =""600"" height = ""600"" style=""position:fixed;top:50%; left:50%; transform: translate(-50%, -50%); border:5px solid black"">","","","","","","","",""
"","3035.839999996824","sequential-stimulus-presentation-old","27","166553","0.0-11.0-1.2","SS1619740033074","trial","","40","500","3535.839999996824","images/stimuli/spore_stims/simple_10_A_a.gif","images/stimuli/spore_stims/simple_06_A_b.gif","forced_short","","1","simple_dissimilar","images/stimuli/spore_stims/simple_10_A_a.gif","","","","",""
"","null","html-keyboard-response","28","167615","0.0-11.0-0.3","SS1619740033074","","","null","","","","","","<p><img src= images/blank.png width =""600"" height = ""600"" style=""position:fixed;top:50%; left:50%; transform: translate(-50%, -50%); border:5px solid black"">","","","","","","","",""
"","1273.074999997334","sequential-stimulus-presentation-old","29","169396","0.0-11.0-1.3","SS1619740033074","trial","","40","500","1773.074999997334","images/stimuli/spore_stims/simple_10_A_a.gif","images/stimuli/spore_stims/simple_06_A_b.gif","forced_short","","1","simple_dissimilar","images/stimuli/spore_stims/simple_10_A_a.gif","","","","",""
"","null","html-keyboard-response","30","170331","0.0-11.0-0.4","SS1619740033074","","","null","","","","","","<p><img src= images/blank.png width =""600"" height = ""600"" style=""position:fixed;top:50%; left:50%; transform: translate(-50%, -50%); border:5px solid black"">","","","","","","","",""
"","519.26999999705","sequential-stimulus-presentation-old","31","171360","0.0-11.0-1.4","SS1619740033074","trial","","40","500","1019.26999999705","images/stimuli/spore_stims/simple_10_A_a.gif","images/stimuli/spore_stims/simple_06_A_b.gif","forced_short","","1","simple_dissimilar","images/stimuli/spore_stims/simple_06_A_b.gif","","","","",""
"","2476.910000004864","survey-multi-choice","32","173840","0.0-12.0","SS1619740033074","math_question","","","","","","","","","","","","{""Q0"":""16""}","[0]","16","",""
"","null","html-keyboard-response","33","174647","0.0-13.0-0.0","SS1619740033074","","","null","","","","","","<p><img src= images/blank.png width =""600"" height = ""600"" style=""position:fixed;top:50%; left:50%; transform: translate(-50%, -50%); border:5px solid black"">","","","","","","","",""
"","18255.329999999958","sequential-stimulus-presentation-old","34","193406","0.0-13.0-1.0","SS1619740033074","trial","","40","500","18755.329999999958","images/stimuli/spore_stims/complex_06_A_b.gif","images/stimuli/spore_stims/complex_14_A_a.gif","self_paced","","2","complex_dissimilar","images/stimuli/spore_stims/complex_14_A_a.gif","","","","",""
"","null","html-keyboard-response","35","194414","0.0-13.0-0.1","SS1619740033074","","","null","","","","","","<p><img src= images/blank.png width =""600"" height = ""600"" style=""position:fixed;top:50%; left:50%; transform: translate(-50%, -50%); border:5px solid black"">","","","","","","","",""
"","20186.09500000457","sequential-stimulus-presentation-old","36","215781","0.0-13.0-1.1","SS1619740033074","trial","","40","500","20686.09500000457","images/stimuli/spore_stims/complex_06_A_b.gif","images/stimuli/spore_stims/complex_14_A_a.gif","self_paced","","2","complex_dissimilar","images/stimuli/spore_stims/complex_06_A_b.gif","","","","",""
"","null","html-keyboard-response","37","217074","0.0-13.0-0.2","SS1619740033074","","","null","","","","","","<p><img src= images/blank.png width =""600"" height = ""600"" style=""position:fixed;top:50%; left:50%; transform: translate(-50%, -50%); border:5px solid black"">","","","","","","","",""
"","1083.8500000027125","sequential-stimulus-presentation-old","38","218663","0.0-13.0-1.2","SS1619740033074","trial","","40","500","1583.8500000027125","images/stimuli/spore_stims/complex_06_A_b.gif","images/stimuli/spore_stims/complex_14_A_a.gif","self_paced","","2","complex_dissimilar","images/stimuli/spore_stims/complex_14_A_a.gif","","","","",""
"","null","html-keyboard-response","39","219589","0.0-13.0-0.3","SS1619740033074","","","null","","","","","","<p><img src= images/blank.png width =""600"" height = ""600"" style=""position:fixed;top:50%; left:50%; transform: translate(-50%, -50%); border:5px solid black"">","","","","","","","",""
"","496.3449999995646","sequential-stimulus-presentation-old","40","220591","0.0-13.0-1.3","SS1619740033074","trial","","40","500","996.3449999995646","images/stimuli/spore_stims/complex_06_A_b.gif","images/stimuli/spore_stims/complex_14_A_a.gif","self_paced","","2","complex_dissimilar","images/stimuli/spore_stims/complex_14_A_a.gif","","","","",""
"","null","html-keyboard-response","41","221825","0.0-13.0-0.4","SS1619740033074","","","null","","","","","","<p><img src= images/blank.png width =""600"" height = ""600"" style=""position:fixed;top:50%; left:50%; transform: translate(-50%, -50%); border:5px solid black"">","","","","","","","",""
"","928.6549999960698","sequential-stimulus-presentation-old","42","223259","0.0-13.0-1.4","SS1619740033074","trial","","40","500","1428.6549999960698","images/stimuli/spore_stims/complex_06_A_b.gif","images/stimuli/spore_stims/complex_14_A_a.gif","self_paced","","2","complex_dissimilar","images/stimuli/spore_stims/complex_14_A_a.gif","","","","",""
"","2797.1099999995204","survey-multi-choice","43","226059","0.0-14.0","SS1619740033074","math_question","","","","","","","","","","","","{""Q0"":""7""}","[0]","7","",""
"","null","html-keyboard-response","44","227297","0.0-15.0-0.0","SS1619740033074","","","null","","","","","","<p><img src= images/blank.png width =""600"" height = ""600"" style=""position:fixed;top:50%; left:50%; transform: translate(-50%, -50%); border:5px solid black"">","","","","","","","",""
"","1560.5600000053528","sequential-stimulus-presentation-old","45","229363","0.0-15.0-1.0","SS1619740033074","trial","","40","500","2060.560000005353","images/stimuli/spore_stims/complex_13_A_a.gif","images/stimuli/spore_stims/complex_04_A_b.gif","self_paced","","3","complex_dissimilar","images/stimuli/spore_stims/complex_04_A_b.gif","","","","",""
"","null","html-keyboard-response","46","230303","0.0-15.0-0.1","SS1619740033074","","","null","","","","","","<p><img src= images/blank.png width =""600"" height = ""600"" style=""position:fixed;top:50%; left:50%; transform: translate(-50%, -50%); border:5px solid black"">","","","","","","","",""
"","719.4199999939883","sequential-stimulus-presentation-old","47","231529","0.0-15.0-1.1","SS1619740033074","trial","","40","500","1219.4199999939883","images/stimuli/spore_stims/complex_13_A_a.gif","images/stimuli/spore_stims/complex_04_A_b.gif","self_paced","","3","complex_dissimilar","images/stimuli/spore_stims/complex_04_A_b.gif","","","","",""
"","null","html-keyboard-response","48","232499","0.0-15.0-0.2","SS1619740033074","","","null","","","","","","<p><img src= images/blank.png width =""600"" height = ""600"" style=""position:fixed;top:50%; left:50%; transform: translate(-50%, -50%); border:5px solid black"">","","","","","","","",""
"","162.52499999973224","sequential-stimulus-presentation-old","49","233167","0.0-15.0-1.2","SS1619740033074","trial","","40","500","662.5249999997322","images/stimuli/spore_stims/complex_13_A_a.gif","images/stimuli/spore_stims/complex_04_A_b.gif","self_paced","","3","complex_dissimilar","images/stimuli/spore_stims/complex_04_A_b.gif","","","","",""
"","null","html-keyboard-response","50","233990","0.0-15.0-0.3","SS1619740033074","","","null","","","","","","<p><img src= images/blank.png width =""600"" height = ""600"" style=""position:fixed;top:50%; left:50%; transform: translate(-50%, -50%); border:5px solid black"">","","","","","","","",""
"","1428.9449999996577","sequential-stimulus-presentation-old","51","235929","0.0-15.0-1.3","SS1619740033074","trial","","40","500","1928.9449999996577","images/stimuli/spore_stims/complex_13_A_a.gif","images/stimuli/spore_stims/complex_04_A_b.gif","self_paced","","3","complex_dissimilar","images/stimuli/spore_stims/complex_04_A_b.gif","","","","",""
"","2787.974999999278","survey-multi-choice","52","238720","0.0-16.0","SS1619740033074","math_question","","","","","","","","","","","","{""Q0"":""8""}","[0]","8","",""
"","null","html-keyboard-response","53","239616","0.0-17.0-0.0","SS1619740033074","","","null","","","","","","<p><img src= images/blank.png width =""600"" height = ""600"" style=""position:fixed;top:50%; left:50%; transform: translate(-50%, -50%); border:5px solid black"">","","","","","","","",""
"","1159.2250000030617","sequential-stimulus-presentation-old","54","241284","0.0-17.0-1.0","SS1619740033074","trial","","40","500","1659.2250000030617","images/stimuli/spore_stims/complex_18_A_a.gif","images/stimuli/spore_stims/complex_17_A_b.gif","forced_short","","4","complex_dissimilar","images/stimuli/spore_stims/complex_17_A_b.gif","","","","",""
"","null","html-keyboard-response","55","242218","0.0-17.0-0.1","SS1619740033074","","","null","","","","","","<p><img src= images/blank.png width =""600"" height = ""600"" style=""position:fixed;top:50%; left:50%; transform: translate(-50%, -50%); border:5px solid black"">","","","","","","","",""
"","1732.8599999964354","sequential-stimulus-presentation-old","56","244456","0.0-17.0-1.1","SS1619740033074","trial","","40","500","2232.8599999964354","images/stimuli/spore_stims/complex_18_A_a.gif","images/stimuli/spore_stims/complex_17_A_b.gif","forced_short","","4","complex_dissimilar","images/stimuli/spore_stims/complex_17_A_b.gif","","","","",""
"","null","html-keyboard-response","57","245700","0.0-17.0-0.2","SS1619740033074","","","null","","","","","","<p><img src= images/blank.png width =""600"" height = ""600"" style=""position:fixed;top:50%; left:50%; transform: translate(-50%, -50%); border:5px solid black"">","","","","","","","",""
"","659.9649999989197","sequential-stimulus-presentation-old","58","246866","0.0-17.0-1.2","SS1619740033074","trial","","40","500","1159.9649999989197","images/stimuli/spore_stims/complex_18_A_a.gif","images/stimuli/spore_stims/complex_17_A_b.gif","forced_short","","4","complex_dissimilar","images/stimuli/spore_stims/complex_17_A_b.gif","","","","",""
"","null","html-keyboard-response","59","247955","0.0-17.0-0.3","SS1619740033074","","","null","","","","","","<p><img src= images/blank.png width =""600"" height = ""600"" style=""position:fixed;top:50%; left:50%; transform: translate(-50%, -50%); border:5px solid black"">","","","","","","","",""
"","501.975000006496","sequential-stimulus-presentation-old","60","248965","0.0-17.0-1.3","SS1619740033074","trial","","40","500","1001.975000006496","images/stimuli/spore_stims/complex_18_A_a.gif","images/stimuli/spore_stims/complex_17_A_b.gif","forced_short","","4","complex_dissimilar","images/stimuli/spore_stims/complex_17_A_b.gif","","","","",""
"","null","html-keyboard-response","61","249890","0.0-17.0-0.4","SS1619740033074","","","null","","","","","","<p><img src= images/blank.png width =""600"" height = ""600"" style=""position:fixed;top:50%; left:50%; transform: translate(-50%, -50%); border:5px solid black"">","","","","","","","",""
"","1231.6550000032294","sequential-stimulus-presentation-old","62","251629","0.0-17.0-1.4","SS1619740033074","trial","","40","500","1731.6550000032294","images/stimuli/spore_stims/complex_18_A_a.gif","images/stimuli/spore_stims/complex_17_A_b.gif","forced_short","","4","complex_dissimilar","images/stimuli/spore_stims/complex_17_A_b.gif","","","","",""
"","null","html-keyboard-response","63","252631","0.0-17.0-0.5","SS1619740033074","","","null","","","","","","<p><img src= images/blank.png width =""600"" height = ""600"" style=""position:fixed;top:50%; left:50%; transform: translate(-50%, -50%); border:5px solid black"">","","","","","","","",""
"","1251.7399999996996","sequential-stimulus-presentation-old","64","254391","0.0-17.0-1.5","SS1619740033074","trial","","40","500","1751.7399999996996","images/stimuli/spore_stims/complex_18_A_a.gif","images/stimuli/spore_stims/complex_17_A_b.gif","forced_short","","4","complex_dissimilar","images/stimuli/spore_stims/complex_17_A_b.gif","","","","",""
"","2531.9450000024517","survey-multi-choice","65","256926","0.0-18.0","SS1619740033074","math_question","","","","","","","","","","","","{""Q0"":""8""}","[0]","8","",""
"","null","html-keyboard-response","66","257761","0.0-19.0-0.0","SS1619740033074","","","null","","","","","","<p><img src= images/blank.png width =""600"" height = ""600"" style=""position:fixed;top:50%; left:50%; transform: translate(-50%, -50%); border:5px solid black"">","","","","","","","",""
"","2981.4750000005006","sequential-stimulus-presentation-old","67","261250","0.0-19.0-1.0","SS1619740033074","trial","","40","500","3481.4750000005006","images/stimuli/spore_stims/simple_04_A_b.gif","images/stimuli/spore_stims/simple_07_A_a.gif","self_paced","","5","simple_dissimilar","images/stimuli/spore_stims/simple_07_A_a.gif","","","","",""
"","null","html-keyboard-response","68","262076","0.0-19.0-0.1","SS1619740033074","","","null","","","","","","<p><img src= images/blank.png width =""600"" height = ""600"" style=""position:fixed;top:50%; left:50%; transform: translate(-50%, -50%); border:5px solid black"">","","","","","","","",""
"","1256.7899999994552","sequential-stimulus-presentation-old","69","263842","0.0-19.0-1.1","SS1619740033074","trial","","40","500","1756.7899999994552","images/stimuli/spore_stims/simple_04_A_b.gif","images/stimuli/spore_stims/simple_07_A_a.gif","self_paced","","5","simple_dissimilar","images/stimuli/spore_stims/simple_07_A_a.gif","","","","",""
"","null","html-keyboard-response","70","265085","0.0-19.0-0.2","SS1619740033074","","","null","","","","","","<p><img src= images/blank.png width =""600"" height = ""600"" style=""position:fixed;top:50%; left:50%; transform: translate(-50%, -50%); border:5px solid black"">","","","","","","","",""
"","980.969999996887","sequential-stimulus-presentation-old","71","266573","0.0-19.0-1.2","SS1619740033074","trial","","40","500","1480.969999996887","images/stimuli/spore_stims/simple_04_A_b.gif","images/stimuli/spore_stims/simple_07_A_a.gif","self_paced","","5","simple_dissimilar","images/stimuli/spore_stims/simple_07_A_a.gif","","","","",""
"","null","html-keyboard-response","72","267425","0.0-19.0-0.3","SS1619740033074","","","null","","","","","","<p><img src= images/blank.png width =""600"" height = ""600"" style=""position:fixed;top:50%; left:50%; transform: translate(-50%, -50%); border:5px solid black"">","","","","","","","",""
"","708.9500000001863","sequential-stimulus-presentation-old","73","268640","0.0-19.0-1.3","SS1619740033074","trial","","40","500","1208.9500000001863","images/stimuli/spore_stims/simple_04_A_b.gif","images/stimuli/spore_stims/simple_07_A_a.gif","self_paced","","5","simple_dissimilar","images/stimuli/spore_stims/simple_07_A_a.gif","","","","",""
"","null","html-keyboard-response","74","269790","0.0-19.0-0.4","SS1619740033074","","","null","","","","","","<p><img src= images/blank.png width =""600"" height = ""600"" style=""position:fixed;top:50%; left:50%; transform: translate(-50%, -50%); border:5px solid black"">","","","","","","","",""
"","672.2999999983585","sequential-stimulus-presentation-old","75","270967","0.0-19.0-1.4","SS1619740033074","trial","","40","500","1172.2999999983585","images/stimuli/spore_stims/simple_04_A_b.gif","images/stimuli/spore_stims/simple_07_A_a.gif","self_paced","","5","simple_dissimilar","images/stimuli/spore_stims/simple_04_A_b.gif","","","","",""
"","null","html-keyboard-response","76","272176","0.0-19.0-0.5","SS1619740033074","","","null","","","","","","<p><img src= images/blank.png width =""600"" height = ""600"" style=""position:fixed;top:50%; left:50%; transform: translate(-50%, -50%); border:5px solid black"">","","","","","","","",""
"","338.40000000054715","sequential-stimulus-presentation-old","77","273022","0.0-19.0-1.5","SS1619740033074","trial","","40","500","838.4000000005472","images/stimuli/spore_stims/simple_04_A_b.gif","images/stimuli/spore_stims/simple_07_A_a.gif","self_paced","","5","simple_dissimilar","images/stimuli/spore_stims/simple_04_A_b.gif","","","","",""
"","4106.740000002901","survey-multi-choice","78","277133","0.0-20.0","SS1619740033074","math_question","","","","","","","","","","","","{""Q0"":""11""}","[0]","11","",""
"","null","html-keyboard-response","79","278135","0.0-21.0-0.0","SS1619740033074","","","null","","","","","","<p><img src= images/blank.png width =""600"" height = ""600"" style=""position:fixed;top:50%; left:50%; transform: translate(-50%, -50%); border:5px solid black"">","","","","","","","",""
"","5375.325000000885","sequential-stimulus-presentation-old","80","299357","0.0-21.0-1.0","SS1619740033074","trial","","40","500","5875.325000000885","images/stimuli/spore_stims/complex_07_A_a.gif","images/stimuli/spore_stims/complex_20_A_b.gif","forced_long","","6","complex_dissimilar","images/stimuli/spore_stims/complex_20_A_b.gif","","","","",""
"","null","html-keyboard-response","81","300526","0.0-21.0-0.1","SS1619740033074","","","null","","","","","","<p><img src= images/blank.png width =""600"" height = ""600"" style=""position:fixed;top:50%; left:50%; transform: translate(-50%, -50%); border:5px solid black"">","","","","","","","",""
"","304.5449999990524","sequential-stimulus-presentation-old","82","301336","0.0-21.0-1.1","SS1619740033074","trial","","40","500","804.5449999990524","images/stimuli/spore_stims/complex_07_A_a.gif","images/stimuli/spore_stims/complex_20_A_b.gif","forced_long","","6","complex_dissimilar","images/stimuli/spore_stims/complex_20_A_b.gif","","","","",""
"","null","html-keyboard-response","83","302281","0.0-21.0-0.2","SS1619740033074","","","null","","","","","","<p><img src= images/blank.png width =""600"" height = ""600"" style=""position:fixed;top:50%; left:50%; transform: translate(-50%, -50%); border:5px solid black"">","","","","","","","",""
"","9382.339999996475","sequential-stimulus-presentation-old","84","312174","0.0-21.0-1.2","SS1619740033074","trial","","40","500","9882.339999996475","images/stimuli/spore_stims/complex_07_A_a.gif","images/stimuli/spore_stims/complex_20_A_b.gif","forced_long","","6","complex_dissimilar","images/stimuli/spore_stims/complex_20_A_b.gif","","","","",""
"","null","html-keyboard-response","85","313288","0.0-21.0-0.3","SS1619740033074","","","null","","","","","","<p><img src= images/blank.png width =""600"" height = ""600"" style=""position:fixed;top:50%; left:50%; transform: translate(-50%, -50%); border:5px solid black"">","","","","","","","",""
"","3257.89999999688","sequential-stimulus-presentation-old","86","317052","0.0-21.0-1.3","SS1619740033074","trial","","40","500","3757.89999999688","images/stimuli/spore_stims/complex_07_A_a.gif","images/stimuli/spore_stims/complex_20_A_b.gif","forced_long","","6","complex_dissimilar","images/stimuli/spore_stims/complex_07_A_a.gif","","","","",""
"","null","html-keyboard-response","87","318120","0.0-21.0-0.4","SS1619740033074","","","null","","","","","","<p><img src= images/blank.png width =""600"" height = ""600"" style=""position:fixed;top:50%; left:50%; transform: translate(-50%, -50%); border:5px solid black"">","","","","","","","",""
"","1873.5999999989872","sequential-stimulus-presentation-old","88","320506","0.0-21.0-1.4","SS1619740033074","trial","","40","500","2373.599999998987","images/stimuli/spore_stims/complex_07_A_a.gif","images/stimuli/spore_stims/complex_20_A_b.gif","forced_long","","6","complex_dissimilar","images/stimuli/spore_stims/complex_20_A_b.gif","","","","",""
"","3318.839999999909","survey-multi-choice","89","323829","0.0-22.0","SS1619740033074","math_question","","","","","","","","","","","","{""Q0"":""10""}","[0]","10","",""
"","null","html-keyboard-response","90","324779","0.0-23.0-0.0","SS1619740033074","","","null","","","","","","<p><img src= images/blank.png width =""600"" height = ""600"" style=""position:fixed;top:50%; left:50%; transform: translate(-50%, -50%); border:5px solid black"">","","","","","","","",""
"","8277.304999995977","sequential-stimulus-presentation-old","91","348068","0.0-23.0-1.0","SS1619740033074","trial","","40","500","8777.304999995977","images/stimuli/spore_stims/simple_18_A_a.gif","images/stimuli/spore_stims/simple_13_A_b.gif","forced_long","","7","simple_dissimilar","images/stimuli/spore_stims/simple_13_A_b.gif","","","","",""
"","null","html-keyboard-response","92","348898","0.0-23.0-0.1","SS1619740033074","","","null","","","","","","<p><img src= images/blank.png width =""600"" height = ""600"" style=""position:fixed;top:50%; left:50%; transform: translate(-50%, -50%); border:5px solid black"">","","","","","","","",""
"","540.0749999971595","sequential-stimulus-presentation-old","93","349946","0.0-23.0-1.1","SS1619740033074","trial","","40","500","1040.0749999971595","images/stimuli/spore_stims/simple_18_A_a.gif","images/stimuli/spore_stims/simple_13_A_b.gif","forced_long","","7","simple_dissimilar","images/stimuli/spore_stims/simple_18_A_a.gif","","","","",""
"","null","html-keyboard-response","94","350914","0.0-23.0-0.2","SS1619740033074","","","null","","","","","","<p><img src= images/blank.png width =""600"" height = ""600"" style=""position:fixed;top:50%; left:50%; transform: translate(-50%, -50%); border:5px solid black"">","","","","","","","",""
"","101.33499999938067","sequential-stimulus-presentation-old","95","351524","0.0-23.0-1.2","SS1619740033074","trial","","40","500","601.3349999993807","images/stimuli/spore_stims/simple_18_A_a.gif","images/stimuli/spore_stims/simple_13_A_b.gif","forced_long","","7","simple_dissimilar","images/stimuli/spore_stims/simple_13_A_b.gif","","","","",""
"","null","html-keyboard-response","96","352533","0.0-23.0-0.3","SS1619740033074","","","null","","","","","","<p><img src= images/blank.png width =""600"" height = ""600"" style=""position:fixed;top:50%; left:50%; transform: translate(-50%, -50%); border:5px solid black"">","","","","","","","",""
"","323.7449999942328","sequential-stimulus-presentation-old","97","353366","0.0-23.0-1.3","SS1619740033074","trial","","40","500","823.7449999942328","images/stimuli/spore_stims/simple_18_A_a.gif","images/stimuli/spore_stims/simple_13_A_b.gif","forced_long","","7","simple_dissimilar","images/stimuli/spore_stims/simple_13_A_b.gif","","","","",""
"","null","html-keyboard-response","98","354263","0.0-23.0-0.4","SS1619740033074","","","null","","","","","","<p><img src= images/blank.png width =""600"" height = ""600"" style=""position:fixed;top:50%; left:50%; transform: translate(-50%, -50%); border:5px solid black"">","","","","","","","",""
"","116.48000000423053","sequential-stimulus-presentation-old","99","354887","0.0-23.0-1.4","SS1619740033074","trial","","40","500","616.4800000042305","images/stimuli/spore_stims/simple_18_A_a.gif","images/stimuli/spore_stims/simple_13_A_b.gif","forced_long","","7","simple_dissimilar","images/stimuli/spore_stims/simple_13_A_b.gif","","","","",""
"","null","html-keyboard-response","100","355957","0.0-23.0-0.5","SS1619740033074","","","null","","","","","","<p><img src= images/blank.png width =""600"" height = ""600"" style=""position:fixed;top:50%; left:50%; transform: translate(-50%, -50%); border:5px solid black"">","","","","","","","",""
"","627.2850000023027","sequential-stimulus-presentation-old","101","357090","0.0-23.0-1.5","SS1619740033074","trial","","40","500","1127.2850000023027","images/stimuli/spore_stims/simple_18_A_a.gif","images/stimuli/spore_stims/simple_13_A_b.gif","forced_long","","7","simple_dissimilar","images/stimuli/spore_stims/simple_18_A_a.gif","","","","",""
"","7014.135000004899","survey-multi-choice","102","364108","0.0-24.0","SS1619740033074","math_question","","","","","","","","","","","","{""Q0"":""17""}","[0]","17","",""
"","null","html-keyboard-response","103","365399","0.0-25.0-0.0","SS1619740033074","","","null","","","","","","<p><img src= images/blank.png width =""600"" height = ""600"" style=""position:fixed;top:50%; left:50%; transform: translate(-50%, -50%); border:5px solid black"">","","","","","","","",""
"","157.6500000010128","sequential-stimulus-presentation-old","104","380571","0.0-25.0-1.0","SS1619740033074","trial","","40","500","657.6500000010128","images/stimuli/spore_stims/simple_15_A_a.gif","images/stimuli/spore_stims/simple_17_A_b.gif","forced_long","","8","simple_dissimilar","images/stimuli/spore_stims/simple_17_A_b.gif","","","","",""
"","null","html-keyboard-response","105","381752","0.0-25.0-0.1","SS1619740033074","","","null","","","","","","<p><img src= images/blank.png width =""600"" height = ""600"" style=""position:fixed;top:50%; left:50%; transform: translate(-50%, -50%); border:5px solid black"">","","","","","","","",""
"","379.56499999563675","sequential-stimulus-presentation-old","106","382640","0.0-25.0-1.1","SS1619740033074","trial","","40","500","879.5649999956368","images/stimuli/spore_stims/simple_15_A_a.gif","images/stimuli/spore_stims/simple_17_A_b.gif","forced_long","","8","simple_dissimilar","images/stimuli/spore_stims/simple_17_A_b.gif","","","","",""
"","null","html-keyboard-response","107","383618","0.0-25.0-0.2","SS1619740033074","","","null","","","","","","<p><img src= images/blank.png width =""600"" height = ""600"" style=""position:fixed;top:50%; left:50%; transform: translate(-50%, -50%); border:5px solid black"">","","","","","","","",""
"","400.725000006787","sequential-stimulus-presentation-old","108","384529","0.0-25.0-1.2","SS1619740033074","trial","","40","500","900.725000006787","images/stimuli/spore_stims/simple_15_A_a.gif","images/stimuli/spore_stims/simple_17_A_b.gif","forced_long","","8","simple_dissimilar","images/stimuli/spore_stims/simple_17_A_b.gif","","","","",""
"","null","html-keyboard-response","109","385618","0.0-25.0-0.3","SS1619740033074","","","null","","","","","","<p><img src= images/blank.png width =""600"" height = ""600"" style=""position:fixed;top:50%; left:50%; transform: translate(-50%, -50%); border:5px solid black"">","","","","","","","",""
"","306.2350000036531","sequential-stimulus-presentation-old","110","386435","0.0-25.0-1.3","SS1619740033074","trial","","40","500","806.2350000036531","images/stimuli/spore_stims/simple_15_A_a.gif","images/stimuli/spore_stims/simple_17_A_b.gif","forced_long","","8","simple_dissimilar","images/stimuli/spore_stims/simple_17_A_b.gif","","","","",""
"","3652.249999999185","survey-multi-choice","111","390092","0.0-26.0","SS1619740033074","math_question","","","","","","","","","","","","{""Q0"":""16""}","[0]","16","",""
"","null","html-keyboard-response","112","391004","0.0-27.0-0.0","SS1619740033074","","","null","","","","","","<p><img src= images/blank.png width =""600"" height = ""600"" style=""position:fixed;top:50%; left:50%; transform: translate(-50%, -50%); border:5px solid black"">","","","","","","","",""
"","368.4399999983725","sequential-stimulus-presentation-old","113","391880","0.0-27.0-1.0","SS1619740033074","trial","","40","500","868.4399999983725","images/stimuli/spore_stims/complex_08_A_b.gif","images/stimuli/spore_stims/complex_20_A_a.gif","forced_short","","9","complex_dissimilar","images/stimuli/spore_stims/complex_20_A_a.gif","","","","",""
"","null","html-keyboard-response","114","392852","0.0-27.0-0.1","SS1619740033074","","","null","","","","","","<p><img src= images/blank.png width =""600"" height = ""600"" style=""position:fixed;top:50%; left:50%; transform: translate(-50%, -50%); border:5px solid black"">","","","","","","","",""
"","996.5749999973923","sequential-stimulus-presentation-old","115","394355","0.0-27.0-1.1","SS1619740033074","trial","","40","500","1496.5749999973923","images/stimuli/spore_stims/complex_08_A_b.gif","images/stimuli/spore_stims/complex_20_A_a.gif","forced_short","","9","complex_dissimilar","images/stimuli/spore_stims/complex_20_A_a.gif","","","","",""
"","null","html-keyboard-response","116","395345","0.0-27.0-0.2","SS1619740033074","","","null","","","","","","<p><img src= images/blank.png width =""600"" height = ""600"" style=""position:fixed;top:50%; left:50%; transform: translate(-50%, -50%); border:5px solid black"">","","","","","","","",""
"","55.109999993874226","sequential-stimulus-presentation-old","117","395907","0.0-27.0-1.2","SS1619740033074","trial","","40","500","555.1099999938742","images/stimuli/spore_stims/complex_08_A_b.gif","images/stimuli/spore_stims/complex_20_A_a.gif","forced_short","","9","complex_dissimilar","images/stimuli/spore_stims/complex_20_A_a.gif","","","","",""
"","null","html-keyboard-response","118","397102","0.0-27.0-0.3","SS1619740033074","","","null","","","","","","<p><img src= images/blank.png width =""600"" height = ""600"" style=""position:fixed;top:50%; left:50%; transform: translate(-50%, -50%); border:5px solid black"">","","","","","","","",""
"","865.5749999961699","sequential-stimulus-presentation-old","119","398477","0.0-27.0-1.3","SS1619740033074","trial","","40","500","1365.57499999617","images/stimuli/spore_stims/complex_08_A_b.gif","images/stimuli/spore_stims/complex_20_A_a.gif","forced_short","","9","complex_dissimilar","images/stimuli/spore_stims/complex_20_A_a.gif","","","","",""
"","2694.289999999455","survey-multi-choice","120","401175","0.0-28.0","SS1619740033074","math_question","","","","","","","","","","","","{""Q0"":""9""}","[0]","9","",""
"","null","html-keyboard-response","121","402166","0.0-29.0-0.0","SS1619740033074","","","null","","","","","","<p><img src= images/blank.png width =""600"" height = ""600"" style=""position:fixed;top:50%; left:50%; transform: translate(-50%, -50%); border:5px solid black"">","","","","","","","",""
"","1560.2950000029523","sequential-stimulus-presentation-old","122","404231","0.0-29.0-1.0","SS1619740033074","trial","","40","500","2060.2950000029523","images/stimuli/spore_stims/simple_13_A_a.gif","images/stimuli/spore_stims/simple_18_A_b.gif","self_paced","","10","simple_dissimilar","images/stimuli/spore_stims/simple_18_A_b.gif","","","","",""
"","null","html-keyboard-response","123","405155","0.0-29.0-0.1","SS1619740033074","","","null","","","","","","<p><img src= images/blank.png width =""600"" height = ""600"" style=""position:fixed;top:50%; left:50%; transform: translate(-50%, -50%); border:5px solid black"">","","","","","","","",""
"","1249.5699999999488","sequential-stimulus-presentation-old","124","406910","0.0-29.0-1.1","SS1619740033074","trial","","40","500","1749.5699999999488","images/stimuli/spore_stims/simple_13_A_a.gif","images/stimuli/spore_stims/simple_18_A_b.gif","self_paced","","10","simple_dissimilar","images/stimuli/spore_stims/simple_18_A_b.gif","","","","",""
"","null","html-keyboard-response","125","408055","0.0-29.0-0.2","SS1619740033074","","","null","","","","","","<p><img src= images/blank.png width =""600"" height = ""600"" style=""position:fixed;top:50%; left:50%; transform: translate(-50%, -50%); border:5px solid black"">","","","","","","","",""
"","455.7649999987916","sequential-stimulus-presentation-old","126","409016","0.0-29.0-1.2","SS1619740033074","trial","","40","500","955.7649999987916","images/stimuli/spore_stims/simple_13_A_a.gif","images/stimuli/spore_stims/simple_18_A_b.gif","self_paced","","10","simple_dissimilar","images/stimuli/spore_stims/simple_18_A_b.gif","","","","",""
"","null","html-keyboard-response","127","410320","0.0-29.0-0.3","SS1619740033074","","","null","","","","","","<p><img src= images/blank.png width =""600"" height = ""600"" style=""position:fixed;top:50%; left:50%; transform: translate(-50%, -50%); border:5px solid black"">","","","","","","","",""
"","1883.109999995213","sequential-stimulus-presentation-old","128","412711","0.0-29.0-1.3","SS1619740033074","trial","","40","500","2383.109999995213","images/stimuli/spore_stims/simple_13_A_a.gif","images/stimuli/spore_stims/simple_18_A_b.gif","self_paced","","10","simple_dissimilar","images/stimuli/spore_stims/simple_13_A_a.gif","","","","",""
"","null","html-keyboard-response","129","413754","0.0-29.0-0.4","SS1619740033074","","","null","","","","","","<p><img src= images/blank.png width =""600"" height = ""600"" style=""position:fixed;top:50%; left:50%; transform: translate(-50%, -50%); border:5px solid black"">","","","","","","","",""
"","285.09499999927357","sequential-stimulus-presentation-old","130","414545","0.0-29.0-1.4","SS1619740033074","trial","","40","500","785.0949999992736","images/stimuli/spore_stims/simple_13_A_a.gif","images/stimuli/spore_stims/simple_18_A_b.gif","self_paced","","10","simple_dissimilar","images/stimuli/spore_stims/simple_18_A_b.gif","","","","",""
"","null","html-keyboard-response","131","415357","0.0-29.0-0.5","SS1619740033074","","","null","","","","","","<p><img src= images/blank.png width =""600"" height = ""600"" style=""position:fixed;top:50%; left:50%; transform: translate(-50%, -50%); border:5px solid black"">","","","","","","","",""
"","869.9750000014319","sequential-stimulus-presentation-old","132","416733","0.0-29.0-1.5","SS1619740033074","trial","","40","500","1369.975000001432","images/stimuli/spore_stims/simple_13_A_a.gif","images/stimuli/spore_stims/simple_18_A_b.gif","self_paced","","10","simple_dissimilar","images/stimuli/spore_stims/simple_18_A_b.gif","","","","",""
"","2243.0200000017066","survey-multi-choice","133","418980","0.0-30.0","SS1619740033074","math_question","","","","","","","","","","","","{""Q0"":""10""}","[0]","10","",""
"","null","html-keyboard-response","134","419835","0.0-31.0-0.0","SS1619740033074","","","null","","","","","","<p><img src= images/blank.png width =""600"" height = ""600"" style=""position:fixed;top:50%; left:50%; transform: translate(-50%, -50%); border:5px solid black"">","","","","","","","",""
"","218.49500000098487","sequential-stimulus-presentation-old","135","420560","0.0-31.0-1.0","SS1619740033074","trial","","40","500","718.4950000009849","images/stimuli/spore_stims/simple_01_A_b.gif","images/stimuli/spore_stims/simple_19_A_a.gif","forced_short","","11","simple_dissimilar","images/stimuli/spore_stims/simple_19_A_a.gif","","","","",""
"","null","html-keyboard-response","136","421574","0.0-31.0-0.1","SS1619740033074","","","null","","","","","","<p><img src= images/blank.png width =""600"" height = ""600"" style=""position:fixed;top:50%; left:50%; transform: translate(-50%, -50%); border:5px solid black"">","","","","","","","",""
"","605.7900000014342","sequential-stimulus-presentation-old","137","422686","0.0-31.0-1.1","SS1619740033074","trial","","40","500","1105.7900000014342","images/stimuli/spore_stims/simple_01_A_b.gif","images/stimuli/spore_stims/simple_19_A_a.gif","forced_short","","11","simple_dissimilar","images/stimuli/spore_stims/simple_19_A_a.gif","","","","",""
"","null","html-keyboard-response","138","423536","0.0-31.0-0.2","SS1619740033074","","","null","","","","","","<p><img src= images/blank.png width =""600"" height = ""600"" style=""position:fixed;top:50%; left:50%; transform: translate(-50%, -50%); border:5px solid black"">","","","","","","","",""
"","513.2999999987078","sequential-stimulus-presentation-old","139","424555","0.0-31.0-1.2","SS1619740033074","trial","","40","500","1013.2999999987078","images/stimuli/spore_stims/simple_01_A_b.gif","images/stimuli/spore_stims/simple_19_A_a.gif","forced_short","","11","simple_dissimilar","images/stimuli/spore_stims/simple_01_A_b.gif","","","","",""
"","null","html-keyboard-response","140","425404","0.0-31.0-0.3","SS1619740033074","","","null","","","","","","<p><img src= images/blank.png width =""600"" height = ""600"" style=""position:fixed;top:50%; left:50%; transform: translate(-50%, -50%); border:5px solid black"">","","","","","","","",""
"","917.1949999945355","sequential-stimulus-presentation-old","141","426830","0.0-31.0-1.3","SS1619740033074","trial","","40","500","1417.1949999945355","images/stimuli/spore_stims/simple_01_A_b.gif","images/stimuli/spore_stims/simple_19_A_a.gif","forced_short","","11","simple_dissimilar","images/stimuli/spore_stims/simple_01_A_b.gif","","","","",""
"","null","html-keyboard-response","142","427736","0.0-31.0-0.4","SS1619740033074","","","null","","","","","","<p><img src= images/blank.png width =""600"" height = ""600"" style=""position:fixed;top:50%; left:50%; transform: translate(-50%, -50%); border:5px solid black"">","","","","","","","",""
"","1090.4399999999441","sequential-stimulus-presentation-old","143","429332","0.0-31.0-1.4","SS1619740033074","trial","","40","500","1590.4399999999441","images/stimuli/spore_stims/simple_01_A_b.gif","images/stimuli/spore_stims/simple_19_A_a.gif","forced_short","","11","simple_dissimilar","images/stimuli/spore_stims/simple_19_A_a.gif","","","","",""
"[{""page_index"":0,""viewing_time"":4376.33499999356}]","4376.6149999937625","instructions","144","433713","0.0-32.0","SS1619740033074","instructions","","","","","","","","","","","","","","","",""
"","7797.439999994822","survey-likert","145","441515","0.0-33.0","SS1619740033074","similarity_question","","","","","","","","","","","","{""Q0"":4}","[0]","","images/stimuli/spore_stims/complex_04_A_b.gif","images/stimuli/spore_stims/complex_13_A_a.gif"
"","3808.6100000000442","survey-likert","146","445328","0.0-34.0","SS1619740033074","similarity_question","","","","","","","","","","","","{""Q0"":1}","[0]","","images/stimuli/spore_stims/simple_04_A_b.gif","images/stimuli/spore_stims/simple_07_A_a.gif"
"","3558.9099999997416","survey-likert","147","448893","0.0-35.0","SS1619740033074","similarity_question","","","","","","","","","","","","{""Q0"":4}","[0]","","images/stimuli/spore_stims/simple_06_A_b.gif","images/stimuli/spore_stims/simple_10_A_a.gif"
"","3449.68499999959","survey-likert","148","452349","0.0-36.0","SS1619740033074","similarity_question","","","","","","","","","","","","{""Q0"":1}","[0]","","images/stimuli/spore_stims/simple_18_A_a.gif","images/stimuli/spore_stims/simple_13_A_b.gif"
"","3625.124999998661","survey-likert","149","455978","0.0-37.0","SS1619740033074","similarity_question","","","","","","","","","","","","{""Q0"":4}","[0]","","images/stimuli/spore_stims/complex_18_A_a.gif","images/stimuli/spore_stims/complex_17_A_b.gif"
"","3088.694999998552","survey-likert","150","459071","0.0-38.0","SS1619740033074","similarity_question","","","","","","","","","","","","{""Q0"":3}","[0]","","images/stimuli/spore_stims/complex_08_A_b.gif","images/stimuli/spore_stims/complex_20_A_a.gif"
"","3840.8800000033807","survey-likert","151","462915","0.0-39.0","SS1619740033074","similarity_question","","","","","","","","","","","","{""Q0"":2}","[0]","","images/stimuli/spore_stims/simple_13_A_a.gif","images/stimuli/spore_stims/simple_18_A_b.gif"
"","3322.5299999976414","survey-likert","152","466242","0.0-40.0","SS1619740033074","similarity_question","","","","","","","","","","","","{""Q0"":4}","[0]","","images/stimuli/spore_stims/simple_15_A_a.gif","images/stimuli/spore_stims/simple_17_A_b.gif"
"","10972.175000002608","survey-likert","153","477220","0.0-41.0","SS1619740033074","similarity_question","","","","","","","","","","","","{""Q0"":4}","[0]","","images/stimuli/spore_stims/complex_14_A_a.gif","images/stimuli/spore_stims/complex_06_A_b.gif"
"","3371.480000001611","survey-likert","154","480596","0.0-42.0","SS1619740033074","similarity_question","","","","","","","","","","","","{""Q0"":5}","[0]","","images/stimuli/spore_stims/simple_01_A_b.gif","images/stimuli/spore_stims/simple_19_A_a.gif"
"","3730.9600000007777","survey-likert","155","484335","0.0-43.0","SS1619740033074","similarity_question","","","","","","","","","","","","{""Q0"":4}","[0]","","images/stimuli/spore_stims/complex_09_A_b.gif","images/stimuli/spore_stims/complex_08_A_a.gif"
"","2875.865000001795","survey-likert","156","487215","0.0-44.0","SS1619740033074","similarity_question","","","","","","","","","","","","{""Q0"":4}","[0]","","images/stimuli/spore_stims/complex_07_A_a.gif","images/stimuli/spore_stims/complex_20_A_b.gif"
"[{""page_index"":0,""viewing_time"":3641.2300000010873}]","3641.539999996894","instructions","157","490859","0.0-45.0","SS1619740033074","instructions","","","","","","","","","","","","","","","",""
"","2639.7499999948195","survey-likert","158","493505","0.0-46.0","SS1619740033074","","","","","","","","","images/stimuli/spore_stims/complex_07_A_a.gif","","","","{""Q0"":4}","[0]","","",""
"","1897.6850000035483","survey-likert","159","495410","0.0-47.0","SS1619740033074","","","","","","","","","images/stimuli/spore_stims/complex_08_A_b.gif","","","","{""Q0"":5}","[0]","","",""
"","2181.0499999992317","survey-likert","160","497598","0.0-48.0","SS1619740033074","","","","","","","","","images/stimuli/spore_stims/simple_18_A_a.gif","","","","{""Q0"":2}","[0]","","",""
"","1986.5799999970477","survey-likert","161","499590","0.0-49.0","SS1619740033074","","","","","","","","","images/stimuli/spore_stims/simple_10_A_a.gif","","","","{""Q0"":2}","[0]","","",""
"","3092.709999997169","survey-likert","162","502687","0.0-50.0","SS1619740033074","","","","","","","","","images/stimuli/spore_stims/simple_07_A_a.gif","","","","{""Q0"":1}","[0]","","",""
"","3126.0849999962375","survey-likert","163","505819","0.0-51.0","SS1619740033074","","","","","","","","","images/stimuli/spore_stims/complex_17_A_b.gif","","","","{""Q0"":4}","[0]","","",""
"","1898.5050000046613","survey-likert","164","507722","0.0-52.0","SS1619740033074","","","","","","","","","images/stimuli/spore_stims/complex_09_A_b.gif","","","","{""Q0"":5}","[0]","","",""
"","2181.475000004866","survey-likert","165","509912","0.0-53.0","SS1619740033074","","","","","","","","","images/stimuli/spore_stims/complex_06_A_b.gif","","","","{""Q0"":5}","[0]","","",""
"","1970.0599999996484","survey-likert","166","511889","0.0-54.0","SS1619740033074","","","","","","","","","images/stimuli/spore_stims/simple_01_A_b.gif","","","","{""Q0"":1}","[0]","","",""
"","3422.2700000027544","survey-likert","167","515316","0.0-55.0","SS1619740033074","","","","","","","","","images/stimuli/spore_stims/complex_04_A_b.gif","","","","{""Q0"":4}","[0]","","",""
"","1998.7099999998463","survey-likert","168","517319","0.0-56.0","SS1619740033074","","","","","","","","","images/stimuli/spore_stims/simple_13_A_a.gif","","","","{""Q0"":2}","[0]","","",""
"","1663.169999999809","survey-likert","169","518987","0.0-57.0","SS1619740033074","","","","","","","","","images/stimuli/spore_stims/simple_15_A_a.gif","","","","{""Q0"":1}","[0]","","",""
"[{""page_index"":0,""viewing_time"":1361.0200000039185}]","1361.4850000012666","instructions","170","520353","0.0-58.0","SS1619740033074","instructions","","","","","","","","","","","","","","","",""
"","1315.2199999967706","demog-age","171","521675","0.0-59.0","SS1619740033074","","","","","","","","","","","","","{""age"":""21""}","","","",""
"","4355.185000000347","demog-ethnic-US","172","526038","0.0-60.0","SS1619740033074","","","","","","","","","","","","","{""ethnicity"":[""Hispanic or Latino"",""White""]}","[0]","","",""
"","9433.595000002184","demog-gender-and-education","173","535477","0.0-61.0","SS1619740033074","","","","","","","","","","","","","{""gender"":""Male"",""education"":""High school diploma""}","[0,1]","","",""
"","24679.6949999989","survey-text","174","560163","0.0-62.0","SS1619740033074","feedback","","","","","","","","","","","","{""Q0"":""Everything was good ! Good luck with the experimentation ""}","","","",""
"[{""page_index"":0,""viewing_time"":1155.7099999991478}]","1155.9049999996787","instructions","175","561322","0.0-63.0","SS1619740033074","instructions","","","","","","","","","","","","","","","",""
