"view_history","rt","trial_type","trial_index","time_elapsed","internal_node_id","subject","stimulus_type","trial_stimulus","key_press","minimum_viewing_duration","trial_looking_time","block_deviant","block_background","exposure_type","stimulus","block_number","block_type","stimulus_displayed","responses","question_order","math_correct_answer","stimulus_left","stimulus_right"
"[{""page_index"":0,""viewing_time"":105126}]","105127","instructions","0","105140","0.0-0.0","SS1619739315680","","","","","","","","","","","","","","","","",""
"[{""page_index"":0,""viewing_time"":63216},{""page_index"":1,""viewing_time"":22377}]","85593","instructions","1","192755","0.0-1.0","SS1619739315680","instructions","","","","","","","","","","","","","","","",""
"","49255","sequential-stimulus-presentation-old","2","242531","0.0-2.0","SS1619739315680","","","40","500","49755","null","null","self_paced","","","","","","","","",""
"","21123","sequential-stimulus-presentation-old","3","264171","0.0-3.0","SS1619739315680","","","40","500","21623","null","null","self_paced","","","","","","","","",""
"[{""page_index"":0,""viewing_time"":27221}]","27222","instructions","4","291397","0.0-4.0","SS1619739315680","instructions","","","","","","","","","","","","","","","",""
"","3428","sequential-stimulus-presentation-old","5","309852","0.0-5.0","SS1619739315680","","","40","500","3928","null","null","forced_long","","","","","","","","",""
"","17483","sequential-stimulus-presentation-old","6","327860","0.0-6.0","SS1619739315680","","","40","500","17983","null","null","forced_long","","","","","","","","",""
"[{""page_index"":0,""viewing_time"":14911}]","14912","instructions","7","342776","0.0-7.0","SS1619739315680","instructions","","","","","","","","","","","","","","","",""
"[{""page_index"":0,""viewing_time"":64378},{""page_index"":1,""viewing_time"":55504},{""page_index"":2,""viewing_time"":15327},{""page_index"":3,""viewing_time"":1817},{""page_index"":4,""viewing_time"":1949}]","138976","instructions","8","481766","0.0-8.0","SS1619739315680","instructions","","","","","","","","","","","","","","","",""
"","null","html-keyboard-response","9","482737","0.0-9.0-0.0","SS1619739315680","","","null","","","","","","<p><img src= images/blank.png width =""600"" height = ""600"" style=""position:fixed;top:50%; left:50%; transform: translate(-50%, -50%); border:5px solid black"">","","","","","","","",""
"","3889","sequential-stimulus-presentation-old","10","487145","0.0-9.0-1.0","SS1619739315680","trial","","40","500","4389","images/stimuli/spore_stims/simple_15_A_b.gif","images/stimuli/spore_stims/simple_19_A_a.gif","self_paced","","0","simple_dissimilar","images/stimuli/spore_stims/simple_19_A_a.gif","","","","",""
"","null","html-keyboard-response","11","488387","0.0-9.0-0.1","SS1619739315680","","","null","","","","","","<p><img src= images/blank.png width =""600"" height = ""600"" style=""position:fixed;top:50%; left:50%; transform: translate(-50%, -50%); border:5px solid black"">","","","","","","","",""
"","5587","sequential-stimulus-presentation-old","12","494497","0.0-9.0-1.1","SS1619739315680","trial","","40","500","6087","images/stimuli/spore_stims/simple_15_A_b.gif","images/stimuli/spore_stims/simple_19_A_a.gif","self_paced","","0","simple_dissimilar","images/stimuli/spore_stims/simple_19_A_a.gif","","","","",""
"","null","html-keyboard-response","13","495336","0.0-9.0-0.2","SS1619739315680","","","null","","","","","","<p><img src= images/blank.png width =""600"" height = ""600"" style=""position:fixed;top:50%; left:50%; transform: translate(-50%, -50%); border:5px solid black"">","","","","","","","",""
"","2737","sequential-stimulus-presentation-old","14","498577","0.0-9.0-1.2","SS1619739315680","trial","","40","500","3237","images/stimuli/spore_stims/simple_15_A_b.gif","images/stimuli/spore_stims/simple_19_A_a.gif","self_paced","","0","simple_dissimilar","images/stimuli/spore_stims/simple_19_A_a.gif","","","","",""
"","null","html-keyboard-response","15","499566","0.0-9.0-0.3","SS1619739315680","","","null","","","","","","<p><img src= images/blank.png width =""600"" height = ""600"" style=""position:fixed;top:50%; left:50%; transform: translate(-50%, -50%); border:5px solid black"">","","","","","","","",""
"","5885","sequential-stimulus-presentation-old","16","505966","0.0-9.0-1.3","SS1619739315680","trial","","40","500","6385","images/stimuli/spore_stims/simple_15_A_b.gif","images/stimuli/spore_stims/simple_19_A_a.gif","self_paced","","0","simple_dissimilar","images/stimuli/spore_stims/simple_15_A_b.gif","","","","",""
"","null","html-keyboard-response","17","507074","0.0-9.0-0.4","SS1619739315680","","","null","","","","","","<p><img src= images/blank.png width =""600"" height = ""600"" style=""position:fixed;top:50%; left:50%; transform: translate(-50%, -50%); border:5px solid black"">","","","","","","","",""
"","3022","sequential-stimulus-presentation-old","18","510614","0.0-9.0-1.4","SS1619739315680","trial","","40","500","3522","images/stimuli/spore_stims/simple_15_A_b.gif","images/stimuli/spore_stims/simple_19_A_a.gif","self_paced","","0","simple_dissimilar","images/stimuli/spore_stims/simple_19_A_a.gif","","","","",""
"","null","html-keyboard-response","19","511686","0.0-9.0-0.5","SS1619739315680","","","null","","","","","","<p><img src= images/blank.png width =""600"" height = ""600"" style=""position:fixed;top:50%; left:50%; transform: translate(-50%, -50%); border:5px solid black"">","","","","","","","",""
"","3710","sequential-stimulus-presentation-old","20","515918","0.0-9.0-1.5","SS1619739315680","trial","","40","500","4210","images/stimuli/spore_stims/simple_15_A_b.gif","images/stimuli/spore_stims/simple_19_A_a.gif","self_paced","","0","simple_dissimilar","images/stimuli/spore_stims/simple_15_A_b.gif","","","","",""
"","6354","survey-multi-choice","21","522297","0.0-10.0","SS1619739315680","math_question","","","","","","","","","","","","{""Q0"":""15""}","[0]","15","",""
"","null","html-keyboard-response","22","523551","0.0-11.0-0.0","SS1619739315680","","","null","","","","","","<p><img src= images/blank.png width =""600"" height = ""600"" style=""position:fixed;top:50%; left:50%; transform: translate(-50%, -50%); border:5px solid black"">","","","","","","","",""
"","4524","sequential-stimulus-presentation-old","23","528599","0.0-11.0-1.0","SS1619739315680","trial","","40","500","5024","images/stimuli/spore_stims/complex_10_A_a.gif","images/stimuli/spore_stims/complex_08_A_b.gif","forced_short","","1","complex_dissimilar","images/stimuli/spore_stims/complex_08_A_b.gif","","","","",""
"","null","html-keyboard-response","24","529783","0.0-11.0-0.1","SS1619739315680","","","null","","","","","","<p><img src= images/blank.png width =""600"" height = ""600"" style=""position:fixed;top:50%; left:50%; transform: translate(-50%, -50%); border:5px solid black"">","","","","","","","",""
"","7605","sequential-stimulus-presentation-old","25","537905","0.0-11.0-1.1","SS1619739315680","trial","","40","500","8105","images/stimuli/spore_stims/complex_10_A_a.gif","images/stimuli/spore_stims/complex_08_A_b.gif","forced_short","","1","complex_dissimilar","images/stimuli/spore_stims/complex_08_A_b.gif","","","","",""
"","null","html-keyboard-response","26","538975","0.0-11.0-0.2","SS1619739315680","","","null","","","","","","<p><img src= images/blank.png width =""600"" height = ""600"" style=""position:fixed;top:50%; left:50%; transform: translate(-50%, -50%); border:5px solid black"">","","","","","","","",""
"","7212","sequential-stimulus-presentation-old","27","546704","0.0-11.0-1.2","SS1619739315680","trial","","40","500","7712","images/stimuli/spore_stims/complex_10_A_a.gif","images/stimuli/spore_stims/complex_08_A_b.gif","forced_short","","1","complex_dissimilar","images/stimuli/spore_stims/complex_08_A_b.gif","","","","",""
"","null","html-keyboard-response","28","547847","0.0-11.0-0.3","SS1619739315680","","","null","","","","","","<p><img src= images/blank.png width =""600"" height = ""600"" style=""position:fixed;top:50%; left:50%; transform: translate(-50%, -50%); border:5px solid black"">","","","","","","","",""
"","2779","sequential-stimulus-presentation-old","29","551144","0.0-11.0-1.3","SS1619739315680","trial","","40","500","3279","images/stimuli/spore_stims/complex_10_A_a.gif","images/stimuli/spore_stims/complex_08_A_b.gif","forced_short","","1","complex_dissimilar","images/stimuli/spore_stims/complex_08_A_b.gif","","","","",""
"","null","html-keyboard-response","30","551963","0.0-11.0-0.4","SS1619739315680","","","null","","","","","","<p><img src= images/blank.png width =""600"" height = ""600"" style=""position:fixed;top:50%; left:50%; transform: translate(-50%, -50%); border:5px solid black"">","","","","","","","",""
"","3925","sequential-stimulus-presentation-old","31","556404","0.0-11.0-1.4","SS1619739315680","trial","","40","500","4425","images/stimuli/spore_stims/complex_10_A_a.gif","images/stimuli/spore_stims/complex_08_A_b.gif","forced_short","","1","complex_dissimilar","images/stimuli/spore_stims/complex_08_A_b.gif","","","","",""
"","3983","survey-multi-choice","32","560400","0.0-12.0","SS1619739315680","math_question","","","","","","","","","","","","{""Q0"":""15""}","[0]","15","",""
"","null","html-keyboard-response","33","561651","0.0-13.0-0.0","SS1619739315680","","","null","","","","","","<p><img src= images/blank.png width =""600"" height = ""600"" style=""position:fixed;top:50%; left:50%; transform: translate(-50%, -50%); border:5px solid black"">","","","","","","","",""
"","3695","sequential-stimulus-presentation-old","34","565866","0.0-13.0-1.0","SS1619739315680","trial","","40","500","4195","images/stimuli/spore_stims/simple_08_A_b.gif","images/stimuli/spore_stims/simple_18_A_a.gif","self_paced","","2","simple_dissimilar","images/stimuli/spore_stims/simple_18_A_a.gif","","","","",""
"","null","html-keyboard-response","35","566920","0.0-13.0-0.1","SS1619739315680","","","null","","","","","","<p><img src= images/blank.png width =""600"" height = ""600"" style=""position:fixed;top:50%; left:50%; transform: translate(-50%, -50%); border:5px solid black"">","","","","","","","",""
"","5649","sequential-stimulus-presentation-old","36","573085","0.0-13.0-1.1","SS1619739315680","trial","","40","500","6149","images/stimuli/spore_stims/simple_08_A_b.gif","images/stimuli/spore_stims/simple_18_A_a.gif","self_paced","","2","simple_dissimilar","images/stimuli/spore_stims/simple_18_A_a.gif","","","","",""
"","null","html-keyboard-response","37","574060","0.0-13.0-0.2","SS1619739315680","","","null","","","","","","<p><img src= images/blank.png width =""600"" height = ""600"" style=""position:fixed;top:50%; left:50%; transform: translate(-50%, -50%); border:5px solid black"">","","","","","","","",""
"","5656","sequential-stimulus-presentation-old","38","580237","0.0-13.0-1.2","SS1619739315680","trial","","40","500","6156","images/stimuli/spore_stims/simple_08_A_b.gif","images/stimuli/spore_stims/simple_18_A_a.gif","self_paced","","2","simple_dissimilar","images/stimuli/spore_stims/simple_18_A_a.gif","","","","",""
"","null","html-keyboard-response","39","581519","0.0-13.0-0.3","SS1619739315680","","","null","","","","","","<p><img src= images/blank.png width =""600"" height = ""600"" style=""position:fixed;top:50%; left:50%; transform: translate(-50%, -50%); border:5px solid black"">","","","","","","","",""
"","3203","sequential-stimulus-presentation-old","40","585233","0.0-13.0-1.3","SS1619739315680","trial","","40","500","3703","images/stimuli/spore_stims/simple_08_A_b.gif","images/stimuli/spore_stims/simple_18_A_a.gif","self_paced","","2","simple_dissimilar","images/stimuli/spore_stims/simple_18_A_a.gif","","","","",""
"","7954","survey-multi-choice","41","593200","0.0-14.0","SS1619739315680","math_question","","","","","","","","","","","","{""Q0"":""14""}","[0]","14","",""
"","null","html-keyboard-response","42","594358","0.0-15.0-0.0","SS1619739315680","","","null","","","","","","<p><img src= images/blank.png width =""600"" height = ""600"" style=""position:fixed;top:50%; left:50%; transform: translate(-50%, -50%); border:5px solid black"">","","","","","","","",""
"","6473","sequential-stimulus-presentation-old","43","601354","0.0-15.0-1.0","SS1619739315680","trial","","40","500","6973","images/stimuli/spore_stims/complex_10_A_b.gif","images/stimuli/spore_stims/complex_03_A_a.gif","self_paced","","3","complex_dissimilar","images/stimuli/spore_stims/complex_03_A_a.gif","","","","",""
"","null","html-keyboard-response","44","602193","0.0-15.0-0.1","SS1619739315680","","","null","","","","","","<p><img src= images/blank.png width =""600"" height = ""600"" style=""position:fixed;top:50%; left:50%; transform: translate(-50%, -50%); border:5px solid black"">","","","","","","","",""
"","3565","sequential-stimulus-presentation-old","45","606276","0.0-15.0-1.1","SS1619739315680","trial","","40","500","4065","images/stimuli/spore_stims/complex_10_A_b.gif","images/stimuli/spore_stims/complex_03_A_a.gif","self_paced","","3","complex_dissimilar","images/stimuli/spore_stims/complex_03_A_a.gif","","","","",""
"","null","html-keyboard-response","46","607109","0.0-15.0-0.2","SS1619739315680","","","null","","","","","","<p><img src= images/blank.png width =""600"" height = ""600"" style=""position:fixed;top:50%; left:50%; transform: translate(-50%, -50%); border:5px solid black"">","","","","","","","",""
"","3984","sequential-stimulus-presentation-old","47","611609","0.0-15.0-1.2","SS1619739315680","trial","","40","500","4484","images/stimuli/spore_stims/complex_10_A_b.gif","images/stimuli/spore_stims/complex_03_A_a.gif","self_paced","","3","complex_dissimilar","images/stimuli/spore_stims/complex_03_A_a.gif","","","","",""
"","null","html-keyboard-response","48","612553","0.0-15.0-0.3","SS1619739315680","","","null","","","","","","<p><img src= images/blank.png width =""600"" height = ""600"" style=""position:fixed;top:50%; left:50%; transform: translate(-50%, -50%); border:5px solid black"">","","","","","","","",""
"","3959","sequential-stimulus-presentation-old","49","617031","0.0-15.0-1.3","SS1619739315680","trial","","40","500","4459","images/stimuli/spore_stims/complex_10_A_b.gif","images/stimuli/spore_stims/complex_03_A_a.gif","self_paced","","3","complex_dissimilar","images/stimuli/spore_stims/complex_03_A_a.gif","","","","",""
"","null","html-keyboard-response","50","618232","0.0-15.0-0.4","SS1619739315680","","","null","","","","","","<p><img src= images/blank.png width =""600"" height = ""600"" style=""position:fixed;top:50%; left:50%; transform: translate(-50%, -50%); border:5px solid black"">","","","","","","","",""
"","3577","sequential-stimulus-presentation-old","51","622331","0.0-15.0-1.4","SS1619739315680","trial","","40","500","4077","images/stimuli/spore_stims/complex_10_A_b.gif","images/stimuli/spore_stims/complex_03_A_a.gif","self_paced","","3","complex_dissimilar","images/stimuli/spore_stims/complex_03_A_a.gif","","","","",""
"","5294","survey-multi-choice","52","627637","0.0-16.0","SS1619739315680","math_question","","","","","","","","","","","","{""Q0"":""10""}","[0]","10","",""
"","null","html-keyboard-response","53","628685","0.0-17.0-0.0","SS1619739315680","","","null","","","","","","<p><img src= images/blank.png width =""600"" height = ""600"" style=""position:fixed;top:50%; left:50%; transform: translate(-50%, -50%); border:5px solid black"">","","","","","","","",""
"","8656","sequential-stimulus-presentation-old","54","652366","0.0-17.0-1.0","SS1619739315680","trial","","40","500","9156","images/stimuli/spore_stims/complex_08_A_a.gif","images/stimuli/spore_stims/complex_09_A_b.gif","forced_long","","4","complex_dissimilar","images/stimuli/spore_stims/complex_09_A_b.gif","","","","",""
"","null","html-keyboard-response","55","653639","0.0-17.0-0.1","SS1619739315680","","","null","","","","","","<p><img src= images/blank.png width =""600"" height = ""600"" style=""position:fixed;top:50%; left:50%; transform: translate(-50%, -50%); border:5px solid black"">","","","","","","","",""
"","5706","sequential-stimulus-presentation-old","56","659867","0.0-17.0-1.1","SS1619739315680","trial","","40","500","6206","images/stimuli/spore_stims/complex_08_A_a.gif","images/stimuli/spore_stims/complex_09_A_b.gif","forced_long","","4","complex_dissimilar","images/stimuli/spore_stims/complex_08_A_a.gif","","","","",""
"","null","html-keyboard-response","57","660756","0.0-17.0-0.2","SS1619739315680","","","null","","","","","","<p><img src= images/blank.png width =""600"" height = ""600"" style=""position:fixed;top:50%; left:50%; transform: translate(-50%, -50%); border:5px solid black"">","","","","","","","",""
"","3150","sequential-stimulus-presentation-old","58","664427","0.0-17.0-1.2","SS1619739315680","trial","","40","500","3650","images/stimuli/spore_stims/complex_08_A_a.gif","images/stimuli/spore_stims/complex_09_A_b.gif","forced_long","","4","complex_dissimilar","images/stimuli/spore_stims/complex_09_A_b.gif","","","","",""
"","null","html-keyboard-response","59","665332","0.0-17.0-0.3","SS1619739315680","","","null","","","","","","<p><img src= images/blank.png width =""600"" height = ""600"" style=""position:fixed;top:50%; left:50%; transform: translate(-50%, -50%); border:5px solid black"">","","","","","","","",""
"","2703","sequential-stimulus-presentation-old","60","668558","0.0-17.0-1.3","SS1619739315680","trial","","40","500","3203","images/stimuli/spore_stims/complex_08_A_a.gif","images/stimuli/spore_stims/complex_09_A_b.gif","forced_long","","4","complex_dissimilar","images/stimuli/spore_stims/complex_08_A_a.gif","","","","",""
"","null","html-keyboard-response","61","669640","0.0-17.0-0.4","SS1619739315680","","","null","","","","","","<p><img src= images/blank.png width =""600"" height = ""600"" style=""position:fixed;top:50%; left:50%; transform: translate(-50%, -50%); border:5px solid black"">","","","","","","","",""
"","2458","sequential-stimulus-presentation-old","62","672618","0.0-17.0-1.4","SS1619739315680","trial","","40","500","2958","images/stimuli/spore_stims/complex_08_A_a.gif","images/stimuli/spore_stims/complex_09_A_b.gif","forced_long","","4","complex_dissimilar","images/stimuli/spore_stims/complex_09_A_b.gif","","","","",""
"","null","html-keyboard-response","63","673655","0.0-17.0-0.5","SS1619739315680","","","null","","","","","","<p><img src= images/blank.png width =""600"" height = ""600"" style=""position:fixed;top:50%; left:50%; transform: translate(-50%, -50%); border:5px solid black"">","","","","","","","",""
"","3474","sequential-stimulus-presentation-old","64","677643","0.0-17.0-1.5","SS1619739315680","trial","","40","500","3974","images/stimuli/spore_stims/complex_08_A_a.gif","images/stimuli/spore_stims/complex_09_A_b.gif","forced_long","","4","complex_dissimilar","images/stimuli/spore_stims/complex_09_A_b.gif","","","","",""
"","4690","survey-multi-choice","65","682347","0.0-18.0","SS1619739315680","math_question","","","","","","","","","","","","{""Q0"":""15""}","[0]","15","",""
"","null","html-keyboard-response","66","683620","0.0-19.0-0.0","SS1619739315680","","","null","","","","","","<p><img src= images/blank.png width =""600"" height = ""600"" style=""position:fixed;top:50%; left:50%; transform: translate(-50%, -50%); border:5px solid black"">","","","","","","","",""
"","2886","sequential-stimulus-presentation-old","67","687019","0.0-19.0-1.0","SS1619739315680","trial","","40","500","3386","images/stimuli/spore_stims/simple_13_A_b.gif","images/stimuli/spore_stims/simple_06_A_a.gif","forced_short","","5","simple_dissimilar","images/stimuli/spore_stims/simple_06_A_a.gif","","","","",""
"","null","html-keyboard-response","68","687890","0.0-19.0-0.1","SS1619739315680","","","null","","","","","","<p><img src= images/blank.png width =""600"" height = ""600"" style=""position:fixed;top:50%; left:50%; transform: translate(-50%, -50%); border:5px solid black"">","","","","","","","",""
"","4153","sequential-stimulus-presentation-old","69","692564","0.0-19.0-1.1","SS1619739315680","trial","","40","500","4653","images/stimuli/spore_stims/simple_13_A_b.gif","images/stimuli/spore_stims/simple_06_A_a.gif","forced_short","","5","simple_dissimilar","images/stimuli/spore_stims/simple_06_A_a.gif","","","","",""
"","null","html-keyboard-response","70","693649","0.0-19.0-0.2","SS1619739315680","","","null","","","","","","<p><img src= images/blank.png width =""600"" height = ""600"" style=""position:fixed;top:50%; left:50%; transform: translate(-50%, -50%); border:5px solid black"">","","","","","","","",""
"","12373","sequential-stimulus-presentation-old","71","706539","0.0-19.0-1.2","SS1619739315680","trial","","40","500","12873","images/stimuli/spore_stims/simple_13_A_b.gif","images/stimuli/spore_stims/simple_06_A_a.gif","forced_short","","5","simple_dissimilar","images/stimuli/spore_stims/simple_06_A_a.gif","","","","",""
"","null","html-keyboard-response","72","707590","0.0-19.0-0.3","SS1619739315680","","","null","","","","","","<p><img src= images/blank.png width =""600"" height = ""600"" style=""position:fixed;top:50%; left:50%; transform: translate(-50%, -50%); border:5px solid black"">","","","","","","","",""
"","4514","sequential-stimulus-presentation-old","73","712621","0.0-19.0-1.3","SS1619739315680","trial","","40","500","5014","images/stimuli/spore_stims/simple_13_A_b.gif","images/stimuli/spore_stims/simple_06_A_a.gif","forced_short","","5","simple_dissimilar","images/stimuli/spore_stims/simple_06_A_a.gif","","","","",""
"","null","html-keyboard-response","74","713548","0.0-19.0-0.4","SS1619739315680","","","null","","","","","","<p><img src= images/blank.png width =""600"" height = ""600"" style=""position:fixed;top:50%; left:50%; transform: translate(-50%, -50%); border:5px solid black"">","","","","","","","",""
"","4940","sequential-stimulus-presentation-old","75","719006","0.0-19.0-1.4","SS1619739315680","trial","","40","500","5440","images/stimuli/spore_stims/simple_13_A_b.gif","images/stimuli/spore_stims/simple_06_A_a.gif","forced_short","","5","simple_dissimilar","images/stimuli/spore_stims/simple_06_A_a.gif","","","","",""
"","null","html-keyboard-response","76","720079","0.0-19.0-0.5","SS1619739315680","","","null","","","","","","<p><img src= images/blank.png width =""600"" height = ""600"" style=""position:fixed;top:50%; left:50%; transform: translate(-50%, -50%); border:5px solid black"">","","","","","","","",""
"","5456","sequential-stimulus-presentation-old","77","726055","0.0-19.0-1.5","SS1619739315680","trial","","40","500","5956","images/stimuli/spore_stims/simple_13_A_b.gif","images/stimuli/spore_stims/simple_06_A_a.gif","forced_short","","5","simple_dissimilar","images/stimuli/spore_stims/simple_13_A_b.gif","","","","",""
"","6827","survey-multi-choice","78","732896","0.0-20.0","SS1619739315680","math_question","","","","","","","","","","","","{""Q0"":""15""}","[0]","15","",""
"","null","html-keyboard-response","79","734058","0.0-21.0-0.0","SS1619739315680","","","null","","","","","","<p><img src= images/blank.png width =""600"" height = ""600"" style=""position:fixed;top:50%; left:50%; transform: translate(-50%, -50%); border:5px solid black"">","","","","","","","",""
"","2174","sequential-stimulus-presentation-old","80","736754","0.0-21.0-1.0","SS1619739315680","trial","","40","500","2674","images/stimuli/spore_stims/complex_16_A_b.gif","images/stimuli/spore_stims/complex_20_A_a.gif","forced_short","","6","complex_dissimilar","images/stimuli/spore_stims/complex_20_A_a.gif","","","","",""
"","null","html-keyboard-response","81","737639","0.0-21.0-0.1","SS1619739315680","","","null","","","","","","<p><img src= images/blank.png width =""600"" height = ""600"" style=""position:fixed;top:50%; left:50%; transform: translate(-50%, -50%); border:5px solid black"">","","","","","","","",""
"","3789","sequential-stimulus-presentation-old","82","741946","0.0-21.0-1.1","SS1619739315680","trial","","40","500","4289","images/stimuli/spore_stims/complex_16_A_b.gif","images/stimuli/spore_stims/complex_20_A_a.gif","forced_short","","6","complex_dissimilar","images/stimuli/spore_stims/complex_20_A_a.gif","","","","",""
"","null","html-keyboard-response","83","743173","0.0-21.0-0.2","SS1619739315680","","","null","","","","","","<p><img src= images/blank.png width =""600"" height = ""600"" style=""position:fixed;top:50%; left:50%; transform: translate(-50%, -50%); border:5px solid black"">","","","","","","","",""
"","6019","sequential-stimulus-presentation-old","84","749724","0.0-21.0-1.2","SS1619739315680","trial","","40","500","6519","images/stimuli/spore_stims/complex_16_A_b.gif","images/stimuli/spore_stims/complex_20_A_a.gif","forced_short","","6","complex_dissimilar","images/stimuli/spore_stims/complex_20_A_a.gif","","","","",""
"","null","html-keyboard-response","85","751001","0.0-21.0-0.3","SS1619739315680","","","null","","","","","","<p><img src= images/blank.png width =""600"" height = ""600"" style=""position:fixed;top:50%; left:50%; transform: translate(-50%, -50%); border:5px solid black"">","","","","","","","",""
"","3179","sequential-stimulus-presentation-old","86","754708","0.0-21.0-1.3","SS1619739315680","trial","","40","500","3679","images/stimuli/spore_stims/complex_16_A_b.gif","images/stimuli/spore_stims/complex_20_A_a.gif","forced_short","","6","complex_dissimilar","images/stimuli/spore_stims/complex_20_A_a.gif","","","","",""
"","3625","survey-multi-choice","87","758347","0.0-22.0","SS1619739315680","math_question","","","","","","","","","","","","{""Q0"":""7""}","[0]","7","",""
"","null","html-keyboard-response","88","759192","0.0-23.0-0.0","SS1619739315680","","","null","","","","","","<p><img src= images/blank.png width =""600"" height = ""600"" style=""position:fixed;top:50%; left:50%; transform: translate(-50%, -50%); border:5px solid black"">","","","","","","","",""
"","5336","sequential-stimulus-presentation-old","89","779555","0.0-23.0-1.0","SS1619739315680","trial","","40","500","5836","images/stimuli/spore_stims/simple_07_A_a.gif","images/stimuli/spore_stims/simple_05_A_b.gif","forced_long","","7","simple_dissimilar","images/stimuli/spore_stims/simple_05_A_b.gif","","","","",""
"","null","html-keyboard-response","90","780603","0.0-23.0-0.1","SS1619739315680","","","null","","","","","","<p><img src= images/blank.png width =""600"" height = ""600"" style=""position:fixed;top:50%; left:50%; transform: translate(-50%, -50%); border:5px solid black"">","","","","","","","",""
"","6736","sequential-stimulus-presentation-old","91","787855","0.0-23.0-1.1","SS1619739315680","trial","","40","500","7236","images/stimuli/spore_stims/simple_07_A_a.gif","images/stimuli/spore_stims/simple_05_A_b.gif","forced_long","","7","simple_dissimilar","images/stimuli/spore_stims/simple_05_A_b.gif","","","","",""
"","null","html-keyboard-response","92","788834","0.0-23.0-0.2","SS1619739315680","","","null","","","","","","<p><img src= images/blank.png width =""600"" height = ""600"" style=""position:fixed;top:50%; left:50%; transform: translate(-50%, -50%); border:5px solid black"">","","","","","","","",""
"","4720","sequential-stimulus-presentation-old","93","794073","0.0-23.0-1.2","SS1619739315680","trial","","40","500","5220","images/stimuli/spore_stims/simple_07_A_a.gif","images/stimuli/spore_stims/simple_05_A_b.gif","forced_long","","7","simple_dissimilar","images/stimuli/spore_stims/simple_05_A_b.gif","","","","",""
"","null","html-keyboard-response","94","795186","0.0-23.0-0.3","SS1619739315680","","","null","","","","","","<p><img src= images/blank.png width =""600"" height = ""600"" style=""position:fixed;top:50%; left:50%; transform: translate(-50%, -50%); border:5px solid black"">","","","","","","","",""
"","3404","sequential-stimulus-presentation-old","95","799109","0.0-23.0-1.3","SS1619739315680","trial","","40","500","3904","images/stimuli/spore_stims/simple_07_A_a.gif","images/stimuli/spore_stims/simple_05_A_b.gif","forced_long","","7","simple_dissimilar","images/stimuli/spore_stims/simple_05_A_b.gif","","","","",""
"","3908","survey-multi-choice","96","803035","0.0-24.0","SS1619739315680","math_question","","","","","","","","","","","","{""Q0"":""12""}","[0]","12","",""
"","null","html-keyboard-response","97","804191","0.0-25.0-0.0","SS1619739315680","","","null","","","","","","<p><img src= images/blank.png width =""600"" height = ""600"" style=""position:fixed;top:50%; left:50%; transform: translate(-50%, -50%); border:5px solid black"">","","","","","","","",""
"","8784","sequential-stimulus-presentation-old","98","828006","0.0-25.0-1.0","SS1619739315680","trial","","40","500","9284","images/stimuli/spore_stims/simple_17_A_a.gif","images/stimuli/spore_stims/simple_18_A_b.gif","forced_long","","8","simple_dissimilar","images/stimuli/spore_stims/simple_18_A_b.gif","","","","",""
"","null","html-keyboard-response","99","829041","0.0-25.0-0.1","SS1619739315680","","","null","","","","","","<p><img src= images/blank.png width =""600"" height = ""600"" style=""position:fixed;top:50%; left:50%; transform: translate(-50%, -50%); border:5px solid black"">","","","","","","","",""
"","6629","sequential-stimulus-presentation-old","100","836198","0.0-25.0-1.1","SS1619739315680","trial","","40","500","7129","images/stimuli/spore_stims/simple_17_A_a.gif","images/stimuli/spore_stims/simple_18_A_b.gif","forced_long","","8","simple_dissimilar","images/stimuli/spore_stims/simple_17_A_a.gif","","","","",""
"","null","html-keyboard-response","101","837463","0.0-25.0-0.2","SS1619739315680","","","null","","","","","","<p><img src= images/blank.png width =""600"" height = ""600"" style=""position:fixed;top:50%; left:50%; transform: translate(-50%, -50%); border:5px solid black"">","","","","","","","",""
"","4003","sequential-stimulus-presentation-old","102","841987","0.0-25.0-1.2","SS1619739315680","trial","","40","500","4503","images/stimuli/spore_stims/simple_17_A_a.gif","images/stimuli/spore_stims/simple_18_A_b.gif","forced_long","","8","simple_dissimilar","images/stimuli/spore_stims/simple_18_A_b.gif","","","","",""
"","null","html-keyboard-response","103","843273","0.0-25.0-0.3","SS1619739315680","","","null","","","","","","<p><img src= images/blank.png width =""600"" height = ""600"" style=""position:fixed;top:50%; left:50%; transform: translate(-50%, -50%); border:5px solid black"">","","","","","","","",""
"","9832","sequential-stimulus-presentation-old","104","853624","0.0-25.0-1.3","SS1619739315680","trial","","40","500","10332","images/stimuli/spore_stims/simple_17_A_a.gif","images/stimuli/spore_stims/simple_18_A_b.gif","forced_long","","8","simple_dissimilar","images/stimuli/spore_stims/simple_18_A_b.gif","","","","",""
"","null","html-keyboard-response","105","854450","0.0-25.0-0.4","SS1619739315680","","","null","","","","","","<p><img src= images/blank.png width =""600"" height = ""600"" style=""position:fixed;top:50%; left:50%; transform: translate(-50%, -50%); border:5px solid black"">","","","","","","","",""
"","3194","sequential-stimulus-presentation-old","106","858162","0.0-25.0-1.4","SS1619739315680","trial","","40","500","3694","images/stimuli/spore_stims/simple_17_A_a.gif","images/stimuli/spore_stims/simple_18_A_b.gif","forced_long","","8","simple_dissimilar","images/stimuli/spore_stims/simple_17_A_a.gif","","","","",""
"","2928","survey-multi-choice","107","861112","0.0-26.0","SS1619739315680","math_question","","","","","","","","","","","","{""Q0"":""8""}","[0]","8","",""
"","null","html-keyboard-response","108","862053","0.0-27.0-0.0","SS1619739315680","","","null","","","","","","<p><img src= images/blank.png width =""600"" height = ""600"" style=""position:fixed;top:50%; left:50%; transform: translate(-50%, -50%); border:5px solid black"">","","","","","","","",""
"","2264","sequential-stimulus-presentation-old","109","864835","0.0-27.0-1.0","SS1619739315680","trial","","40","500","2764","images/stimuli/spore_stims/simple_10_A_b.gif","images/stimuli/spore_stims/simple_02_A_a.gif","forced_short","","9","simple_dissimilar","images/stimuli/spore_stims/simple_02_A_a.gif","","","","",""
"","null","html-keyboard-response","110","865835","0.0-27.0-0.1","SS1619739315680","","","null","","","","","","<p><img src= images/blank.png width =""600"" height = ""600"" style=""position:fixed;top:50%; left:50%; transform: translate(-50%, -50%); border:5px solid black"">","","","","","","","",""
"","7221","sequential-stimulus-presentation-old","111","873570","0.0-27.0-1.1","SS1619739315680","trial","","40","500","7721","images/stimuli/spore_stims/simple_10_A_b.gif","images/stimuli/spore_stims/simple_02_A_a.gif","forced_short","","9","simple_dissimilar","images/stimuli/spore_stims/simple_02_A_a.gif","","","","",""
"","null","html-keyboard-response","112","874401","0.0-27.0-0.2","SS1619739315680","","","null","","","","","","<p><img src= images/blank.png width =""600"" height = ""600"" style=""position:fixed;top:50%; left:50%; transform: translate(-50%, -50%); border:5px solid black"">","","","","","","","",""
"","9582","sequential-stimulus-presentation-old","113","884504","0.0-27.0-1.2","SS1619739315680","trial","","40","500","10082","images/stimuli/spore_stims/simple_10_A_b.gif","images/stimuli/spore_stims/simple_02_A_a.gif","forced_short","","9","simple_dissimilar","images/stimuli/spore_stims/simple_02_A_a.gif","","","","",""
"","null","html-keyboard-response","114","885671","0.0-27.0-0.3","SS1619739315680","","","null","","","","","","<p><img src= images/blank.png width =""600"" height = ""600"" style=""position:fixed;top:50%; left:50%; transform: translate(-50%, -50%); border:5px solid black"">","","","","","","","",""
"","4559","sequential-stimulus-presentation-old","115","890750","0.0-27.0-1.3","SS1619739315680","trial","","40","500","5059","images/stimuli/spore_stims/simple_10_A_b.gif","images/stimuli/spore_stims/simple_02_A_a.gif","forced_short","","9","simple_dissimilar","images/stimuli/spore_stims/simple_10_A_b.gif","","","","",""
"","null","html-keyboard-response","116","891743","0.0-27.0-0.4","SS1619739315680","","","null","","","","","","<p><img src= images/blank.png width =""600"" height = ""600"" style=""position:fixed;top:50%; left:50%; transform: translate(-50%, -50%); border:5px solid black"">","","","","","","","",""
"","5790","sequential-stimulus-presentation-old","117","898057","0.0-27.0-1.4","SS1619739315680","trial","","40","500","6290","images/stimuli/spore_stims/simple_10_A_b.gif","images/stimuli/spore_stims/simple_02_A_a.gif","forced_short","","9","simple_dissimilar","images/stimuli/spore_stims/simple_10_A_b.gif","","","","",""
"","2956","survey-multi-choice","118","901032","0.0-28.0","SS1619739315680","math_question","","","","","","","","","","","","{""Q0"":""8""}","[0]","8","",""
"","null","html-keyboard-response","119","902100","0.0-29.0-0.0","SS1619739315680","","","null","","","","","","<p><img src= images/blank.png width =""600"" height = ""600"" style=""position:fixed;top:50%; left:50%; transform: translate(-50%, -50%); border:5px solid black"">","","","","","","","",""
"","4717","sequential-stimulus-presentation-old","120","907334","0.0-29.0-1.0","SS1619739315680","trial","","40","500","5217","images/stimuli/spore_stims/complex_04_A_b.gif","images/stimuli/spore_stims/complex_17_A_a.gif","self_paced","","10","complex_dissimilar","images/stimuli/spore_stims/complex_17_A_a.gif","","","","",""
"","null","html-keyboard-response","121","908390","0.0-29.0-0.1","SS1619739315680","","","null","","","","","","<p><img src= images/blank.png width =""600"" height = ""600"" style=""position:fixed;top:50%; left:50%; transform: translate(-50%, -50%); border:5px solid black"">","","","","","","","",""
"","3145","sequential-stimulus-presentation-old","122","912053","0.0-29.0-1.1","SS1619739315680","trial","","40","500","3645","images/stimuli/spore_stims/complex_04_A_b.gif","images/stimuli/spore_stims/complex_17_A_a.gif","self_paced","","10","complex_dissimilar","images/stimuli/spore_stims/complex_04_A_b.gif","","","","",""
"","null","html-keyboard-response","123","913038","0.0-29.0-0.2","SS1619739315680","","","null","","","","","","<p><img src= images/blank.png width =""600"" height = ""600"" style=""position:fixed;top:50%; left:50%; transform: translate(-50%, -50%); border:5px solid black"">","","","","","","","",""
"","5098","sequential-stimulus-presentation-old","124","918670","0.0-29.0-1.2","SS1619739315680","trial","","40","500","5598","images/stimuli/spore_stims/complex_04_A_b.gif","images/stimuli/spore_stims/complex_17_A_a.gif","self_paced","","10","complex_dissimilar","images/stimuli/spore_stims/complex_17_A_a.gif","","","","",""
"","null","html-keyboard-response","125","919690","0.0-29.0-0.3","SS1619739315680","","","null","","","","","","<p><img src= images/blank.png width =""600"" height = ""600"" style=""position:fixed;top:50%; left:50%; transform: translate(-50%, -50%); border:5px solid black"">","","","","","","","",""
"","3603","sequential-stimulus-presentation-old","126","923811","0.0-29.0-1.3","SS1619739315680","trial","","40","500","4103","images/stimuli/spore_stims/complex_04_A_b.gif","images/stimuli/spore_stims/complex_17_A_a.gif","self_paced","","10","complex_dissimilar","images/stimuli/spore_stims/complex_17_A_a.gif","","","","",""
"","null","html-keyboard-response","127","925014","0.0-29.0-0.4","SS1619739315680","","","null","","","","","","<p><img src= images/blank.png width =""600"" height = ""600"" style=""position:fixed;top:50%; left:50%; transform: translate(-50%, -50%); border:5px solid black"">","","","","","","","",""
"","5961","sequential-stimulus-presentation-old","128","931496","0.0-29.0-1.4","SS1619739315680","trial","","40","500","6461","images/stimuli/spore_stims/complex_04_A_b.gif","images/stimuli/spore_stims/complex_17_A_a.gif","self_paced","","10","complex_dissimilar","images/stimuli/spore_stims/complex_17_A_a.gif","","","","",""
"","null","html-keyboard-response","129","932533","0.0-29.0-0.5","SS1619739315680","","","null","","","","","","<p><img src= images/blank.png width =""600"" height = ""600"" style=""position:fixed;top:50%; left:50%; transform: translate(-50%, -50%); border:5px solid black"">","","","","","","","",""
"","5139","sequential-stimulus-presentation-old","130","938192","0.0-29.0-1.5","SS1619739315680","trial","","40","500","5639","images/stimuli/spore_stims/complex_04_A_b.gif","images/stimuli/spore_stims/complex_17_A_a.gif","self_paced","","10","complex_dissimilar","images/stimuli/spore_stims/complex_04_A_b.gif","","","","",""
"","5091","survey-multi-choice","131","943292","0.0-30.0","SS1619739315680","math_question","","","","","","","","","","","","{""Q0"":""11""}","[0]","11","",""
"","null","html-keyboard-response","132","944370","0.0-31.0-0.0","SS1619739315680","","","null","","","","","","<p><img src= images/blank.png width =""600"" height = ""600"" style=""position:fixed;top:50%; left:50%; transform: translate(-50%, -50%); border:5px solid black"">","","","","","","","",""
"","10821","sequential-stimulus-presentation-old","133","970231","0.0-31.0-1.0","SS1619739315680","trial","","40","500","11321","images/stimuli/spore_stims/complex_19_A_a.gif","images/stimuli/spore_stims/complex_18_A_b.gif","forced_long","","11","complex_dissimilar","images/stimuli/spore_stims/complex_18_A_b.gif","","","","",""
"","null","html-keyboard-response","134","971073","0.0-31.0-0.1","SS1619739315680","","","null","","","","","","<p><img src= images/blank.png width =""600"" height = ""600"" style=""position:fixed;top:50%; left:50%; transform: translate(-50%, -50%); border:5px solid black"">","","","","","","","",""
"","1980","sequential-stimulus-presentation-old","135","973600","0.0-31.0-1.1","SS1619739315680","trial","","40","500","2480","images/stimuli/spore_stims/complex_19_A_a.gif","images/stimuli/spore_stims/complex_18_A_b.gif","forced_long","","11","complex_dissimilar","images/stimuli/spore_stims/complex_18_A_b.gif","","","","",""
"","null","html-keyboard-response","136","974898","0.0-31.0-0.2","SS1619739315680","","","null","","","","","","<p><img src= images/blank.png width =""600"" height = ""600"" style=""position:fixed;top:50%; left:50%; transform: translate(-50%, -50%); border:5px solid black"">","","","","","","","",""
"","6133","sequential-stimulus-presentation-old","137","981558","0.0-31.0-1.2","SS1619739315680","trial","","40","500","6633","images/stimuli/spore_stims/complex_19_A_a.gif","images/stimuli/spore_stims/complex_18_A_b.gif","forced_long","","11","complex_dissimilar","images/stimuli/spore_stims/complex_19_A_a.gif","","","","",""
"","null","html-keyboard-response","138","982854","0.0-31.0-0.3","SS1619739315680","","","null","","","","","","<p><img src= images/blank.png width =""600"" height = ""600"" style=""position:fixed;top:50%; left:50%; transform: translate(-50%, -50%); border:5px solid black"">","","","","","","","",""
"","1391","sequential-stimulus-presentation-old","139","984778","0.0-31.0-1.3","SS1619739315680","trial","","40","500","1891","images/stimuli/spore_stims/complex_19_A_a.gif","images/stimuli/spore_stims/complex_18_A_b.gif","forced_long","","11","complex_dissimilar","images/stimuli/spore_stims/complex_18_A_b.gif","","","","",""
"","null","html-keyboard-response","140","985959","0.0-31.0-0.4","SS1619739315680","","","null","","","","","","<p><img src= images/blank.png width =""600"" height = ""600"" style=""position:fixed;top:50%; left:50%; transform: translate(-50%, -50%); border:5px solid black"">","","","","","","","",""
"","725","sequential-stimulus-presentation-old","141","987218","0.0-31.0-1.4","SS1619739315680","trial","","40","500","1225","images/stimuli/spore_stims/complex_19_A_a.gif","images/stimuli/spore_stims/complex_18_A_b.gif","forced_long","","11","complex_dissimilar","images/stimuli/spore_stims/complex_18_A_b.gif","","","","",""
"","null","html-keyboard-response","142","988390","0.0-31.0-0.5","SS1619739315680","","","null","","","","","","<p><img src= images/blank.png width =""600"" height = ""600"" style=""position:fixed;top:50%; left:50%; transform: translate(-50%, -50%); border:5px solid black"">","","","","","","","",""
"","2950","sequential-stimulus-presentation-old","143","991861","0.0-31.0-1.5","SS1619739315680","trial","","40","500","3450","images/stimuli/spore_stims/complex_19_A_a.gif","images/stimuli/spore_stims/complex_18_A_b.gif","forced_long","","11","complex_dissimilar","images/stimuli/spore_stims/complex_19_A_a.gif","","","","",""
"[{""page_index"":0,""viewing_time"":15534}]","15541","instructions","144","1007421","0.0-32.0","SS1619739315680","instructions","","","","","","","","","","","","","","","",""
"","23581","survey-likert","145","1031047","0.0-33.0","SS1619739315680","similarity_question","","","","","","","","","","","","{""Q0"":0}","[0]","","images/stimuli/spore_stims/complex_16_A_b.gif","images/stimuli/spore_stims/complex_20_A_a.gif"
"","9660","survey-likert","146","1040752","0.0-34.0","SS1619739315680","similarity_question","","","","","","","","","","","","{""Q0"":4}","[0]","","images/stimuli/spore_stims/complex_04_A_b.gif","images/stimuli/spore_stims/complex_17_A_a.gif"
"","9625","survey-likert","147","1050417","0.0-35.0","SS1619739315680","similarity_question","","","","","","","","","","","","{""Q0"":1}","[0]","","images/stimuli/spore_stims/simple_15_A_b.gif","images/stimuli/spore_stims/simple_19_A_a.gif"
"","6634","survey-likert","148","1057086","0.0-36.0","SS1619739315680","similarity_question","","","","","","","","","","","","{""Q0"":4}","[0]","","images/stimuli/spore_stims/complex_10_A_b.gif","images/stimuli/spore_stims/complex_03_A_a.gif"
"","7881","survey-likert","149","1065002","0.0-37.0","SS1619739315680","similarity_question","","","","","","","","","","","","{""Q0"":4}","[0]","","images/stimuli/spore_stims/simple_13_A_b.gif","images/stimuli/spore_stims/simple_06_A_a.gif"
"","7786","survey-likert","150","1072818","0.0-38.0","SS1619739315680","similarity_question","","","","","","","","","","","","{""Q0"":1}","[0]","","images/stimuli/spore_stims/complex_18_A_b.gif","images/stimuli/spore_stims/complex_19_A_a.gif"
"","6914","survey-likert","151","1079776","0.0-39.0","SS1619739315680","similarity_question","","","","","","","","","","","","{""Q0"":4}","[0]","","images/stimuli/spore_stims/complex_08_A_b.gif","images/stimuli/spore_stims/complex_10_A_a.gif"
"","11718","survey-likert","152","1091532","0.0-40.0","SS1619739315680","similarity_question","","","","","","","","","","","","{""Q0"":4}","[0]","","images/stimuli/spore_stims/simple_10_A_b.gif","images/stimuli/spore_stims/simple_02_A_a.gif"
"","10521","survey-likert","153","1102131","0.0-41.0","SS1619739315680","similarity_question","","","","","","","","","","","","{""Q0"":2}","[0]","","images/stimuli/spore_stims/complex_08_A_a.gif","images/stimuli/spore_stims/complex_09_A_b.gif"
"","7326","survey-likert","154","1109499","0.0-42.0","SS1619739315680","similarity_question","","","","","","","","","","","","{""Q0"":2}","[0]","","images/stimuli/spore_stims/simple_17_A_a.gif","images/stimuli/spore_stims/simple_18_A_b.gif"
"","5873","survey-likert","155","1115421","0.0-43.0","SS1619739315680","similarity_question","","","","","","","","","","","","{""Q0"":2}","[0]","","images/stimuli/spore_stims/simple_07_A_a.gif","images/stimuli/spore_stims/simple_05_A_b.gif"
"","13752","survey-likert","156","1129215","0.0-44.0","SS1619739315680","similarity_question","","","","","","","","","","","","{""Q0"":5}","[0]","","images/stimuli/spore_stims/simple_18_A_a.gif","images/stimuli/spore_stims/simple_08_A_b.gif"
"[{""page_index"":0,""viewing_time"":14656}]","14657","instructions","157","1143897","0.0-45.0","SS1619739315680","instructions","","","","","","","","","","","","","","","",""
"","7011","survey-likert","158","1150922","0.0-46.0","SS1619739315680","","","","","","","","","images/stimuli/spore_stims/complex_19_A_a.gif","","","","{""Q0"":4}","[0]","","",""
"","3968","survey-likert","159","1154932","0.0-47.0","SS1619739315680","","","","","","","","","images/stimuli/spore_stims/simple_15_A_b.gif","","","","{""Q0"":0}","[0]","","",""
"","4556","survey-likert","160","1159515","0.0-48.0","SS1619739315680","","","","","","","","","images/stimuli/spore_stims/complex_17_A_a.gif","","","","{""Q0"":4}","[0]","","",""
"","3133","survey-likert","161","1162682","0.0-49.0","SS1619739315680","","","","","","","","","images/stimuli/spore_stims/simple_18_A_a.gif","","","","{""Q0"":0}","[0]","","",""
"","5418","survey-likert","162","1168134","0.0-50.0","SS1619739315680","","","","","","","","","images/stimuli/spore_stims/complex_20_A_a.gif","","","","{""Q0"":4}","[0]","","",""
"","5124","survey-likert","163","1173294","0.0-51.0","SS1619739315680","","","","","","","","","images/stimuli/spore_stims/complex_03_A_a.gif","","","","{""Q0"":2}","[0]","","",""
"","6603","survey-likert","164","1179932","0.0-52.0","SS1619739315680","","","","","","","","","images/stimuli/spore_stims/complex_08_A_a.gif","","","","{""Q0"":5}","[0]","","",""
"","4578","survey-likert","165","1184526","0.0-53.0","SS1619739315680","","","","","","","","","images/stimuli/spore_stims/simple_02_A_a.gif","","","","{""Q0"":0}","[0]","","",""
"","4264","survey-likert","166","1188825","0.0-54.0","SS1619739315680","","","","","","","","","images/stimuli/spore_stims/simple_06_A_a.gif","","","","{""Q0"":0}","[0]","","",""
"","3613","survey-likert","167","1192475","0.0-55.0","SS1619739315680","","","","","","","","","images/stimuli/spore_stims/simple_07_A_a.gif","","","","{""Q0"":0}","[0]","","",""
"","2986","survey-likert","168","1195496","0.0-56.0","SS1619739315680","","","","","","","","","images/stimuli/spore_stims/simple_18_A_b.gif","","","","{""Q0"":0}","[0]","","",""
"","4084","survey-likert","169","1199606","0.0-57.0","SS1619739315680","","","","","","","","","images/stimuli/spore_stims/complex_08_A_b.gif","","","","{""Q0"":6}","[0]","","",""
"[{""page_index"":0,""viewing_time"":3278}]","3279","instructions","170","1202914","0.0-58.0","SS1619739315680","instructions","","","","","","","","","","","","","","","",""
"","4785","demog-age","171","1207765","0.0-59.0","SS1619739315680","","","","","","","","","","","","","{""age"":""18""}","","","",""
"","4335","demog-ethnic-US","172","1212150","0.0-60.0","SS1619739315680","","","","","","","","","","","","","{""ethnicity"":[""Hispanic or Latino""]}","[0]","","",""
"","9352","demog-gender-and-education","173","1221536","0.0-61.0","SS1619739315680","","","","","","","","","","","","","{""gender"":""Female"",""education"":""High school diploma""}","[0,1]","","",""
"","140506","survey-text","174","1362067","0.0-62.0","SS1619739315680","feedback","","","","","","","","","","","","{""Q0"":""Everything was good!""}","","","",""
"[{""page_index"":0,""viewing_time"":2130}]","2130","instructions","175","1364224","0.0-63.0","SS1619739315680","instructions","","","","","","","","","","","","","","","",""
