"view_history","rt","trial_type","trial_index","time_elapsed","internal_node_id","subject","stimulus_type","trial_stimulus","key_press","minimum_viewing_duration","trial_looking_time","block_deviant","block_background","exposure_type","stimulus","block_number","block_type","stimulus_displayed","responses","question_order","math_correct_answer","stimulus_left","stimulus_right"
"[{""page_index"":0,""viewing_time"":15401.244999997289}]","15401.57999999792","instructions","0","15403","0.0-0.0","SS1619740100683","","","","","","","","","","","","","","","","",""
"[{""page_index"":0,""viewing_time"":11300.914999999804},{""page_index"":1,""viewing_time"":3594.229999998788}]","14895.345000000816","instructions","1","32301","0.0-1.0","SS1619740100683","instructions","","","","","","","","","","","","","","","",""
"","6111.370000002353","sequential-stimulus-presentation-old","2","38915","0.0-2.0","SS1619740100683","","","40","500","6611.370000002353","null","null","self_paced","","","","","","","","",""
"","2844.5600000013656","sequential-stimulus-presentation-old","3","42261","0.0-3.0","SS1619740100683","","","40","500","3344.5600000013656","null","null","self_paced","","","","","","","","",""
"[{""page_index"":0,""viewing_time"":9477.090000000317}]","9477.31500000009","instructions","4","51740","0.0-4.0","SS1619740100683","instructions","","","","","","","","","","","","","","","",""
"","887.5500000031025","sequential-stimulus-presentation-old","5","68129","0.0-5.0","SS1619740100683","","","40","500","1387.5500000031025","null","null","forced_long","","","","","","","","",""
"","807.5900000003458","sequential-stimulus-presentation-old","6","69439","0.0-6.0","SS1619740100683","","","40","500","1307.5900000003458","null","null","forced_long","","","","","","","","",""
"[{""page_index"":0,""viewing_time"":4169.9399999997695}]","4170.115000000806","instructions","7","73610","0.0-7.0","SS1619740100683","instructions","","","","","","","","","","","","","","","",""
"[{""page_index"":0,""viewing_time"":4270.134999998845},{""page_index"":1,""viewing_time"":7199.809999998251},{""page_index"":2,""viewing_time"":4563.0700000001525},{""page_index"":3,""viewing_time"":1704.1800000006333},{""page_index"":4,""viewing_time"":865.0799999995797}]","18602.499999997235","instructions","8","92213","0.0-8.0","SS1619740100683","instructions","","","","","","","","","","","","","","","",""
"","null","html-keyboard-response","9","93230","0.0-9.0-0.0","SS1619740100683","","","null","","","","","","<p><img src= images/blank.png width =""600"" height = ""600"" style=""position:fixed;top:50%; left:50%; transform: translate(-50%, -50%); border:5px solid black"">","","","","","","","",""
"","13059.58499999906","sequential-stimulus-presentation-old","10","121293","0.0-9.0-1.0","SS1619740100683","trial","","40","500","13559.58499999906","images/stimuli/spore_stims/complex_11_A_a.gif","images/stimuli/spore_stims/complex_03_A_b.gif","forced_long","","0","complex_dissimilar","images/stimuli/spore_stims/complex_03_A_b.gif","","","","",""
"","null","html-keyboard-response","11","122413","0.0-9.0-0.1","SS1619740100683","","","null","","","","","","<p><img src= images/blank.png width =""600"" height = ""600"" style=""position:fixed;top:50%; left:50%; transform: translate(-50%, -50%); border:5px solid black"">","","","","","","","",""
"","13272.375000000466","sequential-stimulus-presentation-old","12","136187","0.0-9.0-1.1","SS1619740100683","trial","","40","500","13772.375000000466","images/stimuli/spore_stims/complex_11_A_a.gif","images/stimuli/spore_stims/complex_03_A_b.gif","forced_long","","0","complex_dissimilar","images/stimuli/spore_stims/complex_11_A_a.gif","","","","",""
"","null","html-keyboard-response","13","137037","0.0-9.0-0.2","SS1619740100683","","","null","","","","","","<p><img src= images/blank.png width =""600"" height = ""600"" style=""position:fixed;top:50%; left:50%; transform: translate(-50%, -50%); border:5px solid black"">","","","","","","","",""
"","1270.9849999992002","sequential-stimulus-presentation-old","14","138814","0.0-9.0-1.2","SS1619740100683","trial","","40","500","1770.9849999992002","images/stimuli/spore_stims/complex_11_A_a.gif","images/stimuli/spore_stims/complex_03_A_b.gif","forced_long","","0","complex_dissimilar","images/stimuli/spore_stims/complex_03_A_b.gif","","","","",""
"","null","html-keyboard-response","15","140045","0.0-9.0-0.3","SS1619740100683","","","null","","","","","","<p><img src= images/blank.png width =""600"" height = ""600"" style=""position:fixed;top:50%; left:50%; transform: translate(-50%, -50%); border:5px solid black"">","","","","","","","",""
"","594.1849999981059","sequential-stimulus-presentation-old","16","141143","0.0-9.0-1.3","SS1619740100683","trial","","40","500","1094.184999998106","images/stimuli/spore_stims/complex_11_A_a.gif","images/stimuli/spore_stims/complex_03_A_b.gif","forced_long","","0","complex_dissimilar","images/stimuli/spore_stims/complex_03_A_b.gif","","","","",""
"","4004.4600000001083","survey-multi-choice","17","145149","0.0-10.0","SS1619740100683","math_question","","","","","","","","","","","","{""Q0"":""9""}","[0]","9","",""
"","null","html-keyboard-response","18","146148","0.0-11.0-0.0","SS1619740100683","","","null","","","","","","<p><img src= images/blank.png width =""600"" height = ""600"" style=""position:fixed;top:50%; left:50%; transform: translate(-50%, -50%); border:5px solid black"">","","","","","","","",""
"","1987.1399999974528","sequential-stimulus-presentation-old","19","148638","0.0-11.0-1.0","SS1619740100683","trial","","40","500","2487.139999997453","images/stimuli/spore_stims/simple_03_A_b.gif","images/stimuli/spore_stims/simple_17_A_a.gif","self_paced","","1","simple_dissimilar","images/stimuli/spore_stims/simple_17_A_a.gif","","","","",""
"","null","html-keyboard-response","20","149603","0.0-11.0-0.1","SS1619740100683","","","null","","","","","","<p><img src= images/blank.png width =""600"" height = ""600"" style=""position:fixed;top:50%; left:50%; transform: translate(-50%, -50%); border:5px solid black"">","","","","","","","",""
"","3748.3700000011595","sequential-stimulus-presentation-old","21","153857","0.0-11.0-1.1","SS1619740100683","trial","","40","500","4248.3700000011595","images/stimuli/spore_stims/simple_03_A_b.gif","images/stimuli/spore_stims/simple_17_A_a.gif","self_paced","","1","simple_dissimilar","images/stimuli/spore_stims/simple_17_A_a.gif","","","","",""
"","null","html-keyboard-response","22","154848","0.0-11.0-0.2","SS1619740100683","","","null","","","","","","<p><img src= images/blank.png width =""600"" height = ""600"" style=""position:fixed;top:50%; left:50%; transform: translate(-50%, -50%); border:5px solid black"">","","","","","","","",""
"","1612.0850000006612","sequential-stimulus-presentation-old","23","156965","0.0-11.0-1.2","SS1619740100683","trial","","40","500","2112.0850000006612","images/stimuli/spore_stims/simple_03_A_b.gif","images/stimuli/spore_stims/simple_17_A_a.gif","self_paced","","1","simple_dissimilar","images/stimuli/spore_stims/simple_17_A_a.gif","","","","",""
"","null","html-keyboard-response","24","157901","0.0-11.0-0.3","SS1619740100683","","","null","","","","","","<p><img src= images/blank.png width =""600"" height = ""600"" style=""position:fixed;top:50%; left:50%; transform: translate(-50%, -50%); border:5px solid black"">","","","","","","","",""
"","1497.960000000603","sequential-stimulus-presentation-old","25","159901","0.0-11.0-1.3","SS1619740100683","trial","","40","500","1997.960000000603","images/stimuli/spore_stims/simple_03_A_b.gif","images/stimuli/spore_stims/simple_17_A_a.gif","self_paced","","1","simple_dissimilar","images/stimuli/spore_stims/simple_17_A_a.gif","","","","",""
"","2356.115000002319","survey-multi-choice","26","162259","0.0-12.0","SS1619740100683","math_question","","","","","","","","","","","","{""Q0"":""8""}","[0]","8","",""
"","null","html-keyboard-response","27","163126","0.0-13.0-0.0","SS1619740100683","","","null","","","","","","<p><img src= images/blank.png width =""600"" height = ""600"" style=""position:fixed;top:50%; left:50%; transform: translate(-50%, -50%); border:5px solid black"">","","","","","","","",""
"","4112.619999999879","sequential-stimulus-presentation-old","28","182364","0.0-13.0-1.0","SS1619740100683","trial","","40","500","4612.619999999879","images/stimuli/spore_stims/simple_07_A_b.gif","images/stimuli/spore_stims/simple_14_A_a.gif","forced_long","","2","simple_dissimilar","images/stimuli/spore_stims/simple_14_A_a.gif","","","","",""
"","null","html-keyboard-response","29","183648","0.0-13.0-0.1","SS1619740100683","","","null","","","","","","<p><img src= images/blank.png width =""600"" height = ""600"" style=""position:fixed;top:50%; left:50%; transform: translate(-50%, -50%); border:5px solid black"">","","","","","","","",""
"","36529.96500000154","sequential-stimulus-presentation-old","30","220683","0.0-13.0-1.1","SS1619740100683","trial","","40","500","37029.96500000154","images/stimuli/spore_stims/simple_07_A_b.gif","images/stimuli/spore_stims/simple_14_A_a.gif","forced_long","","2","simple_dissimilar","images/stimuli/spore_stims/simple_14_A_a.gif","","","","",""
"","null","html-keyboard-response","31","221517","0.0-13.0-0.2","SS1619740100683","","","null","","","","","","<p><img src= images/blank.png width =""600"" height = ""600"" style=""position:fixed;top:50%; left:50%; transform: translate(-50%, -50%); border:5px solid black"">","","","","","","","",""
"","4648.004999999102","sequential-stimulus-presentation-old","32","226670","0.0-13.0-1.2","SS1619740100683","trial","","40","500","5148.004999999102","images/stimuli/spore_stims/simple_07_A_b.gif","images/stimuli/spore_stims/simple_14_A_a.gif","forced_long","","2","simple_dissimilar","images/stimuli/spore_stims/simple_07_A_b.gif","","","","",""
"","null","html-keyboard-response","33","227756","0.0-13.0-0.3","SS1619740100683","","","null","","","","","","<p><img src= images/blank.png width =""600"" height = ""600"" style=""position:fixed;top:50%; left:50%; transform: translate(-50%, -50%); border:5px solid black"">","","","","","","","",""
"","3845.3150000023015","sequential-stimulus-presentation-old","34","232117","0.0-13.0-1.3","SS1619740100683","trial","","40","500","4345.3150000023015","images/stimuli/spore_stims/simple_07_A_b.gif","images/stimuli/spore_stims/simple_14_A_a.gif","forced_long","","2","simple_dissimilar","images/stimuli/spore_stims/simple_14_A_a.gif","","","","",""
"","null","html-keyboard-response","35","232957","0.0-13.0-0.4","SS1619740100683","","","null","","","","","","<p><img src= images/blank.png width =""600"" height = ""600"" style=""position:fixed;top:50%; left:50%; transform: translate(-50%, -50%); border:5px solid black"">","","","","","","","",""
"","2745.409999999538","sequential-stimulus-presentation-old","36","236210","0.0-13.0-1.4","SS1619740100683","trial","","40","500","3245.409999999538","images/stimuli/spore_stims/simple_07_A_b.gif","images/stimuli/spore_stims/simple_14_A_a.gif","forced_long","","2","simple_dissimilar","images/stimuli/spore_stims/simple_14_A_a.gif","","","","",""
"","2193.2600000000093","survey-multi-choice","37","238409","0.0-14.0","SS1619740100683","math_question","","","","","","","","","","","","{""Q0"":""16""}","[0]","16","",""
"","null","html-keyboard-response","38","239429","0.0-15.0-0.0","SS1619740100683","","","null","","","","","","<p><img src= images/blank.png width =""600"" height = ""600"" style=""position:fixed;top:50%; left:50%; transform: translate(-50%, -50%); border:5px solid black"">","","","","","","","",""
"","46.73499999989872","sequential-stimulus-presentation-old","39","239980","0.0-15.0-1.0","SS1619740100683","trial","","40","500","546.7349999998987","images/stimuli/spore_stims/simple_08_A_a.gif","images/stimuli/spore_stims/simple_02_A_b.gif","forced_short","","3","simple_dissimilar","images/stimuli/spore_stims/simple_02_A_b.gif","","","","",""
"","null","html-keyboard-response","40","241173","0.0-15.0-0.1","SS1619740100683","","","null","","","","","","<p><img src= images/blank.png width =""600"" height = ""600"" style=""position:fixed;top:50%; left:50%; transform: translate(-50%, -50%); border:5px solid black"">","","","","","","","",""
"","2509.3049999995856","sequential-stimulus-presentation-old","41","244189","0.0-15.0-1.1","SS1619740100683","trial","","40","500","3009.3049999995856","images/stimuli/spore_stims/simple_08_A_a.gif","images/stimuli/spore_stims/simple_02_A_b.gif","forced_short","","3","simple_dissimilar","images/stimuli/spore_stims/simple_02_A_b.gif","","","","",""
"","null","html-keyboard-response","42","245457","0.0-15.0-0.2","SS1619740100683","","","null","","","","","","<p><img src= images/blank.png width =""600"" height = ""600"" style=""position:fixed;top:50%; left:50%; transform: translate(-50%, -50%); border:5px solid black"">","","","","","","","",""
"","3564.18499999927","sequential-stimulus-presentation-old","43","249528","0.0-15.0-1.2","SS1619740100683","trial","","40","500","4064.18499999927","images/stimuli/spore_stims/simple_08_A_a.gif","images/stimuli/spore_stims/simple_02_A_b.gif","forced_short","","3","simple_dissimilar","images/stimuli/spore_stims/simple_08_A_a.gif","","","","",""
"","null","html-keyboard-response","44","250687","0.0-15.0-0.3","SS1619740100683","","","null","","","","","","<p><img src= images/blank.png width =""600"" height = ""600"" style=""position:fixed;top:50%; left:50%; transform: translate(-50%, -50%); border:5px solid black"">","","","","","","","",""
"","1967.594999998255","sequential-stimulus-presentation-old","45","253157","0.0-15.0-1.3","SS1619740100683","trial","","40","500","2467.594999998255","images/stimuli/spore_stims/simple_08_A_a.gif","images/stimuli/spore_stims/simple_02_A_b.gif","forced_short","","3","simple_dissimilar","images/stimuli/spore_stims/simple_02_A_b.gif","","","","",""
"","null","html-keyboard-response","46","254316","0.0-15.0-0.4","SS1619740100683","","","null","","","","","","<p><img src= images/blank.png width =""600"" height = ""600"" style=""position:fixed;top:50%; left:50%; transform: translate(-50%, -50%); border:5px solid black"">","","","","","","","",""
"","1385.2049999986775","sequential-stimulus-presentation-old","47","256207","0.0-15.0-1.4","SS1619740100683","trial","","40","500","1885.2049999986775","images/stimuli/spore_stims/simple_08_A_a.gif","images/stimuli/spore_stims/simple_02_A_b.gif","forced_short","","3","simple_dissimilar","images/stimuli/spore_stims/simple_02_A_b.gif","","","","",""
"","null","html-keyboard-response","48","257037","0.0-15.0-0.5","SS1619740100683","","","null","","","","","","<p><img src= images/blank.png width =""600"" height = ""600"" style=""position:fixed;top:50%; left:50%; transform: translate(-50%, -50%); border:5px solid black"">","","","","","","","",""
"","5679.514999999839","sequential-stimulus-presentation-old","49","263227","0.0-15.0-1.5","SS1619740100683","trial","","40","500","6179.514999999839","images/stimuli/spore_stims/simple_08_A_a.gif","images/stimuli/spore_stims/simple_02_A_b.gif","forced_short","","3","simple_dissimilar","images/stimuli/spore_stims/simple_08_A_a.gif","","","","",""
"","2253.5949999983422","survey-multi-choice","50","265485","0.0-16.0","SS1619740100683","math_question","","","","","","","","","","","","{""Q0"":""11""}","[0]","11","",""
"","null","html-keyboard-response","51","266715","0.0-17.0-0.0","SS1619740100683","","","null","","","","","","<p><img src= images/blank.png width =""600"" height = ""600"" style=""position:fixed;top:50%; left:50%; transform: translate(-50%, -50%); border:5px solid black"">","","","","","","","",""
"","3738.8200000023353","sequential-stimulus-presentation-old","52","285457","0.0-17.0-1.0","SS1619740100683","trial","","40","500","4238.820000002335","images/stimuli/spore_stims/complex_14_A_a.gif","images/stimuli/spore_stims/complex_18_A_b.gif","forced_long","","4","complex_dissimilar","images/stimuli/spore_stims/complex_18_A_b.gif","","","","",""
"","null","html-keyboard-response","53","286637","0.0-17.0-0.1","SS1619740100683","","","null","","","","","","<p><img src= images/blank.png width =""600"" height = ""600"" style=""position:fixed;top:50%; left:50%; transform: translate(-50%, -50%); border:5px solid black"">","","","","","","","",""
"","733.8100000015693","sequential-stimulus-presentation-old","54","287878","0.0-17.0-1.1","SS1619740100683","trial","","40","500","1233.8100000015693","images/stimuli/spore_stims/complex_14_A_a.gif","images/stimuli/spore_stims/complex_18_A_b.gif","forced_long","","4","complex_dissimilar","images/stimuli/spore_stims/complex_14_A_a.gif","","","","",""
"","null","html-keyboard-response","55","289148","0.0-17.0-0.2","SS1619740100683","","","null","","","","","","<p><img src= images/blank.png width =""600"" height = ""600"" style=""position:fixed;top:50%; left:50%; transform: translate(-50%, -50%); border:5px solid black"">","","","","","","","",""
"","169.34499999845866","sequential-stimulus-presentation-old","56","289836","0.0-17.0-1.2","SS1619740100683","trial","","40","500","669.3449999984587","images/stimuli/spore_stims/complex_14_A_a.gif","images/stimuli/spore_stims/complex_18_A_b.gif","forced_long","","4","complex_dissimilar","images/stimuli/spore_stims/complex_18_A_b.gif","","","","",""
"","null","html-keyboard-response","57","290966","0.0-17.0-0.3","SS1619740100683","","","null","","","","","","<p><img src= images/blank.png width =""600"" height = ""600"" style=""position:fixed;top:50%; left:50%; transform: translate(-50%, -50%); border:5px solid black"">","","","","","","","",""
"","422.52499999810243","sequential-stimulus-presentation-old","58","291896","0.0-17.0-1.3","SS1619740100683","trial","","40","500","922.5249999981024","images/stimuli/spore_stims/complex_14_A_a.gif","images/stimuli/spore_stims/complex_18_A_b.gif","forced_long","","4","complex_dissimilar","images/stimuli/spore_stims/complex_18_A_b.gif","","","","",""
"","null","html-keyboard-response","59","292728","0.0-17.0-0.4","SS1619740100683","","","null","","","","","","<p><img src= images/blank.png width =""600"" height = ""600"" style=""position:fixed;top:50%; left:50%; transform: translate(-50%, -50%); border:5px solid black"">","","","","","","","",""
"","192.23499999858905","sequential-stimulus-presentation-old","60","293428","0.0-17.0-1.4","SS1619740100683","trial","","40","500","692.234999998589","images/stimuli/spore_stims/complex_14_A_a.gif","images/stimuli/spore_stims/complex_18_A_b.gif","forced_long","","4","complex_dissimilar","images/stimuli/spore_stims/complex_14_A_a.gif","","","","",""
"","1677.5500000002794","survey-multi-choice","61","295113","0.0-18.0","SS1619740100683","math_question","","","","","","","","","","","","{""Q0"":""3""}","[0]","3","",""
"","null","html-keyboard-response","62","296319","0.0-19.0-0.0","SS1619740100683","","","null","","","","","","<p><img src= images/blank.png width =""600"" height = ""600"" style=""position:fixed;top:50%; left:50%; transform: translate(-50%, -50%); border:5px solid black"">","","","","","","","",""
"","303.2199999979348","sequential-stimulus-presentation-old","63","297129","0.0-19.0-1.0","SS1619740100683","trial","","40","500","803.2199999979348","images/stimuli/spore_stims/complex_04_A_b.gif","images/stimuli/spore_stims/complex_05_A_a.gif","self_paced","","5","complex_dissimilar","images/stimuli/spore_stims/complex_05_A_a.gif","","","","",""
"","null","html-keyboard-response","64","298176","0.0-19.0-0.1","SS1619740100683","","","null","","","","","","<p><img src= images/blank.png width =""600"" height = ""600"" style=""position:fixed;top:50%; left:50%; transform: translate(-50%, -50%); border:5px solid black"">","","","","","","","",""
"","687.0850000013597","sequential-stimulus-presentation-old","65","299369","0.0-19.0-1.1","SS1619740100683","trial","","40","500","1187.0850000013597","images/stimuli/spore_stims/complex_04_A_b.gif","images/stimuli/spore_stims/complex_05_A_a.gif","self_paced","","5","complex_dissimilar","images/stimuli/spore_stims/complex_05_A_a.gif","","","","",""
"","null","html-keyboard-response","66","300469","0.0-19.0-0.2","SS1619740100683","","","null","","","","","","<p><img src= images/blank.png width =""600"" height = ""600"" style=""position:fixed;top:50%; left:50%; transform: translate(-50%, -50%); border:5px solid black"">","","","","","","","",""
"","1550.090000000666","sequential-stimulus-presentation-old","67","302525","0.0-19.0-1.2","SS1619740100683","trial","","40","500","2050.090000000666","images/stimuli/spore_stims/complex_04_A_b.gif","images/stimuli/spore_stims/complex_05_A_a.gif","self_paced","","5","complex_dissimilar","images/stimuli/spore_stims/complex_05_A_a.gif","","","","",""
"","null","html-keyboard-response","68","303648","0.0-19.0-0.3","SS1619740100683","","","null","","","","","","<p><img src= images/blank.png width =""600"" height = ""600"" style=""position:fixed;top:50%; left:50%; transform: translate(-50%, -50%); border:5px solid black"">","","","","","","","",""
"","1435.8649999994668","sequential-stimulus-presentation-old","69","305588","0.0-19.0-1.3","SS1619740100683","trial","","40","500","1935.8649999994668","images/stimuli/spore_stims/complex_04_A_b.gif","images/stimuli/spore_stims/complex_05_A_a.gif","self_paced","","5","complex_dissimilar","images/stimuli/spore_stims/complex_04_A_b.gif","","","","",""
"","null","html-keyboard-response","70","306711","0.0-19.0-0.4","SS1619740100683","","","null","","","","","","<p><img src= images/blank.png width =""600"" height = ""600"" style=""position:fixed;top:50%; left:50%; transform: translate(-50%, -50%); border:5px solid black"">","","","","","","","",""
"","1050.3849999986705","sequential-stimulus-presentation-old","71","308266","0.0-19.0-1.4","SS1619740100683","trial","","40","500","1550.3849999986705","images/stimuli/spore_stims/complex_04_A_b.gif","images/stimuli/spore_stims/complex_05_A_a.gif","self_paced","","5","complex_dissimilar","images/stimuli/spore_stims/complex_05_A_a.gif","","","","",""
"","null","html-keyboard-response","72","309208","0.0-19.0-0.5","SS1619740100683","","","null","","","","","","<p><img src= images/blank.png width =""600"" height = ""600"" style=""position:fixed;top:50%; left:50%; transform: translate(-50%, -50%); border:5px solid black"">","","","","","","","",""
"","1734.5300000015413","sequential-stimulus-presentation-old","73","311456","0.0-19.0-1.5","SS1619740100683","trial","","40","500","2234.5300000015413","images/stimuli/spore_stims/complex_04_A_b.gif","images/stimuli/spore_stims/complex_05_A_a.gif","self_paced","","5","complex_dissimilar","images/stimuli/spore_stims/complex_04_A_b.gif","","","","",""
"","3253.809999998368","survey-multi-choice","74","314714","0.0-20.0","SS1619740100683","math_question","","","","","","","","","","","","{""Q0"":""15""}","[0]","15","",""
"","null","html-keyboard-response","75","315526","0.0-21.0-0.0","SS1619740100683","","","null","","","","","","<p><img src= images/blank.png width =""600"" height = ""600"" style=""position:fixed;top:50%; left:50%; transform: translate(-50%, -50%); border:5px solid black"">","","","","","","","",""
"","2158.3150000005844","sequential-stimulus-presentation-old","76","318193","0.0-21.0-1.0","SS1619740100683","trial","","40","500","2658.3150000005844","images/stimuli/spore_stims/simple_10_A_b.gif","images/stimuli/spore_stims/simple_04_A_a.gif","self_paced","","6","simple_dissimilar","images/stimuli/spore_stims/simple_04_A_a.gif","","","","",""
"","null","html-keyboard-response","77","319059","0.0-21.0-0.1","SS1619740100683","","","null","","","","","","<p><img src= images/blank.png width =""600"" height = ""600"" style=""position:fixed;top:50%; left:50%; transform: translate(-50%, -50%); border:5px solid black"">","","","","","","","",""
"","688.2399999994668","sequential-stimulus-presentation-old","78","320254","0.0-21.0-1.1","SS1619740100683","trial","","40","500","1188.2399999994668","images/stimuli/spore_stims/simple_10_A_b.gif","images/stimuli/spore_stims/simple_04_A_a.gif","self_paced","","6","simple_dissimilar","images/stimuli/spore_stims/simple_04_A_a.gif","","","","",""
"","null","html-keyboard-response","79","321561","0.0-21.0-0.2","SS1619740100683","","","null","","","","","","<p><img src= images/blank.png width =""600"" height = ""600"" style=""position:fixed;top:50%; left:50%; transform: translate(-50%, -50%); border:5px solid black"">","","","","","","","",""
"","691.350000000908","sequential-stimulus-presentation-old","80","322763","0.0-21.0-1.2","SS1619740100683","trial","","40","500","1191.350000000908","images/stimuli/spore_stims/simple_10_A_b.gif","images/stimuli/spore_stims/simple_04_A_a.gif","self_paced","","6","simple_dissimilar","images/stimuli/spore_stims/simple_04_A_a.gif","","","","",""
"","null","html-keyboard-response","81","323907","0.0-21.0-0.3","SS1619740100683","","","null","","","","","","<p><img src= images/blank.png width =""600"" height = ""600"" style=""position:fixed;top:50%; left:50%; transform: translate(-50%, -50%); border:5px solid black"">","","","","","","","",""
"","789.0950000000885","sequential-stimulus-presentation-old","82","325208","0.0-21.0-1.3","SS1619740100683","trial","","40","500","1289.0950000000885","images/stimuli/spore_stims/simple_10_A_b.gif","images/stimuli/spore_stims/simple_04_A_a.gif","self_paced","","6","simple_dissimilar","images/stimuli/spore_stims/simple_04_A_a.gif","","","","",""
"","null","html-keyboard-response","83","326015","0.0-21.0-0.4","SS1619740100683","","","null","","","","","","<p><img src= images/blank.png width =""600"" height = ""600"" style=""position:fixed;top:50%; left:50%; transform: translate(-50%, -50%); border:5px solid black"">","","","","","","","",""
"","990.2099999999627","sequential-stimulus-presentation-old","84","327507","0.0-21.0-1.4","SS1619740100683","trial","","40","500","1490.2099999999627","images/stimuli/spore_stims/simple_10_A_b.gif","images/stimuli/spore_stims/simple_04_A_a.gif","self_paced","","6","simple_dissimilar","images/stimuli/spore_stims/simple_04_A_a.gif","","","","",""
"","1949.0850000001956","survey-multi-choice","85","329460","0.0-22.0","SS1619740100683","math_question","","","","","","","","","","","","{""Q0"":""4""}","[0]","4","",""
"","null","html-keyboard-response","86","330481","0.0-23.0-0.0","SS1619740100683","","","null","","","","","","<p><img src= images/blank.png width =""600"" height = ""600"" style=""position:fixed;top:50%; left:50%; transform: translate(-50%, -50%); border:5px solid black"">","","","","","","","",""
"","3641.2099999979837","sequential-stimulus-presentation-old","87","334628","0.0-23.0-1.0","SS1619740100683","trial","","40","500","4141.209999997984","images/stimuli/spore_stims/simple_11_A_b.gif","images/stimuli/spore_stims/simple_06_A_a.gif","forced_short","","7","simple_dissimilar","images/stimuli/spore_stims/simple_06_A_a.gif","","","","",""
"","null","html-keyboard-response","88","335705","0.0-23.0-0.1","SS1619740100683","","","null","","","","","","<p><img src= images/blank.png width =""600"" height = ""600"" style=""position:fixed;top:50%; left:50%; transform: translate(-50%, -50%); border:5px solid black"">","","","","","","","",""
"","447.77500000054715","sequential-stimulus-presentation-old","89","336666","0.0-23.0-1.1","SS1619740100683","trial","","40","500","947.7750000005472","images/stimuli/spore_stims/simple_11_A_b.gif","images/stimuli/spore_stims/simple_06_A_a.gif","forced_short","","7","simple_dissimilar","images/stimuli/spore_stims/simple_06_A_a.gif","","","","",""
"","null","html-keyboard-response","90","337867","0.0-23.0-0.2","SS1619740100683","","","null","","","","","","<p><img src= images/blank.png width =""600"" height = ""600"" style=""position:fixed;top:50%; left:50%; transform: translate(-50%, -50%); border:5px solid black"">","","","","","","","",""
"","232.42000000027474","sequential-stimulus-presentation-old","91","338605","0.0-23.0-1.2","SS1619740100683","trial","","40","500","732.4200000002747","images/stimuli/spore_stims/simple_11_A_b.gif","images/stimuli/spore_stims/simple_06_A_a.gif","forced_short","","7","simple_dissimilar","images/stimuli/spore_stims/simple_06_A_a.gif","","","","",""
"","null","html-keyboard-response","92","339667","0.0-23.0-0.3","SS1619740100683","","","null","","","","","","<p><img src= images/blank.png width =""600"" height = ""600"" style=""position:fixed;top:50%; left:50%; transform: translate(-50%, -50%); border:5px solid black"">","","","","","","","",""
"","3317.9999999993015","sequential-stimulus-presentation-old","93","343487","0.0-23.0-1.3","SS1619740100683","trial","","40","500","3817.9999999993015","images/stimuli/spore_stims/simple_11_A_b.gif","images/stimuli/spore_stims/simple_06_A_a.gif","forced_short","","7","simple_dissimilar","images/stimuli/spore_stims/simple_06_A_a.gif","","","","",""
"","null","html-keyboard-response","94","344412","0.0-23.0-0.4","SS1619740100683","","","null","","","","","","<p><img src= images/blank.png width =""600"" height = ""600"" style=""position:fixed;top:50%; left:50%; transform: translate(-50%, -50%); border:5px solid black"">","","","","","","","",""
"","548.0499999976018","sequential-stimulus-presentation-old","95","345473","0.0-23.0-1.4","SS1619740100683","trial","","40","500","1048.0499999976018","images/stimuli/spore_stims/simple_11_A_b.gif","images/stimuli/spore_stims/simple_06_A_a.gif","forced_short","","7","simple_dissimilar","images/stimuli/spore_stims/simple_06_A_a.gif","","","","",""
"","2557.6249999976135","survey-multi-choice","96","348033","0.0-24.0","SS1619740100683","math_question","","","","","","","","","","","","{""Q0"":""6""}","[0]","6","",""
"","null","html-keyboard-response","97","349112","0.0-25.0-0.0","SS1619740100683","","","null","","","","","","<p><img src= images/blank.png width =""600"" height = ""600"" style=""position:fixed;top:50%; left:50%; transform: translate(-50%, -50%); border:5px solid black"">","","","","","","","",""
"","683.6199999997625","sequential-stimulus-presentation-old","98","350305","0.0-25.0-1.0","SS1619740100683","trial","","40","500","1183.6199999997625","images/stimuli/spore_stims/complex_16_A_a.gif","images/stimuli/spore_stims/complex_06_A_b.gif","self_paced","","8","complex_dissimilar","images/stimuli/spore_stims/complex_06_A_b.gif","","","","",""
"","null","html-keyboard-response","99","351345","0.0-25.0-0.1","SS1619740100683","","","null","","","","","","<p><img src= images/blank.png width =""600"" height = ""600"" style=""position:fixed;top:50%; left:50%; transform: translate(-50%, -50%); border:5px solid black"">","","","","","","","",""
"","2594.6699999985867","sequential-stimulus-presentation-old","100","354444","0.0-25.0-1.1","SS1619740100683","trial","","40","500","3094.6699999985867","images/stimuli/spore_stims/complex_16_A_a.gif","images/stimuli/spore_stims/complex_06_A_b.gif","self_paced","","8","complex_dissimilar","images/stimuli/spore_stims/complex_06_A_b.gif","","","","",""
"","null","html-keyboard-response","101","355416","0.0-25.0-0.2","SS1619740100683","","","null","","","","","","<p><img src= images/blank.png width =""600"" height = ""600"" style=""position:fixed;top:50%; left:50%; transform: translate(-50%, -50%); border:5px solid black"">","","","","","","","",""
"","1620.3449999993318","sequential-stimulus-presentation-old","102","357545","0.0-25.0-1.2","SS1619740100683","trial","","40","500","2120.344999999332","images/stimuli/spore_stims/complex_16_A_a.gif","images/stimuli/spore_stims/complex_06_A_b.gif","self_paced","","8","complex_dissimilar","images/stimuli/spore_stims/complex_06_A_b.gif","","","","",""
"","null","html-keyboard-response","103","358365","0.0-25.0-0.3","SS1619740100683","","","null","","","","","","<p><img src= images/blank.png width =""600"" height = ""600"" style=""position:fixed;top:50%; left:50%; transform: translate(-50%, -50%); border:5px solid black"">","","","","","","","",""
"","1392.29499999783","sequential-stimulus-presentation-old","104","360267","0.0-25.0-1.3","SS1619740100683","trial","","40","500","1892.29499999783","images/stimuli/spore_stims/complex_16_A_a.gif","images/stimuli/spore_stims/complex_06_A_b.gif","self_paced","","8","complex_dissimilar","images/stimuli/spore_stims/complex_06_A_b.gif","","","","",""
"","2422.6400000006543","survey-multi-choice","105","362694","0.0-26.0","SS1619740100683","math_question","","","","","","","","","","","","{""Q0"":""15""}","[0]","15","",""
"","null","html-keyboard-response","106","363548","0.0-27.0-0.0","SS1619740100683","","","null","","","","","","<p><img src= images/blank.png width =""600"" height = ""600"" style=""position:fixed;top:50%; left:50%; transform: translate(-50%, -50%); border:5px solid black"">","","","","","","","",""
"","883.030000000901","sequential-stimulus-presentation-old","107","364940","0.0-27.0-1.0","SS1619740100683","trial","","40","500","1383.030000000901","images/stimuli/spore_stims/complex_02_A_b.gif","images/stimuli/spore_stims/complex_18_A_a.gif","forced_short","","9","complex_dissimilar","images/stimuli/spore_stims/complex_18_A_a.gif","","","","",""
"","null","html-keyboard-response","108","365999","0.0-27.0-0.1","SS1619740100683","","","null","","","","","","<p><img src= images/blank.png width =""600"" height = ""600"" style=""position:fixed;top:50%; left:50%; transform: translate(-50%, -50%); border:5px solid black"">","","","","","","","",""
"","152.05499999865424","sequential-stimulus-presentation-old","109","366657","0.0-27.0-1.1","SS1619740100683","trial","","40","500","652.0549999986542","images/stimuli/spore_stims/complex_02_A_b.gif","images/stimuli/spore_stims/complex_18_A_a.gif","forced_short","","9","complex_dissimilar","images/stimuli/spore_stims/complex_18_A_a.gif","","","","",""
"","null","html-keyboard-response","110","367916","0.0-27.0-0.2","SS1619740100683","","","null","","","","","","<p><img src= images/blank.png width =""600"" height = ""600"" style=""position:fixed;top:50%; left:50%; transform: translate(-50%, -50%); border:5px solid black"">","","","","","","","",""
"","2193.6449999993783","sequential-stimulus-presentation-old","111","370617","0.0-27.0-1.2","SS1619740100683","trial","","40","500","2693.6449999993783","images/stimuli/spore_stims/complex_02_A_b.gif","images/stimuli/spore_stims/complex_18_A_a.gif","forced_short","","9","complex_dissimilar","images/stimuli/spore_stims/complex_18_A_a.gif","","","","",""
"","null","html-keyboard-response","112","371812","0.0-27.0-0.3","SS1619740100683","","","null","","","","","","<p><img src= images/blank.png width =""600"" height = ""600"" style=""position:fixed;top:50%; left:50%; transform: translate(-50%, -50%); border:5px solid black"">","","","","","","","",""
"","924.0600000011618","sequential-stimulus-presentation-old","113","373246","0.0-27.0-1.3","SS1619740100683","trial","","40","500","1424.0600000011618","images/stimuli/spore_stims/complex_02_A_b.gif","images/stimuli/spore_stims/complex_18_A_a.gif","forced_short","","9","complex_dissimilar","images/stimuli/spore_stims/complex_02_A_b.gif","","","","",""
"","null","html-keyboard-response","114","374241","0.0-27.0-0.4","SS1619740100683","","","null","","","","","","<p><img src= images/blank.png width =""600"" height = ""600"" style=""position:fixed;top:50%; left:50%; transform: translate(-50%, -50%); border:5px solid black"">","","","","","","","",""
"","948.660000001837","sequential-stimulus-presentation-old","115","375695","0.0-27.0-1.4","SS1619740100683","trial","","40","500","1448.660000001837","images/stimuli/spore_stims/complex_02_A_b.gif","images/stimuli/spore_stims/complex_18_A_a.gif","forced_short","","9","complex_dissimilar","images/stimuli/spore_stims/complex_18_A_a.gif","","","","",""
"","null","html-keyboard-response","116","376669","0.0-27.0-0.5","SS1619740100683","","","null","","","","","","<p><img src= images/blank.png width =""600"" height = ""600"" style=""position:fixed;top:50%; left:50%; transform: translate(-50%, -50%); border:5px solid black"">","","","","","","","",""
"","971.9399999994785","sequential-stimulus-presentation-old","117","378146","0.0-27.0-1.5","SS1619740100683","trial","","40","500","1471.9399999994785","images/stimuli/spore_stims/complex_02_A_b.gif","images/stimuli/spore_stims/complex_18_A_a.gif","forced_short","","9","complex_dissimilar","images/stimuli/spore_stims/complex_18_A_a.gif","","","","",""
"","3069.354999999632","survey-multi-choice","118","381219","0.0-28.0","SS1619740100683","math_question","","","","","","","","","","","","{""Q0"":""5""}","[0]","5","",""
"","null","html-keyboard-response","119","382389","0.0-29.0-0.0","SS1619740100683","","","null","","","","","","<p><img src= images/blank.png width =""600"" height = ""600"" style=""position:fixed;top:50%; left:50%; transform: translate(-50%, -50%); border:5px solid black"">","","","","","","","",""
"","913.8349999993807","sequential-stimulus-presentation-old","120","398312","0.0-29.0-1.0","SS1619740100683","trial","","40","500","1413.8349999993807","images/stimuli/spore_stims/simple_10_A_a.gif","images/stimuli/spore_stims/simple_13_A_b.gif","forced_long","","10","simple_dissimilar","images/stimuli/spore_stims/simple_13_A_b.gif","","","","",""
"","null","html-keyboard-response","121","399304","0.0-29.0-0.1","SS1619740100683","","","null","","","","","","<p><img src= images/blank.png width =""600"" height = ""600"" style=""position:fixed;top:50%; left:50%; transform: translate(-50%, -50%); border:5px solid black"">","","","","","","","",""
"","3771.0299999998533","sequential-stimulus-presentation-old","122","403584","0.0-29.0-1.1","SS1619740100683","trial","","40","500","4271.029999999853","images/stimuli/spore_stims/simple_10_A_a.gif","images/stimuli/spore_stims/simple_13_A_b.gif","forced_long","","10","simple_dissimilar","images/stimuli/spore_stims/simple_13_A_b.gif","","","","",""
"","null","html-keyboard-response","123","404616","0.0-29.0-0.2","SS1619740100683","","","null","","","","","","<p><img src= images/blank.png width =""600"" height = ""600"" style=""position:fixed;top:50%; left:50%; transform: translate(-50%, -50%); border:5px solid black"">","","","","","","","",""
"","1224.1299999986659","sequential-stimulus-presentation-old","124","406347","0.0-29.0-1.2","SS1619740100683","trial","","40","500","1724.1299999986659","images/stimuli/spore_stims/simple_10_A_a.gif","images/stimuli/spore_stims/simple_13_A_b.gif","forced_long","","10","simple_dissimilar","images/stimuli/spore_stims/simple_13_A_b.gif","","","","",""
"","null","html-keyboard-response","125","407288","0.0-29.0-0.3","SS1619740100683","","","null","","","","","","<p><img src= images/blank.png width =""600"" height = ""600"" style=""position:fixed;top:50%; left:50%; transform: translate(-50%, -50%); border:5px solid black"">","","","","","","","",""
"","186.75500000244938","sequential-stimulus-presentation-old","126","407980","0.0-29.0-1.3","SS1619740100683","trial","","40","500","686.7550000024494","images/stimuli/spore_stims/simple_10_A_a.gif","images/stimuli/spore_stims/simple_13_A_b.gif","forced_long","","10","simple_dissimilar","images/stimuli/spore_stims/simple_13_A_b.gif","","","","",""
"","null","html-keyboard-response","127","408900","0.0-29.0-0.4","SS1619740100683","","","null","","","","","","<p><img src= images/blank.png width =""600"" height = ""600"" style=""position:fixed;top:50%; left:50%; transform: translate(-50%, -50%); border:5px solid black"">","","","","","","","",""
"","242.90999999718042","sequential-stimulus-presentation-old","128","409648","0.0-29.0-1.4","SS1619740100683","trial","","40","500","742.9099999971804","images/stimuli/spore_stims/simple_10_A_a.gif","images/stimuli/spore_stims/simple_13_A_b.gif","forced_long","","10","simple_dissimilar","images/stimuli/spore_stims/simple_13_A_b.gif","","","","",""
"","3364.4449999992503","survey-multi-choice","129","413020","0.0-30.0","SS1619740100683","math_question","","","","","","","","","","","","{""Q0"":""14""}","[0]","14","",""
"","null","html-keyboard-response","130","413912","0.0-31.0-0.0","SS1619740100683","","","null","","","","","","<p><img src= images/blank.png width =""600"" height = ""600"" style=""position:fixed;top:50%; left:50%; transform: translate(-50%, -50%); border:5px solid black"">","","","","","","","",""
"","232.38000000128523","sequential-stimulus-presentation-old","131","414659","0.0-31.0-1.0","SS1619740100683","trial","","40","500","732.3800000012852","images/stimuli/spore_stims/complex_15_A_a.gif","images/stimuli/spore_stims/complex_14_A_b.gif","forced_short","","11","complex_dissimilar","images/stimuli/spore_stims/complex_14_A_b.gif","","","","",""
"","null","html-keyboard-response","132","415816","0.0-31.0-0.1","SS1619740100683","","","null","","","","","","<p><img src= images/blank.png width =""600"" height = ""600"" style=""position:fixed;top:50%; left:50%; transform: translate(-50%, -50%); border:5px solid black"">","","","","","","","",""
"","2415.7300000006217","sequential-stimulus-presentation-old","133","418753","0.0-31.0-1.1","SS1619740100683","trial","","40","500","2915.7300000006217","images/stimuli/spore_stims/complex_15_A_a.gif","images/stimuli/spore_stims/complex_14_A_b.gif","forced_short","","11","complex_dissimilar","images/stimuli/spore_stims/complex_14_A_b.gif","","","","",""
"","null","html-keyboard-response","134","419660","0.0-31.0-0.2","SS1619740100683","","","null","","","","","","<p><img src= images/blank.png width =""600"" height = ""600"" style=""position:fixed;top:50%; left:50%; transform: translate(-50%, -50%); border:5px solid black"">","","","","","","","",""
"","771.7599999996019","sequential-stimulus-presentation-old","135","420936","0.0-31.0-1.2","SS1619740100683","trial","","40","500","1271.7599999996019","images/stimuli/spore_stims/complex_15_A_a.gif","images/stimuli/spore_stims/complex_14_A_b.gif","forced_short","","11","complex_dissimilar","images/stimuli/spore_stims/complex_14_A_b.gif","","","","",""
"","null","html-keyboard-response","136","421806","0.0-31.0-0.3","SS1619740100683","","","null","","","","","","<p><img src= images/blank.png width =""600"" height = ""600"" style=""position:fixed;top:50%; left:50%; transform: translate(-50%, -50%); border:5px solid black"">","","","","","","","",""
"","99.08999999967637","sequential-stimulus-presentation-old","137","422410","0.0-31.0-1.3","SS1619740100683","trial","","40","500","599.0899999996764","images/stimuli/spore_stims/complex_15_A_a.gif","images/stimuli/spore_stims/complex_14_A_b.gif","forced_short","","11","complex_dissimilar","images/stimuli/spore_stims/complex_14_A_b.gif","","","","",""
"","null","html-keyboard-response","138","423274","0.0-31.0-0.4","SS1619740100683","","","null","","","","","","<p><img src= images/blank.png width =""600"" height = ""600"" style=""position:fixed;top:50%; left:50%; transform: translate(-50%, -50%); border:5px solid black"">","","","","","","","",""
"","370.8600000027218","sequential-stimulus-presentation-old","139","424160","0.0-31.0-1.4","SS1619740100683","trial","","40","500","870.8600000027218","images/stimuli/spore_stims/complex_15_A_a.gif","images/stimuli/spore_stims/complex_14_A_b.gif","forced_short","","11","complex_dissimilar","images/stimuli/spore_stims/complex_14_A_b.gif","","","","",""
"[{""page_index"":0,""viewing_time"":3242.005000000063}]","3242.3299999972805","instructions","140","427413","0.0-32.0","SS1619740100683","instructions","","","","","","","","","","","","","","","",""
"","3406.1299999993644","survey-likert","141","430824","0.0-33.0","SS1619740100683","similarity_question","","","","","","","","","","","","{""Q0"":1}","[0]","","images/stimuli/spore_stims/complex_03_A_b.gif","images/stimuli/spore_stims/complex_11_A_a.gif"
"","3015.1100000003353","survey-likert","142","433846","0.0-34.0","SS1619740100683","similarity_question","","","","","","","","","","","","{""Q0"":0}","[0]","","images/stimuli/spore_stims/complex_04_A_b.gif","images/stimuli/spore_stims/complex_05_A_a.gif"
"","2458.8250000015832","survey-likert","143","436312","0.0-35.0","SS1619740100683","similarity_question","","","","","","","","","","","","{""Q0"":0}","[0]","","images/stimuli/spore_stims/complex_18_A_a.gif","images/stimuli/spore_stims/complex_02_A_b.gif"
"","2683.5550000031944","survey-likert","144","439004","0.0-36.0","SS1619740100683","similarity_question","","","","","","","","","","","","{""Q0"":0}","[0]","","images/stimuli/spore_stims/complex_16_A_a.gif","images/stimuli/spore_stims/complex_06_A_b.gif"
"","3217.160000000149","survey-likert","145","442228","0.0-37.0","SS1619740100683","similarity_question","","","","","","","","","","","","{""Q0"":5}","[0]","","images/stimuli/spore_stims/simple_08_A_a.gif","images/stimuli/spore_stims/simple_02_A_b.gif"
"","2611.885000002105","survey-likert","146","444849","0.0-38.0","SS1619740100683","similarity_question","","","","","","","","","","","","{""Q0"":0}","[0]","","images/stimuli/spore_stims/complex_14_A_b.gif","images/stimuli/spore_stims/complex_15_A_a.gif"
"","2741.119999998773","survey-likert","147","447598","0.0-39.0","SS1619740100683","similarity_question","","","","","","","","","","","","{""Q0"":3}","[0]","","images/stimuli/spore_stims/simple_03_A_b.gif","images/stimuli/spore_stims/simple_17_A_a.gif"
"","5006.6550000010175","survey-likert","148","452612","0.0-40.0","SS1619740100683","similarity_question","","","","","","","","","","","","{""Q0"":4}","[0]","","images/stimuli/spore_stims/simple_10_A_b.gif","images/stimuli/spore_stims/simple_04_A_a.gif"
"","3517.2099999981","survey-likert","149","456137","0.0-41.0","SS1619740100683","similarity_question","","","","","","","","","","","","{""Q0"":4}","[0]","","images/stimuli/spore_stims/simple_06_A_a.gif","images/stimuli/spore_stims/simple_11_A_b.gif"
"","1877.0650000006426","survey-likert","150","458021","0.0-42.0","SS1619740100683","similarity_question","","","","","","","","","","","","{""Q0"":5}","[0]","","images/stimuli/spore_stims/simple_10_A_a.gif","images/stimuli/spore_stims/simple_13_A_b.gif"
"","2968.509999998845","survey-likert","151","460996","0.0-43.0","SS1619740100683","similarity_question","","","","","","","","","","","","{""Q0"":1}","[0]","","images/stimuli/spore_stims/complex_18_A_b.gif","images/stimuli/spore_stims/complex_14_A_a.gif"
"","2693.684999998368","survey-likert","152","463697","0.0-44.0","SS1619740100683","similarity_question","","","","","","","","","","","","{""Q0"":2}","[0]","","images/stimuli/spore_stims/simple_14_A_a.gif","images/stimuli/spore_stims/simple_07_A_b.gif"
"[{""page_index"":0,""viewing_time"":2476.105000001553}]","2476.4350000004633","instructions","153","466180","0.0-45.0","SS1619740100683","instructions","","","","","","","","","","","","","","","",""
"","2162.4200000005076","survey-likert","154","468346","0.0-46.0","SS1619740100683","","","","","","","","","images/stimuli/spore_stims/complex_16_A_a.gif","","","","{""Q0"":5}","[0]","","",""
"","1849.6500000000815","survey-likert","155","470204","0.0-47.0","SS1619740100683","","","","","","","","","images/stimuli/spore_stims/complex_18_A_a.gif","","","","{""Q0"":5}","[0]","","",""
"","3122.670000000682","survey-likert","156","473333","0.0-48.0","SS1619740100683","","","","","","","","","images/stimuli/spore_stims/simple_10_A_a.gif","","","","{""Q0"":1}","[0]","","",""
"","3405.1949999993667","survey-likert","157","476746","0.0-49.0","SS1619740100683","","","","","","","","","images/stimuli/spore_stims/complex_14_A_a.gif","","","","{""Q0"":4}","[0]","","",""
"","2070.4750000004424","survey-likert","158","478824","0.0-50.0","SS1619740100683","","","","","","","","","images/stimuli/spore_stims/simple_06_A_a.gif","","","","{""Q0"":0}","[0]","","",""
"","2898.9450000007637","survey-likert","159","481730","0.0-51.0","SS1619740100683","","","","","","","","","images/stimuli/spore_stims/complex_15_A_a.gif","","","","{""Q0"":6}","[0]","","",""
"","1926.0399999985239","survey-likert","160","483663","0.0-52.0","SS1619740100683","","","","","","","","","images/stimuli/spore_stims/complex_04_A_b.gif","","","","{""Q0"":5}","[0]","","",""
"","1844.4800000034156","survey-likert","161","485516","0.0-53.0","SS1619740100683","","","","","","","","","images/stimuli/spore_stims/complex_11_A_a.gif","","","","{""Q0"":4}","[0]","","",""
"","2737.7999999989406","survey-likert","162","488261","0.0-54.0","SS1619740100683","","","","","","","","","images/stimuli/spore_stims/simple_08_A_a.gif","","","","{""Q0"":1}","[0]","","",""
"","1948.8249999994878","survey-likert","163","490219","0.0-55.0","SS1619740100683","","","","","","","","","images/stimuli/spore_stims/simple_04_A_a.gif","","","","{""Q0"":1}","[0]","","",""
"","6883.874999999534","survey-likert","164","497110","0.0-56.0","SS1619740100683","","","","","","","","","images/stimuli/spore_stims/simple_03_A_b.gif","","","","{""Q0"":2}","[0]","","",""
"","2526.125000000291","survey-likert","165","499645","0.0-57.0","SS1619740100683","","","","","","","","","images/stimuli/spore_stims/simple_14_A_a.gif","","","","{""Q0"":1}","[0]","","",""
"[{""page_index"":0,""viewing_time"":1618.7500000014552}]","1619.010000002163","instructions","166","501272","0.0-58.0","SS1619740100683","instructions","","","","","","","","","","","","","","","",""
"","1810.6599999992177","demog-age","167","503089","0.0-59.0","SS1619740100683","","","","","","","","","","","","","{""age"":""22""}","","","",""
"","5072.189999998955","demog-ethnic-US","168","508167","0.0-60.0","SS1619740100683","","","","","","","","","","","","","{""ethnicity"":[""White""]}","[0]","","",""
"","3652.330000000831","demog-gender-and-education","169","511827","0.0-61.0","SS1619740100683","","","","","","","","","","","","","{""gender"":""Male"",""education"":""High school diploma""}","[0,1]","","",""
"","4575.885000001988","survey-text","170","516413","0.0-62.0","SS1619740100683","feedback","","","","","","","","","","","","{""Q0"":""No""}","","","",""
"[{""page_index"":0,""viewing_time"":1376.4900000023772}]","1376.6600000017206","instructions","171","517794","0.0-63.0","SS1619740100683","instructions","","","","","","","","","","","","","","","",""
