"view_history","rt","trial_type","trial_index","time_elapsed","internal_node_id","subject","stimulus_type","trial_stimulus","key_press","minimum_viewing_duration","trial_looking_time","block_deviant","block_background","exposure_type","stimulus","block_number","block_type","stimulus_displayed","responses","question_order","math_correct_answer","stimulus_left","stimulus_right"
"[{""page_index"":0,""viewing_time"":10556.36000004597}]","10557.06999998074","instructions","0","10558","0.0-0.0","SS1619739855680","","","","","","","","","","","","","","","","",""
"[{""page_index"":0,""viewing_time"":12047.914999886416},{""page_index"":1,""viewing_time"":3953.540000016801}]","16001.679999986663","instructions","1","28571","0.0-1.0","SS1619739855680","instructions","","","","","","","","","","","","","","","",""
"","6016.055000014603","sequential-stimulus-presentation-old","2","35090","0.0-2.0","SS1619739855680","","","40","500","6516.055000014603","null","null","self_paced","","","","","","","","",""
"","3703.4099999582395","sequential-stimulus-presentation-old","3","39297","0.0-3.0","SS1619739855680","","","40","500","4203.4099999582395","null","null","self_paced","","","","","","","","",""
"[{""page_index"":0,""viewing_time"":10542.989999987185}]","10543.184999958612","instructions","4","49842","0.0-4.0","SS1619739855680","instructions","","","","","","","","","","","","","","","",""
"","477.75499999988824","sequential-stimulus-presentation-old","5","65322","0.0-5.0","SS1619739855680","","","40","500","977.7549999998882","null","null","forced_long","","","","","","","","",""
"","1033.5249999770895","sequential-stimulus-presentation-old","6","66874","0.0-6.0","SS1619739855680","","","40","500","1533.5249999770895","null","null","forced_long","","","","","","","","",""
"[{""page_index"":0,""viewing_time"":2752.280000015162}]","2752.4950000224635","instructions","7","69628","0.0-7.0","SS1619739855680","instructions","","","","","","","","","","","","","","","",""
"[{""page_index"":0,""viewing_time"":12409.280000021681},{""page_index"":1,""viewing_time"":11180.030000046827},{""page_index"":2,""viewing_time"":4479.534999933094},{""page_index"":3,""viewing_time"":648.4800000907853},{""page_index"":4,""viewing_time"":783.7549999821931}]","29501.36500003282","instructions","8","99130","0.0-8.0","SS1619739855680","instructions","","","","","","","","","","","","","","","",""
"","null","html-keyboard-response","9","100009","0.0-9.0-0.0","SS1619739855680","","","null","","","","","","<p><img src= images/blank.png width =""600"" height = ""600"" style=""position:fixed;top:50%; left:50%; transform: translate(-50%, -50%); border:5px solid black"">","","","","","","","",""
"","467.65000000596046","sequential-stimulus-presentation-old","10","115490","0.0-9.0-1.0","SS1619739855680","trial","","40","500","967.6500000059605","images/stimuli/spore_stims/simple_05_A_a.gif","images/stimuli/spore_stims/simple_15_A_b.gif","forced_long","","0","simple_dissimilar","images/stimuli/spore_stims/simple_15_A_b.gif","","","","",""
"","null","html-keyboard-response","11","116707","0.0-9.0-0.1","SS1619739855680","","","null","","","","","","<p><img src= images/blank.png width =""600"" height = ""600"" style=""position:fixed;top:50%; left:50%; transform: translate(-50%, -50%); border:5px solid black"">","","","","","","","",""
"","40.21999996621162","sequential-stimulus-presentation-old","12","117250","0.0-9.0-1.1","SS1619739855680","trial","","40","500","540.2199999662116","images/stimuli/spore_stims/simple_05_A_a.gif","images/stimuli/spore_stims/simple_15_A_b.gif","forced_long","","0","simple_dissimilar","images/stimuli/spore_stims/simple_15_A_b.gif","","","","",""
"","null","html-keyboard-response","13","118412","0.0-9.0-0.2","SS1619739855680","","","null","","","","","","<p><img src= images/blank.png width =""600"" height = ""600"" style=""position:fixed;top:50%; left:50%; transform: translate(-50%, -50%); border:5px solid black"">","","","","","","","",""
"","2670.4850000096485","sequential-stimulus-presentation-old","14","121594","0.0-9.0-1.2","SS1619739855680","trial","","40","500","3170.4850000096485","images/stimuli/spore_stims/simple_05_A_a.gif","images/stimuli/spore_stims/simple_15_A_b.gif","forced_long","","0","simple_dissimilar","images/stimuli/spore_stims/simple_15_A_b.gif","","","","",""
"","null","html-keyboard-response","15","122520","0.0-9.0-0.3","SS1619739855680","","","null","","","","","","<p><img src= images/blank.png width =""600"" height = ""600"" style=""position:fixed;top:50%; left:50%; transform: translate(-50%, -50%); border:5px solid black"">","","","","","","","",""
"","137.6450000097975","sequential-stimulus-presentation-old","16","123161","0.0-9.0-1.3","SS1619739855680","trial","","40","500","637.6450000097975","images/stimuli/spore_stims/simple_05_A_a.gif","images/stimuli/spore_stims/simple_15_A_b.gif","forced_long","","0","simple_dissimilar","images/stimuli/spore_stims/simple_15_A_b.gif","","","","",""
"","null","html-keyboard-response","17","124106","0.0-9.0-0.4","SS1619739855680","","","null","","","","","","<p><img src= images/blank.png width =""600"" height = ""600"" style=""position:fixed;top:50%; left:50%; transform: translate(-50%, -50%); border:5px solid black"">","","","","","","","",""
"","4125.834999955259","sequential-stimulus-presentation-old","18","128737","0.0-9.0-1.4","SS1619739855680","trial","","40","500","4625.834999955259","images/stimuli/spore_stims/simple_05_A_a.gif","images/stimuli/spore_stims/simple_15_A_b.gif","forced_long","","0","simple_dissimilar","images/stimuli/spore_stims/simple_15_A_b.gif","","","","",""
"","4531.384999980219","survey-multi-choice","19","133272","0.0-10.0","SS1619739855680","math_question","","","","","","","","","","","","{""Q0"":""9""}","[0]","9","",""
"","null","html-keyboard-response","20","134239","0.0-11.0-0.0","SS1619739855680","","","null","","","","","","<p><img src= images/blank.png width =""600"" height = ""600"" style=""position:fixed;top:50%; left:50%; transform: translate(-50%, -50%); border:5px solid black"">","","","","","","","",""
"","684.6899999072775","sequential-stimulus-presentation-old","21","149931","0.0-11.0-1.0","SS1619739855680","trial","","40","500","1184.6899999072775","images/stimuli/spore_stims/complex_15_A_b.gif","images/stimuli/spore_stims/complex_03_A_a.gif","forced_long","","1","complex_dissimilar","images/stimuli/spore_stims/complex_03_A_a.gif","","","","",""
"","null","html-keyboard-response","22","150867","0.0-11.0-0.1","SS1619739855680","","","null","","","","","","<p><img src= images/blank.png width =""600"" height = ""600"" style=""position:fixed;top:50%; left:50%; transform: translate(-50%, -50%); border:5px solid black"">","","","","","","","",""
"","4240.720000001602","sequential-stimulus-presentation-old","23","155618","0.0-11.0-1.1","SS1619739855680","trial","","40","500","4740.720000001602","images/stimuli/spore_stims/complex_15_A_b.gif","images/stimuli/spore_stims/complex_03_A_a.gif","forced_long","","1","complex_dissimilar","images/stimuli/spore_stims/complex_03_A_a.gif","","","","",""
"","null","html-keyboard-response","24","156498","0.0-11.0-0.2","SS1619739855680","","","null","","","","","","<p><img src= images/blank.png width =""600"" height = ""600"" style=""position:fixed;top:50%; left:50%; transform: translate(-50%, -50%); border:5px solid black"">","","","","","","","",""
"","5028.835000004619","sequential-stimulus-presentation-old","25","162034","0.0-11.0-1.2","SS1619739855680","trial","","40","500","5528.835000004619","images/stimuli/spore_stims/complex_15_A_b.gif","images/stimuli/spore_stims/complex_03_A_a.gif","forced_long","","1","complex_dissimilar","images/stimuli/spore_stims/complex_03_A_a.gif","","","","",""
"","null","html-keyboard-response","26","163143","0.0-11.0-0.3","SS1619739855680","","","null","","","","","","<p><img src= images/blank.png width =""600"" height = ""600"" style=""position:fixed;top:50%; left:50%; transform: translate(-50%, -50%); border:5px solid black"">","","","","","","","",""
"","1543.874999973923","sequential-stimulus-presentation-old","27","165194","0.0-11.0-1.3","SS1619739855680","trial","","40","500","2043.874999973923","images/stimuli/spore_stims/complex_15_A_b.gif","images/stimuli/spore_stims/complex_03_A_a.gif","forced_long","","1","complex_dissimilar","images/stimuli/spore_stims/complex_03_A_a.gif","","","","",""
"","null","html-keyboard-response","28","166064","0.0-11.0-0.4","SS1619739855680","","","null","","","","","","<p><img src= images/blank.png width =""600"" height = ""600"" style=""position:fixed;top:50%; left:50%; transform: translate(-50%, -50%); border:5px solid black"">","","","","","","","",""
"","8600.649999920279","sequential-stimulus-presentation-old","29","175171","0.0-11.0-1.4","SS1619739855680","trial","","40","500","9100.649999920279","images/stimuli/spore_stims/complex_15_A_b.gif","images/stimuli/spore_stims/complex_03_A_a.gif","forced_long","","1","complex_dissimilar","images/stimuli/spore_stims/complex_15_A_b.gif","","","","",""
"","null","html-keyboard-response","30","176170","0.0-11.0-0.5","SS1619739855680","","","null","","","","","","<p><img src= images/blank.png width =""600"" height = ""600"" style=""position:fixed;top:50%; left:50%; transform: translate(-50%, -50%); border:5px solid black"">","","","","","","","",""
"","3766.360000008717","sequential-stimulus-presentation-old","31","180441","0.0-11.0-1.5","SS1619739855680","trial","","40","500","4266.360000008717","images/stimuli/spore_stims/complex_15_A_b.gif","images/stimuli/spore_stims/complex_03_A_a.gif","forced_long","","1","complex_dissimilar","images/stimuli/spore_stims/complex_15_A_b.gif","","","","",""
"","2901.354999979958","survey-multi-choice","32","183345","0.0-12.0","SS1619739855680","math_question","","","","","","","","","","","","{""Q0"":""8""}","[0]","8","",""
"","null","html-keyboard-response","33","184603","0.0-13.0-0.0","SS1619739855680","","","null","","","","","","<p><img src= images/blank.png width =""600"" height = ""600"" style=""position:fixed;top:50%; left:50%; transform: translate(-50%, -50%); border:5px solid black"">","","","","","","","",""
"","2116.469999891706","sequential-stimulus-presentation-old","34","187226","0.0-13.0-1.0","SS1619739855680","trial","","40","500","2616.469999891706","images/stimuli/spore_stims/simple_12_A_b.gif","images/stimuli/spore_stims/simple_19_A_a.gif","forced_short","","2","simple_dissimilar","images/stimuli/spore_stims/simple_19_A_a.gif","","","","",""
"","null","html-keyboard-response","35","188334","0.0-13.0-0.1","SS1619739855680","","","null","","","","","","<p><img src= images/blank.png width =""600"" height = ""600"" style=""position:fixed;top:50%; left:50%; transform: translate(-50%, -50%); border:5px solid black"">","","","","","","","",""
"","3642.9449999704957","sequential-stimulus-presentation-old","36","192482","0.0-13.0-1.1","SS1619739855680","trial","","40","500","4142.944999970496","images/stimuli/spore_stims/simple_12_A_b.gif","images/stimuli/spore_stims/simple_19_A_a.gif","forced_short","","2","simple_dissimilar","images/stimuli/spore_stims/simple_19_A_a.gif","","","","",""
"","null","html-keyboard-response","37","193630","0.0-13.0-0.2","SS1619739855680","","","null","","","","","","<p><img src= images/blank.png width =""600"" height = ""600"" style=""position:fixed;top:50%; left:50%; transform: translate(-50%, -50%); border:5px solid black"">","","","","","","","",""
"","1581.815000041388","sequential-stimulus-presentation-old","38","195721","0.0-13.0-1.2","SS1619739855680","trial","","40","500","2081.815000041388","images/stimuli/spore_stims/simple_12_A_b.gif","images/stimuli/spore_stims/simple_19_A_a.gif","forced_short","","2","simple_dissimilar","images/stimuli/spore_stims/simple_19_A_a.gif","","","","",""
"","null","html-keyboard-response","39","196751","0.0-13.0-0.3","SS1619739855680","","","null","","","","","","<p><img src= images/blank.png width =""600"" height = ""600"" style=""position:fixed;top:50%; left:50%; transform: translate(-50%, -50%); border:5px solid black"">","","","","","","","",""
"","3288.910000002943","sequential-stimulus-presentation-old","40","200547","0.0-13.0-1.3","SS1619739855680","trial","","40","500","3788.910000002943","images/stimuli/spore_stims/simple_12_A_b.gif","images/stimuli/spore_stims/simple_19_A_a.gif","forced_short","","2","simple_dissimilar","images/stimuli/spore_stims/simple_12_A_b.gif","","","","",""
"","null","html-keyboard-response","41","201842","0.0-13.0-0.4","SS1619739855680","","","null","","","","","","<p><img src= images/blank.png width =""600"" height = ""600"" style=""position:fixed;top:50%; left:50%; transform: translate(-50%, -50%); border:5px solid black"">","","","","","","","",""
"","1933.9900000486523","sequential-stimulus-presentation-old","42","204281","0.0-13.0-1.4","SS1619739855680","trial","","40","500","2433.9900000486523","images/stimuli/spore_stims/simple_12_A_b.gif","images/stimuli/spore_stims/simple_19_A_a.gif","forced_short","","2","simple_dissimilar","images/stimuli/spore_stims/simple_19_A_a.gif","","","","",""
"","null","html-keyboard-response","43","205205","0.0-13.0-0.5","SS1619739855680","","","null","","","","","","<p><img src= images/blank.png width =""600"" height = ""600"" style=""position:fixed;top:50%; left:50%; transform: translate(-50%, -50%); border:5px solid black"">","","","","","","","",""
"","3140.6750000314787","sequential-stimulus-presentation-old","44","208850","0.0-13.0-1.5","SS1619739855680","trial","","40","500","3640.6750000314787","images/stimuli/spore_stims/simple_12_A_b.gif","images/stimuli/spore_stims/simple_19_A_a.gif","forced_short","","2","simple_dissimilar","images/stimuli/spore_stims/simple_12_A_b.gif","","","","",""
"","2953.6800000350922","survey-multi-choice","45","211807","0.0-14.0","SS1619739855680","math_question","","","","","","","","","","","","{""Q0"":""7""}","[0]","7","",""
"","null","html-keyboard-response","46","212789","0.0-15.0-0.0","SS1619739855680","","","null","","","","","","<p><img src= images/blank.png width =""600"" height = ""600"" style=""position:fixed;top:50%; left:50%; transform: translate(-50%, -50%); border:5px solid black"">","","","","","","","",""
"","3002.9499999945983","sequential-stimulus-presentation-old","47","216298","0.0-15.0-1.0","SS1619739855680","trial","","40","500","3502.9499999945983","images/stimuli/spore_stims/complex_20_A_b.gif","images/stimuli/spore_stims/complex_02_A_a.gif","forced_short","","3","complex_dissimilar","images/stimuli/spore_stims/complex_02_A_a.gif","","","","",""
"","null","html-keyboard-response","48","217271","0.0-15.0-0.1","SS1619739855680","","","null","","","","","","<p><img src= images/blank.png width =""600"" height = ""600"" style=""position:fixed;top:50%; left:50%; transform: translate(-50%, -50%); border:5px solid black"">","","","","","","","",""
"","6921.005000011064","sequential-stimulus-presentation-old","49","224698","0.0-15.0-1.1","SS1619739855680","trial","","40","500","7421.005000011064","images/stimuli/spore_stims/complex_20_A_b.gif","images/stimuli/spore_stims/complex_02_A_a.gif","forced_short","","3","complex_dissimilar","images/stimuli/spore_stims/complex_02_A_a.gif","","","","",""
"","null","html-keyboard-response","50","225822","0.0-15.0-0.2","SS1619739855680","","","null","","","","","","<p><img src= images/blank.png width =""600"" height = ""600"" style=""position:fixed;top:50%; left:50%; transform: translate(-50%, -50%); border:5px solid black"">","","","","","","","",""
"","3371.775000006892","sequential-stimulus-presentation-old","51","229706","0.0-15.0-1.2","SS1619739855680","trial","","40","500","3871.775000006892","images/stimuli/spore_stims/complex_20_A_b.gif","images/stimuli/spore_stims/complex_02_A_a.gif","forced_short","","3","complex_dissimilar","images/stimuli/spore_stims/complex_02_A_a.gif","","","","",""
"","null","html-keyboard-response","52","230709","0.0-15.0-0.3","SS1619739855680","","","null","","","","","","<p><img src= images/blank.png width =""600"" height = ""600"" style=""position:fixed;top:50%; left:50%; transform: translate(-50%, -50%); border:5px solid black"">","","","","","","","",""
"","2651.4200000092387","sequential-stimulus-presentation-old","53","233867","0.0-15.0-1.3","SS1619739855680","trial","","40","500","3151.4200000092387","images/stimuli/spore_stims/complex_20_A_b.gif","images/stimuli/spore_stims/complex_02_A_a.gif","forced_short","","3","complex_dissimilar","images/stimuli/spore_stims/complex_20_A_b.gif","","","","",""
"","null","html-keyboard-response","54","234886","0.0-15.0-0.4","SS1619739855680","","","null","","","","","","<p><img src= images/blank.png width =""600"" height = ""600"" style=""position:fixed;top:50%; left:50%; transform: translate(-50%, -50%); border:5px solid black"">","","","","","","","",""
"","9947.760000010021","sequential-stimulus-presentation-old","55","245346","0.0-15.0-1.4","SS1619739855680","trial","","40","500","10447.760000010021","images/stimuli/spore_stims/complex_20_A_b.gif","images/stimuli/spore_stims/complex_02_A_a.gif","forced_short","","3","complex_dissimilar","images/stimuli/spore_stims/complex_20_A_b.gif","","","","",""
"","4707.760000019334","survey-multi-choice","56","250056","0.0-16.0","SS1619739855680","math_question","","","","","","","","","","","","{""Q0"":""12""}","[0]","12","",""
"","null","html-keyboard-response","57","251057","0.0-17.0-0.0","SS1619739855680","","","null","","","","","","<p><img src= images/blank.png width =""600"" height = ""600"" style=""position:fixed;top:50%; left:50%; transform: translate(-50%, -50%); border:5px solid black"">","","","","","","","",""
"","6437.3849999392405","sequential-stimulus-presentation-old","58","258002","0.0-17.0-1.0","SS1619739855680","trial","","40","500","6937.3849999392405","images/stimuli/spore_stims/simple_05_A_b.gif","images/stimuli/spore_stims/simple_12_A_a.gif","forced_short","","4","simple_dissimilar","images/stimuli/spore_stims/simple_12_A_a.gif","","","","",""
"","null","html-keyboard-response","59","259299","0.0-17.0-0.1","SS1619739855680","","","null","","","","","","<p><img src= images/blank.png width =""600"" height = ""600"" style=""position:fixed;top:50%; left:50%; transform: translate(-50%, -50%); border:5px solid black"">","","","","","","","",""
"","5678.8750000996515","sequential-stimulus-presentation-old","60","265499","0.0-17.0-1.1","SS1619739855680","trial","","40","500","6178.8750000996515","images/stimuli/spore_stims/simple_05_A_b.gif","images/stimuli/spore_stims/simple_12_A_a.gif","forced_short","","4","simple_dissimilar","images/stimuli/spore_stims/simple_05_A_b.gif","","","","",""
"","null","html-keyboard-response","61","266642","0.0-17.0-0.2","SS1619739855680","","","null","","","","","","<p><img src= images/blank.png width =""600"" height = ""600"" style=""position:fixed;top:50%; left:50%; transform: translate(-50%, -50%); border:5px solid black"">","","","","","","","",""
"","5414.710000040941","sequential-stimulus-presentation-old","62","272562","0.0-17.0-1.2","SS1619739855680","trial","","40","500","5914.710000040941","images/stimuli/spore_stims/simple_05_A_b.gif","images/stimuli/spore_stims/simple_12_A_a.gif","forced_short","","4","simple_dissimilar","images/stimuli/spore_stims/simple_12_A_a.gif","","","","",""
"","null","html-keyboard-response","63","273373","0.0-17.0-0.3","SS1619739855680","","","null","","","","","","<p><img src= images/blank.png width =""600"" height = ""600"" style=""position:fixed;top:50%; left:50%; transform: translate(-50%, -50%); border:5px solid black"">","","","","","","","",""
"","4378.744999994524","sequential-stimulus-presentation-old","64","278259","0.0-17.0-1.3","SS1619739855680","trial","","40","500","4878.744999994524","images/stimuli/spore_stims/simple_05_A_b.gif","images/stimuli/spore_stims/simple_12_A_a.gif","forced_short","","4","simple_dissimilar","images/stimuli/spore_stims/simple_12_A_a.gif","","","","",""
"","2857.825000071898","survey-multi-choice","65","281120","0.0-18.0","SS1619739855680","math_question","","","","","","","","","","","","{""Q0"":""5""}","[0]","5","",""
"","null","html-keyboard-response","66","282172","0.0-19.0-0.0","SS1619739855680","","","null","","","","","","<p><img src= images/blank.png width =""600"" height = ""600"" style=""position:fixed;top:50%; left:50%; transform: translate(-50%, -50%); border:5px solid black"">","","","","","","","",""
"","5237.474999972619","sequential-stimulus-presentation-old","67","287914","0.0-19.0-1.0","SS1619739855680","trial","","40","500","5737.474999972619","images/stimuli/spore_stims/simple_10_A_b.gif","images/stimuli/spore_stims/simple_13_A_a.gif","self_paced","","5","simple_dissimilar","images/stimuli/spore_stims/simple_13_A_a.gif","","","","",""
"","null","html-keyboard-response","68","288971","0.0-19.0-0.1","SS1619739855680","","","null","","","","","","<p><img src= images/blank.png width =""600"" height = ""600"" style=""position:fixed;top:50%; left:50%; transform: translate(-50%, -50%); border:5px solid black"">","","","","","","","",""
"","3366.2550000008196","sequential-stimulus-presentation-old","69","292842","0.0-19.0-1.1","SS1619739855680","trial","","40","500","3866.2550000008196","images/stimuli/spore_stims/simple_10_A_b.gif","images/stimuli/spore_stims/simple_13_A_a.gif","self_paced","","5","simple_dissimilar","images/stimuli/spore_stims/simple_13_A_a.gif","","","","",""
"","null","html-keyboard-response","70","293910","0.0-19.0-0.2","SS1619739855680","","","null","","","","","","<p><img src= images/blank.png width =""600"" height = ""600"" style=""position:fixed;top:50%; left:50%; transform: translate(-50%, -50%); border:5px solid black"">","","","","","","","",""
"","5569.554999936372","sequential-stimulus-presentation-old","71","299986","0.0-19.0-1.2","SS1619739855680","trial","","40","500","6069.554999936372","images/stimuli/spore_stims/simple_10_A_b.gif","images/stimuli/spore_stims/simple_13_A_a.gif","self_paced","","5","simple_dissimilar","images/stimuli/spore_stims/simple_13_A_a.gif","","","","",""
"","null","html-keyboard-response","72","300815","0.0-19.0-0.3","SS1619739855680","","","null","","","","","","<p><img src= images/blank.png width =""600"" height = ""600"" style=""position:fixed;top:50%; left:50%; transform: translate(-50%, -50%); border:5px solid black"">","","","","","","","",""
"","5569.030000013299","sequential-stimulus-presentation-old","73","306890","0.0-19.0-1.3","SS1619739855680","trial","","40","500","6069.030000013299","images/stimuli/spore_stims/simple_10_A_b.gif","images/stimuli/spore_stims/simple_13_A_a.gif","self_paced","","5","simple_dissimilar","images/stimuli/spore_stims/simple_10_A_b.gif","","","","",""
"","4130.670000100508","survey-multi-choice","74","311025","0.0-20.0","SS1619739855680","math_question","","","","","","","","","","","","{""Q0"":""10""}","[0]","10","",""
"","null","html-keyboard-response","75","312260","0.0-21.0-0.0","SS1619739855680","","","null","","","","","","<p><img src= images/blank.png width =""600"" height = ""600"" style=""position:fixed;top:50%; left:50%; transform: translate(-50%, -50%); border:5px solid black"">","","","","","","","",""
"","13718.860000022687","sequential-stimulus-presentation-old","76","326482","0.0-21.0-1.0","SS1619739855680","trial","","40","500","14218.860000022687","images/stimuli/spore_stims/complex_08_A_b.gif","images/stimuli/spore_stims/complex_14_A_a.gif","forced_short","","6","complex_dissimilar","images/stimuli/spore_stims/complex_14_A_a.gif","","","","",""
"","null","html-keyboard-response","77","327664","0.0-21.0-0.1","SS1619739855680","","","null","","","","","","<p><img src= images/blank.png width =""600"" height = ""600"" style=""position:fixed;top:50%; left:50%; transform: translate(-50%, -50%); border:5px solid black"">","","","","","","","",""
"","2983.8500000769272","sequential-stimulus-presentation-old","78","331154","0.0-21.0-1.1","SS1619739855680","trial","","40","500","3483.8500000769272","images/stimuli/spore_stims/complex_08_A_b.gif","images/stimuli/spore_stims/complex_14_A_a.gif","forced_short","","6","complex_dissimilar","images/stimuli/spore_stims/complex_14_A_a.gif","","","","",""
"","null","html-keyboard-response","79","332459","0.0-21.0-0.2","SS1619739855680","","","null","","","","","","<p><img src= images/blank.png width =""600"" height = ""600"" style=""position:fixed;top:50%; left:50%; transform: translate(-50%, -50%); border:5px solid black"">","","","","","","","",""
"","3351.310000056401","sequential-stimulus-presentation-old","80","336322","0.0-21.0-1.2","SS1619739855680","trial","","40","500","3851.310000056401","images/stimuli/spore_stims/complex_08_A_b.gif","images/stimuli/spore_stims/complex_14_A_a.gif","forced_short","","6","complex_dissimilar","images/stimuli/spore_stims/complex_14_A_a.gif","","","","",""
"","null","html-keyboard-response","81","337328","0.0-21.0-0.3","SS1619739855680","","","null","","","","","","<p><img src= images/blank.png width =""600"" height = ""600"" style=""position:fixed;top:50%; left:50%; transform: translate(-50%, -50%); border:5px solid black"">","","","","","","","",""
"","1225.730000063777","sequential-stimulus-presentation-old","82","339066","0.0-21.0-1.3","SS1619739855680","trial","","40","500","1725.730000063777","images/stimuli/spore_stims/complex_08_A_b.gif","images/stimuli/spore_stims/complex_14_A_a.gif","forced_short","","6","complex_dissimilar","images/stimuli/spore_stims/complex_14_A_a.gif","","","","",""
"","3523.3899999875575","survey-multi-choice","83","342593","0.0-22.0","SS1619739855680","math_question","","","","","","","","","","","","{""Q0"":""7""}","[0]","7","",""
"","null","html-keyboard-response","84","343719","0.0-23.0-0.0","SS1619739855680","","","null","","","","","","<p><img src= images/blank.png width =""600"" height = ""600"" style=""position:fixed;top:50%; left:50%; transform: translate(-50%, -50%); border:5px solid black"">","","","","","","","",""
"","872.2650000127032","sequential-stimulus-presentation-old","85","359602","0.0-23.0-1.0","SS1619739855680","trial","","40","500","1372.2650000127032","images/stimuli/spore_stims/complex_01_A_b.gif","images/stimuli/spore_stims/complex_17_A_a.gif","forced_long","","7","complex_dissimilar","images/stimuli/spore_stims/complex_17_A_a.gif","","","","",""
"","null","html-keyboard-response","86","360578","0.0-23.0-0.1","SS1619739855680","","","null","","","","","","<p><img src= images/blank.png width =""600"" height = ""600"" style=""position:fixed;top:50%; left:50%; transform: translate(-50%, -50%); border:5px solid black"">","","","","","","","",""
"","3324.3700000457466","sequential-stimulus-presentation-old","87","364410","0.0-23.0-1.1","SS1619739855680","trial","","40","500","3824.3700000457466","images/stimuli/spore_stims/complex_01_A_b.gif","images/stimuli/spore_stims/complex_17_A_a.gif","forced_long","","7","complex_dissimilar","images/stimuli/spore_stims/complex_01_A_b.gif","","","","",""
"","null","html-keyboard-response","88","365499","0.0-23.0-0.2","SS1619739855680","","","null","","","","","","<p><img src= images/blank.png width =""600"" height = ""600"" style=""position:fixed;top:50%; left:50%; transform: translate(-50%, -50%); border:5px solid black"">","","","","","","","",""
"","4234.074999927543","sequential-stimulus-presentation-old","89","370242","0.0-23.0-1.2","SS1619739855680","trial","","40","500","4734.074999927543","images/stimuli/spore_stims/complex_01_A_b.gif","images/stimuli/spore_stims/complex_17_A_a.gif","forced_long","","7","complex_dissimilar","images/stimuli/spore_stims/complex_17_A_a.gif","","","","",""
"","null","html-keyboard-response","90","371367","0.0-23.0-0.3","SS1619739855680","","","null","","","","","","<p><img src= images/blank.png width =""600"" height = ""600"" style=""position:fixed;top:50%; left:50%; transform: translate(-50%, -50%); border:5px solid black"">","","","","","","","",""
"","3984.5300000160933","sequential-stimulus-presentation-old","91","375858","0.0-23.0-1.3","SS1619739855680","trial","","40","500","4484.530000016093","images/stimuli/spore_stims/complex_01_A_b.gif","images/stimuli/spore_stims/complex_17_A_a.gif","forced_long","","7","complex_dissimilar","images/stimuli/spore_stims/complex_17_A_a.gif","","","","",""
"","null","html-keyboard-response","92","376815","0.0-23.0-0.4","SS1619739855680","","","null","","","","","","<p><img src= images/blank.png width =""600"" height = ""600"" style=""position:fixed;top:50%; left:50%; transform: translate(-50%, -50%); border:5px solid black"">","","","","","","","",""
"","2488.2249999791384","sequential-stimulus-presentation-old","93","379810","0.0-23.0-1.4","SS1619739855680","trial","","40","500","2988.2249999791384","images/stimuli/spore_stims/complex_01_A_b.gif","images/stimuli/spore_stims/complex_17_A_a.gif","forced_long","","7","complex_dissimilar","images/stimuli/spore_stims/complex_17_A_a.gif","","","","",""
"","null","html-keyboard-response","94","381056","0.0-23.0-0.5","SS1619739855680","","","null","","","","","","<p><img src= images/blank.png width =""600"" height = ""600"" style=""position:fixed;top:50%; left:50%; transform: translate(-50%, -50%); border:5px solid black"">","","","","","","","",""
"","4167.26999997627","sequential-stimulus-presentation-old","95","385730","0.0-23.0-1.5","SS1619739855680","trial","","40","500","4667.26999997627","images/stimuli/spore_stims/complex_01_A_b.gif","images/stimuli/spore_stims/complex_17_A_a.gif","forced_long","","7","complex_dissimilar","images/stimuli/spore_stims/complex_01_A_b.gif","","","","",""
"","3365.1249998947605","survey-multi-choice","96","389100","0.0-24.0","SS1619739855680","math_question","","","","","","","","","","","","{""Q0"":""5""}","[0]","5","",""
"","null","html-keyboard-response","97","390326","0.0-25.0-0.0","SS1619739855680","","","null","","","","","","<p><img src= images/blank.png width =""600"" height = ""600"" style=""position:fixed;top:50%; left:50%; transform: translate(-50%, -50%); border:5px solid black"">","","","","","","","",""
"","451.4949999283999","sequential-stimulus-presentation-old","98","405786","0.0-25.0-1.0","SS1619739855680","trial","","40","500","951.4949999283999","images/stimuli/spore_stims/simple_04_A_a.gif","images/stimuli/spore_stims/simple_20_A_b.gif","forced_long","","8","simple_dissimilar","images/stimuli/spore_stims/simple_20_A_b.gif","","","","",""
"","null","html-keyboard-response","99","406685","0.0-25.0-0.1","SS1619739855680","","","null","","","","","","<p><img src= images/blank.png width =""600"" height = ""600"" style=""position:fixed;top:50%; left:50%; transform: translate(-50%, -50%); border:5px solid black"">","","","","","","","",""
"","5395.58000001125","sequential-stimulus-presentation-old","100","412586","0.0-25.0-1.1","SS1619739855680","trial","","40","500","5895.58000001125","images/stimuli/spore_stims/simple_04_A_a.gif","images/stimuli/spore_stims/simple_20_A_b.gif","forced_long","","8","simple_dissimilar","images/stimuli/spore_stims/simple_04_A_a.gif","","","","",""
"","null","html-keyboard-response","101","413643","0.0-25.0-0.2","SS1619739855680","","","null","","","","","","<p><img src= images/blank.png width =""600"" height = ""600"" style=""position:fixed;top:50%; left:50%; transform: translate(-50%, -50%); border:5px solid black"">","","","","","","","",""
"","3961.265000049025","sequential-stimulus-presentation-old","102","418114","0.0-25.0-1.2","SS1619739855680","trial","","40","500","4461.265000049025","images/stimuli/spore_stims/simple_04_A_a.gif","images/stimuli/spore_stims/simple_20_A_b.gif","forced_long","","8","simple_dissimilar","images/stimuli/spore_stims/simple_20_A_b.gif","","","","",""
"","null","html-keyboard-response","103","419160","0.0-25.0-0.3","SS1619739855680","","","null","","","","","","<p><img src= images/blank.png width =""600"" height = ""600"" style=""position:fixed;top:50%; left:50%; transform: translate(-50%, -50%); border:5px solid black"">","","","","","","","",""
"","6095.240000053309","sequential-stimulus-presentation-old","104","425762","0.0-25.0-1.3","SS1619739855680","trial","","40","500","6595.240000053309","images/stimuli/spore_stims/simple_04_A_a.gif","images/stimuli/spore_stims/simple_20_A_b.gif","forced_long","","8","simple_dissimilar","images/stimuli/spore_stims/simple_20_A_b.gif","","","","",""
"","null","html-keyboard-response","105","426734","0.0-25.0-0.4","SS1619739855680","","","null","","","","","","<p><img src= images/blank.png width =""600"" height = ""600"" style=""position:fixed;top:50%; left:50%; transform: translate(-50%, -50%); border:5px solid black"">","","","","","","","",""
"","2209.5249999547377","sequential-stimulus-presentation-old","106","429450","0.0-25.0-1.4","SS1619739855680","trial","","40","500","2709.5249999547377","images/stimuli/spore_stims/simple_04_A_a.gif","images/stimuli/spore_stims/simple_20_A_b.gif","forced_long","","8","simple_dissimilar","images/stimuli/spore_stims/simple_04_A_a.gif","","","","",""
"","3705.8400000678375","survey-multi-choice","107","433160","0.0-26.0","SS1619739855680","math_question","","","","","","","","","","","","{""Q0"":""11""}","[0]","11","",""
"","null","html-keyboard-response","108","434391","0.0-27.0-0.0","SS1619739855680","","","null","","","","","","<p><img src= images/blank.png width =""600"" height = ""600"" style=""position:fixed;top:50%; left:50%; transform: translate(-50%, -50%); border:5px solid black"">","","","","","","","",""
"","3125.8150000358","sequential-stimulus-presentation-old","109","438026","0.0-27.0-1.0","SS1619739855680","trial","","40","500","3625.8150000358","images/stimuli/spore_stims/simple_06_A_a.gif","images/stimuli/spore_stims/simple_01_A_b.gif","self_paced","","9","simple_dissimilar","images/stimuli/spore_stims/simple_01_A_b.gif","","","","",""
"","null","html-keyboard-response","110","439270","0.0-27.0-0.1","SS1619739855680","","","null","","","","","","<p><img src= images/blank.png width =""600"" height = ""600"" style=""position:fixed;top:50%; left:50%; transform: translate(-50%, -50%); border:5px solid black"">","","","","","","","",""
"","2364.2199999885634","sequential-stimulus-presentation-old","111","442146","0.0-27.0-1.1","SS1619739855680","trial","","40","500","2864.2199999885634","images/stimuli/spore_stims/simple_06_A_a.gif","images/stimuli/spore_stims/simple_01_A_b.gif","self_paced","","9","simple_dissimilar","images/stimuli/spore_stims/simple_01_A_b.gif","","","","",""
"","null","html-keyboard-response","112","443157","0.0-27.0-0.2","SS1619739855680","","","null","","","","","","<p><img src= images/blank.png width =""600"" height = ""600"" style=""position:fixed;top:50%; left:50%; transform: translate(-50%, -50%); border:5px solid black"">","","","","","","","",""
"","276.9950000802055","sequential-stimulus-presentation-old","113","443945","0.0-27.0-1.2","SS1619739855680","trial","","40","500","776.9950000802055","images/stimuli/spore_stims/simple_06_A_a.gif","images/stimuli/spore_stims/simple_01_A_b.gif","self_paced","","9","simple_dissimilar","images/stimuli/spore_stims/simple_01_A_b.gif","","","","",""
"","null","html-keyboard-response","114","444798","0.0-27.0-0.3","SS1619739855680","","","null","","","","","","<p><img src= images/blank.png width =""600"" height = ""600"" style=""position:fixed;top:50%; left:50%; transform: translate(-50%, -50%); border:5px solid black"">","","","","","","","",""
"","624.3900000117719","sequential-stimulus-presentation-old","115","445929","0.0-27.0-1.3","SS1619739855680","trial","","40","500","1124.390000011772","images/stimuli/spore_stims/simple_06_A_a.gif","images/stimuli/spore_stims/simple_01_A_b.gif","self_paced","","9","simple_dissimilar","images/stimuli/spore_stims/simple_01_A_b.gif","","","","",""
"","3153.1349999131635","survey-multi-choice","116","449087","0.0-28.0","SS1619739855680","math_question","","","","","","","","","","","","{""Q0"":""11""}","[0]","11","",""
"","null","html-keyboard-response","117","450351","0.0-29.0-0.0","SS1619739855680","","","null","","","","","","<p><img src= images/blank.png width =""600"" height = ""600"" style=""position:fixed;top:50%; left:50%; transform: translate(-50%, -50%); border:5px solid black"">","","","","","","","",""
"","6256.019999971613","sequential-stimulus-presentation-old","118","457114","0.0-29.0-1.0","SS1619739855680","trial","","40","500","6756.019999971613","images/stimuli/spore_stims/complex_06_A_a.gif","images/stimuli/spore_stims/complex_19_A_b.gif","self_paced","","10","complex_dissimilar","images/stimuli/spore_stims/complex_19_A_b.gif","","","","",""
"","null","html-keyboard-response","119","458085","0.0-29.0-0.1","SS1619739855680","","","null","","","","","","<p><img src= images/blank.png width =""600"" height = ""600"" style=""position:fixed;top:50%; left:50%; transform: translate(-50%, -50%); border:5px solid black"">","","","","","","","",""
"","329.8099999083206","sequential-stimulus-presentation-old","120","458922","0.0-29.0-1.1","SS1619739855680","trial","","40","500","829.8099999083206","images/stimuli/spore_stims/complex_06_A_a.gif","images/stimuli/spore_stims/complex_19_A_b.gif","self_paced","","10","complex_dissimilar","images/stimuli/spore_stims/complex_19_A_b.gif","","","","",""
"","null","html-keyboard-response","121","459852","0.0-29.0-0.2","SS1619739855680","","","null","","","","","","<p><img src= images/blank.png width =""600"" height = ""600"" style=""position:fixed;top:50%; left:50%; transform: translate(-50%, -50%); border:5px solid black"">","","","","","","","",""
"","3471.7599999858066","sequential-stimulus-presentation-old","122","463834","0.0-29.0-1.2","SS1619739855680","trial","","40","500","3971.7599999858066","images/stimuli/spore_stims/complex_06_A_a.gif","images/stimuli/spore_stims/complex_19_A_b.gif","self_paced","","10","complex_dissimilar","images/stimuli/spore_stims/complex_19_A_b.gif","","","","",""
"","null","html-keyboard-response","123","465083","0.0-29.0-0.3","SS1619739855680","","","null","","","","","","<p><img src= images/blank.png width =""600"" height = ""600"" style=""position:fixed;top:50%; left:50%; transform: translate(-50%, -50%); border:5px solid black"">","","","","","","","",""
"","3152.845000033267","sequential-stimulus-presentation-old","124","468746","0.0-29.0-1.3","SS1619739855680","trial","","40","500","3652.845000033267","images/stimuli/spore_stims/complex_06_A_a.gif","images/stimuli/spore_stims/complex_19_A_b.gif","self_paced","","10","complex_dissimilar","images/stimuli/spore_stims/complex_19_A_b.gif","","","","",""
"","null","html-keyboard-response","125","469850","0.0-29.0-0.4","SS1619739855680","","","null","","","","","","<p><img src= images/blank.png width =""600"" height = ""600"" style=""position:fixed;top:50%; left:50%; transform: translate(-50%, -50%); border:5px solid black"">","","","","","","","",""
"","842.0449999393895","sequential-stimulus-presentation-old","126","471203","0.0-29.0-1.4","SS1619739855680","trial","","40","500","1342.0449999393895","images/stimuli/spore_stims/complex_06_A_a.gif","images/stimuli/spore_stims/complex_19_A_b.gif","self_paced","","10","complex_dissimilar","images/stimuli/spore_stims/complex_19_A_b.gif","","","","",""
"","null","html-keyboard-response","127","472123","0.0-29.0-0.5","SS1619739855680","","","null","","","","","","<p><img src= images/blank.png width =""600"" height = ""600"" style=""position:fixed;top:50%; left:50%; transform: translate(-50%, -50%); border:5px solid black"">","","","","","","","",""
"","244.99499995727092","sequential-stimulus-presentation-old","128","472874","0.0-29.0-1.5","SS1619739855680","trial","","40","500","744.9949999572709","images/stimuli/spore_stims/complex_06_A_a.gif","images/stimuli/spore_stims/complex_19_A_b.gif","self_paced","","10","complex_dissimilar","images/stimuli/spore_stims/complex_19_A_b.gif","","","","",""
"","2792.435000068508","survey-multi-choice","129","475672","0.0-30.0","SS1619739855680","math_question","","","","","","","","","","","","{""Q0"":""8""}","[0]","8","",""
"","null","html-keyboard-response","130","476540","0.0-31.0-0.0","SS1619739855680","","","null","","","","","","<p><img src= images/blank.png width =""600"" height = ""600"" style=""position:fixed;top:50%; left:50%; transform: translate(-50%, -50%); border:5px solid black"">","","","","","","","",""
"","1921.6599999926984","sequential-stimulus-presentation-old","131","478970","0.0-31.0-1.0","SS1619739855680","trial","","40","500","2421.6599999926984","images/stimuli/spore_stims/complex_05_A_a.gif","images/stimuli/spore_stims/complex_07_A_b.gif","self_paced","","11","complex_dissimilar","images/stimuli/spore_stims/complex_07_A_b.gif","","","","",""
"","null","html-keyboard-response","132","480095","0.0-31.0-0.1","SS1619739855680","","","null","","","","","","<p><img src= images/blank.png width =""600"" height = ""600"" style=""position:fixed;top:50%; left:50%; transform: translate(-50%, -50%); border:5px solid black"">","","","","","","","",""
"","2408.2749999361113","sequential-stimulus-presentation-old","133","483011","0.0-31.0-1.1","SS1619739855680","trial","","40","500","2908.2749999361113","images/stimuli/spore_stims/complex_05_A_a.gif","images/stimuli/spore_stims/complex_07_A_b.gif","self_paced","","11","complex_dissimilar","images/stimuli/spore_stims/complex_07_A_b.gif","","","","",""
"","null","html-keyboard-response","134","484267","0.0-31.0-0.2","SS1619739855680","","","null","","","","","","<p><img src= images/blank.png width =""600"" height = ""600"" style=""position:fixed;top:50%; left:50%; transform: translate(-50%, -50%); border:5px solid black"">","","","","","","","",""
"","3611.1900000832975","sequential-stimulus-presentation-old","135","488386","0.0-31.0-1.2","SS1619739855680","trial","","40","500","4111.1900000832975","images/stimuli/spore_stims/complex_05_A_a.gif","images/stimuli/spore_stims/complex_07_A_b.gif","self_paced","","11","complex_dissimilar","images/stimuli/spore_stims/complex_07_A_b.gif","","","","",""
"","null","html-keyboard-response","136","489349","0.0-31.0-0.3","SS1619739855680","","","null","","","","","","<p><img src= images/blank.png width =""600"" height = ""600"" style=""position:fixed;top:50%; left:50%; transform: translate(-50%, -50%); border:5px solid black"">","","","","","","","",""
"","4233.540000044741","sequential-stimulus-presentation-old","137","494091","0.0-31.0-1.3","SS1619739855680","trial","","40","500","4733.540000044741","images/stimuli/spore_stims/complex_05_A_a.gif","images/stimuli/spore_stims/complex_07_A_b.gif","self_paced","","11","complex_dissimilar","images/stimuli/spore_stims/complex_07_A_b.gif","","","","",""
"","null","html-keyboard-response","138","495351","0.0-31.0-0.4","SS1619739855680","","","null","","","","","","<p><img src= images/blank.png width =""600"" height = ""600"" style=""position:fixed;top:50%; left:50%; transform: translate(-50%, -50%); border:5px solid black"">","","","","","","","",""
"","3078.785000019707","sequential-stimulus-presentation-old","139","498937","0.0-31.0-1.4","SS1619739855680","trial","","40","500","3578.785000019707","images/stimuli/spore_stims/complex_05_A_a.gif","images/stimuli/spore_stims/complex_07_A_b.gif","self_paced","","11","complex_dissimilar","images/stimuli/spore_stims/complex_07_A_b.gif","","","","",""
"","null","html-keyboard-response","140","499892","0.0-31.0-0.5","SS1619739855680","","","null","","","","","","<p><img src= images/blank.png width =""600"" height = ""600"" style=""position:fixed;top:50%; left:50%; transform: translate(-50%, -50%); border:5px solid black"">","","","","","","","",""
"","2391.7200000723824","sequential-stimulus-presentation-old","141","502794","0.0-31.0-1.5","SS1619739855680","trial","","40","500","2891.7200000723824","images/stimuli/spore_stims/complex_05_A_a.gif","images/stimuli/spore_stims/complex_07_A_b.gif","self_paced","","11","complex_dissimilar","images/stimuli/spore_stims/complex_07_A_b.gif","","","","",""
"[{""page_index"":0,""viewing_time"":6214.119999902323}]","6214.404999976978","instructions","142","509014","0.0-32.0","SS1619739855680","instructions","","","","","","","","","","","","","","","",""
"","10734.29000005126","survey-likert","143","519752","0.0-33.0","SS1619739855680","similarity_question","","","","","","","","","","","","{""Q0"":4}","[0]","","images/stimuli/spore_stims/complex_15_A_b.gif","images/stimuli/spore_stims/complex_03_A_a.gif"
"","10278.135000029579","survey-likert","144","530033","0.0-34.0","SS1619739855680","similarity_question","","","","","","","","","","","","{""Q0"":1}","[0]","","images/stimuli/spore_stims/complex_17_A_a.gif","images/stimuli/spore_stims/complex_01_A_b.gif"
"","4305.00499997288","survey-likert","145","534342","0.0-35.0","SS1619739855680","similarity_question","","","","","","","","","","","","{""Q0"":2}","[0]","","images/stimuli/spore_stims/simple_13_A_a.gif","images/stimuli/spore_stims/simple_10_A_b.gif"
"","3646.4299999643117","survey-likert","146","537991","0.0-36.0","SS1619739855680","similarity_question","","","","","","","","","","","","{""Q0"":1}","[0]","","images/stimuli/spore_stims/complex_14_A_a.gif","images/stimuli/spore_stims/complex_08_A_b.gif"
"","3125.2150000073016","survey-likert","147","541121","0.0-37.0","SS1619739855680","similarity_question","","","","","","","","","","","","{""Q0"":4}","[0]","","images/stimuli/spore_stims/simple_01_A_b.gif","images/stimuli/spore_stims/simple_06_A_a.gif"
"","8194.505000021309","survey-likert","148","549319","0.0-38.0","SS1619739855680","similarity_question","","","","","","","","","","","","{""Q0"":2}","[0]","","images/stimuli/spore_stims/complex_06_A_a.gif","images/stimuli/spore_stims/complex_19_A_b.gif"
"","8475.394999957643","survey-likert","149","557798","0.0-39.0","SS1619739855680","similarity_question","","","","","","","","","","","","{""Q0"":1}","[0]","","images/stimuli/spore_stims/complex_05_A_a.gif","images/stimuli/spore_stims/complex_07_A_b.gif"
"","6020.43000003323","survey-likert","150","563822","0.0-40.0","SS1619739855680","similarity_question","","","","","","","","","","","","{""Q0"":2}","[0]","","images/stimuli/spore_stims/simple_05_A_a.gif","images/stimuli/spore_stims/simple_15_A_b.gif"
"","5284.125000005588","survey-likert","151","569109","0.0-41.0","SS1619739855680","similarity_question","","","","","","","","","","","","{""Q0"":2}","[0]","","images/stimuli/spore_stims/simple_12_A_a.gif","images/stimuli/spore_stims/simple_05_A_b.gif"
"","4399.199999985285","survey-likert","152","573512","0.0-42.0","SS1619739855680","similarity_question","","","","","","","","","","","","{""Q0"":2}","[0]","","images/stimuli/spore_stims/simple_12_A_b.gif","images/stimuli/spore_stims/simple_19_A_a.gif"
"","7013.325000065379","survey-likert","153","580529","0.0-43.0","SS1619739855680","similarity_question","","","","","","","","","","","","{""Q0"":2}","[0]","","images/stimuli/spore_stims/complex_02_A_a.gif","images/stimuli/spore_stims/complex_20_A_b.gif"
"","5726.979999919422","survey-likert","154","586260","0.0-44.0","SS1619739855680","similarity_question","","","","","","","","","","","","{""Q0"":2}","[0]","","images/stimuli/spore_stims/simple_20_A_b.gif","images/stimuli/spore_stims/simple_04_A_a.gif"
"[{""page_index"":0,""viewing_time"":3869.509999989532}]","3869.885000050999","instructions","155","590132","0.0-45.0","SS1619739855680","instructions","","","","","","","","","","","","","","","",""
"","3036.4449999760836","survey-likert","156","593172","0.0-46.0","SS1619739855680","","","","","","","","","images/stimuli/spore_stims/simple_15_A_b.gif","","","","{""Q0"":0}","[0]","","",""
"","3227.4549999274313","survey-likert","157","596403","0.0-47.0","SS1619739855680","","","","","","","","","images/stimuli/spore_stims/complex_17_A_a.gif","","","","{""Q0"":5}","[0]","","",""
"","3359.6749999560416","survey-likert","158","599766","0.0-48.0","SS1619739855680","","","","","","","","","images/stimuli/spore_stims/simple_04_A_a.gif","","","","{""Q0"":1}","[0]","","",""
"","2536.874999990687","survey-likert","159","602306","0.0-49.0","SS1619739855680","","","","","","","","","images/stimuli/spore_stims/complex_20_A_b.gif","","","","{""Q0"":6}","[0]","","",""
"","3366.1299999803305","survey-likert","160","605676","0.0-50.0","SS1619739855680","","","","","","","","","images/stimuli/spore_stims/complex_03_A_a.gif","","","","{""Q0"":4}","[0]","","",""
"","4846.454999991693","survey-likert","161","610526","0.0-51.0","SS1619739855680","","","","","","","","","images/stimuli/spore_stims/complex_05_A_a.gif","","","","{""Q0"":5}","[0]","","",""
"","2565.3249999741092","survey-likert","162","613095","0.0-52.0","SS1619739855680","","","","","","","","","images/stimuli/spore_stims/complex_19_A_b.gif","","","","{""Q0"":6}","[0]","","",""
"","2347.1849999623373","survey-likert","163","615445","0.0-53.0","SS1619739855680","","","","","","","","","images/stimuli/spore_stims/simple_05_A_b.gif","","","","{""Q0"":2}","[0]","","",""
"","1808.2600000780076","survey-likert","164","617257","0.0-54.0","SS1619739855680","","","","","","","","","images/stimuli/spore_stims/simple_19_A_a.gif","","","","{""Q0"":2}","[0]","","",""
"","3386.904999963008","survey-likert","165","620648","0.0-55.0","SS1619739855680","","","","","","","","","images/stimuli/spore_stims/complex_08_A_b.gif","","","","{""Q0"":6}","[0]","","",""
"","2247.7900000521913","survey-likert","166","622900","0.0-56.0","SS1619739855680","","","","","","","","","images/stimuli/spore_stims/simple_10_A_b.gif","","","","{""Q0"":0}","[0]","","",""
"","2389.8049999261275","survey-likert","167","625293","0.0-57.0","SS1619739855680","","","","","","","","","images/stimuli/spore_stims/simple_06_A_a.gif","","","","{""Q0"":0}","[0]","","",""
"[{""page_index"":0,""viewing_time"":2002.059999969788}]","2002.3450000444427","instructions","168","627299","0.0-58.0","SS1619739855680","instructions","","","","","","","","","","","","","","","",""
"","7371.985000092536","demog-age","169","634675","0.0-59.0","SS1619739855680","","","","","","","","","","","","","{""age"":""20""}","","","",""
"","4991.709999972954","demog-ethnic-US","170","639672","0.0-60.0","SS1619739855680","","","","","","","","","","","","","{""ethnicity"":[""White""]}","[0]","","",""
"","11149.669999955222","demog-gender-and-education","171","650825","0.0-61.0","SS1619739855680","","","","","","","","","","","","","{""gender"":""Male"",""education"":""High school diploma""}","[0,1]","","",""
"","13489.524999982677","survey-text","172","664318","0.0-62.0","SS1619739855680","feedback","","","","","","","","","","","","{""Q0"":""Everything was fine.""}","","","",""
"[{""page_index"":0,""viewing_time"":3038.410000037402}]","3038.6399999260902","instructions","173","667360","0.0-63.0","SS1619739855680","instructions","","","","","","","","","","","","","","","",""
