"view_history","rt","trial_type","trial_index","time_elapsed","internal_node_id","subject","stimulus_type","trial_stimulus","key_press","minimum_viewing_duration","trial_looking_time","block_deviant","block_background","exposure_type","stimulus","block_number","block_type","stimulus_displayed","responses","question_order","math_correct_answer","stimulus_left","stimulus_right"
"[{""page_index"":0,""viewing_time"":5881}]","5883","instructions","0","5885","0.0-0.0","SS1619739766921","","","","","","","","","","","","","","","","",""
"[{""page_index"":0,""viewing_time"":15457},{""page_index"":1,""viewing_time"":8020}]","23477","instructions","1","31368","0.0-1.0","SS1619739766921","instructions","","","","","","","","","","","","","","","",""
"","8621","sequential-stimulus-presentation-old","2","40496","0.0-2.0","SS1619739766921","","","40","500","9121","null","null","self_paced","","","","","","","","",""
"","8433","sequential-stimulus-presentation-old","3","49433","0.0-3.0","SS1619739766921","","","40","500","8933","null","null","self_paced","","","","","","","","",""
"[{""page_index"":0,""viewing_time"":21721}]","21722","instructions","4","71161","0.0-4.0","SS1619739766921","instructions","","","","","","","","","","","","","","","",""
"","1291","sequential-stimulus-presentation-old","5","87455","0.0-5.0","SS1619739766921","","","40","500","1791","null","null","forced_long","","","","","","","","",""
"","1902","sequential-stimulus-presentation-old","6","89863","0.0-6.0","SS1619739766921","","","40","500","2402","null","null","forced_long","","","","","","","","",""
"[{""page_index"":0,""viewing_time"":6090}]","6090","instructions","7","95957","0.0-7.0","SS1619739766921","instructions","","","","","","","","","","","","","","","",""
"[{""page_index"":0,""viewing_time"":14367},{""page_index"":1,""viewing_time"":14641},{""page_index"":2,""viewing_time"":6244},{""page_index"":3,""viewing_time"":1477},{""page_index"":4,""viewing_time"":1460}]","38189","instructions","8","134148","0.0-8.0","SS1619739766921","instructions","","","","","","","","","","","","","","","",""
"","null","html-keyboard-response","9","135025","0.0-9.0-0.0","SS1619739766921","","","null","","","","","","<p><img src= images/blank.png width =""600"" height = ""600"" style=""position:fixed;top:50%; left:50%; transform: translate(-50%, -50%); border:5px solid black"">","","","","","","","",""
"","10262","sequential-stimulus-presentation-old","10","145796","0.0-9.0-1.0","SS1619739766921","trial","","40","500","10762","images/stimuli/spore_stims/complex_01_A_a.gif","images/stimuli/spore_stims/complex_19_A_b.gif","self_paced","","0","complex_dissimilar","images/stimuli/spore_stims/complex_19_A_b.gif","","","","",""
"","null","html-keyboard-response","11","146896","0.0-9.0-0.1","SS1619739766921","","","null","","","","","","<p><img src= images/blank.png width =""600"" height = ""600"" style=""position:fixed;top:50%; left:50%; transform: translate(-50%, -50%); border:5px solid black"">","","","","","","","",""
"","15030","sequential-stimulus-presentation-old","12","162431","0.0-9.0-1.1","SS1619739766921","trial","","40","500","15530","images/stimuli/spore_stims/complex_01_A_a.gif","images/stimuli/spore_stims/complex_19_A_b.gif","self_paced","","0","complex_dissimilar","images/stimuli/spore_stims/complex_19_A_b.gif","","","","",""
"","null","html-keyboard-response","13","163387","0.0-9.0-0.2","SS1619739766921","","","null","","","","","","<p><img src= images/blank.png width =""600"" height = ""600"" style=""position:fixed;top:50%; left:50%; transform: translate(-50%, -50%); border:5px solid black"">","","","","","","","",""
"","4567","sequential-stimulus-presentation-old","14","168457","0.0-9.0-1.2","SS1619739766921","trial","","40","500","5067","images/stimuli/spore_stims/complex_01_A_a.gif","images/stimuli/spore_stims/complex_19_A_b.gif","self_paced","","0","complex_dissimilar","images/stimuli/spore_stims/complex_19_A_b.gif","","","","",""
"","null","html-keyboard-response","15","169378","0.0-9.0-0.3","SS1619739766921","","","null","","","","","","<p><img src= images/blank.png width =""600"" height = ""600"" style=""position:fixed;top:50%; left:50%; transform: translate(-50%, -50%); border:5px solid black"">","","","","","","","",""
"","7237","sequential-stimulus-presentation-old","16","177119","0.0-9.0-1.3","SS1619739766921","trial","","40","500","7737","images/stimuli/spore_stims/complex_01_A_a.gif","images/stimuli/spore_stims/complex_19_A_b.gif","self_paced","","0","complex_dissimilar","images/stimuli/spore_stims/complex_19_A_b.gif","","","","",""
"","null","html-keyboard-response","17","178121","0.0-9.0-0.4","SS1619739766921","","","null","","","","","","<p><img src= images/blank.png width =""600"" height = ""600"" style=""position:fixed;top:50%; left:50%; transform: translate(-50%, -50%); border:5px solid black"">","","","","","","","",""
"","8974","sequential-stimulus-presentation-old","18","187598","0.0-9.0-1.4","SS1619739766921","trial","","40","500","9474","images/stimuli/spore_stims/complex_01_A_a.gif","images/stimuli/spore_stims/complex_19_A_b.gif","self_paced","","0","complex_dissimilar","images/stimuli/spore_stims/complex_01_A_a.gif","","","","",""
"","4814","survey-multi-choice","19","192416","0.0-10.0","SS1619739766921","math_question","","","","","","","","","","","","{""Q0"":""11""}","[0]","11","",""
"","null","html-keyboard-response","20","193441","0.0-11.0-0.0","SS1619739766921","","","null","","","","","","<p><img src= images/blank.png width =""600"" height = ""600"" style=""position:fixed;top:50%; left:50%; transform: translate(-50%, -50%); border:5px solid black"">","","","","","","","",""
"","961","sequential-stimulus-presentation-old","21","194907","0.0-11.0-1.0","SS1619739766921","trial","","40","500","1461","images/stimuli/spore_stims/complex_04_A_a.gif","images/stimuli/spore_stims/complex_05_A_b.gif","forced_short","","1","complex_dissimilar","images/stimuli/spore_stims/complex_05_A_b.gif","","","","",""
"","null","html-keyboard-response","22","196075","0.0-11.0-0.1","SS1619739766921","","","null","","","","","","<p><img src= images/blank.png width =""600"" height = ""600"" style=""position:fixed;top:50%; left:50%; transform: translate(-50%, -50%); border:5px solid black"">","","","","","","","",""
"","9165","sequential-stimulus-presentation-old","23","205743","0.0-11.0-1.1","SS1619739766921","trial","","40","500","9665","images/stimuli/spore_stims/complex_04_A_a.gif","images/stimuli/spore_stims/complex_05_A_b.gif","forced_short","","1","complex_dissimilar","images/stimuli/spore_stims/complex_05_A_b.gif","","","","",""
"","null","html-keyboard-response","24","206679","0.0-11.0-0.2","SS1619739766921","","","null","","","","","","<p><img src= images/blank.png width =""600"" height = ""600"" style=""position:fixed;top:50%; left:50%; transform: translate(-50%, -50%); border:5px solid black"">","","","","","","","",""
"","5708","sequential-stimulus-presentation-old","25","212891","0.0-11.0-1.2","SS1619739766921","trial","","40","500","6208","images/stimuli/spore_stims/complex_04_A_a.gif","images/stimuli/spore_stims/complex_05_A_b.gif","forced_short","","1","complex_dissimilar","images/stimuli/spore_stims/complex_04_A_a.gif","","","","",""
"","null","html-keyboard-response","26","213747","0.0-11.0-0.3","SS1619739766921","","","null","","","","","","<p><img src= images/blank.png width =""600"" height = ""600"" style=""position:fixed;top:50%; left:50%; transform: translate(-50%, -50%); border:5px solid black"">","","","","","","","",""
"","6712","sequential-stimulus-presentation-old","27","220964","0.0-11.0-1.3","SS1619739766921","trial","","40","500","7212","images/stimuli/spore_stims/complex_04_A_a.gif","images/stimuli/spore_stims/complex_05_A_b.gif","forced_short","","1","complex_dissimilar","images/stimuli/spore_stims/complex_04_A_a.gif","","","","",""
"","null","html-keyboard-response","28","221851","0.0-11.0-0.4","SS1619739766921","","","null","","","","","","<p><img src= images/blank.png width =""600"" height = ""600"" style=""position:fixed;top:50%; left:50%; transform: translate(-50%, -50%); border:5px solid black"">","","","","","","","",""
"","7375","sequential-stimulus-presentation-old","29","229730","0.0-11.0-1.4","SS1619739766921","trial","","40","500","7875","images/stimuli/spore_stims/complex_04_A_a.gif","images/stimuli/spore_stims/complex_05_A_b.gif","forced_short","","1","complex_dissimilar","images/stimuli/spore_stims/complex_05_A_b.gif","","","","",""
"","null","html-keyboard-response","30","230735","0.0-11.0-0.5","SS1619739766921","","","null","","","","","","<p><img src= images/blank.png width =""600"" height = ""600"" style=""position:fixed;top:50%; left:50%; transform: translate(-50%, -50%); border:5px solid black"">","","","","","","","",""
"","6446","sequential-stimulus-presentation-old","31","237684","0.0-11.0-1.5","SS1619739766921","trial","","40","500","6946","images/stimuli/spore_stims/complex_04_A_a.gif","images/stimuli/spore_stims/complex_05_A_b.gif","forced_short","","1","complex_dissimilar","images/stimuli/spore_stims/complex_05_A_b.gif","","","","",""
"","4467","survey-multi-choice","32","242156","0.0-12.0","SS1619739766921","math_question","","","","","","","","","","","","{""Q0"":""14""}","[0]","14","",""
"","null","html-keyboard-response","33","243392","0.0-13.0-0.0","SS1619739766921","","","null","","","","","","<p><img src= images/blank.png width =""600"" height = ""600"" style=""position:fixed;top:50%; left:50%; transform: translate(-50%, -50%); border:5px solid black"">","","","","","","","",""
"","4599","sequential-stimulus-presentation-old","34","248496","0.0-13.0-1.0","SS1619739766921","trial","","40","500","5099","images/stimuli/spore_stims/complex_18_A_b.gif","images/stimuli/spore_stims/complex_02_A_a.gif","self_paced","","2","complex_dissimilar","images/stimuli/spore_stims/complex_02_A_a.gif","","","","",""
"","null","html-keyboard-response","35","249530","0.0-13.0-0.1","SS1619739766921","","","null","","","","","","<p><img src= images/blank.png width =""600"" height = ""600"" style=""position:fixed;top:50%; left:50%; transform: translate(-50%, -50%); border:5px solid black"">","","","","","","","",""
"","6781","sequential-stimulus-presentation-old","36","256815","0.0-13.0-1.1","SS1619739766921","trial","","40","500","7281","images/stimuli/spore_stims/complex_18_A_b.gif","images/stimuli/spore_stims/complex_02_A_a.gif","self_paced","","2","complex_dissimilar","images/stimuli/spore_stims/complex_18_A_b.gif","","","","",""
"","null","html-keyboard-response","37","257750","0.0-13.0-0.2","SS1619739766921","","","null","","","","","","<p><img src= images/blank.png width =""600"" height = ""600"" style=""position:fixed;top:50%; left:50%; transform: translate(-50%, -50%); border:5px solid black"">","","","","","","","",""
"","5453","sequential-stimulus-presentation-old","38","263708","0.0-13.0-1.2","SS1619739766921","trial","","40","500","5953","images/stimuli/spore_stims/complex_18_A_b.gif","images/stimuli/spore_stims/complex_02_A_a.gif","self_paced","","2","complex_dissimilar","images/stimuli/spore_stims/complex_02_A_a.gif","","","","",""
"","null","html-keyboard-response","39","264750","0.0-13.0-0.3","SS1619739766921","","","null","","","","","","<p><img src= images/blank.png width =""600"" height = ""600"" style=""position:fixed;top:50%; left:50%; transform: translate(-50%, -50%); border:5px solid black"">","","","","","","","",""
"","3755","sequential-stimulus-presentation-old","40","269010","0.0-13.0-1.3","SS1619739766921","trial","","40","500","4255","images/stimuli/spore_stims/complex_18_A_b.gif","images/stimuli/spore_stims/complex_02_A_a.gif","self_paced","","2","complex_dissimilar","images/stimuli/spore_stims/complex_02_A_a.gif","","","","",""
"","null","html-keyboard-response","41","269910","0.0-13.0-0.4","SS1619739766921","","","null","","","","","","<p><img src= images/blank.png width =""600"" height = ""600"" style=""position:fixed;top:50%; left:50%; transform: translate(-50%, -50%); border:5px solid black"">","","","","","","","",""
"","7866","sequential-stimulus-presentation-old","42","278280","0.0-13.0-1.4","SS1619739766921","trial","","40","500","8366","images/stimuli/spore_stims/complex_18_A_b.gif","images/stimuli/spore_stims/complex_02_A_a.gif","self_paced","","2","complex_dissimilar","images/stimuli/spore_stims/complex_18_A_b.gif","","","","",""
"","4536","survey-multi-choice","43","282819","0.0-14.0","SS1619739766921","math_question","","","","","","","","","","","","{""Q0"":""13""}","[0]","13","",""
"","null","html-keyboard-response","44","283879","0.0-15.0-0.0","SS1619739766921","","","null","","","","","","<p><img src= images/blank.png width =""600"" height = ""600"" style=""position:fixed;top:50%; left:50%; transform: translate(-50%, -50%); border:5px solid black"">","","","","","","","",""
"","5647","sequential-stimulus-presentation-old","45","290031","0.0-15.0-1.0","SS1619739766921","trial","","40","500","6147","images/stimuli/spore_stims/simple_01_A_b.gif","images/stimuli/spore_stims/simple_19_A_a.gif","self_paced","","3","simple_dissimilar","images/stimuli/spore_stims/simple_19_A_a.gif","","","","",""
"","null","html-keyboard-response","46","290926","0.0-15.0-0.1","SS1619739766921","","","null","","","","","","<p><img src= images/blank.png width =""600"" height = ""600"" style=""position:fixed;top:50%; left:50%; transform: translate(-50%, -50%); border:5px solid black"">","","","","","","","",""
"","4712","sequential-stimulus-presentation-old","47","296144","0.0-15.0-1.1","SS1619739766921","trial","","40","500","5212","images/stimuli/spore_stims/simple_01_A_b.gif","images/stimuli/spore_stims/simple_19_A_a.gif","self_paced","","3","simple_dissimilar","images/stimuli/spore_stims/simple_19_A_a.gif","","","","",""
"","null","html-keyboard-response","48","297428","0.0-15.0-0.2","SS1619739766921","","","null","","","","","","<p><img src= images/blank.png width =""600"" height = ""600"" style=""position:fixed;top:50%; left:50%; transform: translate(-50%, -50%); border:5px solid black"">","","","","","","","",""
"","9841","sequential-stimulus-presentation-old","49","307774","0.0-15.0-1.2","SS1619739766921","trial","","40","500","10341","images/stimuli/spore_stims/simple_01_A_b.gif","images/stimuli/spore_stims/simple_19_A_a.gif","self_paced","","3","simple_dissimilar","images/stimuli/spore_stims/simple_19_A_a.gif","","","","",""
"","null","html-keyboard-response","50","308945","0.0-15.0-0.3","SS1619739766921","","","null","","","","","","<p><img src= images/blank.png width =""600"" height = ""600"" style=""position:fixed;top:50%; left:50%; transform: translate(-50%, -50%); border:5px solid black"">","","","","","","","",""
"","11583","sequential-stimulus-presentation-old","51","321035","0.0-15.0-1.3","SS1619739766921","trial","","40","500","12083","images/stimuli/spore_stims/simple_01_A_b.gif","images/stimuli/spore_stims/simple_19_A_a.gif","self_paced","","3","simple_dissimilar","images/stimuli/spore_stims/simple_19_A_a.gif","","","","",""
"","null","html-keyboard-response","52","322142","0.0-15.0-0.4","SS1619739766921","","","null","","","","","","<p><img src= images/blank.png width =""600"" height = ""600"" style=""position:fixed;top:50%; left:50%; transform: translate(-50%, -50%); border:5px solid black"">","","","","","","","",""
"","8953","sequential-stimulus-presentation-old","53","331599","0.0-15.0-1.4","SS1619739766921","trial","","40","500","9453","images/stimuli/spore_stims/simple_01_A_b.gif","images/stimuli/spore_stims/simple_19_A_a.gif","self_paced","","3","simple_dissimilar","images/stimuli/spore_stims/simple_19_A_a.gif","","","","",""
"","null","html-keyboard-response","54","332479","0.0-15.0-0.5","SS1619739766921","","","null","","","","","","<p><img src= images/blank.png width =""600"" height = ""600"" style=""position:fixed;top:50%; left:50%; transform: translate(-50%, -50%); border:5px solid black"">","","","","","","","",""
"","1386","sequential-stimulus-presentation-old","55","334368","0.0-15.0-1.5","SS1619739766921","trial","","40","500","1886","images/stimuli/spore_stims/simple_01_A_b.gif","images/stimuli/spore_stims/simple_19_A_a.gif","self_paced","","3","simple_dissimilar","images/stimuli/spore_stims/simple_19_A_a.gif","","","","",""
"","5437","survey-multi-choice","56","339813","0.0-16.0","SS1619739766921","math_question","","","","","","","","","","","","{""Q0"":""17""}","[0]","17","",""
"","null","html-keyboard-response","57","340946","0.0-17.0-0.0","SS1619739766921","","","null","","","","","","<p><img src= images/blank.png width =""600"" height = ""600"" style=""position:fixed;top:50%; left:50%; transform: translate(-50%, -50%); border:5px solid black"">","","","","","","","",""
"","9893","sequential-stimulus-presentation-old","58","365844","0.0-17.0-1.0","SS1619739766921","trial","","40","500","10393","images/stimuli/spore_stims/complex_11_A_a.gif","images/stimuli/spore_stims/complex_04_A_b.gif","forced_long","","4","complex_dissimilar","images/stimuli/spore_stims/complex_04_A_b.gif","","","","",""
"","null","html-keyboard-response","59","367042","0.0-17.0-0.1","SS1619739766921","","","null","","","","","","<p><img src= images/blank.png width =""600"" height = ""600"" style=""position:fixed;top:50%; left:50%; transform: translate(-50%, -50%); border:5px solid black"">","","","","","","","",""
"","8430","sequential-stimulus-presentation-old","60","375978","0.0-17.0-1.1","SS1619739766921","trial","","40","500","8930","images/stimuli/spore_stims/complex_11_A_a.gif","images/stimuli/spore_stims/complex_04_A_b.gif","forced_long","","4","complex_dissimilar","images/stimuli/spore_stims/complex_04_A_b.gif","","","","",""
"","null","html-keyboard-response","61","377171","0.0-17.0-0.2","SS1619739766921","","","null","","","","","","<p><img src= images/blank.png width =""600"" height = ""600"" style=""position:fixed;top:50%; left:50%; transform: translate(-50%, -50%); border:5px solid black"">","","","","","","","",""
"","6691","sequential-stimulus-presentation-old","62","384367","0.0-17.0-1.2","SS1619739766921","trial","","40","500","7191","images/stimuli/spore_stims/complex_11_A_a.gif","images/stimuli/spore_stims/complex_04_A_b.gif","forced_long","","4","complex_dissimilar","images/stimuli/spore_stims/complex_04_A_b.gif","","","","",""
"","null","html-keyboard-response","63","385480","0.0-17.0-0.3","SS1619739766921","","","null","","","","","","<p><img src= images/blank.png width =""600"" height = ""600"" style=""position:fixed;top:50%; left:50%; transform: translate(-50%, -50%); border:5px solid black"">","","","","","","","",""
"","5714","sequential-stimulus-presentation-old","64","391698","0.0-17.0-1.3","SS1619739766921","trial","","40","500","6214","images/stimuli/spore_stims/complex_11_A_a.gif","images/stimuli/spore_stims/complex_04_A_b.gif","forced_long","","4","complex_dissimilar","images/stimuli/spore_stims/complex_04_A_b.gif","","","","",""
"","3159","survey-multi-choice","65","394861","0.0-18.0","SS1619739766921","math_question","","","","","","","","","","","","{""Q0"":""8""}","[0]","8","",""
"","null","html-keyboard-response","66","395856","0.0-19.0-0.0","SS1619739766921","","","null","","","","","","<p><img src= images/blank.png width =""600"" height = ""600"" style=""position:fixed;top:50%; left:50%; transform: translate(-50%, -50%); border:5px solid black"">","","","","","","","",""
"","3071","sequential-stimulus-presentation-old","67","399434","0.0-19.0-1.0","SS1619739766921","trial","","40","500","3571","images/stimuli/spore_stims/complex_03_A_b.gif","images/stimuli/spore_stims/complex_20_A_a.gif","forced_short","","5","complex_dissimilar","images/stimuli/spore_stims/complex_20_A_a.gif","","","","",""
"","null","html-keyboard-response","68","400437","0.0-19.0-0.1","SS1619739766921","","","null","","","","","","<p><img src= images/blank.png width =""600"" height = ""600"" style=""position:fixed;top:50%; left:50%; transform: translate(-50%, -50%); border:5px solid black"">","","","","","","","",""
"","7971","sequential-stimulus-presentation-old","69","408915","0.0-19.0-1.1","SS1619739766921","trial","","40","500","8471","images/stimuli/spore_stims/complex_03_A_b.gif","images/stimuli/spore_stims/complex_20_A_a.gif","forced_short","","5","complex_dissimilar","images/stimuli/spore_stims/complex_20_A_a.gif","","","","",""
"","null","html-keyboard-response","70","410086","0.0-19.0-0.2","SS1619739766921","","","null","","","","","","<p><img src= images/blank.png width =""600"" height = ""600"" style=""position:fixed;top:50%; left:50%; transform: translate(-50%, -50%); border:5px solid black"">","","","","","","","",""
"","8584","sequential-stimulus-presentation-old","71","419175","0.0-19.0-1.2","SS1619739766921","trial","","40","500","9084","images/stimuli/spore_stims/complex_03_A_b.gif","images/stimuli/spore_stims/complex_20_A_a.gif","forced_short","","5","complex_dissimilar","images/stimuli/spore_stims/complex_20_A_a.gif","","","","",""
"","null","html-keyboard-response","72","420100","0.0-19.0-0.3","SS1619739766921","","","null","","","","","","<p><img src= images/blank.png width =""600"" height = ""600"" style=""position:fixed;top:50%; left:50%; transform: translate(-50%, -50%); border:5px solid black"">","","","","","","","",""
"","8295","sequential-stimulus-presentation-old","73","428902","0.0-19.0-1.3","SS1619739766921","trial","","40","500","8795","images/stimuli/spore_stims/complex_03_A_b.gif","images/stimuli/spore_stims/complex_20_A_a.gif","forced_short","","5","complex_dissimilar","images/stimuli/spore_stims/complex_03_A_b.gif","","","","",""
"","null","html-keyboard-response","74","429916","0.0-19.0-0.4","SS1619739766921","","","null","","","","","","<p><img src= images/blank.png width =""600"" height = ""600"" style=""position:fixed;top:50%; left:50%; transform: translate(-50%, -50%); border:5px solid black"">","","","","","","","",""
"","9210","sequential-stimulus-presentation-old","75","439632","0.0-19.0-1.4","SS1619739766921","trial","","40","500","9710","images/stimuli/spore_stims/complex_03_A_b.gif","images/stimuli/spore_stims/complex_20_A_a.gif","forced_short","","5","complex_dissimilar","images/stimuli/spore_stims/complex_03_A_b.gif","","","","",""
"","3697","survey-multi-choice","76","443334","0.0-20.0","SS1619739766921","math_question","","","","","","","","","","","","{""Q0"":""16""}","[0]","16","",""
"","null","html-keyboard-response","77","444439","0.0-21.0-0.0","SS1619739766921","","","null","","","","","","<p><img src= images/blank.png width =""600"" height = ""600"" style=""position:fixed;top:50%; left:50%; transform: translate(-50%, -50%); border:5px solid black"">","","","","","","","",""
"","2505","sequential-stimulus-presentation-old","78","461949","0.0-21.0-1.0","SS1619739766921","trial","","40","500","3005","images/stimuli/spore_stims/simple_18_A_b.gif","images/stimuli/spore_stims/simple_06_A_a.gif","forced_long","","6","simple_dissimilar","images/stimuli/spore_stims/simple_06_A_a.gif","","","","",""
"","null","html-keyboard-response","79","463068","0.0-21.0-0.1","SS1619739766921","","","null","","","","","","<p><img src= images/blank.png width =""600"" height = ""600"" style=""position:fixed;top:50%; left:50%; transform: translate(-50%, -50%); border:5px solid black"">","","","","","","","",""
"","6334","sequential-stimulus-presentation-old","80","469908","0.0-21.0-1.1","SS1619739766921","trial","","40","500","6834","images/stimuli/spore_stims/simple_18_A_b.gif","images/stimuli/spore_stims/simple_06_A_a.gif","forced_long","","6","simple_dissimilar","images/stimuli/spore_stims/simple_06_A_a.gif","","","","",""
"","null","html-keyboard-response","81","471007","0.0-21.0-0.2","SS1619739766921","","","null","","","","","","<p><img src= images/blank.png width =""600"" height = ""600"" style=""position:fixed;top:50%; left:50%; transform: translate(-50%, -50%); border:5px solid black"">","","","","","","","",""
"","10279","sequential-stimulus-presentation-old","82","481791","0.0-21.0-1.2","SS1619739766921","trial","","40","500","10779","images/stimuli/spore_stims/simple_18_A_b.gif","images/stimuli/spore_stims/simple_06_A_a.gif","forced_long","","6","simple_dissimilar","images/stimuli/spore_stims/simple_18_A_b.gif","","","","",""
"","null","html-keyboard-response","83","482869","0.0-21.0-0.3","SS1619739766921","","","null","","","","","","<p><img src= images/blank.png width =""600"" height = ""600"" style=""position:fixed;top:50%; left:50%; transform: translate(-50%, -50%); border:5px solid black"">","","","","","","","",""
"","4386","sequential-stimulus-presentation-old","84","487759","0.0-21.0-1.3","SS1619739766921","trial","","40","500","4886","images/stimuli/spore_stims/simple_18_A_b.gif","images/stimuli/spore_stims/simple_06_A_a.gif","forced_long","","6","simple_dissimilar","images/stimuli/spore_stims/simple_06_A_a.gif","","","","",""
"","null","html-keyboard-response","85","488791","0.0-21.0-0.4","SS1619739766921","","","null","","","","","","<p><img src= images/blank.png width =""600"" height = ""600"" style=""position:fixed;top:50%; left:50%; transform: translate(-50%, -50%); border:5px solid black"">","","","","","","","",""
"","5282","sequential-stimulus-presentation-old","86","494578","0.0-21.0-1.4","SS1619739766921","trial","","40","500","5782","images/stimuli/spore_stims/simple_18_A_b.gif","images/stimuli/spore_stims/simple_06_A_a.gif","forced_long","","6","simple_dissimilar","images/stimuli/spore_stims/simple_06_A_a.gif","","","","",""
"","null","html-keyboard-response","87","495738","0.0-21.0-0.5","SS1619739766921","","","null","","","","","","<p><img src= images/blank.png width =""600"" height = ""600"" style=""position:fixed;top:50%; left:50%; transform: translate(-50%, -50%); border:5px solid black"">","","","","","","","",""
"","3808","sequential-stimulus-presentation-old","88","500053","0.0-21.0-1.5","SS1619739766921","trial","","40","500","4308","images/stimuli/spore_stims/simple_18_A_b.gif","images/stimuli/spore_stims/simple_06_A_a.gif","forced_long","","6","simple_dissimilar","images/stimuli/spore_stims/simple_18_A_b.gif","","","","",""
"","3492","survey-multi-choice","89","503550","0.0-22.0","SS1619739766921","math_question","","","","","","","","","","","","{""Q0"":""12""}","[0]","12","",""
"","null","html-keyboard-response","90","504553","0.0-23.0-0.0","SS1619739766921","","","null","","","","","","<p><img src= images/blank.png width =""600"" height = ""600"" style=""position:fixed;top:50%; left:50%; transform: translate(-50%, -50%); border:5px solid black"">","","","","","","","",""
"","1002","sequential-stimulus-presentation-old","91","506060","0.0-23.0-1.0","SS1619739766921","trial","","40","500","1502","images/stimuli/spore_stims/simple_03_A_a.gif","images/stimuli/spore_stims/simple_11_A_b.gif","forced_short","","7","simple_dissimilar","images/stimuli/spore_stims/simple_11_A_b.gif","","","","",""
"","null","html-keyboard-response","92","507111","0.0-23.0-0.1","SS1619739766921","","","null","","","","","","<p><img src= images/blank.png width =""600"" height = ""600"" style=""position:fixed;top:50%; left:50%; transform: translate(-50%, -50%); border:5px solid black"">","","","","","","","",""
"","6275","sequential-stimulus-presentation-old","93","513892","0.0-23.0-1.1","SS1619739766921","trial","","40","500","6775","images/stimuli/spore_stims/simple_03_A_a.gif","images/stimuli/spore_stims/simple_11_A_b.gif","forced_short","","7","simple_dissimilar","images/stimuli/spore_stims/simple_11_A_b.gif","","","","",""
"","null","html-keyboard-response","94","514921","0.0-23.0-0.2","SS1619739766921","","","null","","","","","","<p><img src= images/blank.png width =""600"" height = ""600"" style=""position:fixed;top:50%; left:50%; transform: translate(-50%, -50%); border:5px solid black"">","","","","","","","",""
"","2599","sequential-stimulus-presentation-old","95","518029","0.0-23.0-1.2","SS1619739766921","trial","","40","500","3099","images/stimuli/spore_stims/simple_03_A_a.gif","images/stimuli/spore_stims/simple_11_A_b.gif","forced_short","","7","simple_dissimilar","images/stimuli/spore_stims/simple_11_A_b.gif","","","","",""
"","null","html-keyboard-response","96","518980","0.0-23.0-0.3","SS1619739766921","","","null","","","","","","<p><img src= images/blank.png width =""600"" height = ""600"" style=""position:fixed;top:50%; left:50%; transform: translate(-50%, -50%); border:5px solid black"">","","","","","","","",""
"","6129","sequential-stimulus-presentation-old","97","525615","0.0-23.0-1.3","SS1619739766921","trial","","40","500","6629","images/stimuli/spore_stims/simple_03_A_a.gif","images/stimuli/spore_stims/simple_11_A_b.gif","forced_short","","7","simple_dissimilar","images/stimuli/spore_stims/simple_03_A_a.gif","","","","",""
"","null","html-keyboard-response","98","526882","0.0-23.0-0.4","SS1619739766921","","","null","","","","","","<p><img src= images/blank.png width =""600"" height = ""600"" style=""position:fixed;top:50%; left:50%; transform: translate(-50%, -50%); border:5px solid black"">","","","","","","","",""
"","9838","sequential-stimulus-presentation-old","99","537229","0.0-23.0-1.4","SS1619739766921","trial","","40","500","10338","images/stimuli/spore_stims/simple_03_A_a.gif","images/stimuli/spore_stims/simple_11_A_b.gif","forced_short","","7","simple_dissimilar","images/stimuli/spore_stims/simple_11_A_b.gif","","","","",""
"","4528","survey-multi-choice","100","541764","0.0-24.0","SS1619739766921","math_question","","","","","","","","","","","","{""Q0"":""8""}","[0]","8","",""
"","null","html-keyboard-response","101","542613","0.0-25.0-0.0","SS1619739766921","","","null","","","","","","<p><img src= images/blank.png width =""600"" height = ""600"" style=""position:fixed;top:50%; left:50%; transform: translate(-50%, -50%); border:5px solid black"">","","","","","","","",""
"","1343","sequential-stimulus-presentation-old","102","544462","0.0-25.0-1.0","SS1619739766921","trial","","40","500","1843","images/stimuli/spore_stims/simple_04_A_a.gif","images/stimuli/spore_stims/simple_16_A_b.gif","self_paced","","8","simple_dissimilar","images/stimuli/spore_stims/simple_16_A_b.gif","","","","",""
"","null","html-keyboard-response","103","545453","0.0-25.0-0.1","SS1619739766921","","","null","","","","","","<p><img src= images/blank.png width =""600"" height = ""600"" style=""position:fixed;top:50%; left:50%; transform: translate(-50%, -50%); border:5px solid black"">","","","","","","","",""
"","3176","sequential-stimulus-presentation-old","104","549135","0.0-25.0-1.1","SS1619739766921","trial","","40","500","3676","images/stimuli/spore_stims/simple_04_A_a.gif","images/stimuli/spore_stims/simple_16_A_b.gif","self_paced","","8","simple_dissimilar","images/stimuli/spore_stims/simple_04_A_a.gif","","","","",""
"","null","html-keyboard-response","105","550318","0.0-25.0-0.2","SS1619739766921","","","null","","","","","","<p><img src= images/blank.png width =""600"" height = ""600"" style=""position:fixed;top:50%; left:50%; transform: translate(-50%, -50%); border:5px solid black"">","","","","","","","",""
"","3538","sequential-stimulus-presentation-old","106","554363","0.0-25.0-1.2","SS1619739766921","trial","","40","500","4038","images/stimuli/spore_stims/simple_04_A_a.gif","images/stimuli/spore_stims/simple_16_A_b.gif","self_paced","","8","simple_dissimilar","images/stimuli/spore_stims/simple_16_A_b.gif","","","","",""
"","null","html-keyboard-response","107","555530","0.0-25.0-0.3","SS1619739766921","","","null","","","","","","<p><img src= images/blank.png width =""600"" height = ""600"" style=""position:fixed;top:50%; left:50%; transform: translate(-50%, -50%); border:5px solid black"">","","","","","","","",""
"","5200","sequential-stimulus-presentation-old","108","561239","0.0-25.0-1.3","SS1619739766921","trial","","40","500","5700","images/stimuli/spore_stims/simple_04_A_a.gif","images/stimuli/spore_stims/simple_16_A_b.gif","self_paced","","8","simple_dissimilar","images/stimuli/spore_stims/simple_04_A_a.gif","","","","",""
"","4010","survey-multi-choice","109","565258","0.0-26.0","SS1619739766921","math_question","","","","","","","","","","","","{""Q0"":""9""}","[0]","9","",""
"","null","html-keyboard-response","110","566412","0.0-27.0-0.0","SS1619739766921","","","null","","","","","","<p><img src= images/blank.png width =""600"" height = ""600"" style=""position:fixed;top:50%; left:50%; transform: translate(-50%, -50%); border:5px solid black"">","","","","","","","",""
"","674","sequential-stimulus-presentation-old","111","582093","0.0-27.0-1.0","SS1619739766921","trial","","40","500","1174","images/stimuli/spore_stims/complex_06_A_a.gif","images/stimuli/spore_stims/complex_07_A_b.gif","forced_long","","9","complex_dissimilar","images/stimuli/spore_stims/complex_07_A_b.gif","","","","",""
"","null","html-keyboard-response","112","583016","0.0-27.0-0.1","SS1619739766921","","","null","","","","","","<p><img src= images/blank.png width =""600"" height = ""600"" style=""position:fixed;top:50%; left:50%; transform: translate(-50%, -50%); border:5px solid black"">","","","","","","","",""
"","6283","sequential-stimulus-presentation-old","113","589804","0.0-27.0-1.1","SS1619739766921","trial","","40","500","6783","images/stimuli/spore_stims/complex_06_A_a.gif","images/stimuli/spore_stims/complex_07_A_b.gif","forced_long","","9","complex_dissimilar","images/stimuli/spore_stims/complex_07_A_b.gif","","","","",""
"","null","html-keyboard-response","114","590620","0.0-27.0-0.2","SS1619739766921","","","null","","","","","","<p><img src= images/blank.png width =""600"" height = ""600"" style=""position:fixed;top:50%; left:50%; transform: translate(-50%, -50%); border:5px solid black"">","","","","","","","",""
"","2954","sequential-stimulus-presentation-old","115","594077","0.0-27.0-1.2","SS1619739766921","trial","","40","500","3454","images/stimuli/spore_stims/complex_06_A_a.gif","images/stimuli/spore_stims/complex_07_A_b.gif","forced_long","","9","complex_dissimilar","images/stimuli/spore_stims/complex_07_A_b.gif","","","","",""
"","null","html-keyboard-response","116","595173","0.0-27.0-0.3","SS1619739766921","","","null","","","","","","<p><img src= images/blank.png width =""600"" height = ""600"" style=""position:fixed;top:50%; left:50%; transform: translate(-50%, -50%); border:5px solid black"">","","","","","","","",""
"","9000","sequential-stimulus-presentation-old","117","604680","0.0-27.0-1.3","SS1619739766921","trial","","40","500","9500","images/stimuli/spore_stims/complex_06_A_a.gif","images/stimuli/spore_stims/complex_07_A_b.gif","forced_long","","9","complex_dissimilar","images/stimuli/spore_stims/complex_06_A_a.gif","","","","",""
"","null","html-keyboard-response","118","605826","0.0-27.0-0.4","SS1619739766921","","","null","","","","","","<p><img src= images/blank.png width =""600"" height = ""600"" style=""position:fixed;top:50%; left:50%; transform: translate(-50%, -50%); border:5px solid black"">","","","","","","","",""
"","1353","sequential-stimulus-presentation-old","119","607686","0.0-27.0-1.4","SS1619739766921","trial","","40","500","1853","images/stimuli/spore_stims/complex_06_A_a.gif","images/stimuli/spore_stims/complex_07_A_b.gif","forced_long","","9","complex_dissimilar","images/stimuli/spore_stims/complex_07_A_b.gif","","","","",""
"","null","html-keyboard-response","120","608890","0.0-27.0-0.5","SS1619739766921","","","null","","","","","","<p><img src= images/blank.png width =""600"" height = ""600"" style=""position:fixed;top:50%; left:50%; transform: translate(-50%, -50%); border:5px solid black"">","","","","","","","",""
"","7179","sequential-stimulus-presentation-old","121","616576","0.0-27.0-1.5","SS1619739766921","trial","","40","500","7679","images/stimuli/spore_stims/complex_06_A_a.gif","images/stimuli/spore_stims/complex_07_A_b.gif","forced_long","","9","complex_dissimilar","images/stimuli/spore_stims/complex_07_A_b.gif","","","","",""
"","3342","survey-multi-choice","122","619923","0.0-28.0","SS1619739766921","math_question","","","","","","","","","","","","{""Q0"":""12""}","[0]","12","",""
"","null","html-keyboard-response","123","620880","0.0-29.0-0.0","SS1619739766921","","","null","","","","","","<p><img src= images/blank.png width =""600"" height = ""600"" style=""position:fixed;top:50%; left:50%; transform: translate(-50%, -50%); border:5px solid black"">","","","","","","","",""
"","658","sequential-stimulus-presentation-old","124","636545","0.0-29.0-1.0","SS1619739766921","trial","","40","500","1158","images/stimuli/spore_stims/simple_18_A_a.gif","images/stimuli/spore_stims/simple_15_A_b.gif","forced_long","","10","simple_dissimilar","images/stimuli/spore_stims/simple_15_A_b.gif","","","","",""
"","null","html-keyboard-response","125","637483","0.0-29.0-0.1","SS1619739766921","","","null","","","","","","<p><img src= images/blank.png width =""600"" height = ""600"" style=""position:fixed;top:50%; left:50%; transform: translate(-50%, -50%); border:5px solid black"">","","","","","","","",""
"","1249","sequential-stimulus-presentation-old","126","639241","0.0-29.0-1.1","SS1619739766921","trial","","40","500","1749","images/stimuli/spore_stims/simple_18_A_a.gif","images/stimuli/spore_stims/simple_15_A_b.gif","forced_long","","10","simple_dissimilar","images/stimuli/spore_stims/simple_15_A_b.gif","","","","",""
"","null","html-keyboard-response","127","640500","0.0-29.0-0.2","SS1619739766921","","","null","","","","","","<p><img src= images/blank.png width =""600"" height = ""600"" style=""position:fixed;top:50%; left:50%; transform: translate(-50%, -50%); border:5px solid black"">","","","","","","","",""
"","2076","sequential-stimulus-presentation-old","128","643084","0.0-29.0-1.2","SS1619739766921","trial","","40","500","2576","images/stimuli/spore_stims/simple_18_A_a.gif","images/stimuli/spore_stims/simple_15_A_b.gif","forced_long","","10","simple_dissimilar","images/stimuli/spore_stims/simple_18_A_a.gif","","","","",""
"","null","html-keyboard-response","129","644140","0.0-29.0-0.3","SS1619739766921","","","null","","","","","","<p><img src= images/blank.png width =""600"" height = ""600"" style=""position:fixed;top:50%; left:50%; transform: translate(-50%, -50%); border:5px solid black"">","","","","","","","",""
"","2716","sequential-stimulus-presentation-old","130","647364","0.0-29.0-1.3","SS1619739766921","trial","","40","500","3216","images/stimuli/spore_stims/simple_18_A_a.gif","images/stimuli/spore_stims/simple_15_A_b.gif","forced_long","","10","simple_dissimilar","images/stimuli/spore_stims/simple_15_A_b.gif","","","","",""
"","4283","survey-multi-choice","131","651652","0.0-30.0","SS1619739766921","math_question","","","","","","","","","","","","{""Q0"":""15""}","[0]","15","",""
"","null","html-keyboard-response","132","652601","0.0-31.0-0.0","SS1619739766921","","","null","","","","","","<p><img src= images/blank.png width =""600"" height = ""600"" style=""position:fixed;top:50%; left:50%; transform: translate(-50%, -50%); border:5px solid black"">","","","","","","","",""
"","1377","sequential-stimulus-presentation-old","133","654487","0.0-31.0-1.0","SS1619739766921","trial","","40","500","1877","images/stimuli/spore_stims/simple_04_A_b.gif","images/stimuli/spore_stims/simple_16_A_a.gif","forced_short","","11","simple_dissimilar","images/stimuli/spore_stims/simple_16_A_a.gif","","","","",""
"","null","html-keyboard-response","134","655558","0.0-31.0-0.1","SS1619739766921","","","null","","","","","","<p><img src= images/blank.png width =""600"" height = ""600"" style=""position:fixed;top:50%; left:50%; transform: translate(-50%, -50%); border:5px solid black"">","","","","","","","",""
"","638","sequential-stimulus-presentation-old","135","656704","0.0-31.0-1.1","SS1619739766921","trial","","40","500","1138","images/stimuli/spore_stims/simple_04_A_b.gif","images/stimuli/spore_stims/simple_16_A_a.gif","forced_short","","11","simple_dissimilar","images/stimuli/spore_stims/simple_04_A_b.gif","","","","",""
"","null","html-keyboard-response","136","657538","0.0-31.0-0.2","SS1619739766921","","","null","","","","","","<p><img src= images/blank.png width =""600"" height = ""600"" style=""position:fixed;top:50%; left:50%; transform: translate(-50%, -50%); border:5px solid black"">","","","","","","","",""
"","1119","sequential-stimulus-presentation-old","137","659163","0.0-31.0-1.2","SS1619739766921","trial","","40","500","1619","images/stimuli/spore_stims/simple_04_A_b.gif","images/stimuli/spore_stims/simple_16_A_a.gif","forced_short","","11","simple_dissimilar","images/stimuli/spore_stims/simple_16_A_a.gif","","","","",""
"","null","html-keyboard-response","138","660325","0.0-31.0-0.3","SS1619739766921","","","null","","","","","","<p><img src= images/blank.png width =""600"" height = ""600"" style=""position:fixed;top:50%; left:50%; transform: translate(-50%, -50%); border:5px solid black"">","","","","","","","",""
"","931","sequential-stimulus-presentation-old","139","661764","0.0-31.0-1.3","SS1619739766921","trial","","40","500","1431","images/stimuli/spore_stims/simple_04_A_b.gif","images/stimuli/spore_stims/simple_16_A_a.gif","forced_short","","11","simple_dissimilar","images/stimuli/spore_stims/simple_16_A_a.gif","","","","",""
"","null","html-keyboard-response","140","662978","0.0-31.0-0.4","SS1619739766921","","","null","","","","","","<p><img src= images/blank.png width =""600"" height = ""600"" style=""position:fixed;top:50%; left:50%; transform: translate(-50%, -50%); border:5px solid black"">","","","","","","","",""
"","2493","sequential-stimulus-presentation-old","141","665980","0.0-31.0-1.4","SS1619739766921","trial","","40","500","2993","images/stimuli/spore_stims/simple_04_A_b.gif","images/stimuli/spore_stims/simple_16_A_a.gif","forced_short","","11","simple_dissimilar","images/stimuli/spore_stims/simple_16_A_a.gif","","","","",""
"[{""page_index"":0,""viewing_time"":5746}]","5747","instructions","142","671731","0.0-32.0","SS1619739766921","instructions","","","","","","","","","","","","","","","",""
"","12399","survey-likert","143","684139","0.0-33.0","SS1619739766921","similarity_question","","","","","","","","","","","","{""Q0"":1}","[0]","","images/stimuli/spore_stims/complex_07_A_b.gif","images/stimuli/spore_stims/complex_06_A_a.gif"
"","4695","survey-likert","144","688843","0.0-34.0","SS1619739766921","similarity_question","","","","","","","","","","","","{""Q0"":4}","[0]","","images/stimuli/spore_stims/simple_11_A_b.gif","images/stimuli/spore_stims/simple_03_A_a.gif"
"","8097","survey-likert","145","696948","0.0-35.0","SS1619739766921","similarity_question","","","","","","","","","","","","{""Q0"":0}","[0]","","images/stimuli/spore_stims/complex_05_A_b.gif","images/stimuli/spore_stims/complex_04_A_a.gif"
"","9143","survey-likert","146","706100","0.0-36.0","SS1619739766921","similarity_question","","","","","","","","","","","","{""Q0"":3}","[0]","","images/stimuli/spore_stims/complex_19_A_b.gif","images/stimuli/spore_stims/complex_01_A_a.gif"
"","7850","survey-likert","147","713956","0.0-37.0","SS1619739766921","similarity_question","","","","","","","","","","","","{""Q0"":0}","[0]","","images/stimuli/spore_stims/complex_20_A_a.gif","images/stimuli/spore_stims/complex_03_A_b.gif"
"","5160","survey-likert","148","719125","0.0-38.0","SS1619739766921","similarity_question","","","","","","","","","","","","{""Q0"":4}","[0]","","images/stimuli/spore_stims/simple_19_A_a.gif","images/stimuli/spore_stims/simple_01_A_b.gif"
"","8018","survey-likert","149","727150","0.0-39.0","SS1619739766921","similarity_question","","","","","","","","","","","","{""Q0"":1}","[0]","","images/stimuli/spore_stims/complex_02_A_a.gif","images/stimuli/spore_stims/complex_18_A_b.gif"
"","8910","survey-likert","150","736070","0.0-40.0","SS1619739766921","similarity_question","","","","","","","","","","","","{""Q0"":0}","[0]","","images/stimuli/spore_stims/complex_11_A_a.gif","images/stimuli/spore_stims/complex_04_A_b.gif"
"","4261","survey-likert","151","740340","0.0-41.0","SS1619739766921","similarity_question","","","","","","","","","","","","{""Q0"":4}","[0]","","images/stimuli/spore_stims/simple_04_A_b.gif","images/stimuli/spore_stims/simple_16_A_a.gif"
"","2797","survey-likert","152","743146","0.0-42.0","SS1619739766921","similarity_question","","","","","","","","","","","","{""Q0"":4}","[0]","","images/stimuli/spore_stims/simple_04_A_a.gif","images/stimuli/spore_stims/simple_16_A_b.gif"
"","6150","survey-likert","153","749305","0.0-43.0","SS1619739766921","similarity_question","","","","","","","","","","","","{""Q0"":4}","[0]","","images/stimuli/spore_stims/simple_18_A_b.gif","images/stimuli/spore_stims/simple_06_A_a.gif"
"","3133","survey-likert","154","752445","0.0-44.0","SS1619739766921","similarity_question","","","","","","","","","","","","{""Q0"":3}","[0]","","images/stimuli/spore_stims/simple_18_A_a.gif","images/stimuli/spore_stims/simple_15_A_b.gif"
"[{""page_index"":0,""viewing_time"":2938}]","2938","instructions","155","755390","0.0-45.0","SS1619739766921","instructions","","","","","","","","","","","","","","","",""
"","5466","survey-likert","156","760863","0.0-46.0","SS1619739766921","","","","","","","","","images/stimuli/spore_stims/complex_05_A_b.gif","","","","{""Q0"":4}","[0]","","",""
"","5952","survey-likert","157","766822","0.0-47.0","SS1619739766921","","","","","","","","","images/stimuli/spore_stims/complex_20_A_a.gif","","","","{""Q0"":4}","[0]","","",""
"","3301","survey-likert","158","770130","0.0-48.0","SS1619739766921","","","","","","","","","images/stimuli/spore_stims/simple_03_A_a.gif","","","","{""Q0"":1}","[0]","","",""
"","3779","survey-likert","159","773918","0.0-49.0","SS1619739766921","","","","","","","","","images/stimuli/spore_stims/simple_01_A_b.gif","","","","{""Q0"":0}","[0]","","",""
"","3248","survey-likert","160","777175","0.0-50.0","SS1619739766921","","","","","","","","","images/stimuli/spore_stims/simple_15_A_b.gif","","","","{""Q0"":0}","[0]","","",""
"","3045","survey-likert","161","780227","0.0-51.0","SS1619739766921","","","","","","","","","images/stimuli/spore_stims/complex_07_A_b.gif","","","","{""Q0"":5}","[0]","","",""
"","4069","survey-likert","162","784302","0.0-52.0","SS1619739766921","","","","","","","","","images/stimuli/spore_stims/complex_02_A_a.gif","","","","{""Q0"":5}","[0]","","",""
"","4819","survey-likert","163","789130","0.0-53.0","SS1619739766921","","","","","","","","","images/stimuli/spore_stims/complex_19_A_b.gif","","","","{""Q0"":6}","[0]","","",""
"","3023","survey-likert","164","792160","0.0-54.0","SS1619739766921","","","","","","","","","images/stimuli/spore_stims/simple_04_A_a.gif","","","","{""Q0"":1}","[0]","","",""
"","2920","survey-likert","165","795089","0.0-55.0","SS1619739766921","","","","","","","","","images/stimuli/spore_stims/complex_11_A_a.gif","","","","{""Q0"":4}","[0]","","",""
"","3166","survey-likert","166","798264","0.0-56.0","SS1619739766921","","","","","","","","","images/stimuli/spore_stims/simple_18_A_b.gif","","","","{""Q0"":0}","[0]","","",""
"","2736","survey-likert","167","801004","0.0-57.0","SS1619739766921","","","","","","","","","images/stimuli/spore_stims/simple_16_A_a.gif","","","","{""Q0"":1}","[0]","","",""
"[{""page_index"":0,""viewing_time"":2402}]","2403","instructions","168","803413","0.0-58.0","SS1619739766921","instructions","","","","","","","","","","","","","","","",""
"","3611","demog-age","169","807041","0.0-59.0","SS1619739766921","","","","","","","","","","","","","{""age"":""35""}","","","",""
"","3457","demog-ethnic-US","170","810509","0.0-60.0","SS1619739766921","","","","","","","","","","","","","{""ethnicity"":[""Hispanic or Latino""]}","[0]","","",""
"","5661","demog-gender-and-education","171","816177","0.0-61.0","SS1619739766921","","","","","","","","","","","","","{""gender"":""Male"",""education"":""Bachelor's Degree""}","[0,1]","","",""
"","20628","survey-text","172","836815","0.0-62.0","SS1619739766921","feedback","","","","","","","","","","","","{""Q0"":""None""}","","","",""
"[{""page_index"":0,""viewing_time"":1668}]","1669","instructions","173","838490","0.0-63.0","SS1619739766921","instructions","","","","","","","","","","","","","","","",""
