"view_history","rt","trial_type","trial_index","time_elapsed","internal_node_id","subject","stimulus_type","trial_stimulus","key_press","minimum_viewing_duration","trial_looking_time","block_deviant","block_background","exposure_type","stimulus","block_number","block_type","stimulus_displayed","responses","question_order","math_correct_answer","stimulus_left","stimulus_right"
"[{""page_index"":0,""viewing_time"":32730}]","32730","instructions","0","32731","0.0-0.0","SS1619740095592","","","","","","","","","","","","","","","","",""
"[{""page_index"":0,""viewing_time"":26468},{""page_index"":1,""viewing_time"":8902}]","35371","instructions","1","70109","0.0-1.0","SS1619740095592","instructions","","","","","","","","","","","","","","","",""
"","9964","sequential-stimulus-presentation-old","2","80589","0.0-2.0","SS1619740095592","","","40","500","10464","null","null","self_paced","","","","","","","","",""
"","7527","sequential-stimulus-presentation-old","3","88624","0.0-3.0","SS1619740095592","","","40","500","8027","null","null","self_paced","","","","","","","","",""
"[{""page_index"":0,""viewing_time"":24736}]","24736","instructions","4","113359","0.0-4.0","SS1619740095592","instructions","","","","","","","","","","","","","","","",""
"","2092","sequential-stimulus-presentation-old","5","130458","0.0-5.0","SS1619740095592","","","40","500","2592","null","null","forced_long","","","","","","","","",""
"","4738","sequential-stimulus-presentation-old","6","135709","0.0-6.0","SS1619740095592","","","40","500","5238","null","null","forced_long","","","","","","","","",""
"[{""page_index"":0,""viewing_time"":7049}]","7050","instructions","7","142760","0.0-7.0","SS1619740095592","instructions","","","","","","","","","","","","","","","",""
"[{""page_index"":0,""viewing_time"":24242},{""page_index"":1,""viewing_time"":36033},{""page_index"":2,""viewing_time"":12410},{""page_index"":3,""viewing_time"":1759},{""page_index"":4,""viewing_time"":1995}]","76439","instructions","8","219198","0.0-8.0","SS1619740095592","instructions","","","","","","","","","","","","","","","",""
"","null","html-keyboard-response","9","220171","0.0-9.0-0.0","SS1619740095592","","","null","","","","","","<p><img src= images/blank.png width =""600"" height = ""600"" style=""position:fixed;top:50%; left:50%; transform: translate(-50%, -50%); border:5px solid black"">","","","","","","","",""
"","3928","sequential-stimulus-presentation-old","10","224600","0.0-9.0-1.0","SS1619740095592","trial","","40","500","4428","images/stimuli/spore_stims/complex_03_A_b.gif","images/stimuli/spore_stims/complex_09_A_a.gif","forced_short","","0","complex_dissimilar","images/stimuli/spore_stims/complex_09_A_a.gif","","","","",""
"","null","html-keyboard-response","11","225793","0.0-9.0-0.1","SS1619740095592","","","null","","","","","","<p><img src= images/blank.png width =""600"" height = ""600"" style=""position:fixed;top:50%; left:50%; transform: translate(-50%, -50%); border:5px solid black"">","","","","","","","",""
"","14394","sequential-stimulus-presentation-old","12","240689","0.0-9.0-1.1","SS1619740095592","trial","","40","500","14894","images/stimuli/spore_stims/complex_03_A_b.gif","images/stimuli/spore_stims/complex_09_A_a.gif","forced_short","","0","complex_dissimilar","images/stimuli/spore_stims/complex_09_A_a.gif","","","","",""
"","null","html-keyboard-response","13","241751","0.0-9.0-0.2","SS1619740095592","","","null","","","","","","<p><img src= images/blank.png width =""600"" height = ""600"" style=""position:fixed;top:50%; left:50%; transform: translate(-50%, -50%); border:5px solid black"">","","","","","","","",""
"","9511","sequential-stimulus-presentation-old","14","251768","0.0-9.0-1.2","SS1619740095592","trial","","40","500","10011","images/stimuli/spore_stims/complex_03_A_b.gif","images/stimuli/spore_stims/complex_09_A_a.gif","forced_short","","0","complex_dissimilar","images/stimuli/spore_stims/complex_09_A_a.gif","","","","",""
"","null","html-keyboard-response","15","252646","0.0-9.0-0.3","SS1619740095592","","","null","","","","","","<p><img src= images/blank.png width =""600"" height = ""600"" style=""position:fixed;top:50%; left:50%; transform: translate(-50%, -50%); border:5px solid black"">","","","","","","","",""
"","9382","sequential-stimulus-presentation-old","16","262543","0.0-9.0-1.3","SS1619740095592","trial","","40","500","9882","images/stimuli/spore_stims/complex_03_A_b.gif","images/stimuli/spore_stims/complex_09_A_a.gif","forced_short","","0","complex_dissimilar","images/stimuli/spore_stims/complex_09_A_a.gif","","","","",""
"","5447","survey-multi-choice","17","267992","0.0-10.0","SS1619740095592","math_question","","","","","","","","","","","","{""Q0"":""11""}","[0]","11","",""
"","null","html-keyboard-response","18","269011","0.0-11.0-0.0","SS1619740095592","","","null","","","","","","<p><img src= images/blank.png width =""600"" height = ""600"" style=""position:fixed;top:50%; left:50%; transform: translate(-50%, -50%); border:5px solid black"">","","","","","","","",""
"","2952","sequential-stimulus-presentation-old","19","272470","0.0-11.0-1.0","SS1619740095592","trial","","40","500","3452","images/stimuli/spore_stims/simple_08_A_b.gif","images/stimuli/spore_stims/simple_05_A_a.gif","forced_short","","1","simple_dissimilar","images/stimuli/spore_stims/simple_05_A_a.gif","","","","",""
"","null","html-keyboard-response","20","273465","0.0-11.0-0.1","SS1619740095592","","","null","","","","","","<p><img src= images/blank.png width =""600"" height = ""600"" style=""position:fixed;top:50%; left:50%; transform: translate(-50%, -50%); border:5px solid black"">","","","","","","","",""
"","4288","sequential-stimulus-presentation-old","21","278258","0.0-11.0-1.1","SS1619740095592","trial","","40","500","4788","images/stimuli/spore_stims/simple_08_A_b.gif","images/stimuli/spore_stims/simple_05_A_a.gif","forced_short","","1","simple_dissimilar","images/stimuli/spore_stims/simple_05_A_a.gif","","","","",""
"","null","html-keyboard-response","22","279526","0.0-11.0-0.2","SS1619740095592","","","null","","","","","","<p><img src= images/blank.png width =""600"" height = ""600"" style=""position:fixed;top:50%; left:50%; transform: translate(-50%, -50%); border:5px solid black"">","","","","","","","",""
"","4516","sequential-stimulus-presentation-old","23","284545","0.0-11.0-1.2","SS1619740095592","trial","","40","500","5016","images/stimuli/spore_stims/simple_08_A_b.gif","images/stimuli/spore_stims/simple_05_A_a.gif","forced_short","","1","simple_dissimilar","images/stimuli/spore_stims/simple_05_A_a.gif","","","","",""
"","null","html-keyboard-response","24","285805","0.0-11.0-0.3","SS1619740095592","","","null","","","","","","<p><img src= images/blank.png width =""600"" height = ""600"" style=""position:fixed;top:50%; left:50%; transform: translate(-50%, -50%); border:5px solid black"">","","","","","","","",""
"","6095","sequential-stimulus-presentation-old","25","292410","0.0-11.0-1.3","SS1619740095592","trial","","40","500","6595","images/stimuli/spore_stims/simple_08_A_b.gif","images/stimuli/spore_stims/simple_05_A_a.gif","forced_short","","1","simple_dissimilar","images/stimuli/spore_stims/simple_05_A_a.gif","","","","",""
"","null","html-keyboard-response","26","293455","0.0-11.0-0.4","SS1619740095592","","","null","","","","","","<p><img src= images/blank.png width =""600"" height = ""600"" style=""position:fixed;top:50%; left:50%; transform: translate(-50%, -50%); border:5px solid black"">","","","","","","","",""
"","5267","sequential-stimulus-presentation-old","27","299234","0.0-11.0-1.4","SS1619740095592","trial","","40","500","5767","images/stimuli/spore_stims/simple_08_A_b.gif","images/stimuli/spore_stims/simple_05_A_a.gif","forced_short","","1","simple_dissimilar","images/stimuli/spore_stims/simple_05_A_a.gif","","","","",""
"","5032","survey-multi-choice","28","304267","0.0-12.0","SS1619740095592","math_question","","","","","","","","","","","","{""Q0"":""6""}","[0]","6","",""
"","null","html-keyboard-response","29","305165","0.0-13.0-0.0","SS1619740095592","","","null","","","","","","<p><img src= images/blank.png width =""600"" height = ""600"" style=""position:fixed;top:50%; left:50%; transform: translate(-50%, -50%); border:5px solid black"">","","","","","","","",""
"","957","sequential-stimulus-presentation-old","30","321124","0.0-13.0-1.0","SS1619740095592","trial","","40","500","1457","images/stimuli/spore_stims/simple_05_A_b.gif","images/stimuli/spore_stims/simple_08_A_a.gif","forced_long","","2","simple_dissimilar","images/stimuli/spore_stims/simple_08_A_a.gif","","","","",""
"","null","html-keyboard-response","31","322176","0.0-13.0-0.1","SS1619740095592","","","null","","","","","","<p><img src= images/blank.png width =""600"" height = ""600"" style=""position:fixed;top:50%; left:50%; transform: translate(-50%, -50%); border:5px solid black"">","","","","","","","",""
"","8025","sequential-stimulus-presentation-old","32","330706","0.0-13.0-1.1","SS1619740095592","trial","","40","500","8525","images/stimuli/spore_stims/simple_05_A_b.gif","images/stimuli/spore_stims/simple_08_A_a.gif","forced_long","","2","simple_dissimilar","images/stimuli/spore_stims/simple_08_A_a.gif","","","","",""
"","null","html-keyboard-response","33","331781","0.0-13.0-0.2","SS1619740095592","","","null","","","","","","<p><img src= images/blank.png width =""600"" height = ""600"" style=""position:fixed;top:50%; left:50%; transform: translate(-50%, -50%); border:5px solid black"">","","","","","","","",""
"","5781","sequential-stimulus-presentation-old","34","338078","0.0-13.0-1.2","SS1619740095592","trial","","40","500","6281","images/stimuli/spore_stims/simple_05_A_b.gif","images/stimuli/spore_stims/simple_08_A_a.gif","forced_long","","2","simple_dissimilar","images/stimuli/spore_stims/simple_08_A_a.gif","","","","",""
"","null","html-keyboard-response","35","339185","0.0-13.0-0.3","SS1619740095592","","","null","","","","","","<p><img src= images/blank.png width =""600"" height = ""600"" style=""position:fixed;top:50%; left:50%; transform: translate(-50%, -50%); border:5px solid black"">","","","","","","","",""
"","4292","sequential-stimulus-presentation-old","36","343987","0.0-13.0-1.3","SS1619740095592","trial","","40","500","4792","images/stimuli/spore_stims/simple_05_A_b.gif","images/stimuli/spore_stims/simple_08_A_a.gif","forced_long","","2","simple_dissimilar","images/stimuli/spore_stims/simple_08_A_a.gif","","","","",""
"","null","html-keyboard-response","37","345133","0.0-13.0-0.4","SS1619740095592","","","null","","","","","","<p><img src= images/blank.png width =""600"" height = ""600"" style=""position:fixed;top:50%; left:50%; transform: translate(-50%, -50%); border:5px solid black"">","","","","","","","",""
"","10526","sequential-stimulus-presentation-old","38","356172","0.0-13.0-1.4","SS1619740095592","trial","","40","500","11026","images/stimuli/spore_stims/simple_05_A_b.gif","images/stimuli/spore_stims/simple_08_A_a.gif","forced_long","","2","simple_dissimilar","images/stimuli/spore_stims/simple_05_A_b.gif","","","","",""
"","null","html-keyboard-response","39","357313","0.0-13.0-0.5","SS1619740095592","","","null","","","","","","<p><img src= images/blank.png width =""600"" height = ""600"" style=""position:fixed;top:50%; left:50%; transform: translate(-50%, -50%); border:5px solid black"">","","","","","","","",""
"","2444","sequential-stimulus-presentation-old","40","360269","0.0-13.0-1.5","SS1619740095592","trial","","40","500","2944","images/stimuli/spore_stims/simple_05_A_b.gif","images/stimuli/spore_stims/simple_08_A_a.gif","forced_long","","2","simple_dissimilar","images/stimuli/spore_stims/simple_05_A_b.gif","","","","",""
"","3972","survey-multi-choice","41","364242","0.0-14.0","SS1619740095592","math_question","","","","","","","","","","","","{""Q0"":""7""}","[0]","7","",""
"","null","html-keyboard-response","42","365360","0.0-15.0-0.0","SS1619740095592","","","null","","","","","","<p><img src= images/blank.png width =""600"" height = ""600"" style=""position:fixed;top:50%; left:50%; transform: translate(-50%, -50%); border:5px solid black"">","","","","","","","",""
"","29058","sequential-stimulus-presentation-old","43","394927","0.0-15.0-1.0","SS1619740095592","trial","","40","500","29558","images/stimuli/spore_stims/complex_06_A_a.gif","images/stimuli/spore_stims/complex_05_A_b.gif","self_paced","","3","complex_dissimilar","images/stimuli/spore_stims/complex_05_A_b.gif","","","","",""
"","null","html-keyboard-response","44","395844","0.0-15.0-0.1","SS1619740095592","","","null","","","","","","<p><img src= images/blank.png width =""600"" height = ""600"" style=""position:fixed;top:50%; left:50%; transform: translate(-50%, -50%); border:5px solid black"">","","","","","","","",""
"","8132","sequential-stimulus-presentation-old","45","404483","0.0-15.0-1.1","SS1619740095592","trial","","40","500","8632","images/stimuli/spore_stims/complex_06_A_a.gif","images/stimuli/spore_stims/complex_05_A_b.gif","self_paced","","3","complex_dissimilar","images/stimuli/spore_stims/complex_05_A_b.gif","","","","",""
"","null","html-keyboard-response","46","405511","0.0-15.0-0.2","SS1619740095592","","","null","","","","","","<p><img src= images/blank.png width =""600"" height = ""600"" style=""position:fixed;top:50%; left:50%; transform: translate(-50%, -50%); border:5px solid black"">","","","","","","","",""
"","3913","sequential-stimulus-presentation-old","47","409935","0.0-15.0-1.2","SS1619740095592","trial","","40","500","4413","images/stimuli/spore_stims/complex_06_A_a.gif","images/stimuli/spore_stims/complex_05_A_b.gif","self_paced","","3","complex_dissimilar","images/stimuli/spore_stims/complex_05_A_b.gif","","","","",""
"","null","html-keyboard-response","48","410795","0.0-15.0-0.3","SS1619740095592","","","null","","","","","","<p><img src= images/blank.png width =""600"" height = ""600"" style=""position:fixed;top:50%; left:50%; transform: translate(-50%, -50%); border:5px solid black"">","","","","","","","",""
"","1261","sequential-stimulus-presentation-old","49","412563","0.0-15.0-1.3","SS1619740095592","trial","","40","500","1761","images/stimuli/spore_stims/complex_06_A_a.gif","images/stimuli/spore_stims/complex_05_A_b.gif","self_paced","","3","complex_dissimilar","images/stimuli/spore_stims/complex_05_A_b.gif","","","","",""
"","null","html-keyboard-response","50","413633","0.0-15.0-0.4","SS1619740095592","","","null","","","","","","<p><img src= images/blank.png width =""600"" height = ""600"" style=""position:fixed;top:50%; left:50%; transform: translate(-50%, -50%); border:5px solid black"">","","","","","","","",""
"","2847","sequential-stimulus-presentation-old","51","416997","0.0-15.0-1.4","SS1619740095592","trial","","40","500","3347","images/stimuli/spore_stims/complex_06_A_a.gif","images/stimuli/spore_stims/complex_05_A_b.gif","self_paced","","3","complex_dissimilar","images/stimuli/spore_stims/complex_05_A_b.gif","","","","",""
"","null","html-keyboard-response","52","417950","0.0-15.0-0.5","SS1619740095592","","","null","","","","","","<p><img src= images/blank.png width =""600"" height = ""600"" style=""position:fixed;top:50%; left:50%; transform: translate(-50%, -50%); border:5px solid black"">","","","","","","","",""
"","3680","sequential-stimulus-presentation-old","53","422139","0.0-15.0-1.5","SS1619740095592","trial","","40","500","4180","images/stimuli/spore_stims/complex_06_A_a.gif","images/stimuli/spore_stims/complex_05_A_b.gif","self_paced","","3","complex_dissimilar","images/stimuli/spore_stims/complex_05_A_b.gif","","","","",""
"","4499","survey-multi-choice","54","426639","0.0-16.0","SS1619740095592","math_question","","","","","","","","","","","","{""Q0"":""15""}","[0]","15","",""
"","null","html-keyboard-response","55","427755","0.0-17.0-0.0","SS1619740095592","","","null","","","","","","<p><img src= images/blank.png width =""600"" height = ""600"" style=""position:fixed;top:50%; left:50%; transform: translate(-50%, -50%); border:5px solid black"">","","","","","","","",""
"","1060","sequential-stimulus-presentation-old","56","443831","0.0-17.0-1.0","SS1619740095592","trial","","40","500","1560","images/stimuli/spore_stims/complex_20_A_b.gif","images/stimuli/spore_stims/complex_16_A_a.gif","forced_long","","4","complex_dissimilar","images/stimuli/spore_stims/complex_16_A_a.gif","","","","",""
"","null","html-keyboard-response","57","444735","0.0-17.0-0.1","SS1619740095592","","","null","","","","","","<p><img src= images/blank.png width =""600"" height = ""600"" style=""position:fixed;top:50%; left:50%; transform: translate(-50%, -50%); border:5px solid black"">","","","","","","","",""
"","3233","sequential-stimulus-presentation-old","58","448474","0.0-17.0-1.1","SS1619740095592","trial","","40","500","3733","images/stimuli/spore_stims/complex_20_A_b.gif","images/stimuli/spore_stims/complex_16_A_a.gif","forced_long","","4","complex_dissimilar","images/stimuli/spore_stims/complex_20_A_b.gif","","","","",""
"","null","html-keyboard-response","59","449746","0.0-17.0-0.2","SS1619740095592","","","null","","","","","","<p><img src= images/blank.png width =""600"" height = ""600"" style=""position:fixed;top:50%; left:50%; transform: translate(-50%, -50%); border:5px solid black"">","","","","","","","",""
"","5315","sequential-stimulus-presentation-old","60","455575","0.0-17.0-1.2","SS1619740095592","trial","","40","500","5815","images/stimuli/spore_stims/complex_20_A_b.gif","images/stimuli/spore_stims/complex_16_A_a.gif","forced_long","","4","complex_dissimilar","images/stimuli/spore_stims/complex_16_A_a.gif","","","","",""
"","null","html-keyboard-response","61","456482","0.0-17.0-0.3","SS1619740095592","","","null","","","","","","<p><img src= images/blank.png width =""600"" height = ""600"" style=""position:fixed;top:50%; left:50%; transform: translate(-50%, -50%); border:5px solid black"">","","","","","","","",""
"","3424","sequential-stimulus-presentation-old","62","460420","0.0-17.0-1.3","SS1619740095592","trial","","40","500","3924","images/stimuli/spore_stims/complex_20_A_b.gif","images/stimuli/spore_stims/complex_16_A_a.gif","forced_long","","4","complex_dissimilar","images/stimuli/spore_stims/complex_16_A_a.gif","","","","",""
"","null","html-keyboard-response","63","461641","0.0-17.0-0.4","SS1619740095592","","","null","","","","","","<p><img src= images/blank.png width =""600"" height = ""600"" style=""position:fixed;top:50%; left:50%; transform: translate(-50%, -50%); border:5px solid black"">","","","","","","","",""
"","1971","sequential-stimulus-presentation-old","64","464119","0.0-17.0-1.4","SS1619740095592","trial","","40","500","2471","images/stimuli/spore_stims/complex_20_A_b.gif","images/stimuli/spore_stims/complex_16_A_a.gif","forced_long","","4","complex_dissimilar","images/stimuli/spore_stims/complex_20_A_b.gif","","","","",""
"","null","html-keyboard-response","65","465100","0.0-17.0-0.5","SS1619740095592","","","null","","","","","","<p><img src= images/blank.png width =""600"" height = ""600"" style=""position:fixed;top:50%; left:50%; transform: translate(-50%, -50%); border:5px solid black"">","","","","","","","",""
"","6153","sequential-stimulus-presentation-old","66","471758","0.0-17.0-1.5","SS1619740095592","trial","","40","500","6653","images/stimuli/spore_stims/complex_20_A_b.gif","images/stimuli/spore_stims/complex_16_A_a.gif","forced_long","","4","complex_dissimilar","images/stimuli/spore_stims/complex_16_A_a.gif","","","","",""
"","3697","survey-multi-choice","67","475457","0.0-18.0","SS1619740095592","math_question","","","","","","","","","","","","{""Q0"":""9""}","[0]","9","",""
"","null","html-keyboard-response","68","476410","0.0-19.0-0.0","SS1619740095592","","","null","","","","","","<p><img src= images/blank.png width =""600"" height = ""600"" style=""position:fixed;top:50%; left:50%; transform: translate(-50%, -50%); border:5px solid black"">","","","","","","","",""
"","1119","sequential-stimulus-presentation-old","69","478043","0.0-19.0-1.0","SS1619740095592","trial","","40","500","1619","images/stimuli/spore_stims/simple_20_A_a.gif","images/stimuli/spore_stims/simple_17_A_b.gif","forced_short","","5","simple_dissimilar","images/stimuli/spore_stims/simple_17_A_b.gif","","","","",""
"","null","html-keyboard-response","70","479006","0.0-19.0-0.1","SS1619740095592","","","null","","","","","","<p><img src= images/blank.png width =""600"" height = ""600"" style=""position:fixed;top:50%; left:50%; transform: translate(-50%, -50%); border:5px solid black"">","","","","","","","",""
"","524","sequential-stimulus-presentation-old","71","480044","0.0-19.0-1.1","SS1619740095592","trial","","40","500","1024","images/stimuli/spore_stims/simple_20_A_a.gif","images/stimuli/spore_stims/simple_17_A_b.gif","forced_short","","5","simple_dissimilar","images/stimuli/spore_stims/simple_17_A_b.gif","","","","",""
"","null","html-keyboard-response","72","481245","0.0-19.0-0.2","SS1619740095592","","","null","","","","","","<p><img src= images/blank.png width =""600"" height = ""600"" style=""position:fixed;top:50%; left:50%; transform: translate(-50%, -50%); border:5px solid black"">","","","","","","","",""
"","1103","sequential-stimulus-presentation-old","73","482864","0.0-19.0-1.2","SS1619740095592","trial","","40","500","1603","images/stimuli/spore_stims/simple_20_A_a.gif","images/stimuli/spore_stims/simple_17_A_b.gif","forced_short","","5","simple_dissimilar","images/stimuli/spore_stims/simple_17_A_b.gif","","","","",""
"","null","html-keyboard-response","74","483739","0.0-19.0-0.3","SS1619740095592","","","null","","","","","","<p><img src= images/blank.png width =""600"" height = ""600"" style=""position:fixed;top:50%; left:50%; transform: translate(-50%, -50%); border:5px solid black"">","","","","","","","",""
"","1773","sequential-stimulus-presentation-old","75","486027","0.0-19.0-1.3","SS1619740095592","trial","","40","500","2273","images/stimuli/spore_stims/simple_20_A_a.gif","images/stimuli/spore_stims/simple_17_A_b.gif","forced_short","","5","simple_dissimilar","images/stimuli/spore_stims/simple_20_A_a.gif","","","","",""
"","null","html-keyboard-response","76","487016","0.0-19.0-0.4","SS1619740095592","","","null","","","","","","<p><img src= images/blank.png width =""600"" height = ""600"" style=""position:fixed;top:50%; left:50%; transform: translate(-50%, -50%); border:5px solid black"">","","","","","","","",""
"","1200","sequential-stimulus-presentation-old","77","488723","0.0-19.0-1.4","SS1619740095592","trial","","40","500","1700","images/stimuli/spore_stims/simple_20_A_a.gif","images/stimuli/spore_stims/simple_17_A_b.gif","forced_short","","5","simple_dissimilar","images/stimuli/spore_stims/simple_20_A_a.gif","","","","",""
"","4566","survey-multi-choice","78","493290","0.0-20.0","SS1619740095592","math_question","","","","","","","","","","","","{""Q0"":""15""}","[0]","15","",""
"","null","html-keyboard-response","79","494510","0.0-21.0-0.0","SS1619740095592","","","null","","","","","","<p><img src= images/blank.png width =""600"" height = ""600"" style=""position:fixed;top:50%; left:50%; transform: translate(-50%, -50%); border:5px solid black"">","","","","","","","",""
"","2044","sequential-stimulus-presentation-old","80","497059","0.0-21.0-1.0","SS1619740095592","trial","","40","500","2544","images/stimuli/spore_stims/simple_14_A_a.gif","images/stimuli/spore_stims/simple_13_A_b.gif","self_paced","","6","simple_dissimilar","images/stimuli/spore_stims/simple_13_A_b.gif","","","","",""
"","null","html-keyboard-response","81","498014","0.0-21.0-0.1","SS1619740095592","","","null","","","","","","<p><img src= images/blank.png width =""600"" height = ""600"" style=""position:fixed;top:50%; left:50%; transform: translate(-50%, -50%); border:5px solid black"">","","","","","","","",""
"","4371","sequential-stimulus-presentation-old","82","502888","0.0-21.0-1.1","SS1619740095592","trial","","40","500","4871","images/stimuli/spore_stims/simple_14_A_a.gif","images/stimuli/spore_stims/simple_13_A_b.gif","self_paced","","6","simple_dissimilar","images/stimuli/spore_stims/simple_13_A_b.gif","","","","",""
"","null","html-keyboard-response","83","503940","0.0-21.0-0.2","SS1619740095592","","","null","","","","","","<p><img src= images/blank.png width =""600"" height = ""600"" style=""position:fixed;top:50%; left:50%; transform: translate(-50%, -50%); border:5px solid black"">","","","","","","","",""
"","2022","sequential-stimulus-presentation-old","84","506474","0.0-21.0-1.2","SS1619740095592","trial","","40","500","2522","images/stimuli/spore_stims/simple_14_A_a.gif","images/stimuli/spore_stims/simple_13_A_b.gif","self_paced","","6","simple_dissimilar","images/stimuli/spore_stims/simple_13_A_b.gif","","","","",""
"","null","html-keyboard-response","85","507730","0.0-21.0-0.3","SS1619740095592","","","null","","","","","","<p><img src= images/blank.png width =""600"" height = ""600"" style=""position:fixed;top:50%; left:50%; transform: translate(-50%, -50%); border:5px solid black"">","","","","","","","",""
"","5936","sequential-stimulus-presentation-old","86","514178","0.0-21.0-1.3","SS1619740095592","trial","","40","500","6436","images/stimuli/spore_stims/simple_14_A_a.gif","images/stimuli/spore_stims/simple_13_A_b.gif","self_paced","","6","simple_dissimilar","images/stimuli/spore_stims/simple_14_A_a.gif","","","","",""
"","null","html-keyboard-response","87","515406","0.0-21.0-0.4","SS1619740095592","","","null","","","","","","<p><img src= images/blank.png width =""600"" height = ""600"" style=""position:fixed;top:50%; left:50%; transform: translate(-50%, -50%); border:5px solid black"">","","","","","","","",""
"","1278","sequential-stimulus-presentation-old","88","517194","0.0-21.0-1.4","SS1619740095592","trial","","40","500","1778","images/stimuli/spore_stims/simple_14_A_a.gif","images/stimuli/spore_stims/simple_13_A_b.gif","self_paced","","6","simple_dissimilar","images/stimuli/spore_stims/simple_13_A_b.gif","","","","",""
"","3710","survey-multi-choice","89","520904","0.0-22.0","SS1619740095592","math_question","","","","","","","","","","","","{""Q0"":""8""}","[0]","8","",""
"","null","html-keyboard-response","90","521890","0.0-23.0-0.0","SS1619740095592","","","null","","","","","","<p><img src= images/blank.png width =""600"" height = ""600"" style=""position:fixed;top:50%; left:50%; transform: translate(-50%, -50%); border:5px solid black"">","","","","","","","",""
"","2429","sequential-stimulus-presentation-old","91","524831","0.0-23.0-1.0","SS1619740095592","trial","","40","500","2929","images/stimuli/spore_stims/complex_18_A_b.gif","images/stimuli/spore_stims/complex_07_A_a.gif","forced_short","","7","complex_dissimilar","images/stimuli/spore_stims/complex_07_A_a.gif","","","","",""
"","null","html-keyboard-response","92","525670","0.0-23.0-0.1","SS1619740095592","","","null","","","","","","<p><img src= images/blank.png width =""600"" height = ""600"" style=""position:fixed;top:50%; left:50%; transform: translate(-50%, -50%); border:5px solid black"">","","","","","","","",""
"","6955","sequential-stimulus-presentation-old","93","533137","0.0-23.0-1.1","SS1619740095592","trial","","40","500","7455","images/stimuli/spore_stims/complex_18_A_b.gif","images/stimuli/spore_stims/complex_07_A_a.gif","forced_short","","7","complex_dissimilar","images/stimuli/spore_stims/complex_18_A_b.gif","","","","",""
"","null","html-keyboard-response","94","534280","0.0-23.0-0.2","SS1619740095592","","","null","","","","","","<p><img src= images/blank.png width =""600"" height = ""600"" style=""position:fixed;top:50%; left:50%; transform: translate(-50%, -50%); border:5px solid black"">","","","","","","","",""
"","6182","sequential-stimulus-presentation-old","95","540967","0.0-23.0-1.2","SS1619740095592","trial","","40","500","6682","images/stimuli/spore_stims/complex_18_A_b.gif","images/stimuli/spore_stims/complex_07_A_a.gif","forced_short","","7","complex_dissimilar","images/stimuli/spore_stims/complex_07_A_a.gif","","","","",""
"","null","html-keyboard-response","96","542190","0.0-23.0-0.3","SS1619740095592","","","null","","","","","","<p><img src= images/blank.png width =""600"" height = ""600"" style=""position:fixed;top:50%; left:50%; transform: translate(-50%, -50%); border:5px solid black"">","","","","","","","",""
"","5809","sequential-stimulus-presentation-old","97","548501","0.0-23.0-1.3","SS1619740095592","trial","","40","500","6309","images/stimuli/spore_stims/complex_18_A_b.gif","images/stimuli/spore_stims/complex_07_A_a.gif","forced_short","","7","complex_dissimilar","images/stimuli/spore_stims/complex_18_A_b.gif","","","","",""
"","null","html-keyboard-response","98","549601","0.0-23.0-0.4","SS1619740095592","","","null","","","","","","<p><img src= images/blank.png width =""600"" height = ""600"" style=""position:fixed;top:50%; left:50%; transform: translate(-50%, -50%); border:5px solid black"">","","","","","","","",""
"","3630","sequential-stimulus-presentation-old","99","553743","0.0-23.0-1.4","SS1619740095592","trial","","40","500","4130","images/stimuli/spore_stims/complex_18_A_b.gif","images/stimuli/spore_stims/complex_07_A_a.gif","forced_short","","7","complex_dissimilar","images/stimuli/spore_stims/complex_07_A_a.gif","","","","",""
"","4010","survey-multi-choice","100","557755","0.0-24.0","SS1619740095592","math_question","","","","","","","","","","","","{""Q0"":""13""}","[0]","13","",""
"","null","html-keyboard-response","101","558881","0.0-25.0-0.0","SS1619740095592","","","null","","","","","","<p><img src= images/blank.png width =""600"" height = ""600"" style=""position:fixed;top:50%; left:50%; transform: translate(-50%, -50%); border:5px solid black"">","","","","","","","",""
"","16877","sequential-stimulus-presentation-old","102","576264","0.0-25.0-1.0","SS1619740095592","trial","","40","500","17377","images/stimuli/spore_stims/complex_10_A_a.gif","images/stimuli/spore_stims/complex_19_A_b.gif","self_paced","","8","complex_dissimilar","images/stimuli/spore_stims/complex_19_A_b.gif","","","","",""
"","null","html-keyboard-response","103","577440","0.0-25.0-0.1","SS1619740095592","","","null","","","","","","<p><img src= images/blank.png width =""600"" height = ""600"" style=""position:fixed;top:50%; left:50%; transform: translate(-50%, -50%); border:5px solid black"">","","","","","","","",""
"","6318","sequential-stimulus-presentation-old","104","584264","0.0-25.0-1.1","SS1619740095592","trial","","40","500","6818","images/stimuli/spore_stims/complex_10_A_a.gif","images/stimuli/spore_stims/complex_19_A_b.gif","self_paced","","8","complex_dissimilar","images/stimuli/spore_stims/complex_19_A_b.gif","","","","",""
"","null","html-keyboard-response","105","585419","0.0-25.0-0.2","SS1619740095592","","","null","","","","","","<p><img src= images/blank.png width =""600"" height = ""600"" style=""position:fixed;top:50%; left:50%; transform: translate(-50%, -50%); border:5px solid black"">","","","","","","","",""
"","6749","sequential-stimulus-presentation-old","106","592674","0.0-25.0-1.2","SS1619740095592","trial","","40","500","7249","images/stimuli/spore_stims/complex_10_A_a.gif","images/stimuli/spore_stims/complex_19_A_b.gif","self_paced","","8","complex_dissimilar","images/stimuli/spore_stims/complex_10_A_a.gif","","","","",""
"","null","html-keyboard-response","107","593950","0.0-25.0-0.3","SS1619740095592","","","null","","","","","","<p><img src= images/blank.png width =""600"" height = ""600"" style=""position:fixed;top:50%; left:50%; transform: translate(-50%, -50%); border:5px solid black"">","","","","","","","",""
"","6641","sequential-stimulus-presentation-old","108","601096","0.0-25.0-1.3","SS1619740095592","trial","","40","500","7141","images/stimuli/spore_stims/complex_10_A_a.gif","images/stimuli/spore_stims/complex_19_A_b.gif","self_paced","","8","complex_dissimilar","images/stimuli/spore_stims/complex_19_A_b.gif","","","","",""
"","null","html-keyboard-response","109","602290","0.0-25.0-0.4","SS1619740095592","","","null","","","","","","<p><img src= images/blank.png width =""600"" height = ""600"" style=""position:fixed;top:50%; left:50%; transform: translate(-50%, -50%); border:5px solid black"">","","","","","","","",""
"","1133","sequential-stimulus-presentation-old","110","603933","0.0-25.0-1.4","SS1619740095592","trial","","40","500","1633","images/stimuli/spore_stims/complex_10_A_a.gif","images/stimuli/spore_stims/complex_19_A_b.gif","self_paced","","8","complex_dissimilar","images/stimuli/spore_stims/complex_19_A_b.gif","","","","",""
"","null","html-keyboard-response","111","605164","0.0-25.0-0.5","SS1619740095592","","","null","","","","","","<p><img src= images/blank.png width =""600"" height = ""600"" style=""position:fixed;top:50%; left:50%; transform: translate(-50%, -50%); border:5px solid black"">","","","","","","","",""
"","5271","sequential-stimulus-presentation-old","112","610942","0.0-25.0-1.5","SS1619740095592","trial","","40","500","5771","images/stimuli/spore_stims/complex_10_A_a.gif","images/stimuli/spore_stims/complex_19_A_b.gif","self_paced","","8","complex_dissimilar","images/stimuli/spore_stims/complex_10_A_a.gif","","","","",""
"","3489","survey-multi-choice","113","614433","0.0-26.0","SS1619740095592","math_question","","","","","","","","","","","","{""Q0"":""11""}","[0]","11","",""
"","null","html-keyboard-response","114","615255","0.0-27.0-0.0","SS1619740095592","","","null","","","","","","<p><img src= images/blank.png width =""600"" height = ""600"" style=""position:fixed;top:50%; left:50%; transform: translate(-50%, -50%); border:5px solid black"">","","","","","","","",""
"","15913","sequential-stimulus-presentation-old","115","631684","0.0-27.0-1.0","SS1619740095592","trial","","40","500","16413","images/stimuli/spore_stims/simple_12_A_a.gif","images/stimuli/spore_stims/simple_15_A_b.gif","self_paced","","9","simple_dissimilar","images/stimuli/spore_stims/simple_15_A_b.gif","","","","",""
"","null","html-keyboard-response","116","632865","0.0-27.0-0.1","SS1619740095592","","","null","","","","","","<p><img src= images/blank.png width =""600"" height = ""600"" style=""position:fixed;top:50%; left:50%; transform: translate(-50%, -50%); border:5px solid black"">","","","","","","","",""
"","1972","sequential-stimulus-presentation-old","117","635343","0.0-27.0-1.1","SS1619740095592","trial","","40","500","2472","images/stimuli/spore_stims/simple_12_A_a.gif","images/stimuli/spore_stims/simple_15_A_b.gif","self_paced","","9","simple_dissimilar","images/stimuli/spore_stims/simple_15_A_b.gif","","","","",""
"","null","html-keyboard-response","118","636495","0.0-27.0-0.2","SS1619740095592","","","null","","","","","","<p><img src= images/blank.png width =""600"" height = ""600"" style=""position:fixed;top:50%; left:50%; transform: translate(-50%, -50%); border:5px solid black"">","","","","","","","",""
"","3529","sequential-stimulus-presentation-old","119","640533","0.0-27.0-1.2","SS1619740095592","trial","","40","500","4029","images/stimuli/spore_stims/simple_12_A_a.gif","images/stimuli/spore_stims/simple_15_A_b.gif","self_paced","","9","simple_dissimilar","images/stimuli/spore_stims/simple_15_A_b.gif","","","","",""
"","null","html-keyboard-response","120","641558","0.0-27.0-0.3","SS1619740095592","","","null","","","","","","<p><img src= images/blank.png width =""600"" height = ""600"" style=""position:fixed;top:50%; left:50%; transform: translate(-50%, -50%); border:5px solid black"">","","","","","","","",""
"","8007","sequential-stimulus-presentation-old","121","650068","0.0-27.0-1.3","SS1619740095592","trial","","40","500","8507","images/stimuli/spore_stims/simple_12_A_a.gif","images/stimuli/spore_stims/simple_15_A_b.gif","self_paced","","9","simple_dissimilar","images/stimuli/spore_stims/simple_15_A_b.gif","","","","",""
"","null","html-keyboard-response","122","651280","0.0-27.0-0.4","SS1619740095592","","","null","","","","","","<p><img src= images/blank.png width =""600"" height = ""600"" style=""position:fixed;top:50%; left:50%; transform: translate(-50%, -50%); border:5px solid black"">","","","","","","","",""
"","7709","sequential-stimulus-presentation-old","123","659495","0.0-27.0-1.4","SS1619740095592","trial","","40","500","8209","images/stimuli/spore_stims/simple_12_A_a.gif","images/stimuli/spore_stims/simple_15_A_b.gif","self_paced","","9","simple_dissimilar","images/stimuli/spore_stims/simple_12_A_a.gif","","","","",""
"","null","html-keyboard-response","124","660529","0.0-27.0-0.5","SS1619740095592","","","null","","","","","","<p><img src= images/blank.png width =""600"" height = ""600"" style=""position:fixed;top:50%; left:50%; transform: translate(-50%, -50%); border:5px solid black"">","","","","","","","",""
"","4967","sequential-stimulus-presentation-old","125","666012","0.0-27.0-1.5","SS1619740095592","trial","","40","500","5467","images/stimuli/spore_stims/simple_12_A_a.gif","images/stimuli/spore_stims/simple_15_A_b.gif","self_paced","","9","simple_dissimilar","images/stimuli/spore_stims/simple_12_A_a.gif","","","","",""
"","4066","survey-multi-choice","126","670081","0.0-28.0","SS1619740095592","math_question","","","","","","","","","","","","{""Q0"":""3""}","[0]","3","",""
"","null","html-keyboard-response","127","671148","0.0-29.0-0.0","SS1619740095592","","","null","","","","","","<p><img src= images/blank.png width =""600"" height = ""600"" style=""position:fixed;top:50%; left:50%; transform: translate(-50%, -50%); border:5px solid black"">","","","","","","","",""
"","4862","sequential-stimulus-presentation-old","128","691013","0.0-29.0-1.0","SS1619740095592","trial","","40","500","5362","images/stimuli/spore_stims/simple_09_A_b.gif","images/stimuli/spore_stims/simple_03_A_a.gif","forced_long","","10","simple_dissimilar","images/stimuli/spore_stims/simple_03_A_a.gif","","","","",""
"","null","html-keyboard-response","129","692242","0.0-29.0-0.1","SS1619740095592","","","null","","","","","","<p><img src= images/blank.png width =""600"" height = ""600"" style=""position:fixed;top:50%; left:50%; transform: translate(-50%, -50%); border:5px solid black"">","","","","","","","",""
"","4723","sequential-stimulus-presentation-old","130","697476","0.0-29.0-1.1","SS1619740095592","trial","","40","500","5223","images/stimuli/spore_stims/simple_09_A_b.gif","images/stimuli/spore_stims/simple_03_A_a.gif","forced_long","","10","simple_dissimilar","images/stimuli/spore_stims/simple_03_A_a.gif","","","","",""
"","null","html-keyboard-response","131","698684","0.0-29.0-0.2","SS1619740095592","","","null","","","","","","<p><img src= images/blank.png width =""600"" height = ""600"" style=""position:fixed;top:50%; left:50%; transform: translate(-50%, -50%); border:5px solid black"">","","","","","","","",""
"","3498","sequential-stimulus-presentation-old","132","702692","0.0-29.0-1.2","SS1619740095592","trial","","40","500","3998","images/stimuli/spore_stims/simple_09_A_b.gif","images/stimuli/spore_stims/simple_03_A_a.gif","forced_long","","10","simple_dissimilar","images/stimuli/spore_stims/simple_03_A_a.gif","","","","",""
"","null","html-keyboard-response","133","703814","0.0-29.0-0.3","SS1619740095592","","","null","","","","","","<p><img src= images/blank.png width =""600"" height = ""600"" style=""position:fixed;top:50%; left:50%; transform: translate(-50%, -50%); border:5px solid black"">","","","","","","","",""
"","2796","sequential-stimulus-presentation-old","134","707115","0.0-29.0-1.3","SS1619740095592","trial","","40","500","3296","images/stimuli/spore_stims/simple_09_A_b.gif","images/stimuli/spore_stims/simple_03_A_a.gif","forced_long","","10","simple_dissimilar","images/stimuli/spore_stims/simple_03_A_a.gif","","","","",""
"","null","html-keyboard-response","135","708151","0.0-29.0-0.4","SS1619740095592","","","null","","","","","","<p><img src= images/blank.png width =""600"" height = ""600"" style=""position:fixed;top:50%; left:50%; transform: translate(-50%, -50%); border:5px solid black"">","","","","","","","",""
"","1031","sequential-stimulus-presentation-old","136","709687","0.0-29.0-1.4","SS1619740095592","trial","","40","500","1531","images/stimuli/spore_stims/simple_09_A_b.gif","images/stimuli/spore_stims/simple_03_A_a.gif","forced_long","","10","simple_dissimilar","images/stimuli/spore_stims/simple_09_A_b.gif","","","","",""
"","null","html-keyboard-response","137","710739","0.0-29.0-0.5","SS1619740095592","","","null","","","","","","<p><img src= images/blank.png width =""600"" height = ""600"" style=""position:fixed;top:50%; left:50%; transform: translate(-50%, -50%); border:5px solid black"">","","","","","","","",""
"","1614","sequential-stimulus-presentation-old","138","712868","0.0-29.0-1.5","SS1619740095592","trial","","40","500","2114","images/stimuli/spore_stims/simple_09_A_b.gif","images/stimuli/spore_stims/simple_03_A_a.gif","forced_long","","10","simple_dissimilar","images/stimuli/spore_stims/simple_09_A_b.gif","","","","",""
"","3090","survey-multi-choice","139","715961","0.0-30.0","SS1619740095592","math_question","","","","","","","","","","","","{""Q0"":""11""}","[0]","11","",""
"","null","html-keyboard-response","140","717165","0.0-31.0-0.0","SS1619740095592","","","null","","","","","","<p><img src= images/blank.png width =""600"" height = ""600"" style=""position:fixed;top:50%; left:50%; transform: translate(-50%, -50%); border:5px solid black"">","","","","","","","",""
"","751","sequential-stimulus-presentation-old","141","732928","0.0-31.0-1.0","SS1619740095592","trial","","40","500","1251","images/stimuli/spore_stims/complex_17_A_a.gif","images/stimuli/spore_stims/complex_07_A_b.gif","forced_long","","11","complex_dissimilar","images/stimuli/spore_stims/complex_07_A_b.gif","","","","",""
"","null","html-keyboard-response","142","733971","0.0-31.0-0.1","SS1619740095592","","","null","","","","","","<p><img src= images/blank.png width =""600"" height = ""600"" style=""position:fixed;top:50%; left:50%; transform: translate(-50%, -50%); border:5px solid black"">","","","","","","","",""
"","6510","sequential-stimulus-presentation-old","143","740988","0.0-31.0-1.1","SS1619740095592","trial","","40","500","7010","images/stimuli/spore_stims/complex_17_A_a.gif","images/stimuli/spore_stims/complex_07_A_b.gif","forced_long","","11","complex_dissimilar","images/stimuli/spore_stims/complex_17_A_a.gif","","","","",""
"","null","html-keyboard-response","144","742024","0.0-31.0-0.2","SS1619740095592","","","null","","","","","","<p><img src= images/blank.png width =""600"" height = ""600"" style=""position:fixed;top:50%; left:50%; transform: translate(-50%, -50%); border:5px solid black"">","","","","","","","",""
"","748","sequential-stimulus-presentation-old","145","743287","0.0-31.0-1.2","SS1619740095592","trial","","40","500","1248","images/stimuli/spore_stims/complex_17_A_a.gif","images/stimuli/spore_stims/complex_07_A_b.gif","forced_long","","11","complex_dissimilar","images/stimuli/spore_stims/complex_07_A_b.gif","","","","",""
"","null","html-keyboard-response","146","744255","0.0-31.0-0.3","SS1619740095592","","","null","","","","","","<p><img src= images/blank.png width =""600"" height = ""600"" style=""position:fixed;top:50%; left:50%; transform: translate(-50%, -50%); border:5px solid black"">","","","","","","","",""
"","3102","sequential-stimulus-presentation-old","147","747868","0.0-31.0-1.3","SS1619740095592","trial","","40","500","3602","images/stimuli/spore_stims/complex_17_A_a.gif","images/stimuli/spore_stims/complex_07_A_b.gif","forced_long","","11","complex_dissimilar","images/stimuli/spore_stims/complex_07_A_b.gif","","","","",""
"[{""page_index"":0,""viewing_time"":11107}]","11107","instructions","148","758978","0.0-32.0","SS1619740095592","instructions","","","","","","","","","","","","","","","",""
"","7923","survey-likert","149","766903","0.0-33.0","SS1619740095592","similarity_question","","","","","","","","","","","","{""Q0"":4}","[0]","","images/stimuli/spore_stims/complex_17_A_a.gif","images/stimuli/spore_stims/complex_07_A_b.gif"
"","9400","survey-likert","150","776306","0.0-34.0","SS1619740095592","similarity_question","","","","","","","","","","","","{""Q0"":2}","[0]","","images/stimuli/spore_stims/complex_06_A_a.gif","images/stimuli/spore_stims/complex_05_A_b.gif"
"","4002","survey-likert","151","780311","0.0-35.0","SS1619740095592","similarity_question","","","","","","","","","","","","{""Q0"":1}","[0]","","images/stimuli/spore_stims/complex_07_A_a.gif","images/stimuli/spore_stims/complex_18_A_b.gif"
"","4481","survey-likert","152","784795","0.0-36.0","SS1619740095592","similarity_question","","","","","","","","","","","","{""Q0"":5}","[0]","","images/stimuli/spore_stims/simple_05_A_b.gif","images/stimuli/spore_stims/simple_08_A_a.gif"
"","3496","survey-likert","153","788293","0.0-37.0","SS1619740095592","similarity_question","","","","","","","","","","","","{""Q0"":4}","[0]","","images/stimuli/spore_stims/simple_13_A_b.gif","images/stimuli/spore_stims/simple_14_A_a.gif"
"","4977","survey-likert","154","793272","0.0-38.0","SS1619740095592","similarity_question","","","","","","","","","","","","{""Q0"":5}","[0]","","images/stimuli/spore_stims/simple_20_A_a.gif","images/stimuli/spore_stims/simple_17_A_b.gif"
"","12418","survey-likert","155","805694","0.0-39.0","SS1619740095592","similarity_question","","","","","","","","","","","","{""Q0"":2}","[0]","","images/stimuli/spore_stims/complex_20_A_b.gif","images/stimuli/spore_stims/complex_16_A_a.gif"
"","3723","survey-likert","156","809421","0.0-40.0","SS1619740095592","similarity_question","","","","","","","","","","","","{""Q0"":4}","[0]","","images/stimuli/spore_stims/simple_08_A_b.gif","images/stimuli/spore_stims/simple_05_A_a.gif"
"","6591","survey-likert","157","816016","0.0-41.0","SS1619740095592","similarity_question","","","","","","","","","","","","{""Q0"":5}","[0]","","images/stimuli/spore_stims/complex_19_A_b.gif","images/stimuli/spore_stims/complex_10_A_a.gif"
"","3152","survey-likert","158","819171","0.0-42.0","SS1619740095592","similarity_question","","","","","","","","","","","","{""Q0"":5}","[0]","","images/stimuli/spore_stims/simple_12_A_a.gif","images/stimuli/spore_stims/simple_15_A_b.gif"
"","8333","survey-likert","159","827507","0.0-43.0","SS1619740095592","similarity_question","","","","","","","","","","","","{""Q0"":1}","[0]","","images/stimuli/spore_stims/complex_09_A_a.gif","images/stimuli/spore_stims/complex_03_A_b.gif"
"","3641","survey-likert","160","831151","0.0-44.0","SS1619740095592","similarity_question","","","","","","","","","","","","{""Q0"":4}","[0]","","images/stimuli/spore_stims/simple_03_A_a.gif","images/stimuli/spore_stims/simple_09_A_b.gif"
"[{""page_index"":0,""viewing_time"":6120}]","6120","instructions","161","837273","0.0-45.0","SS1619740095592","instructions","","","","","","","","","","","","","","","",""
"","8208","survey-likert","162","845484","0.0-46.0","SS1619740095592","","","","","","","","","images/stimuli/spore_stims/simple_03_A_a.gif","","","","{""Q0"":1}","[0]","","",""
"","3316","survey-likert","163","848803","0.0-47.0","SS1619740095592","","","","","","","","","images/stimuli/spore_stims/simple_05_A_a.gif","","","","{""Q0"":0}","[0]","","",""
"","2634","survey-likert","164","851441","0.0-48.0","SS1619740095592","","","","","","","","","images/stimuli/spore_stims/simple_08_A_a.gif","","","","{""Q0"":0}","[0]","","",""
"","3721","survey-likert","165","855165","0.0-49.0","SS1619740095592","","","","","","","","","images/stimuli/spore_stims/complex_19_A_b.gif","","","","{""Q0"":5}","[0]","","",""
"","3754","survey-likert","166","858921","0.0-50.0","SS1619740095592","","","","","","","","","images/stimuli/spore_stims/complex_17_A_a.gif","","","","{""Q0"":5}","[0]","","",""
"","6480","survey-likert","167","865404","0.0-51.0","SS1619740095592","","","","","","","","","images/stimuli/spore_stims/complex_20_A_b.gif","","","","{""Q0"":4}","[0]","","",""
"","4878","survey-likert","168","870284","0.0-52.0","SS1619740095592","","","","","","","","","images/stimuli/spore_stims/complex_06_A_a.gif","","","","{""Q0"":4}","[0]","","",""
"","4558","survey-likert","169","874846","0.0-53.0","SS1619740095592","","","","","","","","","images/stimuli/spore_stims/simple_15_A_b.gif","","","","{""Q0"":0}","[0]","","",""
"","3600","survey-likert","170","878448","0.0-54.0","SS1619740095592","","","","","","","","","images/stimuli/spore_stims/simple_17_A_b.gif","","","","{""Q0"":0}","[0]","","",""
"","2290","survey-likert","171","880741","0.0-55.0","SS1619740095592","","","","","","","","","images/stimuli/spore_stims/simple_14_A_a.gif","","","","{""Q0"":0}","[0]","","",""
"","45082","survey-likert","172","925826","0.0-56.0","SS1619740095592","","","","","","","","","images/stimuli/spore_stims/complex_09_A_a.gif","","","","{""Q0"":5}","[0]","","",""
"","3355","survey-likert","173","929183","0.0-57.0","SS1619740095592","","","","","","","","","images/stimuli/spore_stims/complex_07_A_a.gif","","","","{""Q0"":5}","[0]","","",""
"[{""page_index"":0,""viewing_time"":3605}]","3605","instructions","174","932791","0.0-58.0","SS1619740095592","instructions","","","","","","","","","","","","","","","",""
"","17244","demog-age","175","950041","0.0-59.0","SS1619740095592","","","","","","","","","","","","","{""age"":""34""}","","","",""
"","5184","demog-ethnic-US","176","955231","0.0-60.0","SS1619740095592","","","","","","","","","","","","","{""ethnicity"":[""White""]}","[0]","","",""
"","7390","demog-gender-and-education","177","962623","0.0-61.0","SS1619740095592","","","","","","","","","","","","","{""gender"":""Male"",""education"":""Bachelor's Degree""}","[0,1]","","",""
"","25122","survey-text","178","987750","0.0-62.0","SS1619740095592","feedback","","","","","","","","","","","","{""Q0"":""No. Thanks for the study. Good luck""}","","","",""
"[{""page_index"":0,""viewing_time"":2481}]","2481","instructions","179","990233","0.0-63.0","SS1619740095592","instructions","","","","","","","","","","","","","","","",""
