"view_history","rt","trial_type","trial_index","time_elapsed","internal_node_id","subject","stimulus_type","trial_stimulus","key_press","minimum_viewing_duration","trial_looking_time","block_deviant","block_background","exposure_type","stimulus","block_number","block_type","stimulus_displayed","responses","question_order","math_correct_answer","stimulus_left","stimulus_right"
"[{""page_index"":0,""viewing_time"":13822.194999986095}]","13823.16999998875","instructions","0","13825","0.0-0.0","SS1619740061593","","","","","","","","","","","","","","","","",""
"[{""page_index"":0,""viewing_time"":12660.235000017565},{""page_index"":1,""viewing_time"":6052.369999990333}]","18712.8200000152","instructions","1","34542","0.0-1.0","SS1619740061593","instructions","","","","","","","","","","","","","","","",""
"","7352.3649999988265","sequential-stimulus-presentation-old","2","42399","0.0-2.0","SS1619740061593","","","40","500","7852.3649999988265","null","null","self_paced","","","","","","","","",""
"","4408.360000001267","sequential-stimulus-presentation-old","3","47309","0.0-3.0","SS1619740061593","","","40","500","4908.360000001267","null","null","self_paced","","","","","","","","",""
"[{""page_index"":0,""viewing_time"":17981.41500001657}]","17981.66499999934","instructions","4","65293","0.0-4.0","SS1619740061593","instructions","","","","","","","","","","","","","","","",""
"","1282.2849999938626","sequential-stimulus-presentation-old","5","81583","0.0-5.0","SS1619740061593","","","40","500","1782.2849999938626","null","null","forced_long","","","","","","","","",""
"","3302.0050000050105","sequential-stimulus-presentation-old","6","85389","0.0-6.0","SS1619740061593","","","40","500","3802.0050000050105","null","null","forced_long","","","","","","","","",""
"[{""page_index"":0,""viewing_time"":4224.970000010217}]","4225.1800000085495","instructions","7","89615","0.0-7.0","SS1619740061593","instructions","","","","","","","","","","","","","","","",""
"[{""page_index"":0,""viewing_time"":8856.570000003558},{""page_index"":1,""viewing_time"":12248.374999995576},{""page_index"":2,""viewing_time"":6620.54000000353},{""page_index"":3,""viewing_time"":1191.1350000009406},{""page_index"":4,""viewing_time"":1465.9749999991618}]","30382.814999989932","instructions","8","120000","0.0-8.0","SS1619740061593","instructions","","","","","","","","","","","","","","","",""
"","null","html-keyboard-response","9","121005","0.0-9.0-0.0","SS1619740061593","","","null","","","","","","<p><img src= images/blank.png width =""600"" height = ""600"" style=""position:fixed;top:50%; left:50%; transform: translate(-50%, -50%); border:5px solid black"">","","","","","","","",""
"","6292.48999999254","sequential-stimulus-presentation-old","10","127801","0.0-9.0-1.0","SS1619740061593","trial","","40","500","6792.48999999254","images/stimuli/spore_stims/simple_12_A_a.gif","images/stimuli/spore_stims/simple_10_A_b.gif","self_paced","","0","simple_dissimilar","images/stimuli/spore_stims/simple_10_A_b.gif","","","","",""
"","null","html-keyboard-response","11","128737","0.0-9.0-0.1","SS1619740061593","","","null","","","","","","<p><img src= images/blank.png width =""600"" height = ""600"" style=""position:fixed;top:50%; left:50%; transform: translate(-50%, -50%); border:5px solid black"">","","","","","","","",""
"","8377.115000010235","sequential-stimulus-presentation-old","12","137622","0.0-9.0-1.1","SS1619740061593","trial","","40","500","8877.115000010235","images/stimuli/spore_stims/simple_12_A_a.gif","images/stimuli/spore_stims/simple_10_A_b.gif","self_paced","","0","simple_dissimilar","images/stimuli/spore_stims/simple_10_A_b.gif","","","","",""
"","null","html-keyboard-response","13","138459","0.0-9.0-0.2","SS1619740061593","","","null","","","","","","<p><img src= images/blank.png width =""600"" height = ""600"" style=""position:fixed;top:50%; left:50%; transform: translate(-50%, -50%); border:5px solid black"">","","","","","","","",""
"","7258.104999986244","sequential-stimulus-presentation-old","14","146224","0.0-9.0-1.2","SS1619740061593","trial","","40","500","7758.104999986244","images/stimuli/spore_stims/simple_12_A_a.gif","images/stimuli/spore_stims/simple_10_A_b.gif","self_paced","","0","simple_dissimilar","images/stimuli/spore_stims/simple_10_A_b.gif","","","","",""
"","null","html-keyboard-response","15","147133","0.0-9.0-0.3","SS1619740061593","","","null","","","","","","<p><img src= images/blank.png width =""600"" height = ""600"" style=""position:fixed;top:50%; left:50%; transform: translate(-50%, -50%); border:5px solid black"">","","","","","","","",""
"","5449.619999999413","sequential-stimulus-presentation-old","16","153086","0.0-9.0-1.3","SS1619740061593","trial","","40","500","5949.619999999413","images/stimuli/spore_stims/simple_12_A_a.gif","images/stimuli/spore_stims/simple_10_A_b.gif","self_paced","","0","simple_dissimilar","images/stimuli/spore_stims/simple_10_A_b.gif","","","","",""
"","null","html-keyboard-response","17","154068","0.0-9.0-0.4","SS1619740061593","","","null","","","","","","<p><img src= images/blank.png width =""600"" height = ""600"" style=""position:fixed;top:50%; left:50%; transform: translate(-50%, -50%); border:5px solid black"">","","","","","","","",""
"","6278.324999992037","sequential-stimulus-presentation-old","18","160851","0.0-9.0-1.4","SS1619740061593","trial","","40","500","6778.324999992037","images/stimuli/spore_stims/simple_12_A_a.gif","images/stimuli/spore_stims/simple_10_A_b.gif","self_paced","","0","simple_dissimilar","images/stimuli/spore_stims/simple_10_A_b.gif","","","","",""
"","null","html-keyboard-response","19","161714","0.0-9.0-0.5","SS1619740061593","","","null","","","","","","<p><img src= images/blank.png width =""600"" height = ""600"" style=""position:fixed;top:50%; left:50%; transform: translate(-50%, -50%); border:5px solid black"">","","","","","","","",""
"","5864.014999999199","sequential-stimulus-presentation-old","20","168087","0.0-9.0-1.5","SS1619740061593","trial","","40","500","6364.014999999199","images/stimuli/spore_stims/simple_12_A_a.gif","images/stimuli/spore_stims/simple_10_A_b.gif","self_paced","","0","simple_dissimilar","images/stimuli/spore_stims/simple_10_A_b.gif","","","","",""
"","3969.4699999818113","survey-multi-choice","21","172059","0.0-10.0","SS1619740061593","math_question","","","","","","","","","","","","{""Q0"":""12""}","[0]","12","",""
"","null","html-keyboard-response","22","173129","0.0-11.0-0.0","SS1619740061593","","","null","","","","","","<p><img src= images/blank.png width =""600"" height = ""600"" style=""position:fixed;top:50%; left:50%; transform: translate(-50%, -50%); border:5px solid black"">","","","","","","","",""
"","8855.08999999729","sequential-stimulus-presentation-old","23","182488","0.0-11.0-1.0","SS1619740061593","trial","","40","500","9355.08999999729","images/stimuli/spore_stims/simple_14_A_b.gif","images/stimuli/spore_stims/simple_01_A_a.gif","self_paced","","1","simple_dissimilar","images/stimuli/spore_stims/simple_01_A_a.gif","","","","",""
"","null","html-keyboard-response","24","183329","0.0-11.0-0.1","SS1619740061593","","","null","","","","","","<p><img src= images/blank.png width =""600"" height = ""600"" style=""position:fixed;top:50%; left:50%; transform: translate(-50%, -50%); border:5px solid black"">","","","","","","","",""
"","4366.474999987986","sequential-stimulus-presentation-old","25","188200","0.0-11.0-1.1","SS1619740061593","trial","","40","500","4866.474999987986","images/stimuli/spore_stims/simple_14_A_b.gif","images/stimuli/spore_stims/simple_01_A_a.gif","self_paced","","1","simple_dissimilar","images/stimuli/spore_stims/simple_14_A_b.gif","","","","",""
"","null","html-keyboard-response","26","189270","0.0-11.0-0.2","SS1619740061593","","","null","","","","","","<p><img src= images/blank.png width =""600"" height = ""600"" style=""position:fixed;top:50%; left:50%; transform: translate(-50%, -50%); border:5px solid black"">","","","","","","","",""
"","5071.165000001201","sequential-stimulus-presentation-old","27","194849","0.0-11.0-1.2","SS1619740061593","trial","","40","500","5571.165000001201","images/stimuli/spore_stims/simple_14_A_b.gif","images/stimuli/spore_stims/simple_01_A_a.gif","self_paced","","1","simple_dissimilar","images/stimuli/spore_stims/simple_01_A_a.gif","","","","",""
"","null","html-keyboard-response","28","195872","0.0-11.0-0.3","SS1619740061593","","","null","","","","","","<p><img src= images/blank.png width =""600"" height = ""600"" style=""position:fixed;top:50%; left:50%; transform: translate(-50%, -50%); border:5px solid black"">","","","","","","","",""
"","6439.710000006016","sequential-stimulus-presentation-old","29","202816","0.0-11.0-1.3","SS1619740061593","trial","","40","500","6939.710000006016","images/stimuli/spore_stims/simple_14_A_b.gif","images/stimuli/spore_stims/simple_01_A_a.gif","self_paced","","1","simple_dissimilar","images/stimuli/spore_stims/simple_01_A_a.gif","","","","",""
"","3442.2949999861885","survey-multi-choice","30","206260","0.0-12.0","SS1619740061593","math_question","","","","","","","","","","","","{""Q0"":""10""}","[0]","10","",""
"","null","html-keyboard-response","31","207344","0.0-13.0-0.0","SS1619740061593","","","null","","","","","","<p><img src= images/blank.png width =""600"" height = ""600"" style=""position:fixed;top:50%; left:50%; transform: translate(-50%, -50%); border:5px solid black"">","","","","","","","",""
"","1095.7699999853503","sequential-stimulus-presentation-old","32","208943","0.0-13.0-1.0","SS1619740061593","trial","","40","500","1595.7699999853503","images/stimuli/spore_stims/simple_06_A_b.gif","images/stimuli/spore_stims/simple_18_A_a.gif","forced_short","","2","simple_dissimilar","images/stimuli/spore_stims/simple_18_A_a.gif","","","","",""
"","null","html-keyboard-response","33","209776","0.0-13.0-0.1","SS1619740061593","","","null","","","","","","<p><img src= images/blank.png width =""600"" height = ""600"" style=""position:fixed;top:50%; left:50%; transform: translate(-50%, -50%); border:5px solid black"">","","","","","","","",""
"","3936.359999992419","sequential-stimulus-presentation-old","34","214217","0.0-13.0-1.1","SS1619740061593","trial","","40","500","4436.359999992419","images/stimuli/spore_stims/simple_06_A_b.gif","images/stimuli/spore_stims/simple_18_A_a.gif","forced_short","","2","simple_dissimilar","images/stimuli/spore_stims/simple_18_A_a.gif","","","","",""
"","null","html-keyboard-response","35","215092","0.0-13.0-0.2","SS1619740061593","","","null","","","","","","<p><img src= images/blank.png width =""600"" height = ""600"" style=""position:fixed;top:50%; left:50%; transform: translate(-50%, -50%); border:5px solid black"">","","","","","","","",""
"","6440.4799999902025","sequential-stimulus-presentation-old","36","222040","0.0-13.0-1.2","SS1619740061593","trial","","40","500","6940.4799999902025","images/stimuli/spore_stims/simple_06_A_b.gif","images/stimuli/spore_stims/simple_18_A_a.gif","forced_short","","2","simple_dissimilar","images/stimuli/spore_stims/simple_18_A_a.gif","","","","",""
"","null","html-keyboard-response","37","223017","0.0-13.0-0.3","SS1619740061593","","","null","","","","","","<p><img src= images/blank.png width =""600"" height = ""600"" style=""position:fixed;top:50%; left:50%; transform: translate(-50%, -50%); border:5px solid black"">","","","","","","","",""
"","8667.69000000204","sequential-stimulus-presentation-old","38","232193","0.0-13.0-1.3","SS1619740061593","trial","","40","500","9167.69000000204","images/stimuli/spore_stims/simple_06_A_b.gif","images/stimuli/spore_stims/simple_18_A_a.gif","forced_short","","2","simple_dissimilar","images/stimuli/spore_stims/simple_18_A_a.gif","","","","",""
"","null","html-keyboard-response","39","233393","0.0-13.0-0.4","SS1619740061593","","","null","","","","","","<p><img src= images/blank.png width =""600"" height = ""600"" style=""position:fixed;top:50%; left:50%; transform: translate(-50%, -50%); border:5px solid black"">","","","","","","","",""
"","5668.9600000099745","sequential-stimulus-presentation-old","40","239567","0.0-13.0-1.4","SS1619740061593","trial","","40","500","6168.9600000099745","images/stimuli/spore_stims/simple_06_A_b.gif","images/stimuli/spore_stims/simple_18_A_a.gif","forced_short","","2","simple_dissimilar","images/stimuli/spore_stims/simple_18_A_a.gif","","","","",""
"","null","html-keyboard-response","41","240697","0.0-13.0-0.5","SS1619740061593","","","null","","","","","","<p><img src= images/blank.png width =""600"" height = ""600"" style=""position:fixed;top:50%; left:50%; transform: translate(-50%, -50%); border:5px solid black"">","","","","","","","",""
"","6016.07499999227","sequential-stimulus-presentation-old","42","247217","0.0-13.0-1.5","SS1619740061593","trial","","40","500","6516.07499999227","images/stimuli/spore_stims/simple_06_A_b.gif","images/stimuli/spore_stims/simple_18_A_a.gif","forced_short","","2","simple_dissimilar","images/stimuli/spore_stims/simple_06_A_b.gif","","","","",""
"","5293.964999989839","survey-multi-choice","43","252513","0.0-14.0","SS1619740061593","math_question","","","","","","","","","","","","{""Q0"":""9""}","[0]","9","",""
"","null","html-keyboard-response","44","253590","0.0-15.0-0.0","SS1619740061593","","","null","","","","","","<p><img src= images/blank.png width =""600"" height = ""600"" style=""position:fixed;top:50%; left:50%; transform: translate(-50%, -50%); border:5px solid black"">","","","","","","","",""
"","1338.2949999941047","sequential-stimulus-presentation-old","45","255433","0.0-15.0-1.0","SS1619740061593","trial","","40","500","1838.2949999941047","images/stimuli/spore_stims/complex_16_A_a.gif","images/stimuli/spore_stims/complex_08_A_b.gif","forced_short","","3","complex_dissimilar","images/stimuli/spore_stims/complex_08_A_b.gif","","","","",""
"","null","html-keyboard-response","46","256702","0.0-15.0-0.1","SS1619740061593","","","null","","","","","","<p><img src= images/blank.png width =""600"" height = ""600"" style=""position:fixed;top:50%; left:50%; transform: translate(-50%, -50%); border:5px solid black"">","","","","","","","",""
"","5530.144999996992","sequential-stimulus-presentation-old","47","262738","0.0-15.0-1.1","SS1619740061593","trial","","40","500","6030.144999996992","images/stimuli/spore_stims/complex_16_A_a.gif","images/stimuli/spore_stims/complex_08_A_b.gif","forced_short","","3","complex_dissimilar","images/stimuli/spore_stims/complex_08_A_b.gif","","","","",""
"","null","html-keyboard-response","48","264015","0.0-15.0-0.2","SS1619740061593","","","null","","","","","","<p><img src= images/blank.png width =""600"" height = ""600"" style=""position:fixed;top:50%; left:50%; transform: translate(-50%, -50%); border:5px solid black"">","","","","","","","",""
"","6849.690000002738","sequential-stimulus-presentation-old","49","271369","0.0-15.0-1.2","SS1619740061593","trial","","40","500","7349.690000002738","images/stimuli/spore_stims/complex_16_A_a.gif","images/stimuli/spore_stims/complex_08_A_b.gif","forced_short","","3","complex_dissimilar","images/stimuli/spore_stims/complex_08_A_b.gif","","","","",""
"","null","html-keyboard-response","50","272389","0.0-15.0-0.3","SS1619740061593","","","null","","","","","","<p><img src= images/blank.png width =""600"" height = ""600"" style=""position:fixed;top:50%; left:50%; transform: translate(-50%, -50%); border:5px solid black"">","","","","","","","",""
"","1532.4599999876227","sequential-stimulus-presentation-old","51","274430","0.0-15.0-1.3","SS1619740061593","trial","","40","500","2032.4599999876227","images/stimuli/spore_stims/complex_16_A_a.gif","images/stimuli/spore_stims/complex_08_A_b.gif","forced_short","","3","complex_dissimilar","images/stimuli/spore_stims/complex_08_A_b.gif","","","","",""
"","null","html-keyboard-response","52","275358","0.0-15.0-0.4","SS1619740061593","","","null","","","","","","<p><img src= images/blank.png width =""600"" height = ""600"" style=""position:fixed;top:50%; left:50%; transform: translate(-50%, -50%); border:5px solid black"">","","","","","","","",""
"","5646.290000004228","sequential-stimulus-presentation-old","53","281513","0.0-15.0-1.4","SS1619740061593","trial","","40","500","6146.290000004228","images/stimuli/spore_stims/complex_16_A_a.gif","images/stimuli/spore_stims/complex_08_A_b.gif","forced_short","","3","complex_dissimilar","images/stimuli/spore_stims/complex_08_A_b.gif","","","","",""
"","null","html-keyboard-response","54","282352","0.0-15.0-0.5","SS1619740061593","","","null","","","","","","<p><img src= images/blank.png width =""600"" height = ""600"" style=""position:fixed;top:50%; left:50%; transform: translate(-50%, -50%); border:5px solid black"">","","","","","","","",""
"","6047.114999993937","sequential-stimulus-presentation-old","55","288906","0.0-15.0-1.5","SS1619740061593","trial","","40","500","6547.114999993937","images/stimuli/spore_stims/complex_16_A_a.gif","images/stimuli/spore_stims/complex_08_A_b.gif","forced_short","","3","complex_dissimilar","images/stimuli/spore_stims/complex_08_A_b.gif","","","","",""
"","3045.9649999975227","survey-multi-choice","56","291954","0.0-16.0","SS1619740061593","math_question","","","","","","","","","","","","{""Q0"":""8""}","[0]","8","",""
"","null","html-keyboard-response","57","293017","0.0-17.0-0.0","SS1619740061593","","","null","","","","","","<p><img src= images/blank.png width =""600"" height = ""600"" style=""position:fixed;top:50%; left:50%; transform: translate(-50%, -50%); border:5px solid black"">","","","","","","","",""
"","1184.979999990901","sequential-stimulus-presentation-old","58","294705","0.0-17.0-1.0","SS1619740061593","trial","","40","500","1684.979999990901","images/stimuli/spore_stims/simple_01_A_b.gif","images/stimuli/spore_stims/simple_05_A_a.gif","forced_short","","4","simple_dissimilar","images/stimuli/spore_stims/simple_05_A_a.gif","","","","",""
"","null","html-keyboard-response","59","295634","0.0-17.0-0.1","SS1619740061593","","","null","","","","","","<p><img src= images/blank.png width =""600"" height = ""600"" style=""position:fixed;top:50%; left:50%; transform: translate(-50%, -50%); border:5px solid black"">","","","","","","","",""
"","2486.235000018496","sequential-stimulus-presentation-old","60","298625","0.0-17.0-1.1","SS1619740061593","trial","","40","500","2986.235000018496","images/stimuli/spore_stims/simple_01_A_b.gif","images/stimuli/spore_stims/simple_05_A_a.gif","forced_short","","4","simple_dissimilar","images/stimuli/spore_stims/simple_01_A_b.gif","","","","",""
"","null","html-keyboard-response","61","299845","0.0-17.0-0.2","SS1619740061593","","","null","","","","","","<p><img src= images/blank.png width =""600"" height = ""600"" style=""position:fixed;top:50%; left:50%; transform: translate(-50%, -50%); border:5px solid black"">","","","","","","","",""
"","906.329999997979","sequential-stimulus-presentation-old","62","301257","0.0-17.0-1.2","SS1619740061593","trial","","40","500","1406.329999997979","images/stimuli/spore_stims/simple_01_A_b.gif","images/stimuli/spore_stims/simple_05_A_a.gif","forced_short","","4","simple_dissimilar","images/stimuli/spore_stims/simple_01_A_b.gif","","","","",""
"","null","html-keyboard-response","63","302209","0.0-17.0-0.3","SS1619740061593","","","null","","","","","","<p><img src= images/blank.png width =""600"" height = ""600"" style=""position:fixed;top:50%; left:50%; transform: translate(-50%, -50%); border:5px solid black"">","","","","","","","",""
"","2865.3749999939464","sequential-stimulus-presentation-old","64","305577","0.0-17.0-1.3","SS1619740061593","trial","","40","500","3365.3749999939464","images/stimuli/spore_stims/simple_01_A_b.gif","images/stimuli/spore_stims/simple_05_A_a.gif","forced_short","","4","simple_dissimilar","images/stimuli/spore_stims/simple_05_A_a.gif","","","","",""
"","null","html-keyboard-response","65","306414","0.0-17.0-0.4","SS1619740061593","","","null","","","","","","<p><img src= images/blank.png width =""600"" height = ""600"" style=""position:fixed;top:50%; left:50%; transform: translate(-50%, -50%); border:5px solid black"">","","","","","","","",""
"","570.5900000175461","sequential-stimulus-presentation-old","66","307489","0.0-17.0-1.4","SS1619740061593","trial","","40","500","1070.5900000175461","images/stimuli/spore_stims/simple_01_A_b.gif","images/stimuli/spore_stims/simple_05_A_a.gif","forced_short","","4","simple_dissimilar","images/stimuli/spore_stims/simple_05_A_a.gif","","","","",""
"","null","html-keyboard-response","67","308505","0.0-17.0-0.5","SS1619740061593","","","null","","","","","","<p><img src= images/blank.png width =""600"" height = ""600"" style=""position:fixed;top:50%; left:50%; transform: translate(-50%, -50%); border:5px solid black"">","","","","","","","",""
"","1509.1150000225753","sequential-stimulus-presentation-old","68","310522","0.0-17.0-1.5","SS1619740061593","trial","","40","500","2009.1150000225753","images/stimuli/spore_stims/simple_01_A_b.gif","images/stimuli/spore_stims/simple_05_A_a.gif","forced_short","","4","simple_dissimilar","images/stimuli/spore_stims/simple_05_A_a.gif","","","","",""
"","2732.625000004191","survey-multi-choice","69","313256","0.0-18.0","SS1619740061593","math_question","","","","","","","","","","","","{""Q0"":""14""}","[0]","14","",""
"","null","html-keyboard-response","70","314074","0.0-19.0-0.0","SS1619740061593","","","null","","","","","","<p><img src= images/blank.png width =""600"" height = ""600"" style=""position:fixed;top:50%; left:50%; transform: translate(-50%, -50%); border:5px solid black"">","","","","","","","",""
"","2928.5149999777786","sequential-stimulus-presentation-old","71","317508","0.0-19.0-1.0","SS1619740061593","trial","","40","500","3428.5149999777786","images/stimuli/spore_stims/complex_19_A_b.gif","images/stimuli/spore_stims/complex_18_A_a.gif","self_paced","","5","complex_dissimilar","images/stimuli/spore_stims/complex_18_A_a.gif","","","","",""
"","null","html-keyboard-response","72","318660","0.0-19.0-0.1","SS1619740061593","","","null","","","","","","<p><img src= images/blank.png width =""600"" height = ""600"" style=""position:fixed;top:50%; left:50%; transform: translate(-50%, -50%); border:5px solid black"">","","","","","","","",""
"","6857.850000000326","sequential-stimulus-presentation-old","73","326026","0.0-19.0-1.1","SS1619740061593","trial","","40","500","7357.850000000326","images/stimuli/spore_stims/complex_19_A_b.gif","images/stimuli/spore_stims/complex_18_A_a.gif","self_paced","","5","complex_dissimilar","images/stimuli/spore_stims/complex_18_A_a.gif","","","","",""
"","null","html-keyboard-response","74","327013","0.0-19.0-0.2","SS1619740061593","","","null","","","","","","<p><img src= images/blank.png width =""600"" height = ""600"" style=""position:fixed;top:50%; left:50%; transform: translate(-50%, -50%); border:5px solid black"">","","","","","","","",""
"","1936.4449999993667","sequential-stimulus-presentation-old","75","329457","0.0-19.0-1.2","SS1619740061593","trial","","40","500","2436.4449999993667","images/stimuli/spore_stims/complex_19_A_b.gif","images/stimuli/spore_stims/complex_18_A_a.gif","self_paced","","5","complex_dissimilar","images/stimuli/spore_stims/complex_18_A_a.gif","","","","",""
"","null","html-keyboard-response","76","330720","0.0-19.0-0.3","SS1619740061593","","","null","","","","","","<p><img src= images/blank.png width =""600"" height = ""600"" style=""position:fixed;top:50%; left:50%; transform: translate(-50%, -50%); border:5px solid black"">","","","","","","","",""
"","4949.3749999965075","sequential-stimulus-presentation-old","77","336173","0.0-19.0-1.3","SS1619740061593","trial","","40","500","5449.3749999965075","images/stimuli/spore_stims/complex_19_A_b.gif","images/stimuli/spore_stims/complex_18_A_a.gif","self_paced","","5","complex_dissimilar","images/stimuli/spore_stims/complex_18_A_a.gif","","","","",""
"","2498.814999999013","survey-multi-choice","78","338675","0.0-20.0","SS1619740061593","math_question","","","","","","","","","","","","{""Q0"":""10""}","[0]","10","",""
"","null","html-keyboard-response","79","339742","0.0-21.0-0.0","SS1619740061593","","","null","","","","","","<p><img src= images/blank.png width =""600"" height = ""600"" style=""position:fixed;top:50%; left:50%; transform: translate(-50%, -50%); border:5px solid black"">","","","","","","","",""
"","6198.340000002645","sequential-stimulus-presentation-old","80","346444","0.0-21.0-1.0","SS1619740061593","trial","","40","500","6698.340000002645","images/stimuli/spore_stims/complex_02_A_b.gif","images/stimuli/spore_stims/complex_04_A_a.gif","self_paced","","6","complex_dissimilar","images/stimuli/spore_stims/complex_04_A_a.gif","","","","",""
"","null","html-keyboard-response","81","347477","0.0-21.0-0.1","SS1619740061593","","","null","","","","","","<p><img src= images/blank.png width =""600"" height = ""600"" style=""position:fixed;top:50%; left:50%; transform: translate(-50%, -50%); border:5px solid black"">","","","","","","","",""
"","3519.8550000204705","sequential-stimulus-presentation-old","82","351505","0.0-21.0-1.1","SS1619740061593","trial","","40","500","4019.8550000204705","images/stimuli/spore_stims/complex_02_A_b.gif","images/stimuli/spore_stims/complex_04_A_a.gif","self_paced","","6","complex_dissimilar","images/stimuli/spore_stims/complex_04_A_a.gif","","","","",""
"","null","html-keyboard-response","83","352546","0.0-21.0-0.2","SS1619740061593","","","null","","","","","","<p><img src= images/blank.png width =""600"" height = ""600"" style=""position:fixed;top:50%; left:50%; transform: translate(-50%, -50%); border:5px solid black"">","","","","","","","",""
"","438.93499998375773","sequential-stimulus-presentation-old","84","353490","0.0-21.0-1.2","SS1619740061593","trial","","40","500","938.9349999837577","images/stimuli/spore_stims/complex_02_A_b.gif","images/stimuli/spore_stims/complex_04_A_a.gif","self_paced","","6","complex_dissimilar","images/stimuli/spore_stims/complex_04_A_a.gif","","","","",""
"","null","html-keyboard-response","85","354602","0.0-21.0-0.3","SS1619740061593","","","null","","","","","","<p><img src= images/blank.png width =""600"" height = ""600"" style=""position:fixed;top:50%; left:50%; transform: translate(-50%, -50%); border:5px solid black"">","","","","","","","",""
"","3862.3049999878276","sequential-stimulus-presentation-old","86","358972","0.0-21.0-1.3","SS1619740061593","trial","","40","500","4362.304999987828","images/stimuli/spore_stims/complex_02_A_b.gif","images/stimuli/spore_stims/complex_04_A_a.gif","self_paced","","6","complex_dissimilar","images/stimuli/spore_stims/complex_04_A_a.gif","","","","",""
"","null","html-keyboard-response","87","360235","0.0-21.0-0.4","SS1619740061593","","","null","","","","","","<p><img src= images/blank.png width =""600"" height = ""600"" style=""position:fixed;top:50%; left:50%; transform: translate(-50%, -50%); border:5px solid black"">","","","","","","","",""
"","1618.1549999746494","sequential-stimulus-presentation-old","88","362358","0.0-21.0-1.4","SS1619740061593","trial","","40","500","2118.1549999746494","images/stimuli/spore_stims/complex_02_A_b.gif","images/stimuli/spore_stims/complex_04_A_a.gif","self_paced","","6","complex_dissimilar","images/stimuli/spore_stims/complex_04_A_a.gif","","","","",""
"","null","html-keyboard-response","89","363643","0.0-21.0-0.5","SS1619740061593","","","null","","","","","","<p><img src= images/blank.png width =""600"" height = ""600"" style=""position:fixed;top:50%; left:50%; transform: translate(-50%, -50%); border:5px solid black"">","","","","","","","",""
"","713.7600000132807","sequential-stimulus-presentation-old","90","364866","0.0-21.0-1.5","SS1619740061593","trial","","40","500","1213.7600000132807","images/stimuli/spore_stims/complex_02_A_b.gif","images/stimuli/spore_stims/complex_04_A_a.gif","self_paced","","6","complex_dissimilar","images/stimuli/spore_stims/complex_04_A_a.gif","","","","",""
"","4619.415000022855","survey-multi-choice","91","369488","0.0-22.0","SS1619740061593","math_question","","","","","","","","","","","","{""Q0"":""12""}","[0]","12","",""
"","null","html-keyboard-response","92","370503","0.0-23.0-0.0","SS1619740061593","","","null","","","","","","<p><img src= images/blank.png width =""600"" height = ""600"" style=""position:fixed;top:50%; left:50%; transform: translate(-50%, -50%); border:5px solid black"">","","","","","","","",""
"","517.7850000036415","sequential-stimulus-presentation-old","93","386028","0.0-23.0-1.0","SS1619740061593","trial","","40","500","1017.7850000036415","images/stimuli/spore_stims/complex_06_A_b.gif","images/stimuli/spore_stims/complex_11_A_a.gif","forced_long","","7","complex_dissimilar","images/stimuli/spore_stims/complex_11_A_a.gif","","","","",""
"","null","html-keyboard-response","94","387295","0.0-23.0-0.1","SS1619740061593","","","null","","","","","","<p><img src= images/blank.png width =""600"" height = ""600"" style=""position:fixed;top:50%; left:50%; transform: translate(-50%, -50%); border:5px solid black"">","","","","","","","",""
"","7015.820000000531","sequential-stimulus-presentation-old","95","394819","0.0-23.0-1.1","SS1619740061593","trial","","40","500","7515.820000000531","images/stimuli/spore_stims/complex_06_A_b.gif","images/stimuli/spore_stims/complex_11_A_a.gif","forced_long","","7","complex_dissimilar","images/stimuli/spore_stims/complex_11_A_a.gif","","","","",""
"","null","html-keyboard-response","96","395655","0.0-23.0-0.2","SS1619740061593","","","null","","","","","","<p><img src= images/blank.png width =""600"" height = ""600"" style=""position:fixed;top:50%; left:50%; transform: translate(-50%, -50%); border:5px solid black"">","","","","","","","",""
"","312.43499999982305","sequential-stimulus-presentation-old","97","396477","0.0-23.0-1.2","SS1619740061593","trial","","40","500","812.434999999823","images/stimuli/spore_stims/complex_06_A_b.gif","images/stimuli/spore_stims/complex_11_A_a.gif","forced_long","","7","complex_dissimilar","images/stimuli/spore_stims/complex_11_A_a.gif","","","","",""
"","null","html-keyboard-response","98","397673","0.0-23.0-0.3","SS1619740061593","","","null","","","","","","<p><img src= images/blank.png width =""600"" height = ""600"" style=""position:fixed;top:50%; left:50%; transform: translate(-50%, -50%); border:5px solid black"">","","","","","","","",""
"","4249.625000025844","sequential-stimulus-presentation-old","99","402427","0.0-23.0-1.3","SS1619740061593","trial","","40","500","4749.625000025844","images/stimuli/spore_stims/complex_06_A_b.gif","images/stimuli/spore_stims/complex_11_A_a.gif","forced_long","","7","complex_dissimilar","images/stimuli/spore_stims/complex_11_A_a.gif","","","","",""
"","null","html-keyboard-response","100","403617","0.0-23.0-0.4","SS1619740061593","","","null","","","","","","<p><img src= images/blank.png width =""600"" height = ""600"" style=""position:fixed;top:50%; left:50%; transform: translate(-50%, -50%); border:5px solid black"">","","","","","","","",""
"","7298.944999987725","sequential-stimulus-presentation-old","101","411422","0.0-23.0-1.4","SS1619740061593","trial","","40","500","7798.944999987725","images/stimuli/spore_stims/complex_06_A_b.gif","images/stimuli/spore_stims/complex_11_A_a.gif","forced_long","","7","complex_dissimilar","images/stimuli/spore_stims/complex_11_A_a.gif","","","","",""
"","null","html-keyboard-response","102","412464","0.0-23.0-0.5","SS1619740061593","","","null","","","","","","<p><img src= images/blank.png width =""600"" height = ""600"" style=""position:fixed;top:50%; left:50%; transform: translate(-50%, -50%); border:5px solid black"">","","","","","","","",""
"","2417.0349999913014","sequential-stimulus-presentation-old","103","415394","0.0-23.0-1.5","SS1619740061593","trial","","40","500","2917.0349999913014","images/stimuli/spore_stims/complex_06_A_b.gif","images/stimuli/spore_stims/complex_11_A_a.gif","forced_long","","7","complex_dissimilar","images/stimuli/spore_stims/complex_11_A_a.gif","","","","",""
"","3054.2900000000373","survey-multi-choice","104","418454","0.0-24.0","SS1619740061593","math_question","","","","","","","","","","","","{""Q0"":""14""}","[0]","14","",""
"","null","html-keyboard-response","105","419580","0.0-25.0-0.0","SS1619740061593","","","null","","","","","","<p><img src= images/blank.png width =""600"" height = ""600"" style=""position:fixed;top:50%; left:50%; transform: translate(-50%, -50%); border:5px solid black"">","","","","","","","",""
"","2367.8000000072643","sequential-stimulus-presentation-old","106","436963","0.0-25.0-1.0","SS1619740061593","trial","","40","500","2867.8000000072643","images/stimuli/spore_stims/simple_19_A_a.gif","images/stimuli/spore_stims/simple_11_A_b.gif","forced_long","","8","simple_dissimilar","images/stimuli/spore_stims/simple_11_A_b.gif","","","","",""
"","null","html-keyboard-response","107","438094","0.0-25.0-0.1","SS1619740061593","","","null","","","","","","<p><img src= images/blank.png width =""600"" height = ""600"" style=""position:fixed;top:50%; left:50%; transform: translate(-50%, -50%); border:5px solid black"">","","","","","","","",""
"","3610.1250000065193","sequential-stimulus-presentation-old","108","442212","0.0-25.0-1.1","SS1619740061593","trial","","40","500","4110.125000006519","images/stimuli/spore_stims/simple_19_A_a.gif","images/stimuli/spore_stims/simple_11_A_b.gif","forced_long","","8","simple_dissimilar","images/stimuli/spore_stims/simple_19_A_a.gif","","","","",""
"","null","html-keyboard-response","109","443309","0.0-25.0-0.2","SS1619740061593","","","null","","","","","","<p><img src= images/blank.png width =""600"" height = ""600"" style=""position:fixed;top:50%; left:50%; transform: translate(-50%, -50%); border:5px solid black"">","","","","","","","",""
"","3004.320000007283","sequential-stimulus-presentation-old","110","446820","0.0-25.0-1.2","SS1619740061593","trial","","40","500","3504.320000007283","images/stimuli/spore_stims/simple_19_A_a.gif","images/stimuli/spore_stims/simple_11_A_b.gif","forced_long","","8","simple_dissimilar","images/stimuli/spore_stims/simple_11_A_b.gif","","","","",""
"","null","html-keyboard-response","111","447823","0.0-25.0-0.3","SS1619740061593","","","null","","","","","","<p><img src= images/blank.png width =""600"" height = ""600"" style=""position:fixed;top:50%; left:50%; transform: translate(-50%, -50%); border:5px solid black"">","","","","","","","",""
"","1803.8549999764655","sequential-stimulus-presentation-old","112","450133","0.0-25.0-1.3","SS1619740061593","trial","","40","500","2303.8549999764655","images/stimuli/spore_stims/simple_19_A_a.gif","images/stimuli/spore_stims/simple_11_A_b.gif","forced_long","","8","simple_dissimilar","images/stimuli/spore_stims/simple_19_A_a.gif","","","","",""
"","null","html-keyboard-response","113","451297","0.0-25.0-0.4","SS1619740061593","","","null","","","","","","<p><img src= images/blank.png width =""600"" height = ""600"" style=""position:fixed;top:50%; left:50%; transform: translate(-50%, -50%); border:5px solid black"">","","","","","","","",""
"","6522.319999989122","sequential-stimulus-presentation-old","114","458326","0.0-25.0-1.4","SS1619740061593","trial","","40","500","7022.319999989122","images/stimuli/spore_stims/simple_19_A_a.gif","images/stimuli/spore_stims/simple_11_A_b.gif","forced_long","","8","simple_dissimilar","images/stimuli/spore_stims/simple_11_A_b.gif","","","","",""
"","null","html-keyboard-response","115","459337","0.0-25.0-0.5","SS1619740061593","","","null","","","","","","<p><img src= images/blank.png width =""600"" height = ""600"" style=""position:fixed;top:50%; left:50%; transform: translate(-50%, -50%); border:5px solid black"">","","","","","","","",""
"","5471.349999977974","sequential-stimulus-presentation-old","116","465320","0.0-25.0-1.5","SS1619740061593","trial","","40","500","5971.349999977974","images/stimuli/spore_stims/simple_19_A_a.gif","images/stimuli/spore_stims/simple_11_A_b.gif","forced_long","","8","simple_dissimilar","images/stimuli/spore_stims/simple_11_A_b.gif","","","","",""
"","2794.7299999941606","survey-multi-choice","117","468117","0.0-26.0","SS1619740061593","math_question","","","","","","","","","","","","{""Q0"":""11""}","[0]","11","",""
"","null","html-keyboard-response","118","469081","0.0-27.0-0.0","SS1619740061593","","","null","","","","","","<p><img src= images/blank.png width =""600"" height = ""600"" style=""position:fixed;top:50%; left:50%; transform: translate(-50%, -50%); border:5px solid black"">","","","","","","","",""
"","1104.7299999918323","sequential-stimulus-presentation-old","119","485193","0.0-27.0-1.0","SS1619740061593","trial","","40","500","1604.7299999918323","images/stimuli/spore_stims/simple_17_A_b.gif","images/stimuli/spore_stims/simple_13_A_a.gif","forced_long","","9","simple_dissimilar","images/stimuli/spore_stims/simple_13_A_a.gif","","","","",""
"","null","html-keyboard-response","120","486067","0.0-27.0-0.1","SS1619740061593","","","null","","","","","","<p><img src= images/blank.png width =""600"" height = ""600"" style=""position:fixed;top:50%; left:50%; transform: translate(-50%, -50%); border:5px solid black"">","","","","","","","",""
"","154.87500000745058","sequential-stimulus-presentation-old","121","486727","0.0-27.0-1.1","SS1619740061593","trial","","40","500","654.8750000074506","images/stimuli/spore_stims/simple_17_A_b.gif","images/stimuli/spore_stims/simple_13_A_a.gif","forced_long","","9","simple_dissimilar","images/stimuli/spore_stims/simple_13_A_a.gif","","","","",""
"","null","html-keyboard-response","122","487865","0.0-27.0-0.2","SS1619740061593","","","null","","","","","","<p><img src= images/blank.png width =""600"" height = ""600"" style=""position:fixed;top:50%; left:50%; transform: translate(-50%, -50%); border:5px solid black"">","","","","","","","",""
"","5323.089999990771","sequential-stimulus-presentation-old","123","493696","0.0-27.0-1.2","SS1619740061593","trial","","40","500","5823.089999990771","images/stimuli/spore_stims/simple_17_A_b.gif","images/stimuli/spore_stims/simple_13_A_a.gif","forced_long","","9","simple_dissimilar","images/stimuli/spore_stims/simple_13_A_a.gif","","","","",""
"","null","html-keyboard-response","124","494527","0.0-27.0-0.3","SS1619740061593","","","null","","","","","","<p><img src= images/blank.png width =""600"" height = ""600"" style=""position:fixed;top:50%; left:50%; transform: translate(-50%, -50%); border:5px solid black"">","","","","","","","",""
"","311.90000000060536","sequential-stimulus-presentation-old","125","495345","0.0-27.0-1.3","SS1619740061593","trial","","40","500","811.9000000006054","images/stimuli/spore_stims/simple_17_A_b.gif","images/stimuli/spore_stims/simple_13_A_a.gif","forced_long","","9","simple_dissimilar","images/stimuli/spore_stims/simple_13_A_a.gif","","","","",""
"","2636.6149999957997","survey-multi-choice","126","497984","0.0-28.0","SS1619740061593","math_question","","","","","","","","","","","","{""Q0"":""10""}","[0]","10","",""
"","null","html-keyboard-response","127","499224","0.0-29.0-0.0","SS1619740061593","","","null","","","","","","<p><img src= images/blank.png width =""600"" height = ""600"" style=""position:fixed;top:50%; left:50%; transform: translate(-50%, -50%); border:5px solid black"">","","","","","","","",""
"","872.4150000198279","sequential-stimulus-presentation-old","128","515104","0.0-29.0-1.0","SS1619740061593","trial","","40","500","1372.4150000198279","images/stimuli/spore_stims/complex_05_A_a.gif","images/stimuli/spore_stims/complex_15_A_b.gif","forced_long","","10","complex_dissimilar","images/stimuli/spore_stims/complex_15_A_b.gif","","","","",""
"","null","html-keyboard-response","129","516152","0.0-29.0-0.1","SS1619740061593","","","null","","","","","","<p><img src= images/blank.png width =""600"" height = ""600"" style=""position:fixed;top:50%; left:50%; transform: translate(-50%, -50%); border:5px solid black"">","","","","","","","",""
"","242.5199999997858","sequential-stimulus-presentation-old","130","516904","0.0-29.0-1.1","SS1619740061593","trial","","40","500","742.5199999997858","images/stimuli/spore_stims/complex_05_A_a.gif","images/stimuli/spore_stims/complex_15_A_b.gif","forced_long","","10","complex_dissimilar","images/stimuli/spore_stims/complex_15_A_b.gif","","","","",""
"","null","html-keyboard-response","131","517729","0.0-29.0-0.2","SS1619740061593","","","null","","","","","","<p><img src= images/blank.png width =""600"" height = ""600"" style=""position:fixed;top:50%; left:50%; transform: translate(-50%, -50%); border:5px solid black"">","","","","","","","",""
"","659.4850000110455","sequential-stimulus-presentation-old","132","518896","0.0-29.0-1.2","SS1619740061593","trial","","40","500","1159.4850000110455","images/stimuli/spore_stims/complex_05_A_a.gif","images/stimuli/spore_stims/complex_15_A_b.gif","forced_long","","10","complex_dissimilar","images/stimuli/spore_stims/complex_15_A_b.gif","","","","",""
"","null","html-keyboard-response","133","519784","0.0-29.0-0.3","SS1619740061593","","","null","","","","","","<p><img src= images/blank.png width =""600"" height = ""600"" style=""position:fixed;top:50%; left:50%; transform: translate(-50%, -50%); border:5px solid black"">","","","","","","","",""
"","1399.8649999848567","sequential-stimulus-presentation-old","134","521688","0.0-29.0-1.3","SS1619740061593","trial","","40","500","1899.8649999848567","images/stimuli/spore_stims/complex_05_A_a.gif","images/stimuli/spore_stims/complex_15_A_b.gif","forced_long","","10","complex_dissimilar","images/stimuli/spore_stims/complex_15_A_b.gif","","","","",""
"","null","html-keyboard-response","135","522985","0.0-29.0-0.4","SS1619740061593","","","null","","","","","","<p><img src= images/blank.png width =""600"" height = ""600"" style=""position:fixed;top:50%; left:50%; transform: translate(-50%, -50%); border:5px solid black"">","","","","","","","",""
"","677.5150000175927","sequential-stimulus-presentation-old","136","524167","0.0-29.0-1.4","SS1619740061593","trial","","40","500","1177.5150000175927","images/stimuli/spore_stims/complex_05_A_a.gif","images/stimuli/spore_stims/complex_15_A_b.gif","forced_long","","10","complex_dissimilar","images/stimuli/spore_stims/complex_15_A_b.gif","","","","",""
"","null","html-keyboard-response","137","525209","0.0-29.0-0.5","SS1619740061593","","","null","","","","","","<p><img src= images/blank.png width =""600"" height = ""600"" style=""position:fixed;top:50%; left:50%; transform: translate(-50%, -50%); border:5px solid black"">","","","","","","","",""
"","286.244999995688","sequential-stimulus-presentation-old","138","526000","0.0-29.0-1.5","SS1619740061593","trial","","40","500","786.244999995688","images/stimuli/spore_stims/complex_05_A_a.gif","images/stimuli/spore_stims/complex_15_A_b.gif","forced_long","","10","complex_dissimilar","images/stimuli/spore_stims/complex_15_A_b.gif","","","","",""
"","2526.654999994207","survey-multi-choice","139","528530","0.0-30.0","SS1619740061593","math_question","","","","","","","","","","","","{""Q0"":""10""}","[0]","10","",""
"","null","html-keyboard-response","140","529409","0.0-31.0-0.0","SS1619740061593","","","null","","","","","","<p><img src= images/blank.png width =""600"" height = ""600"" style=""position:fixed;top:50%; left:50%; transform: translate(-50%, -50%); border:5px solid black"">","","","","","","","",""
"","1157.375000009779","sequential-stimulus-presentation-old","141","531074","0.0-31.0-1.0","SS1619740061593","trial","","40","500","1657.375000009779","images/stimuli/spore_stims/complex_09_A_a.gif","images/stimuli/spore_stims/complex_11_A_b.gif","forced_short","","11","complex_dissimilar","images/stimuli/spore_stims/complex_11_A_b.gif","","","","",""
"","null","html-keyboard-response","142","532005","0.0-31.0-0.1","SS1619740061593","","","null","","","","","","<p><img src= images/blank.png width =""600"" height = ""600"" style=""position:fixed;top:50%; left:50%; transform: translate(-50%, -50%); border:5px solid black"">","","","","","","","",""
"","2657.950000022538","sequential-stimulus-presentation-old","143","535169","0.0-31.0-1.1","SS1619740061593","trial","","40","500","3157.950000022538","images/stimuli/spore_stims/complex_09_A_a.gif","images/stimuli/spore_stims/complex_11_A_b.gif","forced_short","","11","complex_dissimilar","images/stimuli/spore_stims/complex_11_A_b.gif","","","","",""
"","null","html-keyboard-response","144","536201","0.0-31.0-0.2","SS1619740061593","","","null","","","","","","<p><img src= images/blank.png width =""600"" height = ""600"" style=""position:fixed;top:50%; left:50%; transform: translate(-50%, -50%); border:5px solid black"">","","","","","","","",""
"","1038.185000012163","sequential-stimulus-presentation-old","145","537745","0.0-31.0-1.2","SS1619740061593","trial","","40","500","1538.185000012163","images/stimuli/spore_stims/complex_09_A_a.gif","images/stimuli/spore_stims/complex_11_A_b.gif","forced_short","","11","complex_dissimilar","images/stimuli/spore_stims/complex_11_A_b.gif","","","","",""
"","null","html-keyboard-response","146","538931","0.0-31.0-0.3","SS1619740061593","","","null","","","","","","<p><img src= images/blank.png width =""600"" height = ""600"" style=""position:fixed;top:50%; left:50%; transform: translate(-50%, -50%); border:5px solid black"">","","","","","","","",""
"","244.15499999304302","sequential-stimulus-presentation-old","147","539681","0.0-31.0-1.3","SS1619740061593","trial","","40","500","744.154999993043","images/stimuli/spore_stims/complex_09_A_a.gif","images/stimuli/spore_stims/complex_11_A_b.gif","forced_short","","11","complex_dissimilar","images/stimuli/spore_stims/complex_11_A_b.gif","","","","",""
"","null","html-keyboard-response","148","540772","0.0-31.0-0.4","SS1619740061593","","","null","","","","","","<p><img src= images/blank.png width =""600"" height = ""600"" style=""position:fixed;top:50%; left:50%; transform: translate(-50%, -50%); border:5px solid black"">","","","","","","","",""
"","139.1750000184402","sequential-stimulus-presentation-old","149","541418","0.0-31.0-1.4","SS1619740061593","trial","","40","500","639.1750000184402","images/stimuli/spore_stims/complex_09_A_a.gif","images/stimuli/spore_stims/complex_11_A_b.gif","forced_short","","11","complex_dissimilar","images/stimuli/spore_stims/complex_11_A_b.gif","","","","",""
"[{""page_index"":0,""viewing_time"":3932.7849999826867}]","3933.019999996759","instructions","150","545353","0.0-32.0","SS1619740061593","instructions","","","","","","","","","","","","","","","",""
"","8252.349999995204","survey-likert","151","553610","0.0-33.0","SS1619740061593","similarity_question","","","","","","","","","","","","{""Q0"":4}","[0]","","images/stimuli/spore_stims/complex_11_A_b.gif","images/stimuli/spore_stims/complex_09_A_a.gif"
"","9628.094999992754","survey-likert","152","563247","0.0-34.0","SS1619740061593","similarity_question","","","","","","","","","","","","{""Q0"":2}","[0]","","images/stimuli/spore_stims/complex_05_A_a.gif","images/stimuli/spore_stims/complex_15_A_b.gif"
"","3759.3699999852106","survey-likert","153","567013","0.0-35.0","SS1619740061593","similarity_question","","","","","","","","","","","","{""Q0"":5}","[0]","","images/stimuli/spore_stims/simple_01_A_b.gif","images/stimuli/spore_stims/simple_05_A_a.gif"
"","4184.414999996079","survey-likert","154","571205","0.0-36.0","SS1619740061593","similarity_question","","","","","","","","","","","","{""Q0"":4}","[0]","","images/stimuli/spore_stims/complex_02_A_b.gif","images/stimuli/spore_stims/complex_04_A_a.gif"
"","5871.454999985872","survey-likert","155","577084","0.0-37.0","SS1619740061593","similarity_question","","","","","","","","","","","","{""Q0"":2}","[0]","","images/stimuli/spore_stims/simple_19_A_a.gif","images/stimuli/spore_stims/simple_11_A_b.gif"
"","2953.7750000017695","survey-likert","156","580046","0.0-38.0","SS1619740061593","similarity_question","","","","","","","","","","","","{""Q0"":5}","[0]","","images/stimuli/spore_stims/simple_01_A_a.gif","images/stimuli/spore_stims/simple_14_A_b.gif"
"","13938.579999987269","survey-likert","157","593995","0.0-39.0","SS1619740061593","similarity_question","","","","","","","","","","","","{""Q0"":2}","[0]","","images/stimuli/spore_stims/complex_18_A_a.gif","images/stimuli/spore_stims/complex_19_A_b.gif"
"","7487.415000010515","survey-likert","158","601490","0.0-40.0","SS1619740061593","similarity_question","","","","","","","","","","","","{""Q0"":1}","[0]","","images/stimuli/spore_stims/complex_06_A_b.gif","images/stimuli/spore_stims/complex_11_A_a.gif"
"","8140.039999998407","survey-likert","159","609638","0.0-41.0","SS1619740061593","similarity_question","","","","","","","","","","","","{""Q0"":3}","[0]","","images/stimuli/spore_stims/simple_12_A_a.gif","images/stimuli/spore_stims/simple_10_A_b.gif"
"","7644.445000012638","survey-likert","160","617290","0.0-42.0","SS1619740061593","similarity_question","","","","","","","","","","","","{""Q0"":4}","[0]","","images/stimuli/spore_stims/complex_16_A_a.gif","images/stimuli/spore_stims/complex_08_A_b.gif"
"","5299.769999983255","survey-likert","161","622596","0.0-43.0","SS1619740061593","similarity_question","","","","","","","","","","","","{""Q0"":5}","[0]","","images/stimuli/spore_stims/simple_13_A_a.gif","images/stimuli/spore_stims/simple_17_A_b.gif"
"","4966.784999996889","survey-likert","162","627574","0.0-44.0","SS1619740061593","similarity_question","","","","","","","","","","","","{""Q0"":2}","[0]","","images/stimuli/spore_stims/simple_06_A_b.gif","images/stimuli/spore_stims/simple_18_A_a.gif"
"[{""page_index"":0,""viewing_time"":5345.609999989392}]","5345.850000012433","instructions","163","632926","0.0-45.0","SS1619740061593","instructions","","","","","","","","","","","","","","","",""
"","5974.675000004936","survey-likert","164","638905","0.0-46.0","SS1619740061593","","","","","","","","","images/stimuli/spore_stims/simple_17_A_b.gif","","","","{""Q0"":3}","[0]","","",""
"","3078.025000024354","survey-likert","165","641990","0.0-47.0","SS1619740061593","","","","","","","","","images/stimuli/spore_stims/simple_05_A_a.gif","","","","{""Q0"":1}","[0]","","",""
"","4899.309999978868","survey-likert","166","646896","0.0-48.0","SS1619740061593","","","","","","","","","images/stimuli/spore_stims/complex_19_A_b.gif","","","","{""Q0"":4}","[0]","","",""
"","4846.690000005765","survey-likert","167","651749","0.0-49.0","SS1619740061593","","","","","","","","","images/stimuli/spore_stims/complex_16_A_a.gif","","","","{""Q0"":4}","[0]","","",""
"","3139.259999996284","survey-likert","168","654896","0.0-50.0","SS1619740061593","","","","","","","","","images/stimuli/spore_stims/simple_01_A_a.gif","","","","{""Q0"":1}","[0]","","",""
"","4857.079999987036","survey-likert","169","659761","0.0-51.0","SS1619740061593","","","","","","","","","images/stimuli/spore_stims/complex_09_A_a.gif","","","","{""Q0"":5}","[0]","","",""
"","2567.2300000151154","survey-likert","170","662335","0.0-52.0","SS1619740061593","","","","","","","","","images/stimuli/spore_stims/complex_04_A_a.gif","","","","{""Q0"":4}","[0]","","",""
"","2875.754999986384","survey-likert","171","665221","0.0-53.0","SS1619740061593","","","","","","","","","images/stimuli/spore_stims/complex_05_A_a.gif","","","","{""Q0"":3}","[0]","","",""
"","4578.1800000113435","survey-likert","172","669808","0.0-54.0","SS1619740061593","","","","","","","","","images/stimuli/spore_stims/simple_18_A_a.gif","","","","{""Q0"":1}","[0]","","",""
"","2890.7150000159163","survey-likert","173","672706","0.0-55.0","SS1619740061593","","","","","","","","","images/stimuli/spore_stims/simple_19_A_a.gif","","","","{""Q0"":2}","[0]","","",""
"","3920.3249999845866","survey-likert","174","676634","0.0-56.0","SS1619740061593","","","","","","","","","images/stimuli/spore_stims/simple_12_A_a.gif","","","","{""Q0"":2}","[0]","","",""
"","6032.760000001872","survey-likert","175","682674","0.0-57.0","SS1619740061593","","","","","","","","","images/stimuli/spore_stims/complex_06_A_b.gif","","","","{""Q0"":4}","[0]","","",""
"[{""page_index"":0,""viewing_time"":1762.510000000475}]","1762.7299999876413","instructions","176","684443","0.0-58.0","SS1619740061593","instructions","","","","","","","","","","","","","","","",""
"","3596.86999997939","demog-age","177","688046","0.0-59.0","SS1619740061593","","","","","","","","","","","","","{""age"":""30""}","","","",""
"","7703.715000010561","demog-ethnic-US","178","695757","0.0-60.0","SS1619740061593","","","","","","","","","","","","","{""ethnicity"":[""Native Hawaiian or Other Pacific Islander""]}","[0]","","",""
"","5651.000000012573","demog-gender-and-education","179","701415","0.0-61.0","SS1619740061593","","","","","","","","","","","","","{""gender"":""Male"",""education"":""Bachelor's Degree""}","[0,1]","","",""
"","12640.635000017937","survey-text","180","714065","0.0-62.0","SS1619740061593","feedback","","","","","","","","","","","","{""Q0"":""cute""}","","","",""
"[{""page_index"":0,""viewing_time"":1316.2850000080653}]","1316.5199999930337","instructions","181","715386","0.0-63.0","SS1619740061593","instructions","","","","","","","","","","","","","","","",""
