"view_history","rt","trial_type","trial_index","time_elapsed","internal_node_id","subject","stimulus_type","trial_stimulus","key_press","minimum_viewing_duration","trial_looking_time","block_deviant","block_background","exposure_type","stimulus","block_number","block_type","stimulus_displayed","responses","question_order","math_correct_answer","stimulus_left","stimulus_right"
"[{""page_index"":0,""viewing_time"":16103.499999968335}]","16104.124999954365","instructions","0","16107","0.0-0.0","SS1619739432069","","","","","","","","","","","","","","","","",""
"[{""page_index"":0,""viewing_time"":12902.464999991935},{""page_index"":1,""viewing_time"":9598.679999995511}]","22501.560000004247","instructions","1","40617","0.0-1.0","SS1619739432069","instructions","","","","","","","","","","","","","","","",""
"","6920.829999959096","sequential-stimulus-presentation-old","2","48045","0.0-2.0","SS1619739432069","","","40","500","7420.829999959096","null","null","self_paced","","","","","","","","",""
"","31818.265000008978","sequential-stimulus-presentation-old","3","80383","0.0-3.0","SS1619739432069","","","40","500","32318.265000008978","null","null","self_paced","","","","","","","","",""
"[{""page_index"":0,""viewing_time"":13832.08999998169}]","13832.579999987502","instructions","4","94217","0.0-4.0","SS1619739432069","instructions","","","","","","","","","","","","","","","",""
"","920.0549999950454","sequential-stimulus-presentation-old","5","110150","0.0-5.0","SS1619739432069","","","40","500","1420.0549999950454","null","null","forced_long","","","","","","","","",""
"","1066.5099999750964","sequential-stimulus-presentation-old","6","111726","0.0-6.0","SS1619739432069","","","40","500","1566.5099999750964","null","null","forced_long","","","","","","","","",""
"[{""page_index"":0,""viewing_time"":5782.119999988936}]","5782.520000007935","instructions","7","117509","0.0-7.0","SS1619739432069","instructions","","","","","","","","","","","","","","","",""
"[{""page_index"":0,""viewing_time"":9141.345000010915},{""page_index"":1,""viewing_time"":21056.240000005346},{""page_index"":2,""viewing_time"":9248.154999979306},{""page_index"":3,""viewing_time"":2055.0899999798276},{""page_index"":4,""viewing_time"":1440.1450000004843}]","42941.25500001246","instructions","8","160443","0.0-8.0","SS1619739432069","instructions","","","","","","","","","","","","","","","",""
"","null","html-keyboard-response","9","161460","0.0-9.0-0.0","SS1619739432069","","","null","","","","","","<p><img src= images/blank.png width =""600"" height = ""600"" style=""position:fixed;top:50%; left:50%; transform: translate(-50%, -50%); border:5px solid black"">","","","","","","","",""
"","51742.93499998748","sequential-stimulus-presentation-old","10","213713","0.0-9.0-1.0","SS1619739432069","trial","","40","500","52242.93499998748","images/stimuli/spore_stims/simple_12_A_a.gif","images/stimuli/spore_stims/simple_17_A_b.gif","self_paced","","0","simple_dissimilar","images/stimuli/spore_stims/simple_17_A_b.gif","","","","",""
"","null","html-keyboard-response","11","214750","0.0-9.0-0.1","SS1619739432069","","","null","","","","","","<p><img src= images/blank.png width =""600"" height = ""600"" style=""position:fixed;top:50%; left:50%; transform: translate(-50%, -50%); border:5px solid black"">","","","","","","","",""
"","14056.044999975711","sequential-stimulus-presentation-old","12","229325","0.0-9.0-1.1","SS1619739432069","trial","","40","500","14556.044999975711","images/stimuli/spore_stims/simple_12_A_a.gif","images/stimuli/spore_stims/simple_17_A_b.gif","self_paced","","0","simple_dissimilar","images/stimuli/spore_stims/simple_12_A_a.gif","","","","",""
"","null","html-keyboard-response","13","230569","0.0-9.0-0.2","SS1619739432069","","","null","","","","","","<p><img src= images/blank.png width =""600"" height = ""600"" style=""position:fixed;top:50%; left:50%; transform: translate(-50%, -50%); border:5px solid black"">","","","","","","","",""
"","12701.335000048857","sequential-stimulus-presentation-old","14","243775","0.0-9.0-1.2","SS1619739432069","trial","","40","500","13201.335000048857","images/stimuli/spore_stims/simple_12_A_a.gif","images/stimuli/spore_stims/simple_17_A_b.gif","self_paced","","0","simple_dissimilar","images/stimuli/spore_stims/simple_17_A_b.gif","","","","",""
"","null","html-keyboard-response","15","244929","0.0-9.0-0.3","SS1619739432069","","","null","","","","","","<p><img src= images/blank.png width =""600"" height = ""600"" style=""position:fixed;top:50%; left:50%; transform: translate(-50%, -50%); border:5px solid black"">","","","","","","","",""
"","23906.360000022687","sequential-stimulus-presentation-old","16","269345","0.0-9.0-1.3","SS1619739432069","trial","","40","500","24406.360000022687","images/stimuli/spore_stims/simple_12_A_a.gif","images/stimuli/spore_stims/simple_17_A_b.gif","self_paced","","0","simple_dissimilar","images/stimuli/spore_stims/simple_17_A_b.gif","","","","",""
"","null","html-keyboard-response","17","270189","0.0-9.0-0.4","SS1619739432069","","","null","","","","","","<p><img src= images/blank.png width =""600"" height = ""600"" style=""position:fixed;top:50%; left:50%; transform: translate(-50%, -50%); border:5px solid black"">","","","","","","","",""
"","14595.014999969862","sequential-stimulus-presentation-old","18","285289","0.0-9.0-1.4","SS1619739432069","trial","","40","500","15095.014999969862","images/stimuli/spore_stims/simple_12_A_a.gif","images/stimuli/spore_stims/simple_17_A_b.gif","self_paced","","0","simple_dissimilar","images/stimuli/spore_stims/simple_12_A_a.gif","","","","",""
"","4153.870000038296","survey-multi-choice","19","289452","0.0-10.0","SS1619739432069","math_question","","","","","","","","","","","","{""Q0"":""10""}","[0]","10","",""
"","null","html-keyboard-response","20","290776","0.0-11.0-0.0","SS1619739432069","","","null","","","","","","<p><img src= images/blank.png width =""600"" height = ""600"" style=""position:fixed;top:50%; left:50%; transform: translate(-50%, -50%); border:5px solid black"">","","","","","","","",""
"","814.1600000089966","sequential-stimulus-presentation-old","21","306599","0.0-11.0-1.0","SS1619739432069","trial","","40","500","1314.1600000089966","images/stimuli/spore_stims/simple_18_A_b.gif","images/stimuli/spore_stims/simple_07_A_a.gif","forced_long","","1","simple_dissimilar","images/stimuli/spore_stims/simple_07_A_a.gif","","","","",""
"","null","html-keyboard-response","22","307787","0.0-11.0-0.1","SS1619739432069","","","null","","","","","","<p><img src= images/blank.png width =""600"" height = ""600"" style=""position:fixed;top:50%; left:50%; transform: translate(-50%, -50%); border:5px solid black"">","","","","","","","",""
"","14187.640000018291","sequential-stimulus-presentation-old","23","322485","0.0-11.0-1.1","SS1619739432069","trial","","40","500","14687.640000018291","images/stimuli/spore_stims/simple_18_A_b.gif","images/stimuli/spore_stims/simple_07_A_a.gif","forced_long","","1","simple_dissimilar","images/stimuli/spore_stims/simple_07_A_a.gif","","","","",""
"","null","html-keyboard-response","24","323426","0.0-11.0-0.2","SS1619739432069","","","null","","","","","","<p><img src= images/blank.png width =""600"" height = ""600"" style=""position:fixed;top:50%; left:50%; transform: translate(-50%, -50%); border:5px solid black"">","","","","","","","",""
"","13647.609999985434","sequential-stimulus-presentation-old","25","337584","0.0-11.0-1.2","SS1619739432069","trial","","40","500","14147.609999985434","images/stimuli/spore_stims/simple_18_A_b.gif","images/stimuli/spore_stims/simple_07_A_a.gif","forced_long","","1","simple_dissimilar","images/stimuli/spore_stims/simple_07_A_a.gif","","","","",""
"","null","html-keyboard-response","26","338746","0.0-11.0-0.3","SS1619739432069","","","null","","","","","","<p><img src= images/blank.png width =""600"" height = ""600"" style=""position:fixed;top:50%; left:50%; transform: translate(-50%, -50%); border:5px solid black"">","","","","","","","",""
"","12954.800000006799","sequential-stimulus-presentation-old","27","352210","0.0-11.0-1.3","SS1619739432069","trial","","40","500","13454.800000006799","images/stimuli/spore_stims/simple_18_A_b.gif","images/stimuli/spore_stims/simple_07_A_a.gif","forced_long","","1","simple_dissimilar","images/stimuli/spore_stims/simple_07_A_a.gif","","","","",""
"","null","html-keyboard-response","28","353445","0.0-11.0-0.4","SS1619739432069","","","null","","","","","","<p><img src= images/blank.png width =""600"" height = ""600"" style=""position:fixed;top:50%; left:50%; transform: translate(-50%, -50%); border:5px solid black"">","","","","","","","",""
"","14580.680000013672","sequential-stimulus-presentation-old","29","368536","0.0-11.0-1.4","SS1619739432069","trial","","40","500","15080.680000013672","images/stimuli/spore_stims/simple_18_A_b.gif","images/stimuli/spore_stims/simple_07_A_a.gif","forced_long","","1","simple_dissimilar","images/stimuli/spore_stims/simple_18_A_b.gif","","","","",""
"","2502.16500001261","survey-multi-choice","30","371041","0.0-12.0","SS1619739432069","math_question","","","","","","","","","","","","{""Q0"":""4""}","[0]","4","",""
"","null","html-keyboard-response","31","372095","0.0-13.0-0.0","SS1619739432069","","","null","","","","","","<p><img src= images/blank.png width =""600"" height = ""600"" style=""position:fixed;top:50%; left:50%; transform: translate(-50%, -50%); border:5px solid black"">","","","","","","","",""
"","10394.735000038054","sequential-stimulus-presentation-old","32","383000","0.0-13.0-1.0","SS1619739432069","trial","","40","500","10894.735000038054","images/stimuli/spore_stims/complex_10_A_a.gif","images/stimuli/spore_stims/complex_05_A_b.gif","self_paced","","2","complex_dissimilar","images/stimuli/spore_stims/complex_05_A_b.gif","","","","",""
"","null","html-keyboard-response","33","384097","0.0-13.0-0.1","SS1619739432069","","","null","","","","","","<p><img src= images/blank.png width =""600"" height = ""600"" style=""position:fixed;top:50%; left:50%; transform: translate(-50%, -50%); border:5px solid black"">","","","","","","","",""
"","10092.984999995679","sequential-stimulus-presentation-old","34","394698","0.0-13.0-1.1","SS1619739432069","trial","","40","500","10592.984999995679","images/stimuli/spore_stims/complex_10_A_a.gif","images/stimuli/spore_stims/complex_05_A_b.gif","self_paced","","2","complex_dissimilar","images/stimuli/spore_stims/complex_05_A_b.gif","","","","",""
"","null","html-keyboard-response","35","395685","0.0-13.0-0.2","SS1619739432069","","","null","","","","","","<p><img src= images/blank.png width =""600"" height = ""600"" style=""position:fixed;top:50%; left:50%; transform: translate(-50%, -50%); border:5px solid black"">","","","","","","","",""
"","7975.3250000067055","sequential-stimulus-presentation-old","36","404170","0.0-13.0-1.2","SS1619739432069","trial","","40","500","8475.325000006706","images/stimuli/spore_stims/complex_10_A_a.gif","images/stimuli/spore_stims/complex_05_A_b.gif","self_paced","","2","complex_dissimilar","images/stimuli/spore_stims/complex_05_A_b.gif","","","","",""
"","null","html-keyboard-response","37","405265","0.0-13.0-0.3","SS1619739432069","","","null","","","","","","<p><img src= images/blank.png width =""600"" height = ""600"" style=""position:fixed;top:50%; left:50%; transform: translate(-50%, -50%); border:5px solid black"">","","","","","","","",""
"","8535.574999987148","sequential-stimulus-presentation-old","38","414309","0.0-13.0-1.3","SS1619739432069","trial","","40","500","9035.574999987148","images/stimuli/spore_stims/complex_10_A_a.gif","images/stimuli/spore_stims/complex_05_A_b.gif","self_paced","","2","complex_dissimilar","images/stimuli/spore_stims/complex_05_A_b.gif","","","","",""
"","2462.5700000324287","survey-multi-choice","39","416777","0.0-14.0","SS1619739432069","math_question","","","","","","","","","","","","{""Q0"":""4""}","[0]","4","",""
"","null","html-keyboard-response","40","417993","0.0-15.0-0.0","SS1619739432069","","","null","","","","","","<p><img src= images/blank.png width =""600"" height = ""600"" style=""position:fixed;top:50%; left:50%; transform: translate(-50%, -50%); border:5px solid black"">","","","","","","","",""
"","10661.725000012666","sequential-stimulus-presentation-old","41","429165","0.0-15.0-1.0","SS1619739432069","trial","","40","500","11161.725000012666","images/stimuli/spore_stims/simple_13_A_a.gif","images/stimuli/spore_stims/simple_16_A_b.gif","self_paced","","3","simple_dissimilar","images/stimuli/spore_stims/simple_16_A_b.gif","","","","",""
"","null","html-keyboard-response","42","430243","0.0-15.0-0.1","SS1619739432069","","","null","","","","","","<p><img src= images/blank.png width =""600"" height = ""600"" style=""position:fixed;top:50%; left:50%; transform: translate(-50%, -50%); border:5px solid black"">","","","","","","","",""
"","7364.035000035074","sequential-stimulus-presentation-old","43","438118","0.0-15.0-1.1","SS1619739432069","trial","","40","500","7864.035000035074","images/stimuli/spore_stims/simple_13_A_a.gif","images/stimuli/spore_stims/simple_16_A_b.gif","self_paced","","3","simple_dissimilar","images/stimuli/spore_stims/simple_16_A_b.gif","","","","",""
"","null","html-keyboard-response","44","439293","0.0-15.0-0.2","SS1619739432069","","","null","","","","","","<p><img src= images/blank.png width =""600"" height = ""600"" style=""position:fixed;top:50%; left:50%; transform: translate(-50%, -50%); border:5px solid black"">","","","","","","","",""
"","10022.079999966081","sequential-stimulus-presentation-old","45","449826","0.0-15.0-1.2","SS1619739432069","trial","","40","500","10522.079999966081","images/stimuli/spore_stims/simple_13_A_a.gif","images/stimuli/spore_stims/simple_16_A_b.gif","self_paced","","3","simple_dissimilar","images/stimuli/spore_stims/simple_16_A_b.gif","","","","",""
"","null","html-keyboard-response","46","450773","0.0-15.0-0.3","SS1619739432069","","","null","","","","","","<p><img src= images/blank.png width =""600"" height = ""600"" style=""position:fixed;top:50%; left:50%; transform: translate(-50%, -50%); border:5px solid black"">","","","","","","","",""
"","14075.420000008307","sequential-stimulus-presentation-old","47","465359","0.0-15.0-1.3","SS1619739432069","trial","","40","500","14575.420000008307","images/stimuli/spore_stims/simple_13_A_a.gif","images/stimuli/spore_stims/simple_16_A_b.gif","self_paced","","3","simple_dissimilar","images/stimuli/spore_stims/simple_13_A_a.gif","","","","",""
"","null","html-keyboard-response","48","466474","0.0-15.0-0.4","SS1619739432069","","","null","","","","","","<p><img src= images/blank.png width =""600"" height = ""600"" style=""position:fixed;top:50%; left:50%; transform: translate(-50%, -50%); border:5px solid black"">","","","","","","","",""
"","10862.994999974035","sequential-stimulus-presentation-old","49","477850","0.0-15.0-1.4","SS1619739432069","trial","","40","500","11362.994999974035","images/stimuli/spore_stims/simple_13_A_a.gif","images/stimuli/spore_stims/simple_16_A_b.gif","self_paced","","3","simple_dissimilar","images/stimuli/spore_stims/simple_16_A_b.gif","","","","",""
"","null","html-keyboard-response","50","479157","0.0-15.0-0.5","SS1619739432069","","","null","","","","","","<p><img src= images/blank.png width =""600"" height = ""600"" style=""position:fixed;top:50%; left:50%; transform: translate(-50%, -50%); border:5px solid black"">","","","","","","","",""
"","11004.635000019334","sequential-stimulus-presentation-old","51","490669","0.0-15.0-1.5","SS1619739432069","trial","","40","500","11504.635000019334","images/stimuli/spore_stims/simple_13_A_a.gif","images/stimuli/spore_stims/simple_16_A_b.gif","self_paced","","3","simple_dissimilar","images/stimuli/spore_stims/simple_16_A_b.gif","","","","",""
"","5402.249999984633","survey-multi-choice","52","496075","0.0-16.0","SS1619739432069","math_question","","","","","","","","","","","","{""Q0"":""13""}","[0]","13","",""
"","null","html-keyboard-response","53","496974","0.0-17.0-0.0","SS1619739432069","","","null","","","","","","<p><img src= images/blank.png width =""600"" height = ""600"" style=""position:fixed;top:50%; left:50%; transform: translate(-50%, -50%); border:5px solid black"">","","","","","","","",""
"","1343.1800000253133","sequential-stimulus-presentation-old","54","498830","0.0-17.0-1.0","SS1619739432069","trial","","40","500","1843.1800000253133","images/stimuli/spore_stims/complex_20_A_a.gif","images/stimuli/spore_stims/complex_13_A_b.gif","forced_short","","4","complex_dissimilar","images/stimuli/spore_stims/complex_13_A_b.gif","","","","",""
"","null","html-keyboard-response","55","499857","0.0-17.0-0.1","SS1619739432069","","","null","","","","","","<p><img src= images/blank.png width =""600"" height = ""600"" style=""position:fixed;top:50%; left:50%; transform: translate(-50%, -50%); border:5px solid black"">","","","","","","","",""
"","10748.160000017378","sequential-stimulus-presentation-old","56","511115","0.0-17.0-1.1","SS1619739432069","trial","","40","500","11248.160000017378","images/stimuli/spore_stims/complex_20_A_a.gif","images/stimuli/spore_stims/complex_13_A_b.gif","forced_short","","4","complex_dissimilar","images/stimuli/spore_stims/complex_20_A_a.gif","","","","",""
"","null","html-keyboard-response","57","512217","0.0-17.0-0.2","SS1619739432069","","","null","","","","","","<p><img src= images/blank.png width =""600"" height = ""600"" style=""position:fixed;top:50%; left:50%; transform: translate(-50%, -50%); border:5px solid black"">","","","","","","","",""
"","7015.094999980647","sequential-stimulus-presentation-old","58","519742","0.0-17.0-1.2","SS1619739432069","trial","","40","500","7515.094999980647","images/stimuli/spore_stims/complex_20_A_a.gif","images/stimuli/spore_stims/complex_13_A_b.gif","forced_short","","4","complex_dissimilar","images/stimuli/spore_stims/complex_20_A_a.gif","","","","",""
"","null","html-keyboard-response","59","520757","0.0-17.0-0.3","SS1619739432069","","","null","","","","","","<p><img src= images/blank.png width =""600"" height = ""600"" style=""position:fixed;top:50%; left:50%; transform: translate(-50%, -50%); border:5px solid black"">","","","","","","","",""
"","12901.784999994561","sequential-stimulus-presentation-old","60","534166","0.0-17.0-1.3","SS1619739432069","trial","","40","500","13401.784999994561","images/stimuli/spore_stims/complex_20_A_a.gif","images/stimuli/spore_stims/complex_13_A_b.gif","forced_short","","4","complex_dissimilar","images/stimuli/spore_stims/complex_13_A_b.gif","","","","",""
"","null","html-keyboard-response","61","535367","0.0-17.0-0.4","SS1619739432069","","","null","","","","","","<p><img src= images/blank.png width =""600"" height = ""600"" style=""position:fixed;top:50%; left:50%; transform: translate(-50%, -50%); border:5px solid black"">","","","","","","","",""
"","7284.059999976307","sequential-stimulus-presentation-old","62","543160","0.0-17.0-1.4","SS1619739432069","trial","","40","500","7784.059999976307","images/stimuli/spore_stims/complex_20_A_a.gif","images/stimuli/spore_stims/complex_13_A_b.gif","forced_short","","4","complex_dissimilar","images/stimuli/spore_stims/complex_13_A_b.gif","","","","",""
"","null","html-keyboard-response","63","544047","0.0-17.0-0.5","SS1619739432069","","","null","","","","","","<p><img src= images/blank.png width =""600"" height = ""600"" style=""position:fixed;top:50%; left:50%; transform: translate(-50%, -50%); border:5px solid black"">","","","","","","","",""
"","6348.08000002522","sequential-stimulus-presentation-old","64","550915","0.0-17.0-1.5","SS1619739432069","trial","","40","500","6848.08000002522","images/stimuli/spore_stims/complex_20_A_a.gif","images/stimuli/spore_stims/complex_13_A_b.gif","forced_short","","4","complex_dissimilar","images/stimuli/spore_stims/complex_13_A_b.gif","","","","",""
"","5858.859999978449","survey-multi-choice","65","556779","0.0-18.0","SS1619739432069","math_question","","","","","","","","","","","","{""Q0"":""18""}","[0]","18","",""
"","null","html-keyboard-response","66","557956","0.0-19.0-0.0","SS1619739432069","","","null","","","","","","<p><img src= images/blank.png width =""600"" height = ""600"" style=""position:fixed;top:50%; left:50%; transform: translate(-50%, -50%); border:5px solid black"">","","","","","","","",""
"","12724.745000014082","sequential-stimulus-presentation-old","67","571191","0.0-19.0-1.0","SS1619739432069","trial","","40","500","13224.745000014082","images/stimuli/spore_stims/complex_11_A_a.gif","images/stimuli/spore_stims/complex_12_A_b.gif","self_paced","","5","complex_dissimilar","images/stimuli/spore_stims/complex_12_A_b.gif","","","","",""
"","null","html-keyboard-response","68","572286","0.0-19.0-0.1","SS1619739432069","","","null","","","","","","<p><img src= images/blank.png width =""600"" height = ""600"" style=""position:fixed;top:50%; left:50%; transform: translate(-50%, -50%); border:5px solid black"">","","","","","","","",""
"","9792.359999963082","sequential-stimulus-presentation-old","69","582599","0.0-19.0-1.1","SS1619739432069","trial","","40","500","10292.359999963082","images/stimuli/spore_stims/complex_11_A_a.gif","images/stimuli/spore_stims/complex_12_A_b.gif","self_paced","","5","complex_dissimilar","images/stimuli/spore_stims/complex_11_A_a.gif","","","","",""
"","null","html-keyboard-response","70","583886","0.0-19.0-0.2","SS1619739432069","","","null","","","","","","<p><img src= images/blank.png width =""600"" height = ""600"" style=""position:fixed;top:50%; left:50%; transform: translate(-50%, -50%); border:5px solid black"">","","","","","","","",""
"","6259.840000013355","sequential-stimulus-presentation-old","71","590657","0.0-19.0-1.2","SS1619739432069","trial","","40","500","6759.840000013355","images/stimuli/spore_stims/complex_11_A_a.gif","images/stimuli/spore_stims/complex_12_A_b.gif","self_paced","","5","complex_dissimilar","images/stimuli/spore_stims/complex_12_A_b.gif","","","","",""
"","null","html-keyboard-response","72","591807","0.0-19.0-0.3","SS1619739432069","","","null","","","","","","<p><img src= images/blank.png width =""600"" height = ""600"" style=""position:fixed;top:50%; left:50%; transform: translate(-50%, -50%); border:5px solid black"">","","","","","","","",""
"","5226.14500002237","sequential-stimulus-presentation-old","73","597543","0.0-19.0-1.3","SS1619739432069","trial","","40","500","5726.14500002237","images/stimuli/spore_stims/complex_11_A_a.gif","images/stimuli/spore_stims/complex_12_A_b.gif","self_paced","","5","complex_dissimilar","images/stimuli/spore_stims/complex_11_A_a.gif","","","","",""
"","null","html-keyboard-response","74","598647","0.0-19.0-0.4","SS1619739432069","","","null","","","","","","<p><img src= images/blank.png width =""600"" height = ""600"" style=""position:fixed;top:50%; left:50%; transform: translate(-50%, -50%); border:5px solid black"">","","","","","","","",""
"","6793.06999995606","sequential-stimulus-presentation-old","75","605949","0.0-19.0-1.4","SS1619739432069","trial","","40","500","7293.06999995606","images/stimuli/spore_stims/complex_11_A_a.gif","images/stimuli/spore_stims/complex_12_A_b.gif","self_paced","","5","complex_dissimilar","images/stimuli/spore_stims/complex_12_A_b.gif","","","","",""
"","null","html-keyboard-response","76","607016","0.0-19.0-0.5","SS1619739432069","","","null","","","","","","<p><img src= images/blank.png width =""600"" height = ""600"" style=""position:fixed;top:50%; left:50%; transform: translate(-50%, -50%); border:5px solid black"">","","","","","","","",""
"","6979.895000054967","sequential-stimulus-presentation-old","77","614506","0.0-19.0-1.5","SS1619739432069","trial","","40","500","7479.895000054967","images/stimuli/spore_stims/complex_11_A_a.gif","images/stimuli/spore_stims/complex_12_A_b.gif","self_paced","","5","complex_dissimilar","images/stimuli/spore_stims/complex_12_A_b.gif","","","","",""
"","2627.299999992829","survey-multi-choice","78","617137","0.0-20.0","SS1619739432069","math_question","","","","","","","","","","","","{""Q0"":""11""}","[0]","11","",""
"","null","html-keyboard-response","79","618056","0.0-21.0-0.0","SS1619739432069","","","null","","","","","","<p><img src= images/blank.png width =""600"" height = ""600"" style=""position:fixed;top:50%; left:50%; transform: translate(-50%, -50%); border:5px solid black"">","","","","","","","",""
"","798.175000003539","sequential-stimulus-presentation-old","80","619365","0.0-21.0-1.0","SS1619739432069","trial","","40","500","1298.175000003539","images/stimuli/spore_stims/simple_06_A_a.gif","images/stimuli/spore_stims/simple_12_A_b.gif","forced_short","","6","simple_dissimilar","images/stimuli/spore_stims/simple_12_A_b.gif","","","","",""
"","null","html-keyboard-response","81","620216","0.0-21.0-0.1","SS1619739432069","","","null","","","","","","<p><img src= images/blank.png width =""600"" height = ""600"" style=""position:fixed;top:50%; left:50%; transform: translate(-50%, -50%); border:5px solid black"">","","","","","","","",""
"","6088.864999997895","sequential-stimulus-presentation-old","82","626815","0.0-21.0-1.1","SS1619739432069","trial","","40","500","6588.864999997895","images/stimuli/spore_stims/simple_06_A_a.gif","images/stimuli/spore_stims/simple_12_A_b.gif","forced_short","","6","simple_dissimilar","images/stimuli/spore_stims/simple_12_A_b.gif","","","","",""
"","null","html-keyboard-response","83","628086","0.0-21.0-0.2","SS1619739432069","","","null","","","","","","<p><img src= images/blank.png width =""600"" height = ""600"" style=""position:fixed;top:50%; left:50%; transform: translate(-50%, -50%); border:5px solid black"">","","","","","","","",""
"","9025.599999993574","sequential-stimulus-presentation-old","84","637622","0.0-21.0-1.2","SS1619739432069","trial","","40","500","9525.599999993574","images/stimuli/spore_stims/simple_06_A_a.gif","images/stimuli/spore_stims/simple_12_A_b.gif","forced_short","","6","simple_dissimilar","images/stimuli/spore_stims/simple_12_A_b.gif","","","","",""
"","null","html-keyboard-response","85","638796","0.0-21.0-0.3","SS1619739432069","","","null","","","","","","<p><img src= images/blank.png width =""600"" height = ""600"" style=""position:fixed;top:50%; left:50%; transform: translate(-50%, -50%); border:5px solid black"">","","","","","","","",""
"","8291.930000006687","sequential-stimulus-presentation-old","86","647598","0.0-21.0-1.3","SS1619739432069","trial","","40","500","8791.930000006687","images/stimuli/spore_stims/simple_06_A_a.gif","images/stimuli/spore_stims/simple_12_A_b.gif","forced_short","","6","simple_dissimilar","images/stimuli/spore_stims/simple_12_A_b.gif","","","","",""
"","null","html-keyboard-response","87","648702","0.0-21.0-0.4","SS1619739432069","","","null","","","","","","<p><img src= images/blank.png width =""600"" height = ""600"" style=""position:fixed;top:50%; left:50%; transform: translate(-50%, -50%); border:5px solid black"">","","","","","","","",""
"","6019.725000020117","sequential-stimulus-presentation-old","88","655236","0.0-21.0-1.4","SS1619739432069","trial","","40","500","6519.725000020117","images/stimuli/spore_stims/simple_06_A_a.gif","images/stimuli/spore_stims/simple_12_A_b.gif","forced_short","","6","simple_dissimilar","images/stimuli/spore_stims/simple_12_A_b.gif","","","","",""
"","null","html-keyboard-response","89","656236","0.0-21.0-0.5","SS1619739432069","","","null","","","","","","<p><img src= images/blank.png width =""600"" height = ""600"" style=""position:fixed;top:50%; left:50%; transform: translate(-50%, -50%); border:5px solid black"">","","","","","","","",""
"","5924.9999999883585","sequential-stimulus-presentation-old","90","662682","0.0-21.0-1.5","SS1619739432069","trial","","40","500","6424.9999999883585","images/stimuli/spore_stims/simple_06_A_a.gif","images/stimuli/spore_stims/simple_12_A_b.gif","forced_short","","6","simple_dissimilar","images/stimuli/spore_stims/simple_12_A_b.gif","","","","",""
"","3530.4449999821372","survey-multi-choice","91","666222","0.0-22.0","SS1619739432069","math_question","","","","","","","","","","","","{""Q0"":""14""}","[0]","14","",""
"","null","html-keyboard-response","92","667480","0.0-23.0-0.0","SS1619739432069","","","null","","","","","","<p><img src= images/blank.png width =""600"" height = ""600"" style=""position:fixed;top:50%; left:50%; transform: translate(-50%, -50%); border:5px solid black"">","","","","","","","",""
"","343.61499996157363","sequential-stimulus-presentation-old","93","682833","0.0-23.0-1.0","SS1619739432069","trial","","40","500","843.6149999615736","images/stimuli/spore_stims/simple_03_A_a.gif","images/stimuli/spore_stims/simple_06_A_b.gif","forced_long","","7","simple_dissimilar","images/stimuli/spore_stims/simple_06_A_b.gif","","","","",""
"","null","html-keyboard-response","94","683660","0.0-23.0-0.1","SS1619739432069","","","null","","","","","","<p><img src= images/blank.png width =""600"" height = ""600"" style=""position:fixed;top:50%; left:50%; transform: translate(-50%, -50%); border:5px solid black"">","","","","","","","",""
"","7376.734999998007","sequential-stimulus-presentation-old","95","691547","0.0-23.0-1.1","SS1619739432069","trial","","40","500","7876.734999998007","images/stimuli/spore_stims/simple_03_A_a.gif","images/stimuli/spore_stims/simple_06_A_b.gif","forced_long","","7","simple_dissimilar","images/stimuli/spore_stims/simple_06_A_b.gif","","","","",""
"","null","html-keyboard-response","96","692490","0.0-23.0-0.2","SS1619739432069","","","null","","","","","","<p><img src= images/blank.png width =""600"" height = ""600"" style=""position:fixed;top:50%; left:50%; transform: translate(-50%, -50%); border:5px solid black"">","","","","","","","",""
"","6841.270000033546","sequential-stimulus-presentation-old","97","699841","0.0-23.0-1.2","SS1619739432069","trial","","40","500","7341.270000033546","images/stimuli/spore_stims/simple_03_A_a.gif","images/stimuli/spore_stims/simple_06_A_b.gif","forced_long","","7","simple_dissimilar","images/stimuli/spore_stims/simple_06_A_b.gif","","","","",""
"","null","html-keyboard-response","98","700820","0.0-23.0-0.3","SS1619739432069","","","null","","","","","","<p><img src= images/blank.png width =""600"" height = ""600"" style=""position:fixed;top:50%; left:50%; transform: translate(-50%, -50%); border:5px solid black"">","","","","","","","",""
"","7022.500000020955","sequential-stimulus-presentation-old","99","708352","0.0-23.0-1.3","SS1619739432069","trial","","40","500","7522.500000020955","images/stimuli/spore_stims/simple_03_A_a.gif","images/stimuli/spore_stims/simple_06_A_b.gif","forced_long","","7","simple_dissimilar","images/stimuli/spore_stims/simple_03_A_a.gif","","","","",""
"","null","html-keyboard-response","100","709390","0.0-23.0-0.4","SS1619739432069","","","null","","","","","","<p><img src= images/blank.png width =""600"" height = ""600"" style=""position:fixed;top:50%; left:50%; transform: translate(-50%, -50%); border:5px solid black"">","","","","","","","",""
"","8046.960000006948","sequential-stimulus-presentation-old","101","717957","0.0-23.0-1.4","SS1619739432069","trial","","40","500","8546.960000006948","images/stimuli/spore_stims/simple_03_A_a.gif","images/stimuli/spore_stims/simple_06_A_b.gif","forced_long","","7","simple_dissimilar","images/stimuli/spore_stims/simple_03_A_a.gif","","","","",""
"","2740.1650000247173","survey-multi-choice","102","720702","0.0-24.0","SS1619739432069","math_question","","","","","","","","","","","","{""Q0"":""7""}","[0]","7","",""
"","null","html-keyboard-response","103","721730","0.0-25.0-0.0","SS1619739432069","","","null","","","","","","<p><img src= images/blank.png width =""600"" height = ""600"" style=""position:fixed;top:50%; left:50%; transform: translate(-50%, -50%); border:5px solid black"">","","","","","","","",""
"","2820.845000038389","sequential-stimulus-presentation-old","104","739561","0.0-25.0-1.0","SS1619739432069","trial","","40","500","3320.845000038389","images/stimuli/spore_stims/complex_19_A_a.gif","images/stimuli/spore_stims/complex_16_A_b.gif","forced_long","","8","complex_dissimilar","images/stimuli/spore_stims/complex_16_A_b.gif","","","","",""
"","null","html-keyboard-response","105","740409","0.0-25.0-0.1","SS1619739432069","","","null","","","","","","<p><img src= images/blank.png width =""600"" height = ""600"" style=""position:fixed;top:50%; left:50%; transform: translate(-50%, -50%); border:5px solid black"">","","","","","","","",""
"","7914.82000000542","sequential-stimulus-presentation-old","106","748845","0.0-25.0-1.1","SS1619739432069","trial","","40","500","8414.82000000542","images/stimuli/spore_stims/complex_19_A_a.gif","images/stimuli/spore_stims/complex_16_A_b.gif","forced_long","","8","complex_dissimilar","images/stimuli/spore_stims/complex_16_A_b.gif","","","","",""
"","null","html-keyboard-response","107","749979","0.0-25.0-0.2","SS1619739432069","","","null","","","","","","<p><img src= images/blank.png width =""600"" height = ""600"" style=""position:fixed;top:50%; left:50%; transform: translate(-50%, -50%); border:5px solid black"">","","","","","","","",""
"","6464.240000001155","sequential-stimulus-presentation-old","108","756954","0.0-25.0-1.2","SS1619739432069","trial","","40","500","6964.240000001155","images/stimuli/spore_stims/complex_19_A_a.gif","images/stimuli/spore_stims/complex_16_A_b.gif","forced_long","","8","complex_dissimilar","images/stimuli/spore_stims/complex_19_A_a.gif","","","","",""
"","null","html-keyboard-response","109","757851","0.0-25.0-0.3","SS1619739432069","","","null","","","","","","<p><img src= images/blank.png width =""600"" height = ""600"" style=""position:fixed;top:50%; left:50%; transform: translate(-50%, -50%); border:5px solid black"">","","","","","","","",""
"","6324.849999975413","sequential-stimulus-presentation-old","110","764685","0.0-25.0-1.3","SS1619739432069","trial","","40","500","6824.849999975413","images/stimuli/spore_stims/complex_19_A_a.gif","images/stimuli/spore_stims/complex_16_A_b.gif","forced_long","","8","complex_dissimilar","images/stimuli/spore_stims/complex_19_A_a.gif","","","","",""
"","3323.839999968186","survey-multi-choice","111","768014","0.0-26.0","SS1619739432069","math_question","","","","","","","","","","","","{""Q0"":""11""}","[0]","11","",""
"","null","html-keyboard-response","112","769300","0.0-27.0-0.0","SS1619739432069","","","null","","","","","","<p><img src= images/blank.png width =""600"" height = ""600"" style=""position:fixed;top:50%; left:50%; transform: translate(-50%, -50%); border:5px solid black"">","","","","","","","",""
"","877.4700000067241","sequential-stimulus-presentation-old","113","770688","0.0-27.0-1.0","SS1619739432069","trial","","40","500","1377.4700000067241","images/stimuli/spore_stims/complex_15_A_b.gif","images/stimuli/spore_stims/complex_16_A_a.gif","forced_short","","9","complex_dissimilar","images/stimuli/spore_stims/complex_16_A_a.gif","","","","",""
"","null","html-keyboard-response","114","771760","0.0-27.0-0.1","SS1619739432069","","","null","","","","","","<p><img src= images/blank.png width =""600"" height = ""600"" style=""position:fixed;top:50%; left:50%; transform: translate(-50%, -50%); border:5px solid black"">","","","","","","","",""
"","5589.429999992717","sequential-stimulus-presentation-old","115","777859","0.0-27.0-1.1","SS1619739432069","trial","","40","500","6089.429999992717","images/stimuli/spore_stims/complex_15_A_b.gif","images/stimuli/spore_stims/complex_16_A_a.gif","forced_short","","9","complex_dissimilar","images/stimuli/spore_stims/complex_16_A_a.gif","","","","",""
"","null","html-keyboard-response","116","779020","0.0-27.0-0.2","SS1619739432069","","","null","","","","","","<p><img src= images/blank.png width =""600"" height = ""600"" style=""position:fixed;top:50%; left:50%; transform: translate(-50%, -50%); border:5px solid black"">","","","","","","","",""
"","6617.7199999801815","sequential-stimulus-presentation-old","117","786147","0.0-27.0-1.2","SS1619739432069","trial","","40","500","7117.7199999801815","images/stimuli/spore_stims/complex_15_A_b.gif","images/stimuli/spore_stims/complex_16_A_a.gif","forced_short","","9","complex_dissimilar","images/stimuli/spore_stims/complex_16_A_a.gif","","","","",""
"","null","html-keyboard-response","118","787080","0.0-27.0-0.3","SS1619739432069","","","null","","","","","","<p><img src= images/blank.png width =""600"" height = ""600"" style=""position:fixed;top:50%; left:50%; transform: translate(-50%, -50%); border:5px solid black"">","","","","","","","",""
"","8370.579999987967","sequential-stimulus-presentation-old","119","795959","0.0-27.0-1.3","SS1619739432069","trial","","40","500","8870.579999987967","images/stimuli/spore_stims/complex_15_A_b.gif","images/stimuli/spore_stims/complex_16_A_a.gif","forced_short","","9","complex_dissimilar","images/stimuli/spore_stims/complex_15_A_b.gif","","","","",""
"","null","html-keyboard-response","120","796859","0.0-27.0-0.4","SS1619739432069","","","null","","","","","","<p><img src= images/blank.png width =""600"" height = ""600"" style=""position:fixed;top:50%; left:50%; transform: translate(-50%, -50%); border:5px solid black"">","","","","","","","",""
"","6766.895000007935","sequential-stimulus-presentation-old","121","804146","0.0-27.0-1.4","SS1619739432069","trial","","40","500","7266.895000007935","images/stimuli/spore_stims/complex_15_A_b.gif","images/stimuli/spore_stims/complex_16_A_a.gif","forced_short","","9","complex_dissimilar","images/stimuli/spore_stims/complex_15_A_b.gif","","","","",""
"","null","html-keyboard-response","122","805188","0.0-27.0-0.5","SS1619739432069","","","null","","","","","","<p><img src= images/blank.png width =""600"" height = ""600"" style=""position:fixed;top:50%; left:50%; transform: translate(-50%, -50%); border:5px solid black"">","","","","","","","",""
"","7271.345000015572","sequential-stimulus-presentation-old","123","812970","0.0-27.0-1.5","SS1619739432069","trial","","40","500","7771.345000015572","images/stimuli/spore_stims/complex_15_A_b.gif","images/stimuli/spore_stims/complex_16_A_a.gif","forced_short","","9","complex_dissimilar","images/stimuli/spore_stims/complex_16_A_a.gif","","","","",""
"","2444.314999971539","survey-multi-choice","124","815421","0.0-28.0","SS1619739432069","math_question","","","","","","","","","","","","{""Q0"":""10""}","[0]","10","",""
"","null","html-keyboard-response","125","816399","0.0-29.0-0.0","SS1619739432069","","","null","","","","","","<p><img src= images/blank.png width =""600"" height = ""600"" style=""position:fixed;top:50%; left:50%; transform: translate(-50%, -50%); border:5px solid black"">","","","","","","","",""
"","1477.794999955222","sequential-stimulus-presentation-old","126","832885","0.0-29.0-1.0","SS1619739432069","trial","","40","500","1977.794999955222","images/stimuli/spore_stims/complex_17_A_a.gif","images/stimuli/spore_stims/complex_11_A_b.gif","forced_long","","10","complex_dissimilar","images/stimuli/spore_stims/complex_11_A_b.gif","","","","",""
"","null","html-keyboard-response","127","833709","0.0-29.0-0.1","SS1619739432069","","","null","","","","","","<p><img src= images/blank.png width =""600"" height = ""600"" style=""position:fixed;top:50%; left:50%; transform: translate(-50%, -50%); border:5px solid black"">","","","","","","","",""
"","11066.295000026003","sequential-stimulus-presentation-old","128","845285","0.0-29.0-1.1","SS1619739432069","trial","","40","500","11566.295000026003","images/stimuli/spore_stims/complex_17_A_a.gif","images/stimuli/spore_stims/complex_11_A_b.gif","forced_long","","10","complex_dissimilar","images/stimuli/spore_stims/complex_17_A_a.gif","","","","",""
"","null","html-keyboard-response","129","846429","0.0-29.0-0.2","SS1619739432069","","","null","","","","","","<p><img src= images/blank.png width =""600"" height = ""600"" style=""position:fixed;top:50%; left:50%; transform: translate(-50%, -50%); border:5px solid black"">","","","","","","","",""
"","6252.864999987651","sequential-stimulus-presentation-old","130","853189","0.0-29.0-1.2","SS1619739432069","trial","","40","500","6752.864999987651","images/stimuli/spore_stims/complex_17_A_a.gif","images/stimuli/spore_stims/complex_11_A_b.gif","forced_long","","10","complex_dissimilar","images/stimuli/spore_stims/complex_11_A_b.gif","","","","",""
"","null","html-keyboard-response","131","854437","0.0-29.0-0.3","SS1619739432069","","","null","","","","","","<p><img src= images/blank.png width =""600"" height = ""600"" style=""position:fixed;top:50%; left:50%; transform: translate(-50%, -50%); border:5px solid black"">","","","","","","","",""
"","5308.539999998175","sequential-stimulus-presentation-old","132","860255","0.0-29.0-1.3","SS1619739432069","trial","","40","500","5808.539999998175","images/stimuli/spore_stims/complex_17_A_a.gif","images/stimuli/spore_stims/complex_11_A_b.gif","forced_long","","10","complex_dissimilar","images/stimuli/spore_stims/complex_11_A_b.gif","","","","",""
"","null","html-keyboard-response","133","861186","0.0-29.0-0.4","SS1619739432069","","","null","","","","","","<p><img src= images/blank.png width =""600"" height = ""600"" style=""position:fixed;top:50%; left:50%; transform: translate(-50%, -50%); border:5px solid black"">","","","","","","","",""
"","7729.899999976624","sequential-stimulus-presentation-old","134","869427","0.0-29.0-1.4","SS1619739432069","trial","","40","500","8229.899999976624","images/stimuli/spore_stims/complex_17_A_a.gif","images/stimuli/spore_stims/complex_11_A_b.gif","forced_long","","10","complex_dissimilar","images/stimuli/spore_stims/complex_11_A_b.gif","","","","",""
"","null","html-keyboard-response","135","870557","0.0-29.0-0.5","SS1619739432069","","","null","","","","","","<p><img src= images/blank.png width =""600"" height = ""600"" style=""position:fixed;top:50%; left:50%; transform: translate(-50%, -50%); border:5px solid black"">","","","","","","","",""
"","4271.234999992885","sequential-stimulus-presentation-old","136","875338","0.0-29.0-1.5","SS1619739432069","trial","","40","500","4771.234999992885","images/stimuli/spore_stims/complex_17_A_a.gif","images/stimuli/spore_stims/complex_11_A_b.gif","forced_long","","10","complex_dissimilar","images/stimuli/spore_stims/complex_11_A_b.gif","","","","",""
"","2371.1550000007264","survey-multi-choice","137","877715","0.0-30.0","SS1619739432069","math_question","","","","","","","","","","","","{""Q0"":""8""}","[0]","8","",""
"","null","html-keyboard-response","138","878627","0.0-31.0-0.0","SS1619739432069","","","null","","","","","","<p><img src= images/blank.png width =""600"" height = ""600"" style=""position:fixed;top:50%; left:50%; transform: translate(-50%, -50%); border:5px solid black"">","","","","","","","",""
"","526.4600000227802","sequential-stimulus-presentation-old","139","879663","0.0-31.0-1.0","SS1619739432069","trial","","40","500","1026.4600000227802","images/stimuli/spore_stims/simple_01_A_b.gif","images/stimuli/spore_stims/simple_10_A_a.gif","forced_short","","11","simple_dissimilar","images/stimuli/spore_stims/simple_10_A_a.gif","","","","",""
"","null","html-keyboard-response","140","880926","0.0-31.0-0.1","SS1619739432069","","","null","","","","","","<p><img src= images/blank.png width =""600"" height = ""600"" style=""position:fixed;top:50%; left:50%; transform: translate(-50%, -50%); border:5px solid black"">","","","","","","","",""
"","4426.20500002522","sequential-stimulus-presentation-old","141","885862","0.0-31.0-1.1","SS1619739432069","trial","","40","500","4926.20500002522","images/stimuli/spore_stims/simple_01_A_b.gif","images/stimuli/spore_stims/simple_10_A_a.gif","forced_short","","11","simple_dissimilar","images/stimuli/spore_stims/simple_10_A_a.gif","","","","",""
"","null","html-keyboard-response","142","886937","0.0-31.0-0.2","SS1619739432069","","","null","","","","","","<p><img src= images/blank.png width =""600"" height = ""600"" style=""position:fixed;top:50%; left:50%; transform: translate(-50%, -50%); border:5px solid black"">","","","","","","","",""
"","5960.560000035912","sequential-stimulus-presentation-old","143","893417","0.0-31.0-1.2","SS1619739432069","trial","","40","500","6460.560000035912","images/stimuli/spore_stims/simple_01_A_b.gif","images/stimuli/spore_stims/simple_10_A_a.gif","forced_short","","11","simple_dissimilar","images/stimuli/spore_stims/simple_10_A_a.gif","","","","",""
"","null","html-keyboard-response","144","894267","0.0-31.0-0.3","SS1619739432069","","","null","","","","","","<p><img src= images/blank.png width =""600"" height = ""600"" style=""position:fixed;top:50%; left:50%; transform: translate(-50%, -50%); border:5px solid black"">","","","","","","","",""
"","6614.33000001125","sequential-stimulus-presentation-old","145","901391","0.0-31.0-1.3","SS1619739432069","trial","","40","500","7114.33000001125","images/stimuli/spore_stims/simple_01_A_b.gif","images/stimuli/spore_stims/simple_10_A_a.gif","forced_short","","11","simple_dissimilar","images/stimuli/spore_stims/simple_10_A_a.gif","","","","",""
"","null","html-keyboard-response","146","902366","0.0-31.0-0.4","SS1619739432069","","","null","","","","","","<p><img src= images/blank.png width =""600"" height = ""600"" style=""position:fixed;top:50%; left:50%; transform: translate(-50%, -50%); border:5px solid black"">","","","","","","","",""
"","6862.025000038557","sequential-stimulus-presentation-old","147","909738","0.0-31.0-1.4","SS1619739432069","trial","","40","500","7362.025000038557","images/stimuli/spore_stims/simple_01_A_b.gif","images/stimuli/spore_stims/simple_10_A_a.gif","forced_short","","11","simple_dissimilar","images/stimuli/spore_stims/simple_10_A_a.gif","","","","",""
"","null","html-keyboard-response","148","910926","0.0-31.0-0.5","SS1619739432069","","","null","","","","","","<p><img src= images/blank.png width =""600"" height = ""600"" style=""position:fixed;top:50%; left:50%; transform: translate(-50%, -50%); border:5px solid black"">","","","","","","","",""
"","6152.925000002142","sequential-stimulus-presentation-old","149","917593","0.0-31.0-1.5","SS1619739432069","trial","","40","500","6652.925000002142","images/stimuli/spore_stims/simple_01_A_b.gif","images/stimuli/spore_stims/simple_10_A_a.gif","forced_short","","11","simple_dissimilar","images/stimuli/spore_stims/simple_01_A_b.gif","","","","",""
"[{""page_index"":0,""viewing_time"":5254.524999996647}]","5255.004999984521","instructions","150","922854","0.0-32.0","SS1619739432069","instructions","","","","","","","","","","","","","","","",""
"","10255.300000018906","survey-likert","151","933118","0.0-33.0","SS1619739432069","similarity_question","","","","","","","","","","","","{""Q0"":4}","[0]","","images/stimuli/spore_stims/simple_06_A_a.gif","images/stimuli/spore_stims/simple_12_A_b.gif"
"","15397.364999982528","survey-likert","152","948527","0.0-34.0","SS1619739432069","similarity_question","","","","","","","","","","","","{""Q0"":0}","[0]","","images/stimuli/spore_stims/complex_16_A_a.gif","images/stimuli/spore_stims/complex_15_A_b.gif"
"","6685.255000018515","survey-likert","153","955229","0.0-35.0","SS1619739432069","similarity_question","","","","","","","","","","","","{""Q0"":2}","[0]","","images/stimuli/spore_stims/simple_12_A_a.gif","images/stimuli/spore_stims/simple_17_A_b.gif"
"","8673.520000011194","survey-likert","154","963911","0.0-36.0","SS1619739432069","similarity_question","","","","","","","","","","","","{""Q0"":1}","[0]","","images/stimuli/spore_stims/complex_05_A_b.gif","images/stimuli/spore_stims/complex_10_A_a.gif"
"","17134.774999984074","survey-likert","155","981058","0.0-37.0","SS1619739432069","similarity_question","","","","","","","","","","","","{""Q0"":2}","[0]","","images/stimuli/spore_stims/simple_06_A_b.gif","images/stimuli/spore_stims/simple_03_A_a.gif"
"","5158.055000007153","survey-likert","156","986234","0.0-38.0","SS1619739432069","similarity_question","","","","","","","","","","","","{""Q0"":0}","[0]","","images/stimuli/spore_stims/complex_16_A_b.gif","images/stimuli/spore_stims/complex_19_A_a.gif"
"","5559.189999999944","survey-likert","157","991810","0.0-39.0","SS1619739432069","similarity_question","","","","","","","","","","","","{""Q0"":4}","[0]","","images/stimuli/spore_stims/simple_18_A_b.gif","images/stimuli/spore_stims/simple_07_A_a.gif"
"","7735.09999999078","survey-likert","158","999563","0.0-40.0","SS1619739432069","similarity_question","","","","","","","","","","","","{""Q0"":1}","[0]","","images/stimuli/spore_stims/complex_17_A_a.gif","images/stimuli/spore_stims/complex_11_A_b.gif"
"","4493.629999982659","survey-likert","159","1004074","0.0-41.0","SS1619739432069","similarity_question","","","","","","","","","","","","{""Q0"":2}","[0]","","images/stimuli/spore_stims/simple_01_A_b.gif","images/stimuli/spore_stims/simple_10_A_a.gif"
"","8119.730000034906","survey-likert","160","1012210","0.0-42.0","SS1619739432069","similarity_question","","","","","","","","","","","","{""Q0"":2}","[0]","","images/stimuli/spore_stims/complex_11_A_a.gif","images/stimuli/spore_stims/complex_12_A_b.gif"
"","9262.519999989308","survey-likert","161","1021490","0.0-43.0","SS1619739432069","similarity_question","","","","","","","","","","","","{""Q0"":1}","[0]","","images/stimuli/spore_stims/simple_13_A_a.gif","images/stimuli/spore_stims/simple_16_A_b.gif"
"","7436.820000002626","survey-likert","162","1028946","0.0-44.0","SS1619739432069","similarity_question","","","","","","","","","","","","{""Q0"":2}","[0]","","images/stimuli/spore_stims/complex_20_A_a.gif","images/stimuli/spore_stims/complex_13_A_b.gif"
"[{""page_index"":0,""viewing_time"":3687.3300000443123}]","3687.77499999851","instructions","163","1032649","0.0-45.0","SS1619739432069","instructions","","","","","","","","","","","","","","","",""
"","5256.534999993164","survey-likert","164","1037915","0.0-46.0","SS1619739432069","","","","","","","","","images/stimuli/spore_stims/simple_13_A_a.gif","","","","{""Q0"":0}","[0]","","",""
"","8590.205000014976","survey-likert","165","1046523","0.0-47.0","SS1619739432069","","","","","","","","","images/stimuli/spore_stims/complex_17_A_a.gif","","","","{""Q0"":4}","[0]","","",""
"","6965.355000051204","survey-likert","166","1053507","0.0-48.0","SS1619739432069","","","","","","","","","images/stimuli/spore_stims/simple_06_A_b.gif","","","","{""Q0"":1}","[0]","","",""
"","7238.370000035502","survey-likert","167","1060762","0.0-49.0","SS1619739432069","","","","","","","","","images/stimuli/spore_stims/simple_12_A_a.gif","","","","{""Q0"":2}","[0]","","",""
"","5868.819999974221","survey-likert","168","1066643","0.0-50.0","SS1619739432069","","","","","","","","","images/stimuli/spore_stims/complex_16_A_a.gif","","","","{""Q0"":5}","[0]","","",""
"","5302.505000028759","survey-likert","169","1071963","0.0-51.0","SS1619739432069","","","","","","","","","images/stimuli/spore_stims/simple_01_A_b.gif","","","","{""Q0"":1}","[0]","","",""
"","5606.375000032131","survey-likert","170","1077587","0.0-52.0","SS1619739432069","","","","","","","","","images/stimuli/spore_stims/simple_18_A_b.gif","","","","{""Q0"":0}","[0]","","",""
"","3862.81500000041","survey-likert","171","1081467","0.0-53.0","SS1619739432069","","","","","","","","","images/stimuli/spore_stims/complex_10_A_a.gif","","","","{""Q0"":6}","[0]","","",""
"","7382.639999967068","survey-likert","172","1088867","0.0-54.0","SS1619739432069","","","","","","","","","images/stimuli/spore_stims/complex_12_A_b.gif","","","","{""Q0"":4}","[0]","","",""
"","5014.18499997817","survey-likert","173","1093900","0.0-55.0","SS1619739432069","","","","","","","","","images/stimuli/spore_stims/complex_16_A_b.gif","","","","{""Q0"":4}","[0]","","",""
"","4316.955000045709","survey-likert","174","1098235","0.0-56.0","SS1619739432069","","","","","","","","","images/stimuli/spore_stims/simple_12_A_b.gif","","","","{""Q0"":0}","[0]","","",""
"","5688.235000008717","survey-likert","175","1103940","0.0-57.0","SS1619739432069","","","","","","","","","images/stimuli/spore_stims/complex_20_A_a.gif","","","","{""Q0"":5}","[0]","","",""
"[{""page_index"":0,""viewing_time"":1791.4299999829382}]","1791.8449999997392","instructions","176","1105747","0.0-58.0","SS1619739432069","instructions","","","","","","","","","","","","","","","",""
"","3305.594999983441","demog-age","177","1109060","0.0-59.0","SS1619739432069","","","","","","","","","","","","","{""age"":""19""}","","","",""
"","3507.2399999480695","demog-ethnic-US","178","1112579","0.0-60.0","SS1619739432069","","","","","","","","","","","","","{""ethnicity"":[""Hispanic or Latino""]}","[0]","","",""
"","4749.6899999678135","demog-gender-and-education","179","1117340","0.0-61.0","SS1619739432069","","","","","","","","","","","","","{""gender"":""Decline to Answer"",""education"":""High school diploma""}","[0,1]","","",""
"","169396.91500004847","survey-text","180","1286758","0.0-62.0","SS1619739432069","feedback","","","","","","","","","","","","{""Q0"":""I recognized the creatures from spore. It was one of my favorite games when I was a kid ""}","","","",""
"[{""page_index"":0,""viewing_time"":1592.5449999631383}]","1592.9749999777414","instructions","181","1288358","0.0-63.0","SS1619739432069","instructions","","","","","","","","","","","","","","","",""
