"view_history","rt","trial_type","trial_index","time_elapsed","internal_node_id","subject","stimulus_type","trial_stimulus","key_press","minimum_viewing_duration","trial_looking_time","block_deviant","block_background","exposure_type","stimulus","block_number","block_type","stimulus_displayed","responses","question_order","math_correct_answer","stimulus_left","stimulus_right"
"[{""page_index"":0,""viewing_time"":4130}]","4131","instructions","0","4131","0.0-0.0","SS1619739821314","","","","","","","","","","","","","","","","",""
"[{""page_index"":0,""viewing_time"":5741},{""page_index"":1,""viewing_time"":4459}]","10200","instructions","1","16338","0.0-1.0","SS1619739821314","instructions","","","","","","","","","","","","","","","",""
"","3244","sequential-stimulus-presentation-old","2","20085","0.0-2.0","SS1619739821314","","","40","500","3744","null","null","self_paced","","","","","","","","",""
"","2505","sequential-stimulus-presentation-old","3","23105","0.0-3.0","SS1619739821314","","","40","500","3005","null","null","self_paced","","","","","","","","",""
"[{""page_index"":0,""viewing_time"":28947}]","28947","instructions","4","52054","0.0-4.0","SS1619739821314","instructions","","","","","","","","","","","","","","","",""
"","610","sequential-stimulus-presentation-old","5","67675","0.0-5.0","SS1619739821314","","","40","500","1110","null","null","forced_long","","","","","","","","",""
"","958","sequential-stimulus-presentation-old","6","69140","0.0-6.0","SS1619739821314","","","40","500","1458","null","null","forced_long","","","","","","","","",""
"[{""page_index"":0,""viewing_time"":5228}]","5228","instructions","7","74369","0.0-7.0","SS1619739821314","instructions","","","","","","","","","","","","","","","",""
"[{""page_index"":0,""viewing_time"":7313},{""page_index"":1,""viewing_time"":9357},{""page_index"":2,""viewing_time"":5208},{""page_index"":3,""viewing_time"":1381},{""page_index"":4,""viewing_time"":1042}]","24301","instructions","8","98671","0.0-8.0","SS1619739821314","instructions","","","","","","","","","","","","","","","",""
"","null","html-keyboard-response","9","99665","0.0-9.0-0.0","SS1619739821314","","","null","","","","","","<p><img src= images/blank.png width =""600"" height = ""600"" style=""position:fixed;top:50%; left:50%; transform: translate(-50%, -50%); border:5px solid black"">","","","","","","","",""
"","2346","sequential-stimulus-presentation-old","10","102522","0.0-9.0-1.0","SS1619739821314","trial","","40","500","2846","images/stimuli/spore_stims/complex_18_A_a.gif","images/stimuli/spore_stims/complex_07_A_b.gif","forced_short","","0","complex_dissimilar","images/stimuli/spore_stims/complex_07_A_b.gif","","","","",""
"","null","html-keyboard-response","11","103466","0.0-9.0-0.1","SS1619739821314","","","null","","","","","","<p><img src= images/blank.png width =""600"" height = ""600"" style=""position:fixed;top:50%; left:50%; transform: translate(-50%, -50%); border:5px solid black"">","","","","","","","",""
"","8173","sequential-stimulus-presentation-old","12","112152","0.0-9.0-1.1","SS1619739821314","trial","","40","500","8673","images/stimuli/spore_stims/complex_18_A_a.gif","images/stimuli/spore_stims/complex_07_A_b.gif","forced_short","","0","complex_dissimilar","images/stimuli/spore_stims/complex_07_A_b.gif","","","","",""
"","null","html-keyboard-response","13","113424","0.0-9.0-0.2","SS1619739821314","","","null","","","","","","<p><img src= images/blank.png width =""600"" height = ""600"" style=""position:fixed;top:50%; left:50%; transform: translate(-50%, -50%); border:5px solid black"">","","","","","","","",""
"","11348","sequential-stimulus-presentation-old","14","125283","0.0-9.0-1.2","SS1619739821314","trial","","40","500","11848","images/stimuli/spore_stims/complex_18_A_a.gif","images/stimuli/spore_stims/complex_07_A_b.gif","forced_short","","0","complex_dissimilar","images/stimuli/spore_stims/complex_07_A_b.gif","","","","",""
"","null","html-keyboard-response","15","126117","0.0-9.0-0.3","SS1619739821314","","","null","","","","","","<p><img src= images/blank.png width =""600"" height = ""600"" style=""position:fixed;top:50%; left:50%; transform: translate(-50%, -50%); border:5px solid black"">","","","","","","","",""
"","11681","sequential-stimulus-presentation-old","16","138312","0.0-9.0-1.3","SS1619739821314","trial","","40","500","12181","images/stimuli/spore_stims/complex_18_A_a.gif","images/stimuli/spore_stims/complex_07_A_b.gif","forced_short","","0","complex_dissimilar","images/stimuli/spore_stims/complex_07_A_b.gif","","","","",""
"","null","html-keyboard-response","17","139544","0.0-9.0-0.4","SS1619739821314","","","null","","","","","","<p><img src= images/blank.png width =""600"" height = ""600"" style=""position:fixed;top:50%; left:50%; transform: translate(-50%, -50%); border:5px solid black"">","","","","","","","",""
"","753","sequential-stimulus-presentation-old","18","140798","0.0-9.0-1.4","SS1619739821314","trial","","40","500","1253","images/stimuli/spore_stims/complex_18_A_a.gif","images/stimuli/spore_stims/complex_07_A_b.gif","forced_short","","0","complex_dissimilar","images/stimuli/spore_stims/complex_18_A_a.gif","","","","",""
"","4421","survey-multi-choice","19","145221","0.0-10.0","SS1619739821314","math_question","","","","","","","","","","","","{""Q0"":""12""}","[0]","12","",""
"","null","html-keyboard-response","20","146296","0.0-11.0-0.0","SS1619739821314","","","null","","","","","","<p><img src= images/blank.png width =""600"" height = ""600"" style=""position:fixed;top:50%; left:50%; transform: translate(-50%, -50%); border:5px solid black"">","","","","","","","",""
"","443","sequential-stimulus-presentation-old","21","161753","0.0-11.0-1.0","SS1619739821314","trial","","40","500","943","images/stimuli/spore_stims/complex_05_A_a.gif","images/stimuli/spore_stims/complex_19_A_b.gif","forced_long","","1","complex_dissimilar","images/stimuli/spore_stims/complex_19_A_b.gif","","","","",""
"","null","html-keyboard-response","22","162627","0.0-11.0-0.1","SS1619739821314","","","null","","","","","","<p><img src= images/blank.png width =""600"" height = ""600"" style=""position:fixed;top:50%; left:50%; transform: translate(-50%, -50%); border:5px solid black"">","","","","","","","",""
"","244","sequential-stimulus-presentation-old","23","163378","0.0-11.0-1.1","SS1619739821314","trial","","40","500","744","images/stimuli/spore_stims/complex_05_A_a.gif","images/stimuli/spore_stims/complex_19_A_b.gif","forced_long","","1","complex_dissimilar","images/stimuli/spore_stims/complex_19_A_b.gif","","","","",""
"","null","html-keyboard-response","24","164501","0.0-11.0-0.2","SS1619739821314","","","null","","","","","","<p><img src= images/blank.png width =""600"" height = ""600"" style=""position:fixed;top:50%; left:50%; transform: translate(-50%, -50%); border:5px solid black"">","","","","","","","",""
"","425","sequential-stimulus-presentation-old","25","165429","0.0-11.0-1.2","SS1619739821314","trial","","40","500","925","images/stimuli/spore_stims/complex_05_A_a.gif","images/stimuli/spore_stims/complex_19_A_b.gif","forced_long","","1","complex_dissimilar","images/stimuli/spore_stims/complex_19_A_b.gif","","","","",""
"","null","html-keyboard-response","26","166472","0.0-11.0-0.3","SS1619739821314","","","null","","","","","","<p><img src= images/blank.png width =""600"" height = ""600"" style=""position:fixed;top:50%; left:50%; transform: translate(-50%, -50%); border:5px solid black"">","","","","","","","",""
"","196","sequential-stimulus-presentation-old","27","167179","0.0-11.0-1.3","SS1619739821314","trial","","40","500","696","images/stimuli/spore_stims/complex_05_A_a.gif","images/stimuli/spore_stims/complex_19_A_b.gif","forced_long","","1","complex_dissimilar","images/stimuli/spore_stims/complex_19_A_b.gif","","","","",""
"","null","html-keyboard-response","28","168167","0.0-11.0-0.4","SS1619739821314","","","null","","","","","","<p><img src= images/blank.png width =""600"" height = ""600"" style=""position:fixed;top:50%; left:50%; transform: translate(-50%, -50%); border:5px solid black"">","","","","","","","",""
"","661","sequential-stimulus-presentation-old","29","169344","0.0-11.0-1.4","SS1619739821314","trial","","40","500","1161","images/stimuli/spore_stims/complex_05_A_a.gif","images/stimuli/spore_stims/complex_19_A_b.gif","forced_long","","1","complex_dissimilar","images/stimuli/spore_stims/complex_05_A_a.gif","","","","",""
"","4478","survey-multi-choice","30","173823","0.0-12.0","SS1619739821314","math_question","","","","","","","","","","","","{""Q0"":""9""}","[0]","9","",""
"","null","html-keyboard-response","31","175126","0.0-13.0-0.0","SS1619739821314","","","null","","","","","","<p><img src= images/blank.png width =""600"" height = ""600"" style=""position:fixed;top:50%; left:50%; transform: translate(-50%, -50%); border:5px solid black"">","","","","","","","",""
"","784","sequential-stimulus-presentation-old","32","176424","0.0-13.0-1.0","SS1619739821314","trial","","40","500","1284","images/stimuli/spore_stims/simple_17_A_b.gif","images/stimuli/spore_stims/simple_07_A_a.gif","forced_short","","2","simple_dissimilar","images/stimuli/spore_stims/simple_07_A_a.gif","","","","",""
"","null","html-keyboard-response","33","177645","0.0-13.0-0.1","SS1619739821314","","","null","","","","","","<p><img src= images/blank.png width =""600"" height = ""600"" style=""position:fixed;top:50%; left:50%; transform: translate(-50%, -50%); border:5px solid black"">","","","","","","","",""
"","4208","sequential-stimulus-presentation-old","34","182365","0.0-13.0-1.1","SS1619739821314","trial","","40","500","4708","images/stimuli/spore_stims/simple_17_A_b.gif","images/stimuli/spore_stims/simple_07_A_a.gif","forced_short","","2","simple_dissimilar","images/stimuli/spore_stims/simple_07_A_a.gif","","","","",""
"","null","html-keyboard-response","35","183339","0.0-13.0-0.2","SS1619739821314","","","null","","","","","","<p><img src= images/blank.png width =""600"" height = ""600"" style=""position:fixed;top:50%; left:50%; transform: translate(-50%, -50%); border:5px solid black"">","","","","","","","",""
"","175","sequential-stimulus-presentation-old","36","184024","0.0-13.0-1.2","SS1619739821314","trial","","40","500","675","images/stimuli/spore_stims/simple_17_A_b.gif","images/stimuli/spore_stims/simple_07_A_a.gif","forced_short","","2","simple_dissimilar","images/stimuli/spore_stims/simple_07_A_a.gif","","","","",""
"","null","html-keyboard-response","37","184832","0.0-13.0-0.3","SS1619739821314","","","null","","","","","","<p><img src= images/blank.png width =""600"" height = ""600"" style=""position:fixed;top:50%; left:50%; transform: translate(-50%, -50%); border:5px solid black"">","","","","","","","",""
"","554","sequential-stimulus-presentation-old","38","185898","0.0-13.0-1.3","SS1619739821314","trial","","40","500","1054","images/stimuli/spore_stims/simple_17_A_b.gif","images/stimuli/spore_stims/simple_07_A_a.gif","forced_short","","2","simple_dissimilar","images/stimuli/spore_stims/simple_17_A_b.gif","","","","",""
"","null","html-keyboard-response","39","186902","0.0-13.0-0.4","SS1619739821314","","","null","","","","","","<p><img src= images/blank.png width =""600"" height = ""600"" style=""position:fixed;top:50%; left:50%; transform: translate(-50%, -50%); border:5px solid black"">","","","","","","","",""
"","115","sequential-stimulus-presentation-old","40","187518","0.0-13.0-1.4","SS1619739821314","trial","","40","500","615","images/stimuli/spore_stims/simple_17_A_b.gif","images/stimuli/spore_stims/simple_07_A_a.gif","forced_short","","2","simple_dissimilar","images/stimuli/spore_stims/simple_17_A_b.gif","","","","",""
"","2975","survey-multi-choice","41","190495","0.0-14.0","SS1619739821314","math_question","","","","","","","","","","","","{""Q0"":""4""}","[0]","4","",""
"","null","html-keyboard-response","42","191579","0.0-15.0-0.0","SS1619739821314","","","null","","","","","","<p><img src= images/blank.png width =""600"" height = ""600"" style=""position:fixed;top:50%; left:50%; transform: translate(-50%, -50%); border:5px solid black"">","","","","","","","",""
"","160","sequential-stimulus-presentation-old","43","192250","0.0-15.0-1.0","SS1619739821314","trial","","40","500","660","images/stimuli/spore_stims/simple_05_A_b.gif","images/stimuli/spore_stims/simple_10_A_a.gif","forced_short","","3","simple_dissimilar","images/stimuli/spore_stims/simple_10_A_a.gif","","","","",""
"","null","html-keyboard-response","44","193085","0.0-15.0-0.1","SS1619739821314","","","null","","","","","","<p><img src= images/blank.png width =""600"" height = ""600"" style=""position:fixed;top:50%; left:50%; transform: translate(-50%, -50%); border:5px solid black"">","","","","","","","",""
"","1195","sequential-stimulus-presentation-old","45","194790","0.0-15.0-1.1","SS1619739821314","trial","","40","500","1695","images/stimuli/spore_stims/simple_05_A_b.gif","images/stimuli/spore_stims/simple_10_A_a.gif","forced_short","","3","simple_dissimilar","images/stimuli/spore_stims/simple_10_A_a.gif","","","","",""
"","null","html-keyboard-response","46","195704","0.0-15.0-0.2","SS1619739821314","","","null","","","","","","<p><img src= images/blank.png width =""600"" height = ""600"" style=""position:fixed;top:50%; left:50%; transform: translate(-50%, -50%); border:5px solid black"">","","","","","","","",""
"","14","sequential-stimulus-presentation-old","47","196229","0.0-15.0-1.2","SS1619739821314","trial","","40","500","514","images/stimuli/spore_stims/simple_05_A_b.gif","images/stimuli/spore_stims/simple_10_A_a.gif","forced_short","","3","simple_dissimilar","images/stimuli/spore_stims/simple_10_A_a.gif","","","","",""
"","null","html-keyboard-response","48","197304","0.0-15.0-0.3","SS1619739821314","","","null","","","","","","<p><img src= images/blank.png width =""600"" height = ""600"" style=""position:fixed;top:50%; left:50%; transform: translate(-50%, -50%); border:5px solid black"">","","","","","","","",""
"","18","sequential-stimulus-presentation-old","49","197834","0.0-15.0-1.3","SS1619739821314","trial","","40","500","518","images/stimuli/spore_stims/simple_05_A_b.gif","images/stimuli/spore_stims/simple_10_A_a.gif","forced_short","","3","simple_dissimilar","images/stimuli/spore_stims/simple_10_A_a.gif","","","","",""
"","null","html-keyboard-response","50","198692","0.0-15.0-0.4","SS1619739821314","","","null","","","","","","<p><img src= images/blank.png width =""600"" height = ""600"" style=""position:fixed;top:50%; left:50%; transform: translate(-50%, -50%); border:5px solid black"">","","","","","","","",""
"","17","sequential-stimulus-presentation-old","51","199219","0.0-15.0-1.4","SS1619739821314","trial","","40","500","517","images/stimuli/spore_stims/simple_05_A_b.gif","images/stimuli/spore_stims/simple_10_A_a.gif","forced_short","","3","simple_dissimilar","images/stimuli/spore_stims/simple_10_A_a.gif","","","","",""
"","null","html-keyboard-response","52","200218","0.0-15.0-0.5","SS1619739821314","","","null","","","","","","<p><img src= images/blank.png width =""600"" height = ""600"" style=""position:fixed;top:50%; left:50%; transform: translate(-50%, -50%); border:5px solid black"">","","","","","","","",""
"","2618","sequential-stimulus-presentation-old","53","203349","0.0-15.0-1.5","SS1619739821314","trial","","40","500","3118","images/stimuli/spore_stims/simple_05_A_b.gif","images/stimuli/spore_stims/simple_10_A_a.gif","forced_short","","3","simple_dissimilar","images/stimuli/spore_stims/simple_05_A_b.gif","","","","",""
"","2838","survey-multi-choice","54","206189","0.0-16.0","SS1619739821314","math_question","","","","","","","","","","","","{""Q0"":""5""}","[0]","5","",""
"","null","html-keyboard-response","55","207430","0.0-17.0-0.0","SS1619739821314","","","null","","","","","","<p><img src= images/blank.png width =""600"" height = ""600"" style=""position:fixed;top:50%; left:50%; transform: translate(-50%, -50%); border:5px solid black"">","","","","","","","",""
"","1199","sequential-stimulus-presentation-old","56","223645","0.0-17.0-1.0","SS1619739821314","trial","","40","500","1699","images/stimuli/spore_stims/complex_02_A_b.gif","images/stimuli/spore_stims/complex_10_A_a.gif","forced_long","","4","complex_dissimilar","images/stimuli/spore_stims/complex_10_A_a.gif","","","","",""
"","null","html-keyboard-response","57","224924","0.0-17.0-0.1","SS1619739821314","","","null","","","","","","<p><img src= images/blank.png width =""600"" height = ""600"" style=""position:fixed;top:50%; left:50%; transform: translate(-50%, -50%); border:5px solid black"">","","","","","","","",""
"","4670","sequential-stimulus-presentation-old","58","230100","0.0-17.0-1.1","SS1619739821314","trial","","40","500","5170","images/stimuli/spore_stims/complex_02_A_b.gif","images/stimuli/spore_stims/complex_10_A_a.gif","forced_long","","4","complex_dissimilar","images/stimuli/spore_stims/complex_10_A_a.gif","","","","",""
"","null","html-keyboard-response","59","231368","0.0-17.0-0.2","SS1619739821314","","","null","","","","","","<p><img src= images/blank.png width =""600"" height = ""600"" style=""position:fixed;top:50%; left:50%; transform: translate(-50%, -50%); border:5px solid black"">","","","","","","","",""
"","1956","sequential-stimulus-presentation-old","60","233836","0.0-17.0-1.2","SS1619739821314","trial","","40","500","2456","images/stimuli/spore_stims/complex_02_A_b.gif","images/stimuli/spore_stims/complex_10_A_a.gif","forced_long","","4","complex_dissimilar","images/stimuli/spore_stims/complex_10_A_a.gif","","","","",""
"","null","html-keyboard-response","61","235031","0.0-17.0-0.3","SS1619739821314","","","null","","","","","","<p><img src= images/blank.png width =""600"" height = ""600"" style=""position:fixed;top:50%; left:50%; transform: translate(-50%, -50%); border:5px solid black"">","","","","","","","",""
"","2223","sequential-stimulus-presentation-old","62","237771","0.0-17.0-1.3","SS1619739821314","trial","","40","500","2723","images/stimuli/spore_stims/complex_02_A_b.gif","images/stimuli/spore_stims/complex_10_A_a.gif","forced_long","","4","complex_dissimilar","images/stimuli/spore_stims/complex_10_A_a.gif","","","","",""
"","4069","survey-multi-choice","63","241843","0.0-18.0","SS1619739821314","math_question","","","","","","","","","","","","{""Q0"":""6""}","[0]","6","",""
"","null","html-keyboard-response","64","242978","0.0-19.0-0.0","SS1619739821314","","","null","","","","","","<p><img src= images/blank.png width =""600"" height = ""600"" style=""position:fixed;top:50%; left:50%; transform: translate(-50%, -50%); border:5px solid black"">","","","","","","","",""
"","4520","sequential-stimulus-presentation-old","65","262511","0.0-19.0-1.0","SS1619739821314","trial","","40","500","5020","images/stimuli/spore_stims/simple_08_A_b.gif","images/stimuli/spore_stims/simple_15_A_a.gif","forced_long","","5","simple_dissimilar","images/stimuli/spore_stims/simple_15_A_a.gif","","","","",""
"","null","html-keyboard-response","66","263732","0.0-19.0-0.1","SS1619739821314","","","null","","","","","","<p><img src= images/blank.png width =""600"" height = ""600"" style=""position:fixed;top:50%; left:50%; transform: translate(-50%, -50%); border:5px solid black"">","","","","","","","",""
"","821","sequential-stimulus-presentation-old","67","265061","0.0-19.0-1.1","SS1619739821314","trial","","40","500","1321","images/stimuli/spore_stims/simple_08_A_b.gif","images/stimuli/spore_stims/simple_15_A_a.gif","forced_long","","5","simple_dissimilar","images/stimuli/spore_stims/simple_15_A_a.gif","","","","",""
"","null","html-keyboard-response","68","265917","0.0-19.0-0.2","SS1619739821314","","","null","","","","","","<p><img src= images/blank.png width =""600"" height = ""600"" style=""position:fixed;top:50%; left:50%; transform: translate(-50%, -50%); border:5px solid black"">","","","","","","","",""
"","948","sequential-stimulus-presentation-old","69","267371","0.0-19.0-1.2","SS1619739821314","trial","","40","500","1448","images/stimuli/spore_stims/simple_08_A_b.gif","images/stimuli/spore_stims/simple_15_A_a.gif","forced_long","","5","simple_dissimilar","images/stimuli/spore_stims/simple_15_A_a.gif","","","","",""
"","null","html-keyboard-response","70","268315","0.0-19.0-0.3","SS1619739821314","","","null","","","","","","<p><img src= images/blank.png width =""600"" height = ""600"" style=""position:fixed;top:50%; left:50%; transform: translate(-50%, -50%); border:5px solid black"">","","","","","","","",""
"","689","sequential-stimulus-presentation-old","71","269517","0.0-19.0-1.3","SS1619739821314","trial","","40","500","1189","images/stimuli/spore_stims/simple_08_A_b.gif","images/stimuli/spore_stims/simple_15_A_a.gif","forced_long","","5","simple_dissimilar","images/stimuli/spore_stims/simple_15_A_a.gif","","","","",""
"","null","html-keyboard-response","72","270682","0.0-19.0-0.4","SS1619739821314","","","null","","","","","","<p><img src= images/blank.png width =""600"" height = ""600"" style=""position:fixed;top:50%; left:50%; transform: translate(-50%, -50%); border:5px solid black"">","","","","","","","",""
"","708","sequential-stimulus-presentation-old","73","271892","0.0-19.0-1.4","SS1619739821314","trial","","40","500","1208","images/stimuli/spore_stims/simple_08_A_b.gif","images/stimuli/spore_stims/simple_15_A_a.gif","forced_long","","5","simple_dissimilar","images/stimuli/spore_stims/simple_15_A_a.gif","","","","",""
"","null","html-keyboard-response","74","272945","0.0-19.0-0.5","SS1619739821314","","","null","","","","","","<p><img src= images/blank.png width =""600"" height = ""600"" style=""position:fixed;top:50%; left:50%; transform: translate(-50%, -50%); border:5px solid black"">","","","","","","","",""
"","558","sequential-stimulus-presentation-old","75","274017","0.0-19.0-1.5","SS1619739821314","trial","","40","500","1058","images/stimuli/spore_stims/simple_08_A_b.gif","images/stimuli/spore_stims/simple_15_A_a.gif","forced_long","","5","simple_dissimilar","images/stimuli/spore_stims/simple_15_A_a.gif","","","","",""
"","3626","survey-multi-choice","76","277644","0.0-20.0","SS1619739821314","math_question","","","","","","","","","","","","{""Q0"":""2""}","[0]","2","",""
"","null","html-keyboard-response","77","278755","0.0-21.0-0.0","SS1619739821314","","","null","","","","","","<p><img src= images/blank.png width =""600"" height = ""600"" style=""position:fixed;top:50%; left:50%; transform: translate(-50%, -50%); border:5px solid black"">","","","","","","","",""
"","159","sequential-stimulus-presentation-old","78","279422","0.0-21.0-1.0","SS1619739821314","trial","","40","500","659","images/stimuli/spore_stims/simple_19_A_b.gif","images/stimuli/spore_stims/simple_13_A_a.gif","self_paced","","6","simple_dissimilar","images/stimuli/spore_stims/simple_13_A_a.gif","","","","",""
"","null","html-keyboard-response","79","280661","0.0-21.0-0.1","SS1619739821314","","","null","","","","","","<p><img src= images/blank.png width =""600"" height = ""600"" style=""position:fixed;top:50%; left:50%; transform: translate(-50%, -50%); border:5px solid black"">","","","","","","","",""
"","705","sequential-stimulus-presentation-old","80","281882","0.0-21.0-1.1","SS1619739821314","trial","","40","500","1205","images/stimuli/spore_stims/simple_19_A_b.gif","images/stimuli/spore_stims/simple_13_A_a.gif","self_paced","","6","simple_dissimilar","images/stimuli/spore_stims/simple_13_A_a.gif","","","","",""
"","null","html-keyboard-response","81","282702","0.0-21.0-0.2","SS1619739821314","","","null","","","","","","<p><img src= images/blank.png width =""600"" height = ""600"" style=""position:fixed;top:50%; left:50%; transform: translate(-50%, -50%); border:5px solid black"">","","","","","","","",""
"","794","sequential-stimulus-presentation-old","82","284002","0.0-21.0-1.2","SS1619739821314","trial","","40","500","1294","images/stimuli/spore_stims/simple_19_A_b.gif","images/stimuli/spore_stims/simple_13_A_a.gif","self_paced","","6","simple_dissimilar","images/stimuli/spore_stims/simple_13_A_a.gif","","","","",""
"","null","html-keyboard-response","83","285159","0.0-21.0-0.3","SS1619739821314","","","null","","","","","","<p><img src= images/blank.png width =""600"" height = ""600"" style=""position:fixed;top:50%; left:50%; transform: translate(-50%, -50%); border:5px solid black"">","","","","","","","",""
"","268","sequential-stimulus-presentation-old","84","285943","0.0-21.0-1.3","SS1619739821314","trial","","40","500","768","images/stimuli/spore_stims/simple_19_A_b.gif","images/stimuli/spore_stims/simple_13_A_a.gif","self_paced","","6","simple_dissimilar","images/stimuli/spore_stims/simple_13_A_a.gif","","","","",""
"","3376","survey-multi-choice","85","289320","0.0-22.0","SS1619739821314","math_question","","","","","","","","","","","","{""Q0"":""15""}","[0]","15","",""
"","null","html-keyboard-response","86","290558","0.0-23.0-0.0","SS1619739821314","","","null","","","","","","<p><img src= images/blank.png width =""600"" height = ""600"" style=""position:fixed;top:50%; left:50%; transform: translate(-50%, -50%); border:5px solid black"">","","","","","","","",""
"","13725","sequential-stimulus-presentation-old","87","304798","0.0-23.0-1.0","SS1619739821314","trial","","40","500","14225","images/stimuli/spore_stims/complex_11_A_b.gif","images/stimuli/spore_stims/complex_08_A_a.gif","self_paced","","7","complex_dissimilar","images/stimuli/spore_stims/complex_08_A_a.gif","","","","",""
"","null","html-keyboard-response","88","305945","0.0-23.0-0.1","SS1619739821314","","","null","","","","","","<p><img src= images/blank.png width =""600"" height = ""600"" style=""position:fixed;top:50%; left:50%; transform: translate(-50%, -50%); border:5px solid black"">","","","","","","","",""
"","78","sequential-stimulus-presentation-old","89","306533","0.0-23.0-1.1","SS1619739821314","trial","","40","500","578","images/stimuli/spore_stims/complex_11_A_b.gif","images/stimuli/spore_stims/complex_08_A_a.gif","self_paced","","7","complex_dissimilar","images/stimuli/spore_stims/complex_08_A_a.gif","","","","",""
"","null","html-keyboard-response","90","307360","0.0-23.0-0.2","SS1619739821314","","","null","","","","","","<p><img src= images/blank.png width =""600"" height = ""600"" style=""position:fixed;top:50%; left:50%; transform: translate(-50%, -50%); border:5px solid black"">","","","","","","","",""
"","1175","sequential-stimulus-presentation-old","91","309038","0.0-23.0-1.2","SS1619739821314","trial","","40","500","1675","images/stimuli/spore_stims/complex_11_A_b.gif","images/stimuli/spore_stims/complex_08_A_a.gif","self_paced","","7","complex_dissimilar","images/stimuli/spore_stims/complex_08_A_a.gif","","","","",""
"","null","html-keyboard-response","92","309981","0.0-23.0-0.3","SS1619739821314","","","null","","","","","","<p><img src= images/blank.png width =""600"" height = ""600"" style=""position:fixed;top:50%; left:50%; transform: translate(-50%, -50%); border:5px solid black"">","","","","","","","",""
"","418","sequential-stimulus-presentation-old","93","310913","0.0-23.0-1.3","SS1619739821314","trial","","40","500","918","images/stimuli/spore_stims/complex_11_A_b.gif","images/stimuli/spore_stims/complex_08_A_a.gif","self_paced","","7","complex_dissimilar","images/stimuli/spore_stims/complex_08_A_a.gif","","","","",""
"","null","html-keyboard-response","94","312120","0.0-23.0-0.4","SS1619739821314","","","null","","","","","","<p><img src= images/blank.png width =""600"" height = ""600"" style=""position:fixed;top:50%; left:50%; transform: translate(-50%, -50%); border:5px solid black"">","","","","","","","",""
"","363","sequential-stimulus-presentation-old","95","312998","0.0-23.0-1.4","SS1619739821314","trial","","40","500","863","images/stimuli/spore_stims/complex_11_A_b.gif","images/stimuli/spore_stims/complex_08_A_a.gif","self_paced","","7","complex_dissimilar","images/stimuli/spore_stims/complex_08_A_a.gif","","","","",""
"","null","html-keyboard-response","96","314192","0.0-23.0-0.5","SS1619739821314","","","null","","","","","","<p><img src= images/blank.png width =""600"" height = ""600"" style=""position:fixed;top:50%; left:50%; transform: translate(-50%, -50%); border:5px solid black"">","","","","","","","",""
"","148","sequential-stimulus-presentation-old","97","314853","0.0-23.0-1.5","SS1619739821314","trial","","40","500","648","images/stimuli/spore_stims/complex_11_A_b.gif","images/stimuli/spore_stims/complex_08_A_a.gif","self_paced","","7","complex_dissimilar","images/stimuli/spore_stims/complex_08_A_a.gif","","","","",""
"","3404","survey-multi-choice","98","318259","0.0-24.0","SS1619739821314","math_question","","","","","","","","","","","","{""Q0"":""9""}","[0]","9","",""
"","null","html-keyboard-response","99","319592","0.0-25.0-0.0","SS1619739821314","","","null","","","","","","<p><img src= images/blank.png width =""600"" height = ""600"" style=""position:fixed;top:50%; left:50%; transform: translate(-50%, -50%); border:5px solid black"">","","","","","","","",""
"","5675","sequential-stimulus-presentation-old","100","325769","0.0-25.0-1.0","SS1619739821314","trial","","40","500","6175","images/stimuli/spore_stims/complex_01_A_b.gif","images/stimuli/spore_stims/complex_02_A_a.gif","self_paced","","8","complex_dissimilar","images/stimuli/spore_stims/complex_02_A_a.gif","","","","",""
"","null","html-keyboard-response","101","326868","0.0-25.0-0.1","SS1619739821314","","","null","","","","","","<p><img src= images/blank.png width =""600"" height = ""600"" style=""position:fixed;top:50%; left:50%; transform: translate(-50%, -50%); border:5px solid black"">","","","","","","","",""
"","387","sequential-stimulus-presentation-old","102","327759","0.0-25.0-1.1","SS1619739821314","trial","","40","500","887","images/stimuli/spore_stims/complex_01_A_b.gif","images/stimuli/spore_stims/complex_02_A_a.gif","self_paced","","8","complex_dissimilar","images/stimuli/spore_stims/complex_02_A_a.gif","","","","",""
"","null","html-keyboard-response","103","328791","0.0-25.0-0.2","SS1619739821314","","","null","","","","","","<p><img src= images/blank.png width =""600"" height = ""600"" style=""position:fixed;top:50%; left:50%; transform: translate(-50%, -50%); border:5px solid black"">","","","","","","","",""
"","128","sequential-stimulus-presentation-old","104","329433","0.0-25.0-1.2","SS1619739821314","trial","","40","500","628","images/stimuli/spore_stims/complex_01_A_b.gif","images/stimuli/spore_stims/complex_02_A_a.gif","self_paced","","8","complex_dissimilar","images/stimuli/spore_stims/complex_02_A_a.gif","","","","",""
"","null","html-keyboard-response","105","330615","0.0-25.0-0.3","SS1619739821314","","","null","","","","","","<p><img src= images/blank.png width =""600"" height = ""600"" style=""position:fixed;top:50%; left:50%; transform: translate(-50%, -50%); border:5px solid black"">","","","","","","","",""
"","5407","sequential-stimulus-presentation-old","106","336524","0.0-25.0-1.3","SS1619739821314","trial","","40","500","5907","images/stimuli/spore_stims/complex_01_A_b.gif","images/stimuli/spore_stims/complex_02_A_a.gif","self_paced","","8","complex_dissimilar","images/stimuli/spore_stims/complex_01_A_b.gif","","","","",""
"","null","html-keyboard-response","107","337345","0.0-25.0-0.4","SS1619739821314","","","null","","","","","","<p><img src= images/blank.png width =""600"" height = ""600"" style=""position:fixed;top:50%; left:50%; transform: translate(-50%, -50%); border:5px solid black"">","","","","","","","",""
"","768","sequential-stimulus-presentation-old","108","338629","0.0-25.0-1.4","SS1619739821314","trial","","40","500","1268","images/stimuli/spore_stims/complex_01_A_b.gif","images/stimuli/spore_stims/complex_02_A_a.gif","self_paced","","8","complex_dissimilar","images/stimuli/spore_stims/complex_01_A_b.gif","","","","",""
"","3463","survey-multi-choice","109","342094","0.0-26.0","SS1619739821314","math_question","","","","","","","","","","","","{""Q0"":""10""}","[0]","10","",""
"","null","html-keyboard-response","110","343175","0.0-27.0-0.0","SS1619739821314","","","null","","","","","","<p><img src= images/blank.png width =""600"" height = ""600"" style=""position:fixed;top:50%; left:50%; transform: translate(-50%, -50%); border:5px solid black"">","","","","","","","",""
"","1883","sequential-stimulus-presentation-old","111","345568","0.0-27.0-1.0","SS1619739821314","trial","","40","500","2383","images/stimuli/spore_stims/simple_18_A_b.gif","images/stimuli/spore_stims/simple_06_A_a.gif","self_paced","","9","simple_dissimilar","images/stimuli/spore_stims/simple_06_A_a.gif","","","","",""
"","null","html-keyboard-response","112","346530","0.0-27.0-0.1","SS1619739821314","","","null","","","","","","<p><img src= images/blank.png width =""600"" height = ""600"" style=""position:fixed;top:50%; left:50%; transform: translate(-50%, -50%); border:5px solid black"">","","","","","","","",""
"","624","sequential-stimulus-presentation-old","113","347669","0.0-27.0-1.1","SS1619739821314","trial","","40","500","1124","images/stimuli/spore_stims/simple_18_A_b.gif","images/stimuli/spore_stims/simple_06_A_a.gif","self_paced","","9","simple_dissimilar","images/stimuli/spore_stims/simple_06_A_a.gif","","","","",""
"","null","html-keyboard-response","114","348683","0.0-27.0-0.2","SS1619739821314","","","null","","","","","","<p><img src= images/blank.png width =""600"" height = ""600"" style=""position:fixed;top:50%; left:50%; transform: translate(-50%, -50%); border:5px solid black"">","","","","","","","",""
"","29","sequential-stimulus-presentation-old","115","349229","0.0-27.0-1.2","SS1619739821314","trial","","40","500","529","images/stimuli/spore_stims/simple_18_A_b.gif","images/stimuli/spore_stims/simple_06_A_a.gif","self_paced","","9","simple_dissimilar","images/stimuli/spore_stims/simple_06_A_a.gif","","","","",""
"","null","html-keyboard-response","116","350168","0.0-27.0-0.3","SS1619739821314","","","null","","","","","","<p><img src= images/blank.png width =""600"" height = ""600"" style=""position:fixed;top:50%; left:50%; transform: translate(-50%, -50%); border:5px solid black"">","","","","","","","",""
"","3003","sequential-stimulus-presentation-old","117","353685","0.0-27.0-1.3","SS1619739821314","trial","","40","500","3503","images/stimuli/spore_stims/simple_18_A_b.gif","images/stimuli/spore_stims/simple_06_A_a.gif","self_paced","","9","simple_dissimilar","images/stimuli/spore_stims/simple_06_A_a.gif","","","","",""
"","null","html-keyboard-response","118","354536","0.0-27.0-0.4","SS1619739821314","","","null","","","","","","<p><img src= images/blank.png width =""600"" height = ""600"" style=""position:fixed;top:50%; left:50%; transform: translate(-50%, -50%); border:5px solid black"">","","","","","","","",""
"","339","sequential-stimulus-presentation-old","119","355389","0.0-27.0-1.4","SS1619739821314","trial","","40","500","839","images/stimuli/spore_stims/simple_18_A_b.gif","images/stimuli/spore_stims/simple_06_A_a.gif","self_paced","","9","simple_dissimilar","images/stimuli/spore_stims/simple_06_A_a.gif","","","","",""
"","null","html-keyboard-response","120","356406","0.0-27.0-0.5","SS1619739821314","","","null","","","","","","<p><img src= images/blank.png width =""600"" height = ""600"" style=""position:fixed;top:50%; left:50%; transform: translate(-50%, -50%); border:5px solid black"">","","","","","","","",""
"","61","sequential-stimulus-presentation-old","121","356979","0.0-27.0-1.5","SS1619739821314","trial","","40","500","561","images/stimuli/spore_stims/simple_18_A_b.gif","images/stimuli/spore_stims/simple_06_A_a.gif","self_paced","","9","simple_dissimilar","images/stimuli/spore_stims/simple_06_A_a.gif","","","","",""
"","3604","survey-multi-choice","122","360586","0.0-28.0","SS1619739821314","math_question","","","","","","","","","","","","{""Q0"":""8""}","[0]","8","",""
"","null","html-keyboard-response","123","361595","0.0-29.0-0.0","SS1619739821314","","","null","","","","","","<p><img src= images/blank.png width =""600"" height = ""600"" style=""position:fixed;top:50%; left:50%; transform: translate(-50%, -50%); border:5px solid black"">","","","","","","","",""
"","1168","sequential-stimulus-presentation-old","124","363280","0.0-29.0-1.0","SS1619739821314","trial","","40","500","1668","images/stimuli/spore_stims/complex_07_A_a.gif","images/stimuli/spore_stims/complex_15_A_b.gif","forced_short","","10","complex_dissimilar","images/stimuli/spore_stims/complex_15_A_b.gif","","","","",""
"","null","html-keyboard-response","125","364240","0.0-29.0-0.1","SS1619739821314","","","null","","","","","","<p><img src= images/blank.png width =""600"" height = ""600"" style=""position:fixed;top:50%; left:50%; transform: translate(-50%, -50%); border:5px solid black"">","","","","","","","",""
"","6629","sequential-stimulus-presentation-old","126","371385","0.0-29.0-1.1","SS1619739821314","trial","","40","500","7129","images/stimuli/spore_stims/complex_07_A_a.gif","images/stimuli/spore_stims/complex_15_A_b.gif","forced_short","","10","complex_dissimilar","images/stimuli/spore_stims/complex_15_A_b.gif","","","","",""
"","null","html-keyboard-response","127","372570","0.0-29.0-0.2","SS1619739821314","","","null","","","","","","<p><img src= images/blank.png width =""600"" height = ""600"" style=""position:fixed;top:50%; left:50%; transform: translate(-50%, -50%); border:5px solid black"">","","","","","","","",""
"","120","sequential-stimulus-presentation-old","128","373200","0.0-29.0-1.2","SS1619739821314","trial","","40","500","620","images/stimuli/spore_stims/complex_07_A_a.gif","images/stimuli/spore_stims/complex_15_A_b.gif","forced_short","","10","complex_dissimilar","images/stimuli/spore_stims/complex_15_A_b.gif","","","","",""
"","null","html-keyboard-response","129","374031","0.0-29.0-0.3","SS1619739821314","","","null","","","","","","<p><img src= images/blank.png width =""600"" height = ""600"" style=""position:fixed;top:50%; left:50%; transform: translate(-50%, -50%); border:5px solid black"">","","","","","","","",""
"","14149","sequential-stimulus-presentation-old","130","388696","0.0-29.0-1.3","SS1619739821314","trial","","40","500","14649","images/stimuli/spore_stims/complex_07_A_a.gif","images/stimuli/spore_stims/complex_15_A_b.gif","forced_short","","10","complex_dissimilar","images/stimuli/spore_stims/complex_07_A_a.gif","","","","",""
"","null","html-keyboard-response","131","389838","0.0-29.0-0.4","SS1619739821314","","","null","","","","","","<p><img src= images/blank.png width =""600"" height = ""600"" style=""position:fixed;top:50%; left:50%; transform: translate(-50%, -50%); border:5px solid black"">","","","","","","","",""
"","401","sequential-stimulus-presentation-old","132","390750","0.0-29.0-1.4","SS1619739821314","trial","","40","500","901","images/stimuli/spore_stims/complex_07_A_a.gif","images/stimuli/spore_stims/complex_15_A_b.gif","forced_short","","10","complex_dissimilar","images/stimuli/spore_stims/complex_15_A_b.gif","","","","",""
"","null","html-keyboard-response","133","391869","0.0-29.0-0.5","SS1619739821314","","","null","","","","","","<p><img src= images/blank.png width =""600"" height = ""600"" style=""position:fixed;top:50%; left:50%; transform: translate(-50%, -50%); border:5px solid black"">","","","","","","","",""
"","129","sequential-stimulus-presentation-old","134","392501","0.0-29.0-1.5","SS1619739821314","trial","","40","500","629","images/stimuli/spore_stims/complex_07_A_a.gif","images/stimuli/spore_stims/complex_15_A_b.gif","forced_short","","10","complex_dissimilar","images/stimuli/spore_stims/complex_15_A_b.gif","","","","",""
"","3429","survey-multi-choice","135","395932","0.0-30.0","SS1619739821314","math_question","","","","","","","","","","","","{""Q0"":""9""}","[0]","9","",""
"","null","html-keyboard-response","136","397072","0.0-31.0-0.0","SS1619739821314","","","null","","","","","","<p><img src= images/blank.png width =""600"" height = ""600"" style=""position:fixed;top:50%; left:50%; transform: translate(-50%, -50%); border:5px solid black"">","","","","","","","",""
"","187","sequential-stimulus-presentation-old","137","412276","0.0-31.0-1.0","SS1619739821314","trial","","40","500","687","images/stimuli/spore_stims/simple_06_A_b.gif","images/stimuli/spore_stims/simple_03_A_a.gif","forced_long","","11","simple_dissimilar","images/stimuli/spore_stims/simple_03_A_a.gif","","","","",""
"","null","html-keyboard-response","138","413246","0.0-31.0-0.1","SS1619739821314","","","null","","","","","","<p><img src= images/blank.png width =""600"" height = ""600"" style=""position:fixed;top:50%; left:50%; transform: translate(-50%, -50%); border:5px solid black"">","","","","","","","",""
"","86","sequential-stimulus-presentation-old","139","413841","0.0-31.0-1.1","SS1619739821314","trial","","40","500","586","images/stimuli/spore_stims/simple_06_A_b.gif","images/stimuli/spore_stims/simple_03_A_a.gif","forced_long","","11","simple_dissimilar","images/stimuli/spore_stims/simple_03_A_a.gif","","","","",""
"","null","html-keyboard-response","140","414951","0.0-31.0-0.2","SS1619739821314","","","null","","","","","","<p><img src= images/blank.png width =""600"" height = ""600"" style=""position:fixed;top:50%; left:50%; transform: translate(-50%, -50%); border:5px solid black"">","","","","","","","",""
"","395","sequential-stimulus-presentation-old","141","415861","0.0-31.0-1.2","SS1619739821314","trial","","40","500","895","images/stimuli/spore_stims/simple_06_A_b.gif","images/stimuli/spore_stims/simple_03_A_a.gif","forced_long","","11","simple_dissimilar","images/stimuli/spore_stims/simple_03_A_a.gif","","","","",""
"","null","html-keyboard-response","142","417065","0.0-31.0-0.3","SS1619739821314","","","null","","","","","","<p><img src= images/blank.png width =""600"" height = ""600"" style=""position:fixed;top:50%; left:50%; transform: translate(-50%, -50%); border:5px solid black"">","","","","","","","",""
"","524","sequential-stimulus-presentation-old","143","418101","0.0-31.0-1.3","SS1619739821314","trial","","40","500","1024","images/stimuli/spore_stims/simple_06_A_b.gif","images/stimuli/spore_stims/simple_03_A_a.gif","forced_long","","11","simple_dissimilar","images/stimuli/spore_stims/simple_06_A_b.gif","","","","",""
"","null","html-keyboard-response","144","418946","0.0-31.0-0.4","SS1619739821314","","","null","","","","","","<p><img src= images/blank.png width =""600"" height = ""600"" style=""position:fixed;top:50%; left:50%; transform: translate(-50%, -50%); border:5px solid black"">","","","","","","","",""
"","522","sequential-stimulus-presentation-old","145","419982","0.0-31.0-1.4","SS1619739821314","trial","","40","500","1022","images/stimuli/spore_stims/simple_06_A_b.gif","images/stimuli/spore_stims/simple_03_A_a.gif","forced_long","","11","simple_dissimilar","images/stimuli/spore_stims/simple_03_A_a.gif","","","","",""
"[{""page_index"":0,""viewing_time"":5282}]","5282","instructions","146","425266","0.0-32.0","SS1619739821314","instructions","","","","","","","","","","","","","","","",""
"","6463","survey-likert","147","431732","0.0-33.0","SS1619739821314","similarity_question","","","","","","","","","","","","{""Q0"":5}","[0]","","images/stimuli/spore_stims/simple_07_A_a.gif","images/stimuli/spore_stims/simple_17_A_b.gif"
"","4304","survey-likert","148","436063","0.0-34.0","SS1619739821314","similarity_question","","","","","","","","","","","","{""Q0"":4}","[0]","","images/stimuli/spore_stims/complex_15_A_b.gif","images/stimuli/spore_stims/complex_07_A_a.gif"
"","4187","survey-likert","149","440280","0.0-35.0","SS1619739821314","similarity_question","","","","","","","","","","","","{""Q0"":6}","[0]","","images/stimuli/spore_stims/simple_18_A_b.gif","images/stimuli/spore_stims/simple_06_A_a.gif"
"","4325","survey-likert","150","444633","0.0-36.0","SS1619739821314","similarity_question","","","","","","","","","","","","{""Q0"":1}","[0]","","images/stimuli/spore_stims/complex_18_A_a.gif","images/stimuli/spore_stims/complex_07_A_b.gif"
"","3487","survey-likert","151","448147","0.0-37.0","SS1619739821314","similarity_question","","","","","","","","","","","","{""Q0"":6}","[0]","","images/stimuli/spore_stims/simple_08_A_b.gif","images/stimuli/spore_stims/simple_15_A_a.gif"
"","2421","survey-likert","152","450599","0.0-38.0","SS1619739821314","similarity_question","","","","","","","","","","","","{""Q0"":6}","[0]","","images/stimuli/spore_stims/simple_19_A_b.gif","images/stimuli/spore_stims/simple_13_A_a.gif"
"","4250","survey-likert","153","454879","0.0-39.0","SS1619739821314","similarity_question","","","","","","","","","","","","{""Q0"":1}","[0]","","images/stimuli/spore_stims/complex_05_A_a.gif","images/stimuli/spore_stims/complex_19_A_b.gif"
"","1859","survey-likert","154","456770","0.0-40.0","SS1619739821314","similarity_question","","","","","","","","","","","","{""Q0"":6}","[0]","","images/stimuli/spore_stims/simple_06_A_b.gif","images/stimuli/spore_stims/simple_03_A_a.gif"
"","1808","survey-likert","155","458608","0.0-41.0","SS1619739821314","similarity_question","","","","","","","","","","","","{""Q0"":6}","[0]","","images/stimuli/spore_stims/simple_05_A_b.gif","images/stimuli/spore_stims/simple_10_A_a.gif"
"","5747","survey-likert","156","464389","0.0-42.0","SS1619739821314","similarity_question","","","","","","","","","","","","{""Q0"":0}","[0]","","images/stimuli/spore_stims/complex_02_A_b.gif","images/stimuli/spore_stims/complex_10_A_a.gif"
"","2425","survey-likert","157","466843","0.0-43.0","SS1619739821314","similarity_question","","","","","","","","","","","","{""Q0"":0}","[0]","","images/stimuli/spore_stims/complex_11_A_b.gif","images/stimuli/spore_stims/complex_08_A_a.gif"
"","3035","survey-likert","158","469912","0.0-44.0","SS1619739821314","similarity_question","","","","","","","","","","","","{""Q0"":0}","[0]","","images/stimuli/spore_stims/complex_01_A_b.gif","images/stimuli/spore_stims/complex_02_A_a.gif"
"[{""page_index"":0,""viewing_time"":1616}]","1616","instructions","159","471559","0.0-45.0","SS1619739821314","instructions","","","","","","","","","","","","","","","",""
"","3357","survey-likert","160","474919","0.0-46.0","SS1619739821314","","","","","","","","","images/stimuli/spore_stims/simple_07_A_a.gif","","","","{""Q0"":0}","[0]","","",""
"","2003","survey-likert","161","476955","0.0-47.0","SS1619739821314","","","","","","","","","images/stimuli/spore_stims/complex_07_A_b.gif","","","","{""Q0"":5}","[0]","","",""
"","3389","survey-likert","162","480373","0.0-48.0","SS1619739821314","","","","","","","","","images/stimuli/spore_stims/simple_03_A_a.gif","","","","{""Q0"":1}","[0]","","",""
"","2972","survey-likert","163","483376","0.0-49.0","SS1619739821314","","","","","","","","","images/stimuli/spore_stims/simple_15_A_a.gif","","","","{""Q0"":0}","[0]","","",""
"","1959","survey-likert","164","485369","0.0-50.0","SS1619739821314","","","","","","","","","images/stimuli/spore_stims/simple_13_A_a.gif","","","","{""Q0"":0}","[0]","","",""
"","2958","survey-likert","165","488355","0.0-51.0","SS1619739821314","","","","","","","","","images/stimuli/spore_stims/complex_08_A_a.gif","","","","{""Q0"":5}","[0]","","",""
"","2672","survey-likert","166","491062","0.0-52.0","SS1619739821314","","","","","","","","","images/stimuli/spore_stims/simple_06_A_a.gif","","","","{""Q0"":0}","[0]","","",""
"","2017","survey-likert","167","493112","0.0-53.0","SS1619739821314","","","","","","","","","images/stimuli/spore_stims/simple_05_A_b.gif","","","","{""Q0"":0}","[0]","","",""
"","2417","survey-likert","168","495559","0.0-54.0","SS1619739821314","","","","","","","","","images/stimuli/spore_stims/complex_15_A_b.gif","","","","{""Q0"":6}","[0]","","",""
"","2496","survey-likert","169","498086","0.0-55.0","SS1619739821314","","","","","","","","","images/stimuli/spore_stims/complex_01_A_b.gif","","","","{""Q0"":5}","[0]","","",""
"","1773","survey-likert","170","499888","0.0-56.0","SS1619739821314","","","","","","","","","images/stimuli/spore_stims/complex_02_A_b.gif","","","","{""Q0"":4}","[0]","","",""
"","3594","survey-likert","171","503513","0.0-57.0","SS1619739821314","","","","","","","","","images/stimuli/spore_stims/complex_19_A_b.gif","","","","{""Q0"":5}","[0]","","",""
"[{""page_index"":0,""viewing_time"":1244}]","1245","instructions","172","504787","0.0-58.0","SS1619739821314","instructions","","","","","","","","","","","","","","","",""
"","3346","demog-age","173","508137","0.0-59.0","SS1619739821314","","","","","","","","","","","","","{""age"":""23""}","","","",""
"","4674","demog-ethnic-US","174","512817","0.0-60.0","SS1619739821314","","","","","","","","","","","","","{""ethnicity"":[""White""]}","[0]","","",""
"","9894","demog-gender-and-education","175","522743","0.0-61.0","SS1619739821314","","","","","","","","","","","","","{""gender"":""Male"",""education"":""Bachelor's Degree""}","[0,1]","","",""
"","5126","survey-text","176","527902","0.0-62.0","SS1619739821314","feedback","","","","","","","","","","","","{""Q0"":""No""}","","","",""
"[{""page_index"":0,""viewing_time"":1499}]","1499","instructions","177","529405","0.0-63.0","SS1619739821314","instructions","","","","","","","","","","","","","","","",""
