"view_history","rt","trial_type","trial_index","time_elapsed","internal_node_id","subject","stimulus_type","trial_stimulus","key_press","minimum_viewing_duration","trial_looking_time","block_deviant","block_background","exposure_type","stimulus","block_number","block_type","stimulus_displayed","responses","question_order","math_correct_answer","stimulus_left","stimulus_right"
"[{""page_index"":0,""viewing_time"":7692.799999989802}]","7694.974999991246","instructions","0","7698","0.0-0.0","SS1619740046290","","","","","","","","","","","","","","","","",""
"[{""page_index"":0,""viewing_time"":15914.359999995213},{""page_index"":1,""viewing_time"":5513.439999980619}]","21428.219999972498","instructions","1","31132","0.0-1.0","SS1619740046290","instructions","","","","","","","","","","","","","","","",""
"","5345.824999996694","sequential-stimulus-presentation-old","2","36992","0.0-2.0","SS1619740046290","","","40","500","5845.824999996694","null","null","self_paced","","","","","","","","",""
"","2483.8699999963865","sequential-stimulus-presentation-old","3","39982","0.0-3.0","SS1619740046290","","","40","500","2983.8699999963865","null","null","self_paced","","","","","","","","",""
"[{""page_index"":0,""viewing_time"":17279.31999997236}]","17280.039999983273","instructions","4","57264","0.0-4.0","SS1619740046290","instructions","","","","","","","","","","","","","","","",""
"","3096.300000004703","sequential-stimulus-presentation-old","5","75379","0.0-5.0","SS1619740046290","","","40","500","3596.300000004703","null","null","forced_long","","","","","","","","",""
"","4515.329999994719","sequential-stimulus-presentation-old","6","80408","0.0-6.0","SS1619740046290","","","40","500","5015.329999994719","null","null","forced_long","","","","","","","","",""
"[{""page_index"":0,""viewing_time"":4103.2450000057}]","4103.865000011865","instructions","7","84514","0.0-7.0","SS1619740046290","instructions","","","","","","","","","","","","","","","",""
"[{""page_index"":0,""viewing_time"":10316.495000006398},{""page_index"":1,""viewing_time"":13691.78500000271},{""page_index"":2,""viewing_time"":8510.93999997829},{""page_index"":3,""viewing_time"":1754.4600000255741},{""page_index"":4,""viewing_time"":1223.599999997532}]","35497.83499998739","instructions","8","120014","0.0-8.0","SS1619740046290","instructions","","","","","","","","","","","","","","","",""
"","null","html-keyboard-response","9","121013","0.0-9.0-0.0","SS1619740046290","","","null","","","","","","<p><img src= images/blank.png width =""600"" height = ""600"" style=""position:fixed;top:50%; left:50%; transform: translate(-50%, -50%); border:5px solid black"">","","","","","","","",""
"","3667.424999992363","sequential-stimulus-presentation-old","10","125192","0.0-9.0-1.0","SS1619740046290","trial","","40","500","4167.424999992363","images/stimuli/spore_stims/complex_09_A_a.gif","images/stimuli/spore_stims/complex_20_A_b.gif","forced_short","","0","complex_dissimilar","images/stimuli/spore_stims/complex_20_A_b.gif","","","","",""
"","null","html-keyboard-response","11","126030","0.0-9.0-0.1","SS1619740046290","","","null","","","","","","<p><img src= images/blank.png width =""600"" height = ""600"" style=""position:fixed;top:50%; left:50%; transform: translate(-50%, -50%); border:5px solid black"">","","","","","","","",""
"","32169.53499999363","sequential-stimulus-presentation-old","12","158710","0.0-9.0-1.1","SS1619740046290","trial","","40","500","32669.53499999363","images/stimuli/spore_stims/complex_09_A_a.gif","images/stimuli/spore_stims/complex_20_A_b.gif","forced_short","","0","complex_dissimilar","images/stimuli/spore_stims/complex_20_A_b.gif","","","","",""
"","null","html-keyboard-response","13","159940","0.0-9.0-0.2","SS1619740046290","","","null","","","","","","<p><img src= images/blank.png width =""600"" height = ""600"" style=""position:fixed;top:50%; left:50%; transform: translate(-50%, -50%); border:5px solid black"">","","","","","","","",""
"","461.4949999959208","sequential-stimulus-presentation-old","14","160910","0.0-9.0-1.2","SS1619740046290","trial","","40","500","961.4949999959208","images/stimuli/spore_stims/complex_09_A_a.gif","images/stimuli/spore_stims/complex_20_A_b.gif","forced_short","","0","complex_dissimilar","images/stimuli/spore_stims/complex_20_A_b.gif","","","","",""
"","null","html-keyboard-response","15","161943","0.0-9.0-0.3","SS1619740046290","","","null","","","","","","<p><img src= images/blank.png width =""600"" height = ""600"" style=""position:fixed;top:50%; left:50%; transform: translate(-50%, -50%); border:5px solid black"">","","","","","","","",""
"","6866.6099999973085","sequential-stimulus-presentation-old","16","169315","0.0-9.0-1.3","SS1619740046290","trial","","40","500","7366.6099999973085","images/stimuli/spore_stims/complex_09_A_a.gif","images/stimuli/spore_stims/complex_20_A_b.gif","forced_short","","0","complex_dissimilar","images/stimuli/spore_stims/complex_20_A_b.gif","","","","",""
"","4918.955000001006","survey-multi-choice","17","174247","0.0-10.0","SS1619740046290","math_question","","","","","","","","","","","","{""Q0"":""13""}","[0]","13","",""
"","null","html-keyboard-response","18","175371","0.0-11.0-0.0","SS1619740046290","","","null","","","","","","<p><img src= images/blank.png width =""600"" height = ""600"" style=""position:fixed;top:50%; left:50%; transform: translate(-50%, -50%); border:5px solid black"">","","","","","","","",""
"","2459.7150000045076","sequential-stimulus-presentation-old","19","192843","0.0-11.0-1.0","SS1619740046290","trial","","40","500","2959.7150000045076","images/stimuli/spore_stims/simple_12_A_b.gif","images/stimuli/spore_stims/simple_18_A_a.gif","forced_long","","1","simple_dissimilar","images/stimuli/spore_stims/simple_18_A_a.gif","","","","",""
"","null","html-keyboard-response","20","193718","0.0-11.0-0.1","SS1619740046290","","","null","","","","","","<p><img src= images/blank.png width =""600"" height = ""600"" style=""position:fixed;top:50%; left:50%; transform: translate(-50%, -50%); border:5px solid black"">","","","","","","","",""
"","10135.679999977583","sequential-stimulus-presentation-old","21","204365","0.0-11.0-1.1","SS1619740046290","trial","","40","500","10635.679999977583","images/stimuli/spore_stims/simple_12_A_b.gif","images/stimuli/spore_stims/simple_18_A_a.gif","forced_long","","1","simple_dissimilar","images/stimuli/spore_stims/simple_12_A_b.gif","","","","",""
"","null","html-keyboard-response","22","205537","0.0-11.0-0.2","SS1619740046290","","","null","","","","","","<p><img src= images/blank.png width =""600"" height = ""600"" style=""position:fixed;top:50%; left:50%; transform: translate(-50%, -50%); border:5px solid black"">","","","","","","","",""
"","22310.230000002775","sequential-stimulus-presentation-old","23","228358","0.0-11.0-1.2","SS1619740046290","trial","","40","500","22810.230000002775","images/stimuli/spore_stims/simple_12_A_b.gif","images/stimuli/spore_stims/simple_18_A_a.gif","forced_long","","1","simple_dissimilar","images/stimuli/spore_stims/simple_18_A_a.gif","","","","",""
"","null","html-keyboard-response","24","229273","0.0-11.0-0.3","SS1619740046290","","","null","","","","","","<p><img src= images/blank.png width =""600"" height = ""600"" style=""position:fixed;top:50%; left:50%; transform: translate(-50%, -50%); border:5px solid black"">","","","","","","","",""
"","776.7900000035297","sequential-stimulus-presentation-old","25","230561","0.0-11.0-1.3","SS1619740046290","trial","","40","500","1276.7900000035297","images/stimuli/spore_stims/simple_12_A_b.gif","images/stimuli/spore_stims/simple_18_A_a.gif","forced_long","","1","simple_dissimilar","images/stimuli/spore_stims/simple_18_A_a.gif","","","","",""
"","null","html-keyboard-response","26","231718","0.0-11.0-0.4","SS1619740046290","","","null","","","","","","<p><img src= images/blank.png width =""600"" height = ""600"" style=""position:fixed;top:50%; left:50%; transform: translate(-50%, -50%); border:5px solid black"">","","","","","","","",""
"","1753.740000014659","sequential-stimulus-presentation-old","27","233983","0.0-11.0-1.4","SS1619740046290","trial","","40","500","2253.740000014659","images/stimuli/spore_stims/simple_12_A_b.gif","images/stimuli/spore_stims/simple_18_A_a.gif","forced_long","","1","simple_dissimilar","images/stimuli/spore_stims/simple_18_A_a.gif","","","","",""
"","null","html-keyboard-response","28","234799","0.0-11.0-0.5","SS1619740046290","","","null","","","","","","<p><img src= images/blank.png width =""600"" height = ""600"" style=""position:fixed;top:50%; left:50%; transform: translate(-50%, -50%); border:5px solid black"">","","","","","","","",""
"","3309.4750000163913","sequential-stimulus-presentation-old","29","238624","0.0-11.0-1.5","SS1619740046290","trial","","40","500","3809.4750000163913","images/stimuli/spore_stims/simple_12_A_b.gif","images/stimuli/spore_stims/simple_18_A_a.gif","forced_long","","1","simple_dissimilar","images/stimuli/spore_stims/simple_18_A_a.gif","","","","",""
"","3673.515000002226","survey-multi-choice","30","242304","0.0-12.0","SS1619740046290","math_question","","","","","","","","","","","","{""Q0"":""8""}","[0]","8","",""
"","null","html-keyboard-response","31","243568","0.0-13.0-0.0","SS1619740046290","","","null","","","","","","<p><img src= images/blank.png width =""600"" height = ""600"" style=""position:fixed;top:50%; left:50%; transform: translate(-50%, -50%); border:5px solid black"">","","","","","","","",""
"","18233.159999974305","sequential-stimulus-presentation-old","32","276811","0.0-13.0-1.0","SS1619740046290","trial","","40","500","18733.159999974305","images/stimuli/spore_stims/simple_10_A_a.gif","images/stimuli/spore_stims/simple_02_A_b.gif","forced_long","","2","simple_dissimilar","images/stimuli/spore_stims/simple_02_A_b.gif","","","","",""
"","null","html-keyboard-response","33","277838","0.0-13.0-0.1","SS1619740046290","","","null","","","","","","<p><img src= images/blank.png width =""600"" height = ""600"" style=""position:fixed;top:50%; left:50%; transform: translate(-50%, -50%); border:5px solid black"">","","","","","","","",""
"","2847.554999985732","sequential-stimulus-presentation-old","34","281195","0.0-13.0-1.1","SS1619740046290","trial","","40","500","3347.554999985732","images/stimuli/spore_stims/simple_10_A_a.gif","images/stimuli/spore_stims/simple_02_A_b.gif","forced_long","","2","simple_dissimilar","images/stimuli/spore_stims/simple_02_A_b.gif","","","","",""
"","null","html-keyboard-response","35","282397","0.0-13.0-0.2","SS1619740046290","","","null","","","","","","<p><img src= images/blank.png width =""600"" height = ""600"" style=""position:fixed;top:50%; left:50%; transform: translate(-50%, -50%); border:5px solid black"">","","","","","","","",""
"","316.9099999940954","sequential-stimulus-presentation-old","36","283226","0.0-13.0-1.2","SS1619740046290","trial","","40","500","816.9099999940954","images/stimuli/spore_stims/simple_10_A_a.gif","images/stimuli/spore_stims/simple_02_A_b.gif","forced_long","","2","simple_dissimilar","images/stimuli/spore_stims/simple_10_A_a.gif","","","","",""
"","null","html-keyboard-response","37","284261","0.0-13.0-0.3","SS1619740046290","","","null","","","","","","<p><img src= images/blank.png width =""600"" height = ""600"" style=""position:fixed;top:50%; left:50%; transform: translate(-50%, -50%); border:5px solid black"">","","","","","","","",""
"","534.9099999875762","sequential-stimulus-presentation-old","38","285302","0.0-13.0-1.3","SS1619740046290","trial","","40","500","1034.9099999875762","images/stimuli/spore_stims/simple_10_A_a.gif","images/stimuli/spore_stims/simple_02_A_b.gif","forced_long","","2","simple_dissimilar","images/stimuli/spore_stims/simple_02_A_b.gif","","","","",""
"","null","html-keyboard-response","39","286188","0.0-13.0-0.4","SS1619740046290","","","null","","","","","","<p><img src= images/blank.png width =""600"" height = ""600"" style=""position:fixed;top:50%; left:50%; transform: translate(-50%, -50%); border:5px solid black"">","","","","","","","",""
"","1811.7800000181887","sequential-stimulus-presentation-old","40","288510","0.0-13.0-1.4","SS1619740046290","trial","","40","500","2311.7800000181887","images/stimuli/spore_stims/simple_10_A_a.gif","images/stimuli/spore_stims/simple_02_A_b.gif","forced_long","","2","simple_dissimilar","images/stimuli/spore_stims/simple_10_A_a.gif","","","","",""
"","5685.725000017555","survey-multi-choice","41","294201","0.0-14.0","SS1619740046290","math_question","","","","","","","","","","","","{""Q0"":""17""}","[0]","17","",""
"","null","html-keyboard-response","42","295453","0.0-15.0-0.0","SS1619740046290","","","null","","","","","","<p><img src= images/blank.png width =""600"" height = ""600"" style=""position:fixed;top:50%; left:50%; transform: translate(-50%, -50%); border:5px solid black"">","","","","","","","",""
"","5901.959999988321","sequential-stimulus-presentation-old","43","316368","0.0-15.0-1.0","SS1619740046290","trial","","40","500","6401.959999988321","images/stimuli/spore_stims/complex_11_A_b.gif","images/stimuli/spore_stims/complex_14_A_a.gif","forced_long","","3","complex_dissimilar","images/stimuli/spore_stims/complex_14_A_a.gif","","","","",""
"","null","html-keyboard-response","44","317498","0.0-15.0-0.1","SS1619740046290","","","null","","","","","","<p><img src= images/blank.png width =""600"" height = ""600"" style=""position:fixed;top:50%; left:50%; transform: translate(-50%, -50%); border:5px solid black"">","","","","","","","",""
"","101449.47499997215","sequential-stimulus-presentation-old","45","419461","0.0-15.0-1.1","SS1619740046290","trial","","40","500","101949.47499997215","images/stimuli/spore_stims/complex_11_A_b.gif","images/stimuli/spore_stims/complex_14_A_a.gif","forced_long","","3","complex_dissimilar","images/stimuli/spore_stims/complex_14_A_a.gif","","","","",""
"","null","html-keyboard-response","46","420470","0.0-15.0-0.2","SS1619740046290","","","null","","","","","","<p><img src= images/blank.png width =""600"" height = ""600"" style=""position:fixed;top:50%; left:50%; transform: translate(-50%, -50%); border:5px solid black"">","","","","","","","",""
"","97.20000001834705","sequential-stimulus-presentation-old","47","421075","0.0-15.0-1.2","SS1619740046290","trial","","40","500","597.200000018347","images/stimuli/spore_stims/complex_11_A_b.gif","images/stimuli/spore_stims/complex_14_A_a.gif","forced_long","","3","complex_dissimilar","images/stimuli/spore_stims/complex_14_A_a.gif","","","","",""
"","null","html-keyboard-response","48","422128","0.0-15.0-0.3","SS1619740046290","","","null","","","","","","<p><img src= images/blank.png width =""600"" height = ""600"" style=""position:fixed;top:50%; left:50%; transform: translate(-50%, -50%); border:5px solid black"">","","","","","","","",""
"","864.3100000044797","sequential-stimulus-presentation-old","49","423501","0.0-15.0-1.3","SS1619740046290","trial","","40","500","1364.3100000044797","images/stimuli/spore_stims/complex_11_A_b.gif","images/stimuli/spore_stims/complex_14_A_a.gif","forced_long","","3","complex_dissimilar","images/stimuli/spore_stims/complex_14_A_a.gif","","","","",""
"","null","html-keyboard-response","50","424563","0.0-15.0-0.4","SS1619740046290","","","null","","","","","","<p><img src= images/blank.png width =""600"" height = ""600"" style=""position:fixed;top:50%; left:50%; transform: translate(-50%, -50%); border:5px solid black"">","","","","","","","",""
"","2231.6400000127032","sequential-stimulus-presentation-old","51","427303","0.0-15.0-1.4","SS1619740046290","trial","","40","500","2731.6400000127032","images/stimuli/spore_stims/complex_11_A_b.gif","images/stimuli/spore_stims/complex_14_A_a.gif","forced_long","","3","complex_dissimilar","images/stimuli/spore_stims/complex_14_A_a.gif","","","","",""
"","null","html-keyboard-response","52","428296","0.0-15.0-0.5","SS1619740046290","","","null","","","","","","<p><img src= images/blank.png width =""600"" height = ""600"" style=""position:fixed;top:50%; left:50%; transform: translate(-50%, -50%); border:5px solid black"">","","","","","","","",""
"","1385.2049999986775","sequential-stimulus-presentation-old","53","430189","0.0-15.0-1.5","SS1619740046290","trial","","40","500","1885.2049999986775","images/stimuli/spore_stims/complex_11_A_b.gif","images/stimuli/spore_stims/complex_14_A_a.gif","forced_long","","3","complex_dissimilar","images/stimuli/spore_stims/complex_14_A_a.gif","","","","",""
"","3134.4350000144914","survey-multi-choice","54","433329","0.0-16.0","SS1619740046290","math_question","","","","","","","","","","","","{""Q0"":""7""}","[0]","7","",""
"","null","html-keyboard-response","55","434229","0.0-17.0-0.0","SS1619740046290","","","null","","","","","","<p><img src= images/blank.png width =""600"" height = ""600"" style=""position:fixed;top:50%; left:50%; transform: translate(-50%, -50%); border:5px solid black"">","","","","","","","",""
"","1127.2699999972247","sequential-stimulus-presentation-old","56","450370","0.0-17.0-1.0","SS1619740046290","trial","","40","500","1627.2699999972247","images/stimuli/spore_stims/complex_01_A_b.gif","images/stimuli/spore_stims/complex_19_A_a.gif","forced_long","","4","complex_dissimilar","images/stimuli/spore_stims/complex_19_A_a.gif","","","","",""
"","null","html-keyboard-response","57","451609","0.0-17.0-0.1","SS1619740046290","","","null","","","","","","<p><img src= images/blank.png width =""600"" height = ""600"" style=""position:fixed;top:50%; left:50%; transform: translate(-50%, -50%); border:5px solid black"">","","","","","","","",""
"","25956.594999996014","sequential-stimulus-presentation-old","58","478072","0.0-17.0-1.1","SS1619740046290","trial","","40","500","26456.594999996014","images/stimuli/spore_stims/complex_01_A_b.gif","images/stimuli/spore_stims/complex_19_A_a.gif","forced_long","","4","complex_dissimilar","images/stimuli/spore_stims/complex_19_A_a.gif","","","","",""
"","null","html-keyboard-response","59","478969","0.0-17.0-0.2","SS1619740046290","","","null","","","","","","<p><img src= images/blank.png width =""600"" height = ""600"" style=""position:fixed;top:50%; left:50%; transform: translate(-50%, -50%); border:5px solid black"">","","","","","","","",""
"","17181.16499998723","sequential-stimulus-presentation-old","60","496661","0.0-17.0-1.2","SS1619740046290","trial","","40","500","17681.16499998723","images/stimuli/spore_stims/complex_01_A_b.gif","images/stimuli/spore_stims/complex_19_A_a.gif","forced_long","","4","complex_dissimilar","images/stimuli/spore_stims/complex_19_A_a.gif","","","","",""
"","null","html-keyboard-response","61","497811","0.0-17.0-0.3","SS1619740046290","","","null","","","","","","<p><img src= images/blank.png width =""600"" height = ""600"" style=""position:fixed;top:50%; left:50%; transform: translate(-50%, -50%); border:5px solid black"">","","","","","","","",""
"","11475.50499998033","sequential-stimulus-presentation-old","62","509798","0.0-17.0-1.3","SS1619740046290","trial","","40","500","11975.50499998033","images/stimuli/spore_stims/complex_01_A_b.gif","images/stimuli/spore_stims/complex_19_A_a.gif","forced_long","","4","complex_dissimilar","images/stimuli/spore_stims/complex_19_A_a.gif","","","","",""
"","null","html-keyboard-response","63","510797","0.0-17.0-0.4","SS1619740046290","","","null","","","","","","<p><img src= images/blank.png width =""600"" height = ""600"" style=""position:fixed;top:50%; left:50%; transform: translate(-50%, -50%); border:5px solid black"">","","","","","","","",""
"","13705.159999983152","sequential-stimulus-presentation-old","64","525012","0.0-17.0-1.4","SS1619740046290","trial","","40","500","14205.159999983152","images/stimuli/spore_stims/complex_01_A_b.gif","images/stimuli/spore_stims/complex_19_A_a.gif","forced_long","","4","complex_dissimilar","images/stimuli/spore_stims/complex_19_A_a.gif","","","","",""
"","4756.400000012945","survey-multi-choice","65","529774","0.0-18.0","SS1619740046290","math_question","","","","","","","","","","","","{""Q0"":""3""}","[0]","3","",""
"","null","html-keyboard-response","66","531033","0.0-19.0-0.0","SS1619740046290","","","null","","","","","","<p><img src= images/blank.png width =""600"" height = ""600"" style=""position:fixed;top:50%; left:50%; transform: translate(-50%, -50%); border:5px solid black"">","","","","","","","",""
"","26062.57499998901","sequential-stimulus-presentation-old","67","557611","0.0-19.0-1.0","SS1619740046290","trial","","40","500","26562.57499998901","images/stimuli/spore_stims/complex_20_A_a.gif","images/stimuli/spore_stims/complex_18_A_b.gif","forced_short","","5","complex_dissimilar","images/stimuli/spore_stims/complex_18_A_b.gif","","","","",""
"","null","html-keyboard-response","68","558807","0.0-19.0-0.1","SS1619740046290","","","null","","","","","","<p><img src= images/blank.png width =""600"" height = ""600"" style=""position:fixed;top:50%; left:50%; transform: translate(-50%, -50%); border:5px solid black"">","","","","","","","",""
"","43080.43999999063","sequential-stimulus-presentation-old","69","602396","0.0-19.0-1.1","SS1619740046290","trial","","40","500","43580.43999999063","images/stimuli/spore_stims/complex_20_A_a.gif","images/stimuli/spore_stims/complex_18_A_b.gif","forced_short","","5","complex_dissimilar","images/stimuli/spore_stims/complex_18_A_b.gif","","","","",""
"","null","html-keyboard-response","70","603701","0.0-19.0-0.2","SS1619740046290","","","null","","","","","","<p><img src= images/blank.png width =""600"" height = ""600"" style=""position:fixed;top:50%; left:50%; transform: translate(-50%, -50%); border:5px solid black"">","","","","","","","",""
"","12562.760000000708","sequential-stimulus-presentation-old","71","616771","0.0-19.0-1.2","SS1619740046290","trial","","40","500","13062.760000000708","images/stimuli/spore_stims/complex_20_A_a.gif","images/stimuli/spore_stims/complex_18_A_b.gif","forced_short","","5","complex_dissimilar","images/stimuli/spore_stims/complex_18_A_b.gif","","","","",""
"","null","html-keyboard-response","72","617631","0.0-19.0-0.3","SS1619740046290","","","null","","","","","","<p><img src= images/blank.png width =""600"" height = ""600"" style=""position:fixed;top:50%; left:50%; transform: translate(-50%, -50%); border:5px solid black"">","","","","","","","",""
"","38864.94499997934","sequential-stimulus-presentation-old","73","657007","0.0-19.0-1.3","SS1619740046290","trial","","40","500","39364.94499997934","images/stimuli/spore_stims/complex_20_A_a.gif","images/stimuli/spore_stims/complex_18_A_b.gif","forced_short","","5","complex_dissimilar","images/stimuli/spore_stims/complex_18_A_b.gif","","","","",""
"","null","html-keyboard-response","74","657919","0.0-19.0-0.4","SS1619740046290","","","null","","","","","","<p><img src= images/blank.png width =""600"" height = ""600"" style=""position:fixed;top:50%; left:50%; transform: translate(-50%, -50%); border:5px solid black"">","","","","","","","",""
"","24382.339999981923","sequential-stimulus-presentation-old","75","682815","0.0-19.0-1.4","SS1619740046290","trial","","40","500","24882.339999981923","images/stimuli/spore_stims/complex_20_A_a.gif","images/stimuli/spore_stims/complex_18_A_b.gif","forced_short","","5","complex_dissimilar","images/stimuli/spore_stims/complex_20_A_a.gif","","","","",""
"","4235.6849999923725","survey-multi-choice","76","687057","0.0-20.0","SS1619740046290","math_question","","","","","","","","","","","","{""Q0"":""8""}","[0]","8","",""
"","null","html-keyboard-response","77","688261","0.0-21.0-0.0","SS1619740046290","","","null","","","","","","<p><img src= images/blank.png width =""600"" height = ""600"" style=""position:fixed;top:50%; left:50%; transform: translate(-50%, -50%); border:5px solid black"">","","","","","","","",""
"","38885.38000002154","sequential-stimulus-presentation-old","78","727656","0.0-21.0-1.0","SS1619740046290","trial","","40","500","39385.38000002154","images/stimuli/spore_stims/complex_08_A_a.gif","images/stimuli/spore_stims/complex_09_A_b.gif","self_paced","","6","complex_dissimilar","images/stimuli/spore_stims/complex_09_A_b.gif","","","","",""
"","null","html-keyboard-response","79","728841","0.0-21.0-0.1","SS1619740046290","","","null","","","","","","<p><img src= images/blank.png width =""600"" height = ""600"" style=""position:fixed;top:50%; left:50%; transform: translate(-50%, -50%); border:5px solid black"">","","","","","","","",""
"","3045.0000000128057","sequential-stimulus-presentation-old","80","732397","0.0-21.0-1.1","SS1619740046290","trial","","40","500","3545.0000000128057","images/stimuli/spore_stims/complex_08_A_a.gif","images/stimuli/spore_stims/complex_09_A_b.gif","self_paced","","6","complex_dissimilar","images/stimuli/spore_stims/complex_09_A_b.gif","","","","",""
"","null","html-keyboard-response","81","733487","0.0-21.0-0.2","SS1619740046290","","","null","","","","","","<p><img src= images/blank.png width =""600"" height = ""600"" style=""position:fixed;top:50%; left:50%; transform: translate(-50%, -50%); border:5px solid black"">","","","","","","","",""
"","6608.619999984512","sequential-stimulus-presentation-old","82","740611","0.0-21.0-1.2","SS1619740046290","trial","","40","500","7108.619999984512","images/stimuli/spore_stims/complex_08_A_a.gif","images/stimuli/spore_stims/complex_09_A_b.gif","self_paced","","6","complex_dissimilar","images/stimuli/spore_stims/complex_09_A_b.gif","","","","",""
"","null","html-keyboard-response","83","741789","0.0-21.0-0.3","SS1619740046290","","","null","","","","","","<p><img src= images/blank.png width =""600"" height = ""600"" style=""position:fixed;top:50%; left:50%; transform: translate(-50%, -50%); border:5px solid black"">","","","","","","","",""
"","38.32500000135042","sequential-stimulus-presentation-old","84","742338","0.0-21.0-1.3","SS1619740046290","trial","","40","500","538.3250000013504","images/stimuli/spore_stims/complex_08_A_a.gif","images/stimuli/spore_stims/complex_09_A_b.gif","self_paced","","6","complex_dissimilar","images/stimuli/spore_stims/complex_09_A_b.gif","","","","",""
"","null","html-keyboard-response","85","743317","0.0-21.0-0.4","SS1619740046290","","","null","","","","","","<p><img src= images/blank.png width =""600"" height = ""600"" style=""position:fixed;top:50%; left:50%; transform: translate(-50%, -50%); border:5px solid black"">","","","","","","","",""
"","11718.07999999146","sequential-stimulus-presentation-old","86","755547","0.0-21.0-1.4","SS1619740046290","trial","","40","500","12218.07999999146","images/stimuli/spore_stims/complex_08_A_a.gif","images/stimuli/spore_stims/complex_09_A_b.gif","self_paced","","6","complex_dissimilar","images/stimuli/spore_stims/complex_09_A_b.gif","","","","",""
"","null","html-keyboard-response","87","756370","0.0-21.0-0.5","SS1619740046290","","","null","","","","","","<p><img src= images/blank.png width =""600"" height = ""600"" style=""position:fixed;top:50%; left:50%; transform: translate(-50%, -50%); border:5px solid black"">","","","","","","","",""
"","2049.1849999816623","sequential-stimulus-presentation-old","88","758925","0.0-21.0-1.5","SS1619740046290","trial","","40","500","2549.1849999816623","images/stimuli/spore_stims/complex_08_A_a.gif","images/stimuli/spore_stims/complex_09_A_b.gif","self_paced","","6","complex_dissimilar","images/stimuli/spore_stims/complex_08_A_a.gif","","","","",""
"","6519.80999999796","survey-multi-choice","89","765452","0.0-22.0","SS1619740046290","math_question","","","","","","","","","","","","{""Q0"":""12""}","[0]","12","",""
"","null","html-keyboard-response","90","766689","0.0-23.0-0.0","SS1619740046290","","","null","","","","","","<p><img src= images/blank.png width =""600"" height = ""600"" style=""position:fixed;top:50%; left:50%; transform: translate(-50%, -50%); border:5px solid black"">","","","","","","","",""
"","24454.079999995884","sequential-stimulus-presentation-old","91","791661","0.0-23.0-1.0","SS1619740046290","trial","","40","500","24954.079999995884","images/stimuli/spore_stims/simple_15_A_a.gif","images/stimuli/spore_stims/simple_16_A_b.gif","forced_short","","7","simple_dissimilar","images/stimuli/spore_stims/simple_16_A_b.gif","","","","",""
"","null","html-keyboard-response","92","792684","0.0-23.0-0.1","SS1619740046290","","","null","","","","","","<p><img src= images/blank.png width =""600"" height = ""600"" style=""position:fixed;top:50%; left:50%; transform: translate(-50%, -50%); border:5px solid black"">","","","","","","","",""
"","29811.619999993127","sequential-stimulus-presentation-old","93","823007","0.0-23.0-1.1","SS1619740046290","trial","","40","500","30311.619999993127","images/stimuli/spore_stims/simple_15_A_a.gif","images/stimuli/spore_stims/simple_16_A_b.gif","forced_short","","7","simple_dissimilar","images/stimuli/spore_stims/simple_15_A_a.gif","","","","",""
"","null","html-keyboard-response","94","824217","0.0-23.0-0.2","SS1619740046290","","","null","","","","","","<p><img src= images/blank.png width =""600"" height = ""600"" style=""position:fixed;top:50%; left:50%; transform: translate(-50%, -50%); border:5px solid black"">","","","","","","","",""
"","29888.964999991003","sequential-stimulus-presentation-old","95","854622","0.0-23.0-1.2","SS1619740046290","trial","","40","500","30388.964999991003","images/stimuli/spore_stims/simple_15_A_a.gif","images/stimuli/spore_stims/simple_16_A_b.gif","forced_short","","7","simple_dissimilar","images/stimuli/spore_stims/simple_16_A_b.gif","","","","",""
"","null","html-keyboard-response","96","855678","0.0-23.0-0.3","SS1619740046290","","","null","","","","","","<p><img src= images/blank.png width =""600"" height = ""600"" style=""position:fixed;top:50%; left:50%; transform: translate(-50%, -50%); border:5px solid black"">","","","","","","","",""
"","3818.089999986114","sequential-stimulus-presentation-old","97","860009","0.0-23.0-1.3","SS1619740046290","trial","","40","500","4318.089999986114","images/stimuli/spore_stims/simple_15_A_a.gif","images/stimuli/spore_stims/simple_16_A_b.gif","forced_short","","7","simple_dissimilar","images/stimuli/spore_stims/simple_16_A_b.gif","","","","",""
"","null","html-keyboard-response","98","860946","0.0-23.0-0.4","SS1619740046290","","","null","","","","","","<p><img src= images/blank.png width =""600"" height = ""600"" style=""position:fixed;top:50%; left:50%; transform: translate(-50%, -50%); border:5px solid black"">","","","","","","","",""
"","380.23000000976026","sequential-stimulus-presentation-old","99","861848","0.0-23.0-1.4","SS1619740046290","trial","","40","500","880.2300000097603","images/stimuli/spore_stims/simple_15_A_a.gif","images/stimuli/spore_stims/simple_16_A_b.gif","forced_short","","7","simple_dissimilar","images/stimuli/spore_stims/simple_16_A_b.gif","","","","",""
"","3295.6949999788776","survey-multi-choice","100","865152","0.0-24.0","SS1619740046290","math_question","","","","","","","","","","","","{""Q0"":""8""}","[0]","8","",""
"","null","html-keyboard-response","101","866276","0.0-25.0-0.0","SS1619740046290","","","null","","","","","","<p><img src= images/blank.png width =""600"" height = ""600"" style=""position:fixed;top:50%; left:50%; transform: translate(-50%, -50%); border:5px solid black"">","","","","","","","",""
"","48490.460000000894","sequential-stimulus-presentation-old","102","915283","0.0-25.0-1.0","SS1619740046290","trial","","40","500","48990.460000000894","images/stimuli/spore_stims/complex_12_A_b.gif","images/stimuli/spore_stims/complex_13_A_a.gif","self_paced","","8","complex_dissimilar","images/stimuli/spore_stims/complex_13_A_a.gif","","","","",""
"","null","html-keyboard-response","103","916228","0.0-25.0-0.1","SS1619740046290","","","null","","","","","","<p><img src= images/blank.png width =""600"" height = ""600"" style=""position:fixed;top:50%; left:50%; transform: translate(-50%, -50%); border:5px solid black"">","","","","","","","",""
"","61293.62499999115","sequential-stimulus-presentation-old","104","978032","0.0-25.0-1.1","SS1619740046290","trial","","40","500","61793.62499999115","images/stimuli/spore_stims/complex_12_A_b.gif","images/stimuli/spore_stims/complex_13_A_a.gif","self_paced","","8","complex_dissimilar","images/stimuli/spore_stims/complex_13_A_a.gif","","","","",""
"","null","html-keyboard-response","105","978893","0.0-25.0-0.2","SS1619740046290","","","null","","","","","","<p><img src= images/blank.png width =""600"" height = ""600"" style=""position:fixed;top:50%; left:50%; transform: translate(-50%, -50%); border:5px solid black"">","","","","","","","",""
"","1562.7749999985099","sequential-stimulus-presentation-old","106","980964","0.0-25.0-1.2","SS1619740046290","trial","","40","500","2062.77499999851","images/stimuli/spore_stims/complex_12_A_b.gif","images/stimuli/spore_stims/complex_13_A_a.gif","self_paced","","8","complex_dissimilar","images/stimuli/spore_stims/complex_13_A_a.gif","","","","",""
"","null","html-keyboard-response","107","981837","0.0-25.0-0.3","SS1619740046290","","","null","","","","","","<p><img src= images/blank.png width =""600"" height = ""600"" style=""position:fixed;top:50%; left:50%; transform: translate(-50%, -50%); border:5px solid black"">","","","","","","","",""
"","264.8250000202097","sequential-stimulus-presentation-old","108","982612","0.0-25.0-1.3","SS1619740046290","trial","","40","500","764.8250000202097","images/stimuli/spore_stims/complex_12_A_b.gif","images/stimuli/spore_stims/complex_13_A_a.gif","self_paced","","8","complex_dissimilar","images/stimuli/spore_stims/complex_13_A_a.gif","","","","",""
"","3610.960000019986","survey-multi-choice","109","986233","0.0-26.0","SS1619740046290","math_question","","","","","","","","","","","","{""Q0"":""6""}","[0]","6","",""
"","null","html-keyboard-response","110","987375","0.0-27.0-0.0","SS1619740046290","","","null","","","","","","<p><img src= images/blank.png width =""600"" height = ""600"" style=""position:fixed;top:50%; left:50%; transform: translate(-50%, -50%); border:5px solid black"">","","","","","","","",""
"","4494.31999999797","sequential-stimulus-presentation-old","111","992377","0.0-27.0-1.0","SS1619740046290","trial","","40","500","4994.31999999797","images/stimuli/spore_stims/simple_04_A_a.gif","images/stimuli/spore_stims/simple_05_A_b.gif","forced_short","","9","simple_dissimilar","images/stimuli/spore_stims/simple_05_A_b.gif","","","","",""
"","null","html-keyboard-response","112","993532","0.0-27.0-0.1","SS1619740046290","","","null","","","","","","<p><img src= images/blank.png width =""600"" height = ""600"" style=""position:fixed;top:50%; left:50%; transform: translate(-50%, -50%); border:5px solid black"">","","","","","","","",""
"","149.17000001878478","sequential-stimulus-presentation-old","113","994194","0.0-27.0-1.1","SS1619740046290","trial","","40","500","649.1700000187848","images/stimuli/spore_stims/simple_04_A_a.gif","images/stimuli/spore_stims/simple_05_A_b.gif","forced_short","","9","simple_dissimilar","images/stimuli/spore_stims/simple_04_A_a.gif","","","","",""
"","null","html-keyboard-response","114","995163","0.0-27.0-0.2","SS1619740046290","","","null","","","","","","<p><img src= images/blank.png width =""600"" height = ""600"" style=""position:fixed;top:50%; left:50%; transform: translate(-50%, -50%); border:5px solid black"">","","","","","","","",""
"","313.7599999899976","sequential-stimulus-presentation-old","115","995995","0.0-27.0-1.2","SS1619740046290","trial","","40","500","813.7599999899976","images/stimuli/spore_stims/simple_04_A_a.gif","images/stimuli/spore_stims/simple_05_A_b.gif","forced_short","","9","simple_dissimilar","images/stimuli/spore_stims/simple_05_A_b.gif","","","","",""
"","null","html-keyboard-response","116","996996","0.0-27.0-0.3","SS1619740046290","","","null","","","","","","<p><img src= images/blank.png width =""600"" height = ""600"" style=""position:fixed;top:50%; left:50%; transform: translate(-50%, -50%); border:5px solid black"">","","","","","","","",""
"","317.6699999894481","sequential-stimulus-presentation-old","117","997822","0.0-27.0-1.3","SS1619740046290","trial","","40","500","817.6699999894481","images/stimuli/spore_stims/simple_04_A_a.gif","images/stimuli/spore_stims/simple_05_A_b.gif","forced_short","","9","simple_dissimilar","images/stimuli/spore_stims/simple_04_A_a.gif","","","","",""
"","null","html-keyboard-response","118","998961","0.0-27.0-0.4","SS1619740046290","","","null","","","","","","<p><img src= images/blank.png width =""600"" height = ""600"" style=""position:fixed;top:50%; left:50%; transform: translate(-50%, -50%); border:5px solid black"">","","","","","","","",""
"","188.38000000687316","sequential-stimulus-presentation-old","119","999668","0.0-27.0-1.4","SS1619740046290","trial","","40","500","688.3800000068732","images/stimuli/spore_stims/simple_04_A_a.gif","images/stimuli/spore_stims/simple_05_A_b.gif","forced_short","","9","simple_dissimilar","images/stimuli/spore_stims/simple_05_A_b.gif","","","","",""
"","null","html-keyboard-response","120","1000512","0.0-27.0-0.5","SS1619740046290","","","null","","","","","","<p><img src= images/blank.png width =""600"" height = ""600"" style=""position:fixed;top:50%; left:50%; transform: translate(-50%, -50%); border:5px solid black"">","","","","","","","",""
"","176.1949999781791","sequential-stimulus-presentation-old","121","1001198","0.0-27.0-1.5","SS1619740046290","trial","","40","500","676.1949999781791","images/stimuli/spore_stims/simple_04_A_a.gif","images/stimuli/spore_stims/simple_05_A_b.gif","forced_short","","9","simple_dissimilar","images/stimuli/spore_stims/simple_05_A_b.gif","","","","",""
"","4117.900000012014","survey-multi-choice","122","1005325","0.0-28.0","SS1619740046290","math_question","","","","","","","","","","","","{""Q0"":""11""}","[0]","11","",""
"","null","html-keyboard-response","123","1006569","0.0-29.0-0.0","SS1619740046290","","","null","","","","","","<p><img src= images/blank.png width =""600"" height = ""600"" style=""position:fixed;top:50%; left:50%; transform: translate(-50%, -50%); border:5px solid black"">","","","","","","","",""
"","874.4900000165217","sequential-stimulus-presentation-old","124","1007951","0.0-29.0-1.0","SS1619740046290","trial","","40","500","1374.4900000165217","images/stimuli/spore_stims/simple_11_A_a.gif","images/stimuli/spore_stims/simple_08_A_b.gif","self_paced","","10","simple_dissimilar","images/stimuli/spore_stims/simple_08_A_b.gif","","","","",""
"","null","html-keyboard-response","125","1008901","0.0-29.0-0.1","SS1619740046290","","","null","","","","","","<p><img src= images/blank.png width =""600"" height = ""600"" style=""position:fixed;top:50%; left:50%; transform: translate(-50%, -50%); border:5px solid black"">","","","","","","","",""
"","22.02999999281019","sequential-stimulus-presentation-old","126","1009444","0.0-29.0-1.1","SS1619740046290","trial","","40","500","522.0299999928102","images/stimuli/spore_stims/simple_11_A_a.gif","images/stimuli/spore_stims/simple_08_A_b.gif","self_paced","","10","simple_dissimilar","images/stimuli/spore_stims/simple_08_A_b.gif","","","","",""
"","null","html-keyboard-response","127","1010451","0.0-29.0-0.2","SS1619740046290","","","null","","","","","","<p><img src= images/blank.png width =""600"" height = ""600"" style=""position:fixed;top:50%; left:50%; transform: translate(-50%, -50%); border:5px solid black"">","","","","","","","",""
"","64.04500000644475","sequential-stimulus-presentation-old","128","1011026","0.0-29.0-1.2","SS1619740046290","trial","","40","500","564.0450000064448","images/stimuli/spore_stims/simple_11_A_a.gif","images/stimuli/spore_stims/simple_08_A_b.gif","self_paced","","10","simple_dissimilar","images/stimuli/spore_stims/simple_08_A_b.gif","","","","",""
"","null","html-keyboard-response","129","1012120","0.0-29.0-0.3","SS1619740046290","","","null","","","","","","<p><img src= images/blank.png width =""600"" height = ""600"" style=""position:fixed;top:50%; left:50%; transform: translate(-50%, -50%); border:5px solid black"">","","","","","","","",""
"","924.1549999860581","sequential-stimulus-presentation-old","130","1013553","0.0-29.0-1.3","SS1619740046290","trial","","40","500","1424.154999986058","images/stimuli/spore_stims/simple_11_A_a.gif","images/stimuli/spore_stims/simple_08_A_b.gif","self_paced","","10","simple_dissimilar","images/stimuli/spore_stims/simple_11_A_a.gif","","","","",""
"","null","html-keyboard-response","131","1014533","0.0-29.0-0.4","SS1619740046290","","","null","","","","","","<p><img src= images/blank.png width =""600"" height = ""600"" style=""position:fixed;top:50%; left:50%; transform: translate(-50%, -50%); border:5px solid black"">","","","","","","","",""
"","149.07499999389984","sequential-stimulus-presentation-old","132","1015189","0.0-29.0-1.4","SS1619740046290","trial","","40","500","649.0749999938998","images/stimuli/spore_stims/simple_11_A_a.gif","images/stimuli/spore_stims/simple_08_A_b.gif","self_paced","","10","simple_dissimilar","images/stimuli/spore_stims/simple_08_A_b.gif","","","","",""
"","5826.0050000099","survey-multi-choice","133","1021023","0.0-30.0","SS1619740046290","math_question","","","","","","","","","","","","{""Q0"":""13""}","[0]","13","",""
"","null","html-keyboard-response","134","1021900","0.0-31.0-0.0","SS1619740046290","","","null","","","","","","<p><img src= images/blank.png width =""600"" height = ""600"" style=""position:fixed;top:50%; left:50%; transform: translate(-50%, -50%); border:5px solid black"">","","","","","","","",""
"","196.5650000202004","sequential-stimulus-presentation-old","135","1022610","0.0-31.0-1.0","SS1619740046290","trial","","40","500","696.5650000202004","images/stimuli/spore_stims/simple_13_A_a.gif","images/stimuli/spore_stims/simple_11_A_b.gif","self_paced","","11","simple_dissimilar","images/stimuli/spore_stims/simple_11_A_b.gif","","","","",""
"","null","html-keyboard-response","136","1023815","0.0-31.0-0.1","SS1619740046290","","","null","","","","","","<p><img src= images/blank.png width =""600"" height = ""600"" style=""position:fixed;top:50%; left:50%; transform: translate(-50%, -50%); border:5px solid black"">","","","","","","","",""
"","563.2650000043213","sequential-stimulus-presentation-old","137","1024895","0.0-31.0-1.1","SS1619740046290","trial","","40","500","1063.2650000043213","images/stimuli/spore_stims/simple_13_A_a.gif","images/stimuli/spore_stims/simple_11_A_b.gif","self_paced","","11","simple_dissimilar","images/stimuli/spore_stims/simple_11_A_b.gif","","","","",""
"","null","html-keyboard-response","138","1025805","0.0-31.0-0.2","SS1619740046290","","","null","","","","","","<p><img src= images/blank.png width =""600"" height = ""600"" style=""position:fixed;top:50%; left:50%; transform: translate(-50%, -50%); border:5px solid black"">","","","","","","","",""
"","337.16500000446104","sequential-stimulus-presentation-old","139","1026656","0.0-31.0-1.2","SS1619740046290","trial","","40","500","837.165000004461","images/stimuli/spore_stims/simple_13_A_a.gif","images/stimuli/spore_stims/simple_11_A_b.gif","self_paced","","11","simple_dissimilar","images/stimuli/spore_stims/simple_11_A_b.gif","","","","",""
"","null","html-keyboard-response","140","1027871","0.0-31.0-0.3","SS1619740046290","","","null","","","","","","<p><img src= images/blank.png width =""600"" height = ""600"" style=""position:fixed;top:50%; left:50%; transform: translate(-50%, -50%); border:5px solid black"">","","","","","","","",""
"","391.68500000960194","sequential-stimulus-presentation-old","141","1028773","0.0-31.0-1.3","SS1619740046290","trial","","40","500","891.6850000096019","images/stimuli/spore_stims/simple_13_A_a.gif","images/stimuli/spore_stims/simple_11_A_b.gif","self_paced","","11","simple_dissimilar","images/stimuli/spore_stims/simple_13_A_a.gif","","","","",""
"[{""page_index"":0,""viewing_time"":8442.06000000122}]","8443.064999999478","instructions","142","1037223","0.0-32.0","SS1619740046290","instructions","","","","","","","","","","","","","","","",""
"","7251.374999992549","survey-likert","143","1044486","0.0-33.0","SS1619740046290","similarity_question","","","","","","","","","","","","{""Q0"":1}","[0]","","images/stimuli/spore_stims/complex_08_A_a.gif","images/stimuli/spore_stims/complex_09_A_b.gif"
"","15944.120000000112","survey-likert","144","1060455","0.0-34.0","SS1619740046290","similarity_question","","","","","","","","","","","","{""Q0"":4}","[0]","","images/stimuli/spore_stims/complex_18_A_b.gif","images/stimuli/spore_stims/complex_20_A_a.gif"
"","3681.6749999998137","survey-likert","145","1064159","0.0-35.0","SS1619740046290","similarity_question","","","","","","","","","","","","{""Q0"":2}","[0]","","images/stimuli/spore_stims/simple_04_A_a.gif","images/stimuli/spore_stims/simple_05_A_b.gif"
"","3502.230000012787","survey-likert","146","1067683","0.0-36.0","SS1619740046290","similarity_question","","","","","","","","","","","","{""Q0"":2}","[0]","","images/stimuli/spore_stims/simple_11_A_a.gif","images/stimuli/spore_stims/simple_08_A_b.gif"
"","4449.720000004163","survey-likert","147","1072159","0.0-37.0","SS1619740046290","similarity_question","","","","","","","","","","","","{""Q0"":2}","[0]","","images/stimuli/spore_stims/simple_10_A_a.gif","images/stimuli/spore_stims/simple_02_A_b.gif"
"","3920.3700000070967","survey-likert","148","1076101","0.0-38.0","SS1619740046290","similarity_question","","","","","","","","","","","","{""Q0"":5}","[0]","","images/stimuli/spore_stims/complex_11_A_b.gif","images/stimuli/spore_stims/complex_14_A_a.gif"
"","3355.9100000129547","survey-likert","149","1079486","0.0-39.0","SS1619740046290","similarity_question","","","","","","","","","","","","{""Q0"":5}","[0]","","images/stimuli/spore_stims/simple_15_A_a.gif","images/stimuli/spore_stims/simple_16_A_b.gif"
"","4506.22999999905","survey-likert","150","1084019","0.0-40.0","SS1619740046290","similarity_question","","","","","","","","","","","","{""Q0"":3}","[0]","","images/stimuli/spore_stims/complex_20_A_b.gif","images/stimuli/spore_stims/complex_09_A_a.gif"
"","3938.2150000019465","survey-likert","151","1087981","0.0-41.0","SS1619740046290","similarity_question","","","","","","","","","","","","{""Q0"":3}","[0]","","images/stimuli/spore_stims/simple_18_A_a.gif","images/stimuli/spore_stims/simple_12_A_b.gif"
"","4844.045000005281","survey-likert","152","1092852","0.0-42.0","SS1619740046290","similarity_question","","","","","","","","","","","","{""Q0"":5}","[0]","","images/stimuli/spore_stims/complex_13_A_a.gif","images/stimuli/spore_stims/complex_12_A_b.gif"
"","2802.575000008801","survey-likert","153","1095675","0.0-43.0","SS1619740046290","similarity_question","","","","","","","","","","","","{""Q0"":5}","[0]","","images/stimuli/spore_stims/simple_13_A_a.gif","images/stimuli/spore_stims/simple_11_A_b.gif"
"","3215.5949999869335","survey-likert","154","1098915","0.0-44.0","SS1619740046290","similarity_question","","","","","","","","","","","","{""Q0"":6}","[0]","","images/stimuli/spore_stims/complex_01_A_b.gif","images/stimuli/spore_stims/complex_19_A_a.gif"
"[{""page_index"":0,""viewing_time"":4910.03999998793}]","4910.780000005616","instructions","155","1103849","0.0-45.0","SS1619740046290","instructions","","","","","","","","","","","","","","","",""
"","4439.675000001444","survey-likert","156","1108299","0.0-46.0","SS1619740046290","","","","","","","","","images/stimuli/spore_stims/complex_14_A_a.gif","","","","{""Q0"":5}","[0]","","",""
"","4833.78499999526","survey-likert","157","1113158","0.0-47.0","SS1619740046290","","","","","","","","","images/stimuli/spore_stims/complex_13_A_a.gif","","","","{""Q0"":4}","[0]","","",""
"","3274.7050000180025","survey-likert","158","1116461","0.0-48.0","SS1619740046290","","","","","","","","","images/stimuli/spore_stims/complex_09_A_b.gif","","","","{""Q0"":5}","[0]","","",""
"","3383.815000008326","survey-likert","159","1119868","0.0-49.0","SS1619740046290","","","","","","","","","images/stimuli/spore_stims/complex_01_A_b.gif","","","","{""Q0"":5}","[0]","","",""
"","3798.9050000032876","survey-likert","160","1123693","0.0-50.0","SS1619740046290","","","","","","","","","images/stimuli/spore_stims/simple_12_A_b.gif","","","","{""Q0"":2}","[0]","","",""
"","2915.4099999868777","survey-likert","161","1126633","0.0-51.0","SS1619740046290","","","","","","","","","images/stimuli/spore_stims/simple_13_A_a.gif","","","","{""Q0"":1}","[0]","","",""
"","2796.925000002375","survey-likert","162","1129455","0.0-52.0","SS1619740046290","","","","","","","","","images/stimuli/spore_stims/simple_10_A_a.gif","","","","{""Q0"":0}","[0]","","",""
"","2445.1699999917764","survey-likert","163","1131924","0.0-53.0","SS1619740046290","","","","","","","","","images/stimuli/spore_stims/simple_05_A_b.gif","","","","{""Q0"":0}","[0]","","",""
"","2940.8150000090245","survey-likert","164","1134885","0.0-54.0","SS1619740046290","","","","","","","","","images/stimuli/spore_stims/simple_15_A_a.gif","","","","{""Q0"":0}","[0]","","",""
"","2742.9550000233576","survey-likert","165","1137653","0.0-55.0","SS1619740046290","","","","","","","","","images/stimuli/spore_stims/complex_20_A_a.gif","","","","{""Q0"":5}","[0]","","",""
"","6563.044999988051","survey-likert","166","1144245","0.0-56.0","SS1619740046290","","","","","","","","","images/stimuli/spore_stims/complex_09_A_a.gif","","","","{""Q0"":5}","[0]","","",""
"","3267.244999995455","survey-likert","167","1147534","0.0-57.0","SS1619740046290","","","","","","","","","images/stimuli/spore_stims/simple_08_A_b.gif","","","","{""Q0"":1}","[0]","","",""
"[{""page_index"":0,""viewing_time"":1419.5049999980256}]","1420.075000001816","instructions","168","1148978","0.0-58.0","SS1619740046290","instructions","","","","","","","","","","","","","","","",""
"","2845.679999998538","demog-age","169","1151845","0.0-59.0","SS1619740046290","","","","","","","","","","","","","{""age"":""21""}","","","",""
"","3361.6849999816623","demog-ethnic-US","170","1155251","0.0-60.0","SS1619740046290","","","","","","","","","","","","","{""ethnicity"":[""Hispanic or Latino""]}","[0]","","",""
"","27762.75500000338","demog-gender-and-education","171","1183040","0.0-61.0","SS1619740046290","","","","","","","","","","","","","{""gender"":""Female"",""education"":""High school diploma""}","[0,1]","","",""
"","13182.39000000176","survey-text","172","1196254","0.0-62.0","SS1619740046290","feedback","","","","","","","","","","","","{""Q0"":""Everything was perfect""}","","","",""
"[{""page_index"":0,""viewing_time"":1321.9950000056997}]","1322.6750000030734","instructions","173","1197586","0.0-63.0","SS1619740046290","instructions","","","","","","","","","","","","","","","",""
