"view_history","rt","trial_type","trial_index","time_elapsed","internal_node_id","subject","stimulus_type","trial_stimulus","key_press","minimum_viewing_duration","trial_looking_time","block_deviant","block_background","exposure_type","stimulus","block_number","block_type","stimulus_displayed","responses","question_order","math_correct_answer","stimulus_left","stimulus_right"
"[{""page_index"":0,""viewing_time"":1660.1849999278784}]","1660.3649999015033","instructions","0","1661","0.0-0.0","SS1619739899106","","","","","","","","","","","","","","","","",""
"[{""page_index"":0,""viewing_time"":11161.375000141561},{""page_index"":1,""viewing_time"":6966.129999840632}]","18127.6450001169","instructions","1","21801","0.0-1.0","SS1619739899106","instructions","","","","","","","","","","","","","","","",""
"","4825.995000079274","sequential-stimulus-presentation-old","2","27135","0.0-2.0","SS1619739899106","","","40","500","5325.995000079274","null","null","self_paced","","","","","","","","",""
"","4385.689999908209","sequential-stimulus-presentation-old","3","32023","0.0-3.0","SS1619739899106","","","40","500","4885.689999908209","null","null","self_paced","","","","","","","","",""
"[{""page_index"":0,""viewing_time"":20511.745000025257}]","20511.87500008382","instructions","4","52534","0.0-4.0","SS1619739899106","instructions","","","","","","","","","","","","","","","",""
"","1421.1249998770654","sequential-stimulus-presentation-old","5","68958","0.0-5.0","SS1619739899106","","","40","500","1921.1249998770654","null","null","forced_long","","","","","","","","",""
"","1972.760000033304","sequential-stimulus-presentation-old","6","71432","0.0-6.0","SS1619739899106","","","40","500","2472.760000033304","null","null","forced_long","","","","","","","","",""
"[{""page_index"":0,""viewing_time"":6365.909999934956}]","6366.059999912977","instructions","7","77798","0.0-7.0","SS1619739899106","instructions","","","","","","","","","","","","","","","",""
"[{""page_index"":0,""viewing_time"":8759.735000086948},{""page_index"":1,""viewing_time"":9377.665000036359},{""page_index"":2,""viewing_time"":5739.989999914542},{""page_index"":3,""viewing_time"":2735.4349999222904},{""page_index"":4,""viewing_time"":1232.910000020638}]","27845.86500003934","instructions","8","105645","0.0-8.0","SS1619739899106","instructions","","","","","","","","","","","","","","","",""
"","null","html-keyboard-response","9","106757","0.0-9.0-0.0","SS1619739899106","","","null","","","","","","<p><img src= images/blank.png width =""600"" height = ""600"" style=""position:fixed;top:50%; left:50%; transform: translate(-50%, -50%); border:5px solid black"">","","","","","","","",""
"","27570.99000015296","sequential-stimulus-presentation-old","10","134830","0.0-9.0-1.0","SS1619739899106","trial","","40","500","28070.99000015296","images/stimuli/spore_stims/complex_02_A_b.gif","images/stimuli/spore_stims/complex_09_A_a.gif","self_paced","","0","complex_dissimilar","images/stimuli/spore_stims/complex_09_A_a.gif","","","","",""
"","null","html-keyboard-response","11","136041","0.0-9.0-0.1","SS1619739899106","","","null","","","","","","<p><img src= images/blank.png width =""600"" height = ""600"" style=""position:fixed;top:50%; left:50%; transform: translate(-50%, -50%); border:5px solid black"">","","","","","","","",""
"","12435.305000049993","sequential-stimulus-presentation-old","12","148978","0.0-9.0-1.1","SS1619739899106","trial","","40","500","12935.305000049993","images/stimuli/spore_stims/complex_02_A_b.gif","images/stimuli/spore_stims/complex_09_A_a.gif","self_paced","","0","complex_dissimilar","images/stimuli/spore_stims/complex_09_A_a.gif","","","","",""
"","null","html-keyboard-response","13","150109","0.0-9.0-0.2","SS1619739899106","","","null","","","","","","<p><img src= images/blank.png width =""600"" height = ""600"" style=""position:fixed;top:50%; left:50%; transform: translate(-50%, -50%); border:5px solid black"">","","","","","","","",""
"","8229.359999997541","sequential-stimulus-presentation-old","14","158840","0.0-9.0-1.2","SS1619739899106","trial","","40","500","8729.359999997541","images/stimuli/spore_stims/complex_02_A_b.gif","images/stimuli/spore_stims/complex_09_A_a.gif","self_paced","","0","complex_dissimilar","images/stimuli/spore_stims/complex_02_A_b.gif","","","","",""
"","null","html-keyboard-response","15","159697","0.0-9.0-0.3","SS1619739899106","","","null","","","","","","<p><img src= images/blank.png width =""600"" height = ""600"" style=""position:fixed;top:50%; left:50%; transform: translate(-50%, -50%); border:5px solid black"">","","","","","","","",""
"","5612.969999900088","sequential-stimulus-presentation-old","16","165816","0.0-9.0-1.3","SS1619739899106","trial","","40","500","6112.969999900088","images/stimuli/spore_stims/complex_02_A_b.gif","images/stimuli/spore_stims/complex_09_A_a.gif","self_paced","","0","complex_dissimilar","images/stimuli/spore_stims/complex_02_A_b.gif","","","","",""
"","4136.759999906644","survey-multi-choice","17","169955","0.0-10.0","SS1619739899106","math_question","","","","","","","","","","","","{""Q0"":""16""}","[0]","16","",""
"","null","html-keyboard-response","18","171105","0.0-11.0-0.0","SS1619739899106","","","null","","","","","","<p><img src= images/blank.png width =""600"" height = ""600"" style=""position:fixed;top:50%; left:50%; transform: translate(-50%, -50%); border:5px solid black"">","","","","","","","",""
"","1086.6799999494106","sequential-stimulus-presentation-old","19","187194","0.0-11.0-1.0","SS1619739899106","trial","","40","500","1586.6799999494106","images/stimuli/spore_stims/simple_09_A_a.gif","images/stimuli/spore_stims/simple_11_A_b.gif","forced_long","","1","simple_dissimilar","images/stimuli/spore_stims/simple_11_A_b.gif","","","","",""
"","null","html-keyboard-response","20","188152","0.0-11.0-0.1","SS1619739899106","","","null","","","","","","<p><img src= images/blank.png width =""600"" height = ""600"" style=""position:fixed;top:50%; left:50%; transform: translate(-50%, -50%); border:5px solid black"">","","","","","","","",""
"","12475.339999888092","sequential-stimulus-presentation-old","21","201129","0.0-11.0-1.1","SS1619739899106","trial","","40","500","12975.339999888092","images/stimuli/spore_stims/simple_09_A_a.gif","images/stimuli/spore_stims/simple_11_A_b.gif","forced_long","","1","simple_dissimilar","images/stimuli/spore_stims/simple_11_A_b.gif","","","","",""
"","null","html-keyboard-response","22","202397","0.0-11.0-0.2","SS1619739899106","","","null","","","","","","<p><img src= images/blank.png width =""600"" height = ""600"" style=""position:fixed;top:50%; left:50%; transform: translate(-50%, -50%); border:5px solid black"">","","","","","","","",""
"","3375.514999963343","sequential-stimulus-presentation-old","23","206275","0.0-11.0-1.2","SS1619739899106","trial","","40","500","3875.514999963343","images/stimuli/spore_stims/simple_09_A_a.gif","images/stimuli/spore_stims/simple_11_A_b.gif","forced_long","","1","simple_dissimilar","images/stimuli/spore_stims/simple_11_A_b.gif","","","","",""
"","null","html-keyboard-response","24","207515","0.0-11.0-0.3","SS1619739899106","","","null","","","","","","<p><img src= images/blank.png width =""600"" height = ""600"" style=""position:fixed;top:50%; left:50%; transform: translate(-50%, -50%); border:5px solid black"">","","","","","","","",""
"","5927.025000099093","sequential-stimulus-presentation-old","25","213944","0.0-11.0-1.3","SS1619739899106","trial","","40","500","6427.025000099093","images/stimuli/spore_stims/simple_09_A_a.gif","images/stimuli/spore_stims/simple_11_A_b.gif","forced_long","","1","simple_dissimilar","images/stimuli/spore_stims/simple_09_A_a.gif","","","","",""
"","null","html-keyboard-response","26","214936","0.0-11.0-0.4","SS1619739899106","","","null","","","","","","<p><img src= images/blank.png width =""600"" height = ""600"" style=""position:fixed;top:50%; left:50%; transform: translate(-50%, -50%); border:5px solid black"">","","","","","","","",""
"","2744.7600001469254","sequential-stimulus-presentation-old","27","218183","0.0-11.0-1.4","SS1619739899106","trial","","40","500","3244.7600001469254","images/stimuli/spore_stims/simple_09_A_a.gif","images/stimuli/spore_stims/simple_11_A_b.gif","forced_long","","1","simple_dissimilar","images/stimuli/spore_stims/simple_09_A_a.gif","","","","",""
"","4538.3099999744445","survey-multi-choice","28","222723","0.0-12.0","SS1619739899106","math_question","","","","","","","","","","","","{""Q0"":""17""}","[0]","17","",""
"","null","html-keyboard-response","29","223947","0.0-13.0-0.0","SS1619739899106","","","null","","","","","","<p><img src= images/blank.png width =""600"" height = ""600"" style=""position:fixed;top:50%; left:50%; transform: translate(-50%, -50%); border:5px solid black"">","","","","","","","",""
"","894.4399999454618","sequential-stimulus-presentation-old","30","239847","0.0-13.0-1.0","SS1619739899106","trial","","40","500","1394.4399999454618","images/stimuli/spore_stims/simple_06_A_b.gif","images/stimuli/spore_stims/simple_15_A_a.gif","forced_long","","2","simple_dissimilar","images/stimuli/spore_stims/simple_15_A_a.gif","","","","",""
"","null","html-keyboard-response","31","240777","0.0-13.0-0.1","SS1619739899106","","","null","","","","","","<p><img src= images/blank.png width =""600"" height = ""600"" style=""position:fixed;top:50%; left:50%; transform: translate(-50%, -50%); border:5px solid black"">","","","","","","","",""
"","13325.765000190586","sequential-stimulus-presentation-old","32","254609","0.0-13.0-1.1","SS1619739899106","trial","","40","500","13825.765000190586","images/stimuli/spore_stims/simple_06_A_b.gif","images/stimuli/spore_stims/simple_15_A_a.gif","forced_long","","2","simple_dissimilar","images/stimuli/spore_stims/simple_15_A_a.gif","","","","",""
"","null","html-keyboard-response","33","255620","0.0-13.0-0.2","SS1619739899106","","","null","","","","","","<p><img src= images/blank.png width =""600"" height = ""600"" style=""position:fixed;top:50%; left:50%; transform: translate(-50%, -50%); border:5px solid black"">","","","","","","","",""
"","3661.195000167936","sequential-stimulus-presentation-old","34","259783","0.0-13.0-1.2","SS1619739899106","trial","","40","500","4161.195000167936","images/stimuli/spore_stims/simple_06_A_b.gif","images/stimuli/spore_stims/simple_15_A_a.gif","forced_long","","2","simple_dissimilar","images/stimuli/spore_stims/simple_15_A_a.gif","","","","",""
"","null","html-keyboard-response","35","261044","0.0-13.0-0.3","SS1619739899106","","","null","","","","","","<p><img src= images/blank.png width =""600"" height = ""600"" style=""position:fixed;top:50%; left:50%; transform: translate(-50%, -50%); border:5px solid black"">","","","","","","","",""
"","6778.745000017807","sequential-stimulus-presentation-old","36","268325","0.0-13.0-1.3","SS1619739899106","trial","","40","500","7278.745000017807","images/stimuli/spore_stims/simple_06_A_b.gif","images/stimuli/spore_stims/simple_15_A_a.gif","forced_long","","2","simple_dissimilar","images/stimuli/spore_stims/simple_15_A_a.gif","","","","",""
"","null","html-keyboard-response","37","269380","0.0-13.0-0.4","SS1619739899106","","","null","","","","","","<p><img src= images/blank.png width =""600"" height = ""600"" style=""position:fixed;top:50%; left:50%; transform: translate(-50%, -50%); border:5px solid black"">","","","","","","","",""
"","3589.4899999257177","sequential-stimulus-presentation-old","38","273471","0.0-13.0-1.4","SS1619739899106","trial","","40","500","4089.4899999257177","images/stimuli/spore_stims/simple_06_A_b.gif","images/stimuli/spore_stims/simple_15_A_a.gif","forced_long","","2","simple_dissimilar","images/stimuli/spore_stims/simple_06_A_b.gif","","","","",""
"","3765.1899999473244","survey-multi-choice","39","277237","0.0-14.0","SS1619739899106","math_question","","","","","","","","","","","","{""Q0"":""16""}","[0]","16","",""
"","null","html-keyboard-response","40","278317","0.0-15.0-0.0","SS1619739899106","","","null","","","","","","<p><img src= images/blank.png width =""600"" height = ""600"" style=""position:fixed;top:50%; left:50%; transform: translate(-50%, -50%); border:5px solid black"">","","","","","","","",""
"","1277.5550000369549","sequential-stimulus-presentation-old","41","280098","0.0-15.0-1.0","SS1619739899106","trial","","40","500","1777.5550000369549","images/stimuli/spore_stims/complex_03_A_a.gif","images/stimuli/spore_stims/complex_20_A_b.gif","forced_short","","3","complex_dissimilar","images/stimuli/spore_stims/complex_20_A_b.gif","","","","",""
"","null","html-keyboard-response","42","280967","0.0-15.0-0.1","SS1619739899106","","","null","","","","","","<p><img src= images/blank.png width =""600"" height = ""600"" style=""position:fixed;top:50%; left:50%; transform: translate(-50%, -50%); border:5px solid black"">","","","","","","","",""
"","3059.0050001628697","sequential-stimulus-presentation-old","43","284529","0.0-15.0-1.1","SS1619739899106","trial","","40","500","3559.0050001628697","images/stimuli/spore_stims/complex_03_A_a.gif","images/stimuli/spore_stims/complex_20_A_b.gif","forced_short","","3","complex_dissimilar","images/stimuli/spore_stims/complex_20_A_b.gif","","","","",""
"","null","html-keyboard-response","44","285477","0.0-15.0-0.2","SS1619739899106","","","null","","","","","","<p><img src= images/blank.png width =""600"" height = ""600"" style=""position:fixed;top:50%; left:50%; transform: translate(-50%, -50%); border:5px solid black"">","","","","","","","",""
"","2139.7149998228997","sequential-stimulus-presentation-old","45","288119","0.0-15.0-1.2","SS1619739899106","trial","","40","500","2639.7149998228997","images/stimuli/spore_stims/complex_03_A_a.gif","images/stimuli/spore_stims/complex_20_A_b.gif","forced_short","","3","complex_dissimilar","images/stimuli/spore_stims/complex_20_A_b.gif","","","","",""
"","null","html-keyboard-response","46","289391","0.0-15.0-0.3","SS1619739899106","","","null","","","","","","<p><img src= images/blank.png width =""600"" height = ""600"" style=""position:fixed;top:50%; left:50%; transform: translate(-50%, -50%); border:5px solid black"">","","","","","","","",""
"","3189.8199999704957","sequential-stimulus-presentation-old","47","293083","0.0-15.0-1.3","SS1619739899106","trial","","40","500","3689.8199999704957","images/stimuli/spore_stims/complex_03_A_a.gif","images/stimuli/spore_stims/complex_20_A_b.gif","forced_short","","3","complex_dissimilar","images/stimuli/spore_stims/complex_20_A_b.gif","","","","",""
"","null","html-keyboard-response","48","294281","0.0-15.0-0.4","SS1619739899106","","","null","","","","","","<p><img src= images/blank.png width =""600"" height = ""600"" style=""position:fixed;top:50%; left:50%; transform: translate(-50%, -50%); border:5px solid black"">","","","","","","","",""
"","2687.1699998155236","sequential-stimulus-presentation-old","49","297469","0.0-15.0-1.4","SS1619739899106","trial","","40","500","3187.1699998155236","images/stimuli/spore_stims/complex_03_A_a.gif","images/stimuli/spore_stims/complex_20_A_b.gif","forced_short","","3","complex_dissimilar","images/stimuli/spore_stims/complex_20_A_b.gif","","","","",""
"","null","html-keyboard-response","50","298709","0.0-15.0-0.5","SS1619739899106","","","null","","","","","","<p><img src= images/blank.png width =""600"" height = ""600"" style=""position:fixed;top:50%; left:50%; transform: translate(-50%, -50%); border:5px solid black"">","","","","","","","",""
"","2829.6750001609325","sequential-stimulus-presentation-old","51","302045","0.0-15.0-1.5","SS1619739899106","trial","","40","500","3329.6750001609325","images/stimuli/spore_stims/complex_03_A_a.gif","images/stimuli/spore_stims/complex_20_A_b.gif","forced_short","","3","complex_dissimilar","images/stimuli/spore_stims/complex_20_A_b.gif","","","","",""
"","2935.1899998728186","survey-multi-choice","52","304981","0.0-16.0","SS1619739899106","math_question","","","","","","","","","","","","{""Q0"":""8""}","[0]","8","",""
"","null","html-keyboard-response","53","305879","0.0-17.0-0.0","SS1619739899106","","","null","","","","","","<p><img src= images/blank.png width =""600"" height = ""600"" style=""position:fixed;top:50%; left:50%; transform: translate(-50%, -50%); border:5px solid black"">","","","","","","","",""
"","2797.1449999604374","sequential-stimulus-presentation-old","54","309178","0.0-17.0-1.0","SS1619739899106","trial","","40","500","3297.1449999604374","images/stimuli/spore_stims/simple_08_A_b.gif","images/stimuli/spore_stims/simple_01_A_a.gif","self_paced","","4","simple_dissimilar","images/stimuli/spore_stims/simple_01_A_a.gif","","","","",""
"","null","html-keyboard-response","55","310124","0.0-17.0-0.1","SS1619739899106","","","null","","","","","","<p><img src= images/blank.png width =""600"" height = ""600"" style=""position:fixed;top:50%; left:50%; transform: translate(-50%, -50%); border:5px solid black"">","","","","","","","",""
"","3043.8999999314547","sequential-stimulus-presentation-old","56","313670","0.0-17.0-1.1","SS1619739899106","trial","","40","500","3543.8999999314547","images/stimuli/spore_stims/simple_08_A_b.gif","images/stimuli/spore_stims/simple_01_A_a.gif","self_paced","","4","simple_dissimilar","images/stimuli/spore_stims/simple_08_A_b.gif","","","","",""
"","null","html-keyboard-response","57","314964","0.0-17.0-0.2","SS1619739899106","","","null","","","","","","<p><img src= images/blank.png width =""600"" height = ""600"" style=""position:fixed;top:50%; left:50%; transform: translate(-50%, -50%); border:5px solid black"">","","","","","","","",""
"","1553.444999968633","sequential-stimulus-presentation-old","58","317031","0.0-17.0-1.2","SS1619739899106","trial","","40","500","2053.444999968633","images/stimuli/spore_stims/simple_08_A_b.gif","images/stimuli/spore_stims/simple_01_A_a.gif","self_paced","","4","simple_dissimilar","images/stimuli/spore_stims/simple_01_A_a.gif","","","","",""
"","null","html-keyboard-response","59","318286","0.0-17.0-0.3","SS1619739899106","","","null","","","","","","<p><img src= images/blank.png width =""600"" height = ""600"" style=""position:fixed;top:50%; left:50%; transform: translate(-50%, -50%); border:5px solid black"">","","","","","","","",""
"","675.8400001563132","sequential-stimulus-presentation-old","60","319463","0.0-17.0-1.3","SS1619739899106","trial","","40","500","1175.8400001563132","images/stimuli/spore_stims/simple_08_A_b.gif","images/stimuli/spore_stims/simple_01_A_a.gif","self_paced","","4","simple_dissimilar","images/stimuli/spore_stims/simple_01_A_a.gif","","","","",""
"","null","html-keyboard-response","61","320348","0.0-17.0-0.4","SS1619739899106","","","null","","","","","","<p><img src= images/blank.png width =""600"" height = ""600"" style=""position:fixed;top:50%; left:50%; transform: translate(-50%, -50%); border:5px solid black"">","","","","","","","",""
"","2672.8199999779463","sequential-stimulus-presentation-old","62","323523","0.0-17.0-1.4","SS1619739899106","trial","","40","500","3172.8199999779463","images/stimuli/spore_stims/simple_08_A_b.gif","images/stimuli/spore_stims/simple_01_A_a.gif","self_paced","","4","simple_dissimilar","images/stimuli/spore_stims/simple_08_A_b.gif","","","","",""
"","3695.775000145659","survey-multi-choice","63","327220","0.0-18.0","SS1619739899106","math_question","","","","","","","","","","","","{""Q0"":""9""}","[0]","9","",""
"","null","html-keyboard-response","64","328264","0.0-19.0-0.0","SS1619739899106","","","null","","","","","","<p><img src= images/blank.png width =""600"" height = ""600"" style=""position:fixed;top:50%; left:50%; transform: translate(-50%, -50%); border:5px solid black"">","","","","","","","",""
"","1427.045000018552","sequential-stimulus-presentation-old","65","330193","0.0-19.0-1.0","SS1619739899106","trial","","40","500","1927.045000018552","images/stimuli/spore_stims/simple_14_A_a.gif","images/stimuli/spore_stims/simple_02_A_b.gif","forced_short","","5","simple_dissimilar","images/stimuli/spore_stims/simple_02_A_b.gif","","","","",""
"","null","html-keyboard-response","66","331058","0.0-19.0-0.1","SS1619739899106","","","null","","","","","","<p><img src= images/blank.png width =""600"" height = ""600"" style=""position:fixed;top:50%; left:50%; transform: translate(-50%, -50%); border:5px solid black"">","","","","","","","",""
"","2576.6249999869615","sequential-stimulus-presentation-old","67","334137","0.0-19.0-1.1","SS1619739899106","trial","","40","500","3076.6249999869615","images/stimuli/spore_stims/simple_14_A_a.gif","images/stimuli/spore_stims/simple_02_A_b.gif","forced_short","","5","simple_dissimilar","images/stimuli/spore_stims/simple_02_A_b.gif","","","","",""
"","null","html-keyboard-response","68","335321","0.0-19.0-0.2","SS1619739899106","","","null","","","","","","<p><img src= images/blank.png width =""600"" height = ""600"" style=""position:fixed;top:50%; left:50%; transform: translate(-50%, -50%); border:5px solid black"">","","","","","","","",""
"","1263.4050000924617","sequential-stimulus-presentation-old","69","337088","0.0-19.0-1.2","SS1619739899106","trial","","40","500","1763.4050000924617","images/stimuli/spore_stims/simple_14_A_a.gif","images/stimuli/spore_stims/simple_02_A_b.gif","forced_short","","5","simple_dissimilar","images/stimuli/spore_stims/simple_02_A_b.gif","","","","",""
"","null","html-keyboard-response","70","338162","0.0-19.0-0.3","SS1619739899106","","","null","","","","","","<p><img src= images/blank.png width =""600"" height = ""600"" style=""position:fixed;top:50%; left:50%; transform: translate(-50%, -50%); border:5px solid black"">","","","","","","","",""
"","911.8449999950826","sequential-stimulus-presentation-old","71","339576","0.0-19.0-1.3","SS1619739899106","trial","","40","500","1411.8449999950826","images/stimuli/spore_stims/simple_14_A_a.gif","images/stimuli/spore_stims/simple_02_A_b.gif","forced_short","","5","simple_dissimilar","images/stimuli/spore_stims/simple_02_A_b.gif","","","","",""
"","null","html-keyboard-response","72","340484","0.0-19.0-0.4","SS1619739899106","","","null","","","","","","<p><img src= images/blank.png width =""600"" height = ""600"" style=""position:fixed;top:50%; left:50%; transform: translate(-50%, -50%); border:5px solid black"">","","","","","","","",""
"","1003.9550000801682","sequential-stimulus-presentation-old","73","341995","0.0-19.0-1.4","SS1619739899106","trial","","40","500","1503.9550000801682","images/stimuli/spore_stims/simple_14_A_a.gif","images/stimuli/spore_stims/simple_02_A_b.gif","forced_short","","5","simple_dissimilar","images/stimuli/spore_stims/simple_02_A_b.gif","","","","",""
"","3410.820000106469","survey-multi-choice","74","345407","0.0-20.0","SS1619739899106","math_question","","","","","","","","","","","","{""Q0"":""3""}","[0]","3","",""
"","null","html-keyboard-response","75","346519","0.0-21.0-0.0","SS1619739899106","","","null","","","","","","<p><img src= images/blank.png width =""600"" height = ""600"" style=""position:fixed;top:50%; left:50%; transform: translate(-50%, -50%); border:5px solid black"">","","","","","","","",""
"","1180.2100001368672","sequential-stimulus-presentation-old","76","348202","0.0-21.0-1.0","SS1619739899106","trial","","40","500","1680.2100001368672","images/stimuli/spore_stims/simple_18_A_b.gif","images/stimuli/spore_stims/simple_19_A_a.gif","forced_short","","6","simple_dissimilar","images/stimuli/spore_stims/simple_19_A_a.gif","","","","",""
"","null","html-keyboard-response","77","349398","0.0-21.0-0.1","SS1619739899106","","","null","","","","","","<p><img src= images/blank.png width =""600"" height = ""600"" style=""position:fixed;top:50%; left:50%; transform: translate(-50%, -50%); border:5px solid black"">","","","","","","","",""
"","4511.024999897927","sequential-stimulus-presentation-old","78","354412","0.0-21.0-1.1","SS1619739899106","trial","","40","500","5011.024999897927","images/stimuli/spore_stims/simple_18_A_b.gif","images/stimuli/spore_stims/simple_19_A_a.gif","forced_short","","6","simple_dissimilar","images/stimuli/spore_stims/simple_18_A_b.gif","","","","",""
"","null","html-keyboard-response","79","355453","0.0-21.0-0.2","SS1619739899106","","","null","","","","","","<p><img src= images/blank.png width =""600"" height = ""600"" style=""position:fixed;top:50%; left:50%; transform: translate(-50%, -50%); border:5px solid black"">","","","","","","","",""
"","3223.784999921918","sequential-stimulus-presentation-old","80","359180","0.0-21.0-1.2","SS1619739899106","trial","","40","500","3723.784999921918","images/stimuli/spore_stims/simple_18_A_b.gif","images/stimuli/spore_stims/simple_19_A_a.gif","forced_short","","6","simple_dissimilar","images/stimuli/spore_stims/simple_19_A_a.gif","","","","",""
"","null","html-keyboard-response","81","360006","0.0-21.0-0.3","SS1619739899106","","","null","","","","","","<p><img src= images/blank.png width =""600"" height = ""600"" style=""position:fixed;top:50%; left:50%; transform: translate(-50%, -50%); border:5px solid black"">","","","","","","","",""
"","2669.329999946058","sequential-stimulus-presentation-old","82","363182","0.0-21.0-1.3","SS1619739899106","trial","","40","500","3169.329999946058","images/stimuli/spore_stims/simple_18_A_b.gif","images/stimuli/spore_stims/simple_19_A_a.gif","forced_short","","6","simple_dissimilar","images/stimuli/spore_stims/simple_19_A_a.gif","","","","",""
"","2699.5200000237674","survey-multi-choice","83","365882","0.0-22.0","SS1619739899106","math_question","","","","","","","","","","","","{""Q0"":""3""}","[0]","3","",""
"","null","html-keyboard-response","84","367078","0.0-23.0-0.0","SS1619739899106","","","null","","","","","","<p><img src= images/blank.png width =""600"" height = ""600"" style=""position:fixed;top:50%; left:50%; transform: translate(-50%, -50%); border:5px solid black"">","","","","","","","",""
"","1526.3750001322478","sequential-stimulus-presentation-old","85","369107","0.0-23.0-1.0","SS1619739899106","trial","","40","500","2026.3750001322478","images/stimuli/spore_stims/complex_16_A_a.gif","images/stimuli/spore_stims/complex_10_A_b.gif","forced_short","","7","complex_dissimilar","images/stimuli/spore_stims/complex_10_A_b.gif","","","","",""
"","null","html-keyboard-response","86","369992","0.0-23.0-0.1","SS1619739899106","","","null","","","","","","<p><img src= images/blank.png width =""600"" height = ""600"" style=""position:fixed;top:50%; left:50%; transform: translate(-50%, -50%); border:5px solid black"">","","","","","","","",""
"","3524.409999838099","sequential-stimulus-presentation-old","87","374018","0.0-23.0-1.1","SS1619739899106","trial","","40","500","4024.409999838099","images/stimuli/spore_stims/complex_16_A_a.gif","images/stimuli/spore_stims/complex_10_A_b.gif","forced_short","","7","complex_dissimilar","images/stimuli/spore_stims/complex_10_A_b.gif","","","","",""
"","null","html-keyboard-response","88","374947","0.0-23.0-0.2","SS1619739899106","","","null","","","","","","<p><img src= images/blank.png width =""600"" height = ""600"" style=""position:fixed;top:50%; left:50%; transform: translate(-50%, -50%); border:5px solid black"">","","","","","","","",""
"","694.8900001589209","sequential-stimulus-presentation-old","89","376143","0.0-23.0-1.2","SS1619739899106","trial","","40","500","1194.8900001589209","images/stimuli/spore_stims/complex_16_A_a.gif","images/stimuli/spore_stims/complex_10_A_b.gif","forced_short","","7","complex_dissimilar","images/stimuli/spore_stims/complex_10_A_b.gif","","","","",""
"","null","html-keyboard-response","90","377121","0.0-23.0-0.3","SS1619739899106","","","null","","","","","","<p><img src= images/blank.png width =""600"" height = ""600"" style=""position:fixed;top:50%; left:50%; transform: translate(-50%, -50%); border:5px solid black"">","","","","","","","",""
"","1309.1649999842048","sequential-stimulus-presentation-old","91","378933","0.0-23.0-1.3","SS1619739899106","trial","","40","500","1809.1649999842048","images/stimuli/spore_stims/complex_16_A_a.gif","images/stimuli/spore_stims/complex_10_A_b.gif","forced_short","","7","complex_dissimilar","images/stimuli/spore_stims/complex_10_A_b.gif","","","","",""
"","null","html-keyboard-response","92","379941","0.0-23.0-0.4","SS1619739899106","","","null","","","","","","<p><img src= images/blank.png width =""600"" height = ""600"" style=""position:fixed;top:50%; left:50%; transform: translate(-50%, -50%); border:5px solid black"">","","","","","","","",""
"","764.604999916628","sequential-stimulus-presentation-old","93","381208","0.0-23.0-1.4","SS1619739899106","trial","","40","500","1264.604999916628","images/stimuli/spore_stims/complex_16_A_a.gif","images/stimuli/spore_stims/complex_10_A_b.gif","forced_short","","7","complex_dissimilar","images/stimuli/spore_stims/complex_10_A_b.gif","","","","",""
"","4183.019999880344","survey-multi-choice","94","385392","0.0-24.0","SS1619739899106","math_question","","","","","","","","","","","","{""Q0"":""15""}","[0]","15","",""
"","null","html-keyboard-response","95","386493","0.0-25.0-0.0","SS1619739899106","","","null","","","","","","<p><img src= images/blank.png width =""600"" height = ""600"" style=""position:fixed;top:50%; left:50%; transform: translate(-50%, -50%); border:5px solid black"">","","","","","","","",""
"","1657.029999885708","sequential-stimulus-presentation-old","96","388658","0.0-25.0-1.0","SS1619739899106","trial","","40","500","2157.029999885708","images/stimuli/spore_stims/complex_13_A_a.gif","images/stimuli/spore_stims/complex_08_A_b.gif","self_paced","","8","complex_dissimilar","images/stimuli/spore_stims/complex_08_A_b.gif","","","","",""
"","null","html-keyboard-response","97","389947","0.0-25.0-0.1","SS1619739899106","","","null","","","","","","<p><img src= images/blank.png width =""600"" height = ""600"" style=""position:fixed;top:50%; left:50%; transform: translate(-50%, -50%); border:5px solid black"">","","","","","","","",""
"","1562.5450001098216","sequential-stimulus-presentation-old","98","392014","0.0-25.0-1.1","SS1619739899106","trial","","40","500","2062.5450001098216","images/stimuli/spore_stims/complex_13_A_a.gif","images/stimuli/spore_stims/complex_08_A_b.gif","self_paced","","8","complex_dissimilar","images/stimuli/spore_stims/complex_08_A_b.gif","","","","",""
"","null","html-keyboard-response","99","392992","0.0-25.0-0.2","SS1619739899106","","","null","","","","","","<p><img src= images/blank.png width =""600"" height = ""600"" style=""position:fixed;top:50%; left:50%; transform: translate(-50%, -50%); border:5px solid black"">","","","","","","","",""
"","931.6200001630932","sequential-stimulus-presentation-old","100","394427","0.0-25.0-1.2","SS1619739899106","trial","","40","500","1431.6200001630932","images/stimuli/spore_stims/complex_13_A_a.gif","images/stimuli/spore_stims/complex_08_A_b.gif","self_paced","","8","complex_dissimilar","images/stimuli/spore_stims/complex_08_A_b.gif","","","","",""
"","null","html-keyboard-response","101","395672","0.0-25.0-0.3","SS1619739899106","","","null","","","","","","<p><img src= images/blank.png width =""600"" height = ""600"" style=""position:fixed;top:50%; left:50%; transform: translate(-50%, -50%); border:5px solid black"">","","","","","","","",""
"","3182.835000101477","sequential-stimulus-presentation-old","102","399358","0.0-25.0-1.3","SS1619739899106","trial","","40","500","3682.835000101477","images/stimuli/spore_stims/complex_13_A_a.gif","images/stimuli/spore_stims/complex_08_A_b.gif","self_paced","","8","complex_dissimilar","images/stimuli/spore_stims/complex_13_A_a.gif","","","","",""
"","2609.5949998125434","survey-multi-choice","103","401968","0.0-26.0","SS1619739899106","math_question","","","","","","","","","","","","{""Q0"":""16""}","[0]","16","",""
"","null","html-keyboard-response","104","403069","0.0-27.0-0.0","SS1619739899106","","","null","","","","","","<p><img src= images/blank.png width =""600"" height = ""600"" style=""position:fixed;top:50%; left:50%; transform: translate(-50%, -50%); border:5px solid black"">","","","","","","","",""
"","752.5299999397248","sequential-stimulus-presentation-old","105","418824","0.0-27.0-1.0","SS1619739899106","trial","","40","500","1252.5299999397248","images/stimuli/spore_stims/complex_01_A_b.gif","images/stimuli/spore_stims/complex_06_A_a.gif","forced_long","","9","complex_dissimilar","images/stimuli/spore_stims/complex_06_A_a.gif","","","","",""
"","null","html-keyboard-response","106","419966","0.0-27.0-0.1","SS1619739899106","","","null","","","","","","<p><img src= images/blank.png width =""600"" height = ""600"" style=""position:fixed;top:50%; left:50%; transform: translate(-50%, -50%); border:5px solid black"">","","","","","","","",""
"","1354.350000154227","sequential-stimulus-presentation-old","107","421823","0.0-27.0-1.1","SS1619739899106","trial","","40","500","1854.350000154227","images/stimuli/spore_stims/complex_01_A_b.gif","images/stimuli/spore_stims/complex_06_A_a.gif","forced_long","","9","complex_dissimilar","images/stimuli/spore_stims/complex_06_A_a.gif","","","","",""
"","null","html-keyboard-response","108","422805","0.0-27.0-0.2","SS1619739899106","","","null","","","","","","<p><img src= images/blank.png width =""600"" height = ""600"" style=""position:fixed;top:50%; left:50%; transform: translate(-50%, -50%); border:5px solid black"">","","","","","","","",""
"","3441.785000031814","sequential-stimulus-presentation-old","109","426748","0.0-27.0-1.2","SS1619739899106","trial","","40","500","3941.785000031814","images/stimuli/spore_stims/complex_01_A_b.gif","images/stimuli/spore_stims/complex_06_A_a.gif","forced_long","","9","complex_dissimilar","images/stimuli/spore_stims/complex_06_A_a.gif","","","","",""
"","null","html-keyboard-response","110","427959","0.0-27.0-0.3","SS1619739899106","","","null","","","","","","<p><img src= images/blank.png width =""600"" height = ""600"" style=""position:fixed;top:50%; left:50%; transform: translate(-50%, -50%); border:5px solid black"">","","","","","","","",""
"","879.0049999952316","sequential-stimulus-presentation-old","111","429340","0.0-27.0-1.3","SS1619739899106","trial","","40","500","1379.0049999952316","images/stimuli/spore_stims/complex_01_A_b.gif","images/stimuli/spore_stims/complex_06_A_a.gif","forced_long","","9","complex_dissimilar","images/stimuli/spore_stims/complex_06_A_a.gif","","","","",""
"","null","html-keyboard-response","112","430617","0.0-27.0-0.4","SS1619739899106","","","null","","","","","","<p><img src= images/blank.png width =""600"" height = ""600"" style=""position:fixed;top:50%; left:50%; transform: translate(-50%, -50%); border:5px solid black"">","","","","","","","",""
"","529.6000000089407","sequential-stimulus-presentation-old","113","431649","0.0-27.0-1.4","SS1619739899106","trial","","40","500","1029.6000000089407","images/stimuli/spore_stims/complex_01_A_b.gif","images/stimuli/spore_stims/complex_06_A_a.gif","forced_long","","9","complex_dissimilar","images/stimuli/spore_stims/complex_06_A_a.gif","","","","",""
"","null","html-keyboard-response","114","432931","0.0-27.0-0.5","SS1619739899106","","","null","","","","","","<p><img src= images/blank.png width =""600"" height = ""600"" style=""position:fixed;top:50%; left:50%; transform: translate(-50%, -50%); border:5px solid black"">","","","","","","","",""
"","877.5800000876188","sequential-stimulus-presentation-old","115","434317","0.0-27.0-1.5","SS1619739899106","trial","","40","500","1377.5800000876188","images/stimuli/spore_stims/complex_01_A_b.gif","images/stimuli/spore_stims/complex_06_A_a.gif","forced_long","","9","complex_dissimilar","images/stimuli/spore_stims/complex_06_A_a.gif","","","","",""
"","2040.6599999405444","survey-multi-choice","116","436359","0.0-28.0","SS1619739899106","math_question","","","","","","","","","","","","{""Q0"":""16""}","[0]","16","",""
"","null","html-keyboard-response","117","437182","0.0-29.0-0.0","SS1619739899106","","","null","","","","","","<p><img src= images/blank.png width =""600"" height = ""600"" style=""position:fixed;top:50%; left:50%; transform: translate(-50%, -50%); border:5px solid black"">","","","","","","","",""
"","6600.5049999803305","sequential-stimulus-presentation-old","118","458785","0.0-29.0-1.0","SS1619739899106","trial","","40","500","7100.5049999803305","images/stimuli/spore_stims/complex_19_A_a.gif","images/stimuli/spore_stims/complex_15_A_b.gif","forced_long","","10","complex_dissimilar","images/stimuli/spore_stims/complex_15_A_b.gif","","","","",""
"","null","html-keyboard-response","119","459670","0.0-29.0-0.1","SS1619739899106","","","null","","","","","","<p><img src= images/blank.png width =""600"" height = ""600"" style=""position:fixed;top:50%; left:50%; transform: translate(-50%, -50%); border:5px solid black"">","","","","","","","",""
"","1081.2499998137355","sequential-stimulus-presentation-old","120","461254","0.0-29.0-1.1","SS1619739899106","trial","","40","500","1581.2499998137355","images/stimuli/spore_stims/complex_19_A_a.gif","images/stimuli/spore_stims/complex_15_A_b.gif","forced_long","","10","complex_dissimilar","images/stimuli/spore_stims/complex_19_A_a.gif","","","","",""
"","null","html-keyboard-response","121","462366","0.0-29.0-0.2","SS1619739899106","","","null","","","","","","<p><img src= images/blank.png width =""600"" height = ""600"" style=""position:fixed;top:50%; left:50%; transform: translate(-50%, -50%); border:5px solid black"">","","","","","","","",""
"","615.6300001312047","sequential-stimulus-presentation-old","122","463487","0.0-29.0-1.2","SS1619739899106","trial","","40","500","1115.6300001312047","images/stimuli/spore_stims/complex_19_A_a.gif","images/stimuli/spore_stims/complex_15_A_b.gif","forced_long","","10","complex_dissimilar","images/stimuli/spore_stims/complex_15_A_b.gif","","","","",""
"","null","html-keyboard-response","123","464766","0.0-29.0-0.3","SS1619739899106","","","null","","","","","","<p><img src= images/blank.png width =""600"" height = ""600"" style=""position:fixed;top:50%; left:50%; transform: translate(-50%, -50%); border:5px solid black"">","","","","","","","",""
"","209.81999998912215","sequential-stimulus-presentation-old","124","465482","0.0-29.0-1.3","SS1619739899106","trial","","40","500","709.8199999891222","images/stimuli/spore_stims/complex_19_A_a.gif","images/stimuli/spore_stims/complex_15_A_b.gif","forced_long","","10","complex_dissimilar","images/stimuli/spore_stims/complex_19_A_a.gif","","","","",""
"","null","html-keyboard-response","125","466778","0.0-29.0-0.4","SS1619739899106","","","null","","","","","","<p><img src= images/blank.png width =""600"" height = ""600"" style=""position:fixed;top:50%; left:50%; transform: translate(-50%, -50%); border:5px solid black"">","","","","","","","",""
"","1672.800000058487","sequential-stimulus-presentation-old","126","468952","0.0-29.0-1.4","SS1619739899106","trial","","40","500","2172.800000058487","images/stimuli/spore_stims/complex_19_A_a.gif","images/stimuli/spore_stims/complex_15_A_b.gif","forced_long","","10","complex_dissimilar","images/stimuli/spore_stims/complex_15_A_b.gif","","","","",""
"","null","html-keyboard-response","127","470235","0.0-29.0-0.5","SS1619739899106","","","null","","","","","","<p><img src= images/blank.png width =""600"" height = ""600"" style=""position:fixed;top:50%; left:50%; transform: translate(-50%, -50%); border:5px solid black"">","","","","","","","",""
"","981.849999865517","sequential-stimulus-presentation-old","128","471723","0.0-29.0-1.5","SS1619739899106","trial","","40","500","1481.849999865517","images/stimuli/spore_stims/complex_19_A_a.gif","images/stimuli/spore_stims/complex_15_A_b.gif","forced_long","","10","complex_dissimilar","images/stimuli/spore_stims/complex_15_A_b.gif","","","","",""
"","3259.5200000796467","survey-multi-choice","129","474984","0.0-30.0","SS1619739899106","math_question","","","","","","","","","","","","{""Q0"":""8""}","[0]","8","",""
"","null","html-keyboard-response","130","475850","0.0-31.0-0.0","SS1619739899106","","","null","","","","","","<p><img src= images/blank.png width =""600"" height = ""600"" style=""position:fixed;top:50%; left:50%; transform: translate(-50%, -50%); border:5px solid black"">","","","","","","","",""
"","730.0300002098083","sequential-stimulus-presentation-old","131","477083","0.0-31.0-1.0","SS1619739899106","trial","","40","500","1230.0300002098083","images/stimuli/spore_stims/simple_12_A_a.gif","images/stimuli/spore_stims/simple_01_A_b.gif","self_paced","","11","simple_dissimilar","images/stimuli/spore_stims/simple_01_A_b.gif","","","","",""
"","null","html-keyboard-response","132","478224","0.0-31.0-0.1","SS1619739899106","","","null","","","","","","<p><img src= images/blank.png width =""600"" height = ""600"" style=""position:fixed;top:50%; left:50%; transform: translate(-50%, -50%); border:5px solid black"">","","","","","","","",""
"","780.4999998770654","sequential-stimulus-presentation-old","133","479507","0.0-31.0-1.1","SS1619739899106","trial","","40","500","1280.4999998770654","images/stimuli/spore_stims/simple_12_A_a.gif","images/stimuli/spore_stims/simple_01_A_b.gif","self_paced","","11","simple_dissimilar","images/stimuli/spore_stims/simple_01_A_b.gif","","","","",""
"","null","html-keyboard-response","134","480491","0.0-31.0-0.2","SS1619739899106","","","null","","","","","","<p><img src= images/blank.png width =""600"" height = ""600"" style=""position:fixed;top:50%; left:50%; transform: translate(-50%, -50%); border:5px solid black"">","","","","","","","",""
"","874.1399999707937","sequential-stimulus-presentation-old","135","481867","0.0-31.0-1.2","SS1619739899106","trial","","40","500","1374.1399999707937","images/stimuli/spore_stims/simple_12_A_a.gif","images/stimuli/spore_stims/simple_01_A_b.gif","self_paced","","11","simple_dissimilar","images/stimuli/spore_stims/simple_01_A_b.gif","","","","",""
"","null","html-keyboard-response","136","482690","0.0-31.0-0.3","SS1619739899106","","","null","","","","","","<p><img src= images/blank.png width =""600"" height = ""600"" style=""position:fixed;top:50%; left:50%; transform: translate(-50%, -50%); border:5px solid black"">","","","","","","","",""
"","860.9900001902133","sequential-stimulus-presentation-old","137","484066","0.0-31.0-1.3","SS1619739899106","trial","","40","500","1360.9900001902133","images/stimuli/spore_stims/simple_12_A_a.gif","images/stimuli/spore_stims/simple_01_A_b.gif","self_paced","","11","simple_dissimilar","images/stimuli/spore_stims/simple_01_A_b.gif","","","","",""
"","null","html-keyboard-response","138","484912","0.0-31.0-0.4","SS1619739899106","","","null","","","","","","<p><img src= images/blank.png width =""600"" height = ""600"" style=""position:fixed;top:50%; left:50%; transform: translate(-50%, -50%); border:5px solid black"">","","","","","","","",""
"","1100.9599999524653","sequential-stimulus-presentation-old","139","486516","0.0-31.0-1.4","SS1619739899106","trial","","40","500","1600.9599999524653","images/stimuli/spore_stims/simple_12_A_a.gif","images/stimuli/spore_stims/simple_01_A_b.gif","self_paced","","11","simple_dissimilar","images/stimuli/spore_stims/simple_01_A_b.gif","","","","",""
"[{""page_index"":0,""viewing_time"":4009.109999984503}]","4009.2400000430644","instructions","140","490526","0.0-32.0","SS1619739899106","instructions","","","","","","","","","","","","","","","",""
"","8793.430000077933","survey-likert","141","499322","0.0-33.0","SS1619739899106","similarity_question","","","","","","","","","","","","{""Q0"":1}","[0]","","images/stimuli/spore_stims/complex_03_A_a.gif","images/stimuli/spore_stims/complex_20_A_b.gif"
"","4883.284999988973","survey-likert","142","504207","0.0-34.0","SS1619739899106","similarity_question","","","","","","","","","","","","{""Q0"":2}","[0]","","images/stimuli/spore_stims/complex_19_A_a.gif","images/stimuli/spore_stims/complex_15_A_b.gif"
"","4803.644999861717","survey-likert","143","509013","0.0-35.0","SS1619739899106","similarity_question","","","","","","","","","","","","{""Q0"":4}","[0]","","images/stimuli/spore_stims/simple_02_A_b.gif","images/stimuli/spore_stims/simple_14_A_a.gif"
"","2213.095000013709","survey-likert","144","511228","0.0-36.0","SS1619739899106","similarity_question","","","","","","","","","","","","{""Q0"":4}","[0]","","images/stimuli/spore_stims/simple_19_A_a.gif","images/stimuli/spore_stims/simple_18_A_b.gif"
"","3787.7599999774247","survey-likert","145","515018","0.0-37.0","SS1619739899106","similarity_question","","","","","","","","","","","","{""Q0"":5}","[0]","","images/stimuli/spore_stims/simple_11_A_b.gif","images/stimuli/spore_stims/simple_09_A_a.gif"
"","7480.070000048727","survey-likert","146","522500","0.0-38.0","SS1619739899106","similarity_question","","","","","","","","","","","","{""Q0"":2}","[0]","","images/stimuli/spore_stims/complex_10_A_b.gif","images/stimuli/spore_stims/complex_16_A_a.gif"
"","5718.224999960512","survey-likert","147","528220","0.0-39.0","SS1619739899106","similarity_question","","","","","","","","","","","","{""Q0"":6}","[0]","","images/stimuli/spore_stims/simple_08_A_b.gif","images/stimuli/spore_stims/simple_01_A_a.gif"
"","4001.0800000745803","survey-likert","148","532224","0.0-40.0","SS1619739899106","similarity_question","","","","","","","","","","","","{""Q0"":5}","[0]","","images/stimuli/spore_stims/simple_15_A_a.gif","images/stimuli/spore_stims/simple_06_A_b.gif"
"","2855.144999921322","survey-likert","149","535081","0.0-41.0","SS1619739899106","similarity_question","","","","","","","","","","","","{""Q0"":5}","[0]","","images/stimuli/spore_stims/simple_01_A_b.gif","images/stimuli/spore_stims/simple_12_A_a.gif"
"","3555.8599999640137","survey-likert","150","538639","0.0-42.0","SS1619739899106","similarity_question","","","","","","","","","","","","{""Q0"":4}","[0]","","images/stimuli/spore_stims/complex_02_A_b.gif","images/stimuli/spore_stims/complex_09_A_a.gif"
"","2976.1699999216944","survey-likert","151","541617","0.0-43.0","SS1619739899106","similarity_question","","","","","","","","","","","","{""Q0"":2}","[0]","","images/stimuli/spore_stims/complex_06_A_a.gif","images/stimuli/spore_stims/complex_01_A_b.gif"
"","3985.374999931082","survey-likert","152","545604","0.0-44.0","SS1619739899106","similarity_question","","","","","","","","","","","","{""Q0"":3}","[0]","","images/stimuli/spore_stims/complex_08_A_b.gif","images/stimuli/spore_stims/complex_13_A_a.gif"
"[{""page_index"":0,""viewing_time"":3347.8300001006573}]","3347.980000078678","instructions","153","548954","0.0-45.0","SS1619739899106","instructions","","","","","","","","","","","","","","","",""
"","4472.999999998137","survey-likert","154","553429","0.0-46.0","SS1619739899106","","","","","","","","","images/stimuli/spore_stims/complex_13_A_a.gif","","","","{""Q0"":5}","[0]","","",""
"","2971.380000002682","survey-likert","155","556402","0.0-47.0","SS1619739899106","","","","","","","","","images/stimuli/spore_stims/simple_15_A_a.gif","","","","{""Q0"":0}","[0]","","",""
"","2333.134999964386","survey-likert","156","558737","0.0-48.0","SS1619739899106","","","","","","","","","images/stimuli/spore_stims/complex_06_A_a.gif","","","","{""Q0"":5}","[0]","","",""
"","2488.755000056699","survey-likert","157","561228","0.0-49.0","SS1619739899106","","","","","","","","","images/stimuli/spore_stims/simple_19_A_a.gif","","","","{""Q0"":1}","[0]","","",""
"","2303.855000063777","survey-likert","158","563534","0.0-50.0","SS1619739899106","","","","","","","","","images/stimuli/spore_stims/simple_14_A_a.gif","","","","{""Q0"":0}","[0]","","",""
"","1738.660000031814","survey-likert","159","565275","0.0-51.0","SS1619739899106","","","","","","","","","images/stimuli/spore_stims/simple_08_A_b.gif","","","","{""Q0"":0}","[0]","","",""
"","2081.495000049472","survey-likert","160","567359","0.0-52.0","SS1619739899106","","","","","","","","","images/stimuli/spore_stims/simple_11_A_b.gif","","","","{""Q0"":0}","[0]","","",""
"","2437.950000166893","survey-likert","161","569799","0.0-53.0","SS1619739899106","","","","","","","","","images/stimuli/spore_stims/complex_15_A_b.gif","","","","{""Q0"":5}","[0]","","",""
"","4445.1299998909235","survey-likert","162","574246","0.0-54.0","SS1619739899106","","","","","","","","","images/stimuli/spore_stims/complex_03_A_a.gif","","","","{""Q0"":6}","[0]","","",""
"","2802.1200001239777","survey-likert","163","577050","0.0-55.0","SS1619739899106","","","","","","","","","images/stimuli/spore_stims/complex_10_A_b.gif","","","","{""Q0"":5}","[0]","","",""
"","1893.930000020191","survey-likert","164","578946","0.0-56.0","SS1619739899106","","","","","","","","","images/stimuli/spore_stims/simple_01_A_b.gif","","","","{""Q0"":1}","[0]","","",""
"","2690.944999922067","survey-likert","165","581639","0.0-57.0","SS1619739899106","","","","","","","","","images/stimuli/spore_stims/complex_02_A_b.gif","","","","{""Q0"":5}","[0]","","",""
"[{""page_index"":0,""viewing_time"":1797.5250000599772}]","1797.6550001185387","instructions","166","583439","0.0-58.0","SS1619739899106","instructions","","","","","","","","","","","","","","","",""
"","2011.5100000984967","demog-age","167","585453","0.0-59.0","SS1619739899106","","","","","","","","","","","","","{""age"":""21""}","","","",""
"","3006.5649999305606","demog-ethnic-US","168","588463","0.0-60.0","SS1619739899106","","","","","","","","","","","","","{""ethnicity"":[""White""]}","[0]","","",""
"","5866.305000148714","demog-gender-and-education","169","594331","0.0-61.0","SS1619739899106","","","","","","","","","","","","","{""gender"":""Male"",""education"":""Associate Degree/Technical certification""}","[0,1]","","",""
"","9377.504999982193","survey-text","170","603712","0.0-62.0","SS1619739899106","feedback","","","","","","","","","","","","{""Q0"":""No lag""}","","","",""
"[{""page_index"":0,""viewing_time"":1138.3849999401718}]","1138.509999960661","instructions","171","604852","0.0-63.0","SS1619739899106","instructions","","","","","","","","","","","","","","","",""
