"view_history","rt","trial_type","trial_index","time_elapsed","internal_node_id","subject","stimulus_type","trial_stimulus","key_press","minimum_viewing_duration","trial_looking_time","block_deviant","block_background","exposure_type","stimulus","block_number","block_type","stimulus_displayed","responses","question_order","math_correct_answer","stimulus_left","stimulus_right"
"[{""page_index"":0,""viewing_time"":2191.4749999996275}]","2191.8849999992744","instructions","0","2193","0.0-0.0","SS1619739703800","","","","","","","","","","","","","","","","",""
"[{""page_index"":0,""viewing_time"":1051.7950000003111},{""page_index"":1,""viewing_time"":11575.800000000527}]","12627.940000000308","instructions","1","16824","0.0-1.0","SS1619739703800","instructions","","","","","","","","","","","","","","","",""
"","4095.1750000003813","sequential-stimulus-presentation-old","2","21426","0.0-2.0","SS1619739703800","","","40","500","4595.175000000381","null","null","self_paced","","","","","","","","",""
"","1791.0099999999147","sequential-stimulus-presentation-old","3","23721","0.0-3.0","SS1619739703800","","","40","500","2291.0099999999147","null","null","self_paced","","","","","","","","",""
"[{""page_index"":0,""viewing_time"":18052.625000000262}]","18052.889999999934","instructions","4","41776","0.0-4.0","SS1619739703800","instructions","","","","","","","","","","","","","","","",""
"","1338.3499999999913","sequential-stimulus-presentation-old","5","58118","0.0-5.0","SS1619739703800","","","40","500","1838.3499999999913","null","null","forced_long","","","","","","","","",""
"","1805.2149999994072","sequential-stimulus-presentation-old","6","60436","0.0-6.0","SS1619739703800","","","40","500","2305.214999999407","null","null","forced_long","","","","","","","","",""
"[{""page_index"":0,""viewing_time"":2642.439999999624}]","2642.664999999397","instructions","7","63080","0.0-7.0","SS1619739703800","instructions","","","","","","","","","","","","","","","",""
"[{""page_index"":0,""viewing_time"":12310.764999999257},{""page_index"":1,""viewing_time"":5215.799999999945},{""page_index"":2,""viewing_time"":2375.99500000033},{""page_index"":3,""viewing_time"":1136.1800000004296},{""page_index"":4,""viewing_time"":767.8399999995163}]","21806.80499999925","instructions","8","84888","0.0-8.0","SS1619739703800","instructions","","","","","","","","","","","","","","","",""
"","null","html-keyboard-response","9","85973","0.0-9.0-0.0","SS1619739703800","","","null","","","","","","<p><img src= images/blank.png width =""600"" height = ""600"" style=""position:fixed;top:50%; left:50%; transform: translate(-50%, -50%); border:5px solid black"">","","","","","","","",""
"","16306.164999999964","sequential-stimulus-presentation-old","10","102789","0.0-9.0-1.0","SS1619739703800","trial","","40","500","16806.164999999964","images/stimuli/spore_stims/complex_17_A_a.gif","images/stimuli/spore_stims/complex_11_A_b.gif","self_paced","","0","complex_dissimilar","images/stimuli/spore_stims/complex_11_A_b.gif","","","","",""
"","null","html-keyboard-response","11","103639","0.0-9.0-0.1","SS1619739703800","","","null","","","","","","<p><img src= images/blank.png width =""600"" height = ""600"" style=""position:fixed;top:50%; left:50%; transform: translate(-50%, -50%); border:5px solid black"">","","","","","","","",""
"","20398.86999999998","sequential-stimulus-presentation-old","12","124544","0.0-9.0-1.1","SS1619739703800","trial","","40","500","20898.86999999998","images/stimuli/spore_stims/complex_17_A_a.gif","images/stimuli/spore_stims/complex_11_A_b.gif","self_paced","","0","complex_dissimilar","images/stimuli/spore_stims/complex_11_A_b.gif","","","","",""
"","null","html-keyboard-response","13","125767","0.0-9.0-0.2","SS1619739703800","","","null","","","","","","<p><img src= images/blank.png width =""600"" height = ""600"" style=""position:fixed;top:50%; left:50%; transform: translate(-50%, -50%); border:5px solid black"">","","","","","","","",""
"","17405.57499999975","sequential-stimulus-presentation-old","14","143679","0.0-9.0-1.2","SS1619739703800","trial","","40","500","17905.57499999975","images/stimuli/spore_stims/complex_17_A_a.gif","images/stimuli/spore_stims/complex_11_A_b.gif","self_paced","","0","complex_dissimilar","images/stimuli/spore_stims/complex_11_A_b.gif","","","","",""
"","null","html-keyboard-response","15","144786","0.0-9.0-0.3","SS1619739703800","","","null","","","","","","<p><img src= images/blank.png width =""600"" height = ""600"" style=""position:fixed;top:50%; left:50%; transform: translate(-50%, -50%); border:5px solid black"">","","","","","","","",""
"","13838.2849999998","sequential-stimulus-presentation-old","16","159135","0.0-9.0-1.3","SS1619739703800","trial","","40","500","14338.2849999998","images/stimuli/spore_stims/complex_17_A_a.gif","images/stimuli/spore_stims/complex_11_A_b.gif","self_paced","","0","complex_dissimilar","images/stimuli/spore_stims/complex_17_A_a.gif","","","","",""
"","null","html-keyboard-response","17","160224","0.0-9.0-0.4","SS1619739703800","","","null","","","","","","<p><img src= images/blank.png width =""600"" height = ""600"" style=""position:fixed;top:50%; left:50%; transform: translate(-50%, -50%); border:5px solid black"">","","","","","","","",""
"","5360.459999999875","sequential-stimulus-presentation-old","18","166109","0.0-9.0-1.4","SS1619739703800","trial","","40","500","5860.459999999875","images/stimuli/spore_stims/complex_17_A_a.gif","images/stimuli/spore_stims/complex_11_A_b.gif","self_paced","","0","complex_dissimilar","images/stimuli/spore_stims/complex_11_A_b.gif","","","","",""
"","null","html-keyboard-response","19","167066","0.0-9.0-0.5","SS1619739703800","","","null","","","","","","<p><img src= images/blank.png width =""600"" height = ""600"" style=""position:fixed;top:50%; left:50%; transform: translate(-50%, -50%); border:5px solid black"">","","","","","","","",""
"","6634.474999999831","sequential-stimulus-presentation-old","20","174208","0.0-9.0-1.5","SS1619739703800","trial","","40","500","7134.474999999831","images/stimuli/spore_stims/complex_17_A_a.gif","images/stimuli/spore_stims/complex_11_A_b.gif","self_paced","","0","complex_dissimilar","images/stimuli/spore_stims/complex_17_A_a.gif","","","","",""
"","3158.0950000006997","survey-multi-choice","21","177379","0.0-10.0","SS1619739703800","math_question","","","","","","","","","","","","{""Q0"":""10""}","[0]","10","",""
"","null","html-keyboard-response","22","178573","0.0-11.0-0.0","SS1619739703800","","","null","","","","","","<p><img src= images/blank.png width =""600"" height = ""600"" style=""position:fixed;top:50%; left:50%; transform: translate(-50%, -50%); border:5px solid black"">","","","","","","","",""
"","7327.804999999906","sequential-stimulus-presentation-old","23","186409","0.0-11.0-1.0","SS1619739703800","trial","","40","500","7827.804999999906","images/stimuli/spore_stims/simple_01_A_b.gif","images/stimuli/spore_stims/simple_03_A_a.gif","self_paced","","1","simple_dissimilar","images/stimuli/spore_stims/simple_03_A_a.gif","","","","",""
"","null","html-keyboard-response","24","187270","0.0-11.0-0.1","SS1619739703800","","","null","","","","","","<p><img src= images/blank.png width =""600"" height = ""600"" style=""position:fixed;top:50%; left:50%; transform: translate(-50%, -50%); border:5px solid black"">","","","","","","","",""
"","4845.774999999761","sequential-stimulus-presentation-old","25","192623","0.0-11.0-1.1","SS1619739703800","trial","","40","500","5345.774999999761","images/stimuli/spore_stims/simple_01_A_b.gif","images/stimuli/spore_stims/simple_03_A_a.gif","self_paced","","1","simple_dissimilar","images/stimuli/spore_stims/simple_03_A_a.gif","","","","",""
"","null","html-keyboard-response","26","193763","0.0-11.0-0.2","SS1619739703800","","","null","","","","","","<p><img src= images/blank.png width =""600"" height = ""600"" style=""position:fixed;top:50%; left:50%; transform: translate(-50%, -50%); border:5px solid black"">","","","","","","","",""
"","4756.835000000137","sequential-stimulus-presentation-old","27","199029","0.0-11.0-1.2","SS1619739703800","trial","","40","500","5256.835000000137","images/stimuli/spore_stims/simple_01_A_b.gif","images/stimuli/spore_stims/simple_03_A_a.gif","self_paced","","1","simple_dissimilar","images/stimuli/spore_stims/simple_03_A_a.gif","","","","",""
"","null","html-keyboard-response","28","199968","0.0-11.0-0.3","SS1619739703800","","","null","","","","","","<p><img src= images/blank.png width =""600"" height = ""600"" style=""position:fixed;top:50%; left:50%; transform: translate(-50%, -50%); border:5px solid black"">","","","","","","","",""
"","5271.8800000002375","sequential-stimulus-presentation-old","29","205745","0.0-11.0-1.3","SS1619739703800","trial","","40","500","5771.8800000002375","images/stimuli/spore_stims/simple_01_A_b.gif","images/stimuli/spore_stims/simple_03_A_a.gif","self_paced","","1","simple_dissimilar","images/stimuli/spore_stims/simple_01_A_b.gif","","","","",""
"","null","html-keyboard-response","30","206999","0.0-11.0-0.4","SS1619739703800","","","null","","","","","","<p><img src= images/blank.png width =""600"" height = ""600"" style=""position:fixed;top:50%; left:50%; transform: translate(-50%, -50%); border:5px solid black"">","","","","","","","",""
"","3369.9749999995984","sequential-stimulus-presentation-old","31","210881","0.0-11.0-1.4","SS1619739703800","trial","","40","500","3869.9749999995984","images/stimuli/spore_stims/simple_01_A_b.gif","images/stimuli/spore_stims/simple_03_A_a.gif","self_paced","","1","simple_dissimilar","images/stimuli/spore_stims/simple_03_A_a.gif","","","","",""
"","null","html-keyboard-response","32","211981","0.0-11.0-0.5","SS1619739703800","","","null","","","","","","<p><img src= images/blank.png width =""600"" height = ""600"" style=""position:fixed;top:50%; left:50%; transform: translate(-50%, -50%); border:5px solid black"">","","","","","","","",""
"","5296.850000000617","sequential-stimulus-presentation-old","33","217790","0.0-11.0-1.5","SS1619739703800","trial","","40","500","5796.850000000617","images/stimuli/spore_stims/simple_01_A_b.gif","images/stimuli/spore_stims/simple_03_A_a.gif","self_paced","","1","simple_dissimilar","images/stimuli/spore_stims/simple_01_A_b.gif","","","","",""
"","2229.114999999176","survey-multi-choice","34","220025","0.0-12.0","SS1619739703800","math_question","","","","","","","","","","","","{""Q0"":""15""}","[0]","15","",""
"","null","html-keyboard-response","35","220943","0.0-13.0-0.0","SS1619739703800","","","null","","","","","","<p><img src= images/blank.png width =""600"" height = ""600"" style=""position:fixed;top:50%; left:50%; transform: translate(-50%, -50%); border:5px solid black"">","","","","","","","",""
"","5193.569999999454","sequential-stimulus-presentation-old","36","226644","0.0-13.0-1.0","SS1619739703800","trial","","40","500","5693.569999999454","images/stimuli/spore_stims/complex_12_A_a.gif","images/stimuli/spore_stims/complex_06_A_b.gif","self_paced","","2","complex_dissimilar","images/stimuli/spore_stims/complex_06_A_b.gif","","","","",""
"","null","html-keyboard-response","37","227801","0.0-13.0-0.1","SS1619739703800","","","null","","","","","","<p><img src= images/blank.png width =""600"" height = ""600"" style=""position:fixed;top:50%; left:50%; transform: translate(-50%, -50%); border:5px solid black"">","","","","","","","",""
"","6362.8100000005215","sequential-stimulus-presentation-old","38","234672","0.0-13.0-1.1","SS1619739703800","trial","","40","500","6862.8100000005215","images/stimuli/spore_stims/complex_12_A_a.gif","images/stimuli/spore_stims/complex_06_A_b.gif","self_paced","","2","complex_dissimilar","images/stimuli/spore_stims/complex_06_A_b.gif","","","","",""
"","null","html-keyboard-response","39","235789","0.0-13.0-0.2","SS1619739703800","","","null","","","","","","<p><img src= images/blank.png width =""600"" height = ""600"" style=""position:fixed;top:50%; left:50%; transform: translate(-50%, -50%); border:5px solid black"">","","","","","","","",""
"","4481.8100000002305","sequential-stimulus-presentation-old","40","240780","0.0-13.0-1.2","SS1619739703800","trial","","40","500","4981.8100000002305","images/stimuli/spore_stims/complex_12_A_a.gif","images/stimuli/spore_stims/complex_06_A_b.gif","self_paced","","2","complex_dissimilar","images/stimuli/spore_stims/complex_06_A_b.gif","","","","",""
"","null","html-keyboard-response","41","241628","0.0-13.0-0.3","SS1619739703800","","","null","","","","","","<p><img src= images/blank.png width =""600"" height = ""600"" style=""position:fixed;top:50%; left:50%; transform: translate(-50%, -50%); border:5px solid black"">","","","","","","","",""
"","4627.935000000434","sequential-stimulus-presentation-old","42","246767","0.0-13.0-1.3","SS1619739703800","trial","","40","500","5127.935000000434","images/stimuli/spore_stims/complex_12_A_a.gif","images/stimuli/spore_stims/complex_06_A_b.gif","self_paced","","2","complex_dissimilar","images/stimuli/spore_stims/complex_06_A_b.gif","","","","",""
"","null","html-keyboard-response","43","247883","0.0-13.0-0.4","SS1619739703800","","","null","","","","","","<p><img src= images/blank.png width =""600"" height = ""600"" style=""position:fixed;top:50%; left:50%; transform: translate(-50%, -50%); border:5px solid black"">","","","","","","","",""
"","3751.8549999995157","sequential-stimulus-presentation-old","44","252146","0.0-13.0-1.4","SS1619739703800","trial","","40","500","4251.854999999516","images/stimuli/spore_stims/complex_12_A_a.gif","images/stimuli/spore_stims/complex_06_A_b.gif","self_paced","","2","complex_dissimilar","images/stimuli/spore_stims/complex_06_A_b.gif","","","","",""
"","3829.2950000004785","survey-multi-choice","45","255977","0.0-14.0","SS1619739703800","math_question","","","","","","","","","","","","{""Q0"":""8""}","[0]","8","",""
"","null","html-keyboard-response","46","257144","0.0-15.0-0.0","SS1619739703800","","","null","","","","","","<p><img src= images/blank.png width =""600"" height = ""600"" style=""position:fixed;top:50%; left:50%; transform: translate(-50%, -50%); border:5px solid black"">","","","","","","","",""
"","2248.654999999446","sequential-stimulus-presentation-old","47","274408","0.0-15.0-1.0","SS1619739703800","trial","","40","500","2748.654999999446","images/stimuli/spore_stims/simple_14_A_b.gif","images/stimuli/spore_stims/simple_20_A_a.gif","forced_long","","3","simple_dissimilar","images/stimuli/spore_stims/simple_20_A_a.gif","","","","",""
"","null","html-keyboard-response","48","275661","0.0-15.0-0.1","SS1619739703800","","","null","","","","","","<p><img src= images/blank.png width =""600"" height = ""600"" style=""position:fixed;top:50%; left:50%; transform: translate(-50%, -50%); border:5px solid black"">","","","","","","","",""
"","12526.100000000035","sequential-stimulus-presentation-old","49","288693","0.0-15.0-1.1","SS1619739703800","trial","","40","500","13026.100000000035","images/stimuli/spore_stims/simple_14_A_b.gif","images/stimuli/spore_stims/simple_20_A_a.gif","forced_long","","3","simple_dissimilar","images/stimuli/spore_stims/simple_20_A_a.gif","","","","",""
"","null","html-keyboard-response","50","289547","0.0-15.0-0.2","SS1619739703800","","","null","","","","","","<p><img src= images/blank.png width =""600"" height = ""600"" style=""position:fixed;top:50%; left:50%; transform: translate(-50%, -50%); border:5px solid black"">","","","","","","","",""
"","6969.519999999611","sequential-stimulus-presentation-old","51","297027","0.0-15.0-1.2","SS1619739703800","trial","","40","500","7469.519999999611","images/stimuli/spore_stims/simple_14_A_b.gif","images/stimuli/spore_stims/simple_20_A_a.gif","forced_long","","3","simple_dissimilar","images/stimuli/spore_stims/simple_20_A_a.gif","","","","",""
"","null","html-keyboard-response","52","298277","0.0-15.0-0.3","SS1619739703800","","","null","","","","","","<p><img src= images/blank.png width =""600"" height = ""600"" style=""position:fixed;top:50%; left:50%; transform: translate(-50%, -50%); border:5px solid black"">","","","","","","","",""
"","8678.074999999837","sequential-stimulus-presentation-old","53","307467","0.0-15.0-1.3","SS1619739703800","trial","","40","500","9178.074999999837","images/stimuli/spore_stims/simple_14_A_b.gif","images/stimuli/spore_stims/simple_20_A_a.gif","forced_long","","3","simple_dissimilar","images/stimuli/spore_stims/simple_20_A_a.gif","","","","",""
"","null","html-keyboard-response","54","308395","0.0-15.0-0.4","SS1619739703800","","","null","","","","","","<p><img src= images/blank.png width =""600"" height = ""600"" style=""position:fixed;top:50%; left:50%; transform: translate(-50%, -50%); border:5px solid black"">","","","","","","","",""
"","19389.400000000023","sequential-stimulus-presentation-old","55","328292","0.0-15.0-1.4","SS1619739703800","trial","","40","500","19889.400000000023","images/stimuli/spore_stims/simple_14_A_b.gif","images/stimuli/spore_stims/simple_20_A_a.gif","forced_long","","3","simple_dissimilar","images/stimuli/spore_stims/simple_20_A_a.gif","","","","",""
"","2050.9600000004866","survey-multi-choice","56","330345","0.0-16.0","SS1619739703800","math_question","","","","","","","","","","","","{""Q0"":""13""}","[0]","13","",""
"","null","html-keyboard-response","57","331315","0.0-17.0-0.0","SS1619739703800","","","null","","","","","","<p><img src= images/blank.png width =""600"" height = ""600"" style=""position:fixed;top:50%; left:50%; transform: translate(-50%, -50%); border:5px solid black"">","","","","","","","",""
"","1488.7100000005448","sequential-stimulus-presentation-old","58","333314","0.0-17.0-1.0","SS1619739703800","trial","","40","500","1988.7100000005448","images/stimuli/spore_stims/complex_09_A_b.gif","images/stimuli/spore_stims/complex_15_A_a.gif","forced_short","","4","complex_dissimilar","images/stimuli/spore_stims/complex_15_A_a.gif","","","","",""
"","null","html-keyboard-response","59","334204","0.0-17.0-0.1","SS1619739703800","","","null","","","","","","<p><img src= images/blank.png width =""600"" height = ""600"" style=""position:fixed;top:50%; left:50%; transform: translate(-50%, -50%); border:5px solid black"">","","","","","","","",""
"","9673.91000000044","sequential-stimulus-presentation-old","60","344393","0.0-17.0-1.1","SS1619739703800","trial","","40","500","10173.91000000044","images/stimuli/spore_stims/complex_09_A_b.gif","images/stimuli/spore_stims/complex_15_A_a.gif","forced_short","","4","complex_dissimilar","images/stimuli/spore_stims/complex_09_A_b.gif","","","","",""
"","null","html-keyboard-response","61","345456","0.0-17.0-0.2","SS1619739703800","","","null","","","","","","<p><img src= images/blank.png width =""600"" height = ""600"" style=""position:fixed;top:50%; left:50%; transform: translate(-50%, -50%); border:5px solid black"">","","","","","","","",""
"","2829.485000000219","sequential-stimulus-presentation-old","62","348799","0.0-17.0-1.2","SS1619739703800","trial","","40","500","3329.485000000219","images/stimuli/spore_stims/complex_09_A_b.gif","images/stimuli/spore_stims/complex_15_A_a.gif","forced_short","","4","complex_dissimilar","images/stimuli/spore_stims/complex_15_A_a.gif","","","","",""
"","null","html-keyboard-response","63","350036","0.0-17.0-0.3","SS1619739703800","","","null","","","","","","<p><img src= images/blank.png width =""600"" height = ""600"" style=""position:fixed;top:50%; left:50%; transform: translate(-50%, -50%); border:5px solid black"">","","","","","","","",""
"","3089.769999999553","sequential-stimulus-presentation-old","64","353637","0.0-17.0-1.3","SS1619739703800","trial","","40","500","3589.769999999553","images/stimuli/spore_stims/complex_09_A_b.gif","images/stimuli/spore_stims/complex_15_A_a.gif","forced_short","","4","complex_dissimilar","images/stimuli/spore_stims/complex_15_A_a.gif","","","","",""
"","null","html-keyboard-response","65","354827","0.0-17.0-0.4","SS1619739703800","","","null","","","","","","<p><img src= images/blank.png width =""600"" height = ""600"" style=""position:fixed;top:50%; left:50%; transform: translate(-50%, -50%); border:5px solid black"">","","","","","","","",""
"","997.3699999999953","sequential-stimulus-presentation-old","66","356335","0.0-17.0-1.4","SS1619739703800","trial","","40","500","1497.3699999999953","images/stimuli/spore_stims/complex_09_A_b.gif","images/stimuli/spore_stims/complex_15_A_a.gif","forced_short","","4","complex_dissimilar","images/stimuli/spore_stims/complex_15_A_a.gif","","","","",""
"","null","html-keyboard-response","67","357225","0.0-17.0-0.5","SS1619739703800","","","null","","","","","","<p><img src= images/blank.png width =""600"" height = ""600"" style=""position:fixed;top:50%; left:50%; transform: translate(-50%, -50%); border:5px solid black"">","","","","","","","",""
"","2612.309999999532","sequential-stimulus-presentation-old","68","360355","0.0-17.0-1.5","SS1619739703800","trial","","40","500","3112.309999999532","images/stimuli/spore_stims/complex_09_A_b.gif","images/stimuli/spore_stims/complex_15_A_a.gif","forced_short","","4","complex_dissimilar","images/stimuli/spore_stims/complex_09_A_b.gif","","","","",""
"","2262.370000000403","survey-multi-choice","69","362625","0.0-18.0","SS1619739703800","math_question","","","","","","","","","","","","{""Q0"":""10""}","[0]","10","",""
"","null","html-keyboard-response","70","363650","0.0-19.0-0.0","SS1619739703800","","","null","","","","","","<p><img src= images/blank.png width =""600"" height = ""600"" style=""position:fixed;top:50%; left:50%; transform: translate(-50%, -50%); border:5px solid black"">","","","","","","","",""
"","1532.4999999993015","sequential-stimulus-presentation-old","71","365695","0.0-19.0-1.0","SS1619739703800","trial","","40","500","2032.4999999993015","images/stimuli/spore_stims/simple_10_A_b.gif","images/stimuli/spore_stims/simple_01_A_a.gif","forced_short","","5","simple_dissimilar","images/stimuli/spore_stims/simple_01_A_a.gif","","","","",""
"","null","html-keyboard-response","72","366579","0.0-19.0-0.1","SS1619739703800","","","null","","","","","","<p><img src= images/blank.png width =""600"" height = ""600"" style=""position:fixed;top:50%; left:50%; transform: translate(-50%, -50%); border:5px solid black"">","","","","","","","",""
"","1232.719999999972","sequential-stimulus-presentation-old","73","368323","0.0-19.0-1.1","SS1619739703800","trial","","40","500","1732.719999999972","images/stimuli/spore_stims/simple_10_A_b.gif","images/stimuli/spore_stims/simple_01_A_a.gif","forced_short","","5","simple_dissimilar","images/stimuli/spore_stims/simple_01_A_a.gif","","","","",""
"","null","html-keyboard-response","74","369221","0.0-19.0-0.2","SS1619739703800","","","null","","","","","","<p><img src= images/blank.png width =""600"" height = ""600"" style=""position:fixed;top:50%; left:50%; transform: translate(-50%, -50%); border:5px solid black"">","","","","","","","",""
"","2314.8799999998882","sequential-stimulus-presentation-old","75","372045","0.0-19.0-1.2","SS1619739703800","trial","","40","500","2814.8799999998882","images/stimuli/spore_stims/simple_10_A_b.gif","images/stimuli/spore_stims/simple_01_A_a.gif","forced_short","","5","simple_dissimilar","images/stimuli/spore_stims/simple_01_A_a.gif","","","","",""
"","null","html-keyboard-response","76","373094","0.0-19.0-0.3","SS1619739703800","","","null","","","","","","<p><img src= images/blank.png width =""600"" height = ""600"" style=""position:fixed;top:50%; left:50%; transform: translate(-50%, -50%); border:5px solid black"">","","","","","","","",""
"","1725.3049999999348","sequential-stimulus-presentation-old","77","375323","0.0-19.0-1.3","SS1619739703800","trial","","40","500","2225.304999999935","images/stimuli/spore_stims/simple_10_A_b.gif","images/stimuli/spore_stims/simple_01_A_a.gif","forced_short","","5","simple_dissimilar","images/stimuli/spore_stims/simple_01_A_a.gif","","","","",""
"","null","html-keyboard-response","78","376286","0.0-19.0-0.4","SS1619739703800","","","null","","","","","","<p><img src= images/blank.png width =""600"" height = ""600"" style=""position:fixed;top:50%; left:50%; transform: translate(-50%, -50%); border:5px solid black"">","","","","","","","",""
"","3713.6300000002375","sequential-stimulus-presentation-old","79","380509","0.0-19.0-1.4","SS1619739703800","trial","","40","500","4213.6300000002375","images/stimuli/spore_stims/simple_10_A_b.gif","images/stimuli/spore_stims/simple_01_A_a.gif","forced_short","","5","simple_dissimilar","images/stimuli/spore_stims/simple_01_A_a.gif","","","","",""
"","null","html-keyboard-response","80","381331","0.0-19.0-0.5","SS1619739703800","","","null","","","","","","<p><img src= images/blank.png width =""600"" height = ""600"" style=""position:fixed;top:50%; left:50%; transform: translate(-50%, -50%); border:5px solid black"">","","","","","","","",""
"","3326.064999999304","sequential-stimulus-presentation-old","81","385169","0.0-19.0-1.5","SS1619739703800","trial","","40","500","3826.064999999304","images/stimuli/spore_stims/simple_10_A_b.gif","images/stimuli/spore_stims/simple_01_A_a.gif","forced_short","","5","simple_dissimilar","images/stimuli/spore_stims/simple_01_A_a.gif","","","","",""
"","3141.884999999951","survey-multi-choice","82","388313","0.0-20.0","SS1619739703800","math_question","","","","","","","","","","","","{""Q0"":""9""}","[0]","9","",""
"","null","html-keyboard-response","83","389439","0.0-21.0-0.0","SS1619739703800","","","null","","","","","","<p><img src= images/blank.png width =""600"" height = ""600"" style=""position:fixed;top:50%; left:50%; transform: translate(-50%, -50%); border:5px solid black"">","","","","","","","",""
"","1596.8499999999185","sequential-stimulus-presentation-old","84","391549","0.0-21.0-1.0","SS1619739703800","trial","","40","500","2096.8499999999185","images/stimuli/spore_stims/complex_19_A_b.gif","images/stimuli/spore_stims/complex_02_A_a.gif","forced_short","","6","complex_dissimilar","images/stimuli/spore_stims/complex_02_A_a.gif","","","","",""
"","null","html-keyboard-response","85","392549","0.0-21.0-0.1","SS1619739703800","","","null","","","","","","<p><img src= images/blank.png width =""600"" height = ""600"" style=""position:fixed;top:50%; left:50%; transform: translate(-50%, -50%); border:5px solid black"">","","","","","","","",""
"","2079.6700000001","sequential-stimulus-presentation-old","86","395138","0.0-21.0-1.1","SS1619739703800","trial","","40","500","2579.6700000001","images/stimuli/spore_stims/complex_19_A_b.gif","images/stimuli/spore_stims/complex_02_A_a.gif","forced_short","","6","complex_dissimilar","images/stimuli/spore_stims/complex_02_A_a.gif","","","","",""
"","null","html-keyboard-response","87","396207","0.0-21.0-0.2","SS1619739703800","","","null","","","","","","<p><img src= images/blank.png width =""600"" height = ""600"" style=""position:fixed;top:50%; left:50%; transform: translate(-50%, -50%); border:5px solid black"">","","","","","","","",""
"","539.6300000002375","sequential-stimulus-presentation-old","88","397256","0.0-21.0-1.2","SS1619739703800","trial","","40","500","1039.6300000002375","images/stimuli/spore_stims/complex_19_A_b.gif","images/stimuli/spore_stims/complex_02_A_a.gif","forced_short","","6","complex_dissimilar","images/stimuli/spore_stims/complex_02_A_a.gif","","","","",""
"","null","html-keyboard-response","89","398440","0.0-21.0-0.3","SS1619739703800","","","null","","","","","","<p><img src= images/blank.png width =""600"" height = ""600"" style=""position:fixed;top:50%; left:50%; transform: translate(-50%, -50%); border:5px solid black"">","","","","","","","",""
"","1321.3949999999604","sequential-stimulus-presentation-old","90","400270","0.0-21.0-1.3","SS1619739703800","trial","","40","500","1821.3949999999604","images/stimuli/spore_stims/complex_19_A_b.gif","images/stimuli/spore_stims/complex_02_A_a.gif","forced_short","","6","complex_dissimilar","images/stimuli/spore_stims/complex_02_A_a.gif","","","","",""
"","null","html-keyboard-response","91","401137","0.0-21.0-0.4","SS1619739703800","","","null","","","","","","<p><img src= images/blank.png width =""600"" height = ""600"" style=""position:fixed;top:50%; left:50%; transform: translate(-50%, -50%); border:5px solid black"">","","","","","","","",""
"","279.72500000032596","sequential-stimulus-presentation-old","92","401944","0.0-21.0-1.4","SS1619739703800","trial","","40","500","779.725000000326","images/stimuli/spore_stims/complex_19_A_b.gif","images/stimuli/spore_stims/complex_02_A_a.gif","forced_short","","6","complex_dissimilar","images/stimuli/spore_stims/complex_02_A_a.gif","","","","",""
"","null","html-keyboard-response","93","402938","0.0-21.0-0.5","SS1619739703800","","","null","","","","","","<p><img src= images/blank.png width =""600"" height = ""600"" style=""position:fixed;top:50%; left:50%; transform: translate(-50%, -50%); border:5px solid black"">","","","","","","","",""
"","30694.569999999658","sequential-stimulus-presentation-old","94","434151","0.0-21.0-1.5","SS1619739703800","trial","","40","500","31194.569999999658","images/stimuli/spore_stims/complex_19_A_b.gif","images/stimuli/spore_stims/complex_02_A_a.gif","forced_short","","6","complex_dissimilar","images/stimuli/spore_stims/complex_19_A_b.gif","","","","",""
"","2064.4999999995343","survey-multi-choice","95","436226","0.0-22.0","SS1619739703800","math_question","","","","","","","","","","","","{""Q0"":""8""}","[0]","8","",""
"","null","html-keyboard-response","96","437188","0.0-23.0-0.0","SS1619739703800","","","null","","","","","","<p><img src= images/blank.png width =""600"" height = ""600"" style=""position:fixed;top:50%; left:50%; transform: translate(-50%, -50%); border:5px solid black"">","","","","","","","",""
"","72.62499999976717","sequential-stimulus-presentation-old","97","452267","0.0-23.0-1.0","SS1619739703800","trial","","40","500","572.6249999997672","images/stimuli/spore_stims/complex_14_A_a.gif","images/stimuli/spore_stims/complex_13_A_b.gif","forced_long","","7","complex_dissimilar","images/stimuli/spore_stims/complex_13_A_b.gif","","","","",""
"","null","html-keyboard-response","98","453302","0.0-23.0-0.1","SS1619739703800","","","null","","","","","","<p><img src= images/blank.png width =""600"" height = ""600"" style=""position:fixed;top:50%; left:50%; transform: translate(-50%, -50%); border:5px solid black"">","","","","","","","",""
"","5601.544999999576","sequential-stimulus-presentation-old","99","459420","0.0-23.0-1.1","SS1619739703800","trial","","40","500","6101.544999999576","images/stimuli/spore_stims/complex_14_A_a.gif","images/stimuli/spore_stims/complex_13_A_b.gif","forced_long","","7","complex_dissimilar","images/stimuli/spore_stims/complex_13_A_b.gif","","","","",""
"","null","html-keyboard-response","100","460596","0.0-23.0-0.2","SS1619739703800","","","null","","","","","","<p><img src= images/blank.png width =""600"" height = ""600"" style=""position:fixed;top:50%; left:50%; transform: translate(-50%, -50%); border:5px solid black"">","","","","","","","",""
"","803.0849999994971","sequential-stimulus-presentation-old","101","461908","0.0-23.0-1.2","SS1619739703800","trial","","40","500","1303.084999999497","images/stimuli/spore_stims/complex_14_A_a.gif","images/stimuli/spore_stims/complex_13_A_b.gif","forced_long","","7","complex_dissimilar","images/stimuli/spore_stims/complex_13_A_b.gif","","","","",""
"","null","html-keyboard-response","102","463025","0.0-23.0-0.3","SS1619739703800","","","null","","","","","","<p><img src= images/blank.png width =""600"" height = ""600"" style=""position:fixed;top:50%; left:50%; transform: translate(-50%, -50%); border:5px solid black"">","","","","","","","",""
"","852.7350000003935","sequential-stimulus-presentation-old","103","464388","0.0-23.0-1.3","SS1619739703800","trial","","40","500","1352.7350000003935","images/stimuli/spore_stims/complex_14_A_a.gif","images/stimuli/spore_stims/complex_13_A_b.gif","forced_long","","7","complex_dissimilar","images/stimuli/spore_stims/complex_13_A_b.gif","","","","",""
"","2220.1249999998254","survey-multi-choice","104","466617","0.0-24.0","SS1619739703800","math_question","","","","","","","","","","","","{""Q0"":""9""}","[0]","9","",""
"","null","html-keyboard-response","105","467785","0.0-25.0-0.0","SS1619739703800","","","null","","","","","","<p><img src= images/blank.png width =""600"" height = ""600"" style=""position:fixed;top:50%; left:50%; transform: translate(-50%, -50%); border:5px solid black"">","","","","","","","",""
"","5263.300000000512","sequential-stimulus-presentation-old","106","473571","0.0-25.0-1.0","SS1619739703800","trial","","40","500","5763.300000000512","images/stimuli/spore_stims/simple_04_A_a.gif","images/stimuli/spore_stims/simple_13_A_b.gif","self_paced","","8","simple_dissimilar","images/stimuli/spore_stims/simple_13_A_b.gif","","","","",""
"","null","html-keyboard-response","107","474434","0.0-25.0-0.1","SS1619739703800","","","null","","","","","","<p><img src= images/blank.png width =""600"" height = ""600"" style=""position:fixed;top:50%; left:50%; transform: translate(-50%, -50%); border:5px solid black"">","","","","","","","",""
"","806.4400000002934","sequential-stimulus-presentation-old","108","475750","0.0-25.0-1.1","SS1619739703800","trial","","40","500","1306.4400000002934","images/stimuli/spore_stims/simple_04_A_a.gif","images/stimuli/spore_stims/simple_13_A_b.gif","self_paced","","8","simple_dissimilar","images/stimuli/spore_stims/simple_13_A_b.gif","","","","",""
"","null","html-keyboard-response","109","476767","0.0-25.0-0.2","SS1619739703800","","","null","","","","","","<p><img src= images/blank.png width =""600"" height = ""600"" style=""position:fixed;top:50%; left:50%; transform: translate(-50%, -50%); border:5px solid black"">","","","","","","","",""
"","6526.174999999988","sequential-stimulus-presentation-old","110","483805","0.0-25.0-1.2","SS1619739703800","trial","","40","500","7026.174999999988","images/stimuli/spore_stims/simple_04_A_a.gif","images/stimuli/spore_stims/simple_13_A_b.gif","self_paced","","8","simple_dissimilar","images/stimuli/spore_stims/simple_13_A_b.gif","","","","",""
"","null","html-keyboard-response","111","484633","0.0-25.0-0.3","SS1619739703800","","","null","","","","","","<p><img src= images/blank.png width =""600"" height = ""600"" style=""position:fixed;top:50%; left:50%; transform: translate(-50%, -50%); border:5px solid black"">","","","","","","","",""
"","45766.330000000366","sequential-stimulus-presentation-old","112","530915","0.0-25.0-1.3","SS1619739703800","trial","","40","500","46266.330000000366","images/stimuli/spore_stims/simple_04_A_a.gif","images/stimuli/spore_stims/simple_13_A_b.gif","self_paced","","8","simple_dissimilar","images/stimuli/spore_stims/simple_13_A_b.gif","","","","",""
"","null","html-keyboard-response","113","531953","0.0-25.0-0.4","SS1619739703800","","","null","","","","","","<p><img src= images/blank.png width =""600"" height = ""600"" style=""position:fixed;top:50%; left:50%; transform: translate(-50%, -50%); border:5px solid black"">","","","","","","","",""
"","7581.050000000745","sequential-stimulus-presentation-old","114","540043","0.0-25.0-1.4","SS1619739703800","trial","","40","500","8081.050000000745","images/stimuli/spore_stims/simple_04_A_a.gif","images/stimuli/spore_stims/simple_13_A_b.gif","self_paced","","8","simple_dissimilar","images/stimuli/spore_stims/simple_13_A_b.gif","","","","",""
"","null","html-keyboard-response","115","541063","0.0-25.0-0.5","SS1619739703800","","","null","","","","","","<p><img src= images/blank.png width =""600"" height = ""600"" style=""position:fixed;top:50%; left:50%; transform: translate(-50%, -50%); border:5px solid black"">","","","","","","","",""
"","2851.2649999993155","sequential-stimulus-presentation-old","116","544429","0.0-25.0-1.5","SS1619739703800","trial","","40","500","3351.2649999993155","images/stimuli/spore_stims/simple_04_A_a.gif","images/stimuli/spore_stims/simple_13_A_b.gif","self_paced","","8","simple_dissimilar","images/stimuli/spore_stims/simple_04_A_a.gif","","","","",""
"","1833.0950000009034","survey-multi-choice","117","546266","0.0-26.0","SS1619739703800","math_question","","","","","","","","","","","","{""Q0"":""2""}","[0]","2","",""
"","null","html-keyboard-response","118","547326","0.0-27.0-0.0","SS1619739703800","","","null","","","","","","<p><img src= images/blank.png width =""600"" height = ""600"" style=""position:fixed;top:50%; left:50%; transform: translate(-50%, -50%); border:5px solid black"">","","","","","","","",""
"","9233.535000000265","sequential-stimulus-presentation-old","119","571571","0.0-27.0-1.0","SS1619739703800","trial","","40","500","9733.535000000265","images/stimuli/spore_stims/complex_01_A_a.gif","images/stimuli/spore_stims/complex_03_A_b.gif","forced_long","","9","complex_dissimilar","images/stimuli/spore_stims/complex_03_A_b.gif","","","","",""
"","null","html-keyboard-response","120","572862","0.0-27.0-0.1","SS1619739703800","","","null","","","","","","<p><img src= images/blank.png width =""600"" height = ""600"" style=""position:fixed;top:50%; left:50%; transform: translate(-50%, -50%); border:5px solid black"">","","","","","","","",""
"","356.81500000006054","sequential-stimulus-presentation-old","121","573730","0.0-27.0-1.1","SS1619739703800","trial","","40","500","856.8150000000605","images/stimuli/spore_stims/complex_01_A_a.gif","images/stimuli/spore_stims/complex_03_A_b.gif","forced_long","","9","complex_dissimilar","images/stimuli/spore_stims/complex_01_A_a.gif","","","","",""
"","null","html-keyboard-response","122","574811","0.0-27.0-0.2","SS1619739703800","","","null","","","","","","<p><img src= images/blank.png width =""600"" height = ""600"" style=""position:fixed;top:50%; left:50%; transform: translate(-50%, -50%); border:5px solid black"">","","","","","","","",""
"","498.6350000000093","sequential-stimulus-presentation-old","123","575819","0.0-27.0-1.2","SS1619739703800","trial","","40","500","998.6350000000093","images/stimuli/spore_stims/complex_01_A_a.gif","images/stimuli/spore_stims/complex_03_A_b.gif","forced_long","","9","complex_dissimilar","images/stimuli/spore_stims/complex_03_A_b.gif","","","","",""
"","null","html-keyboard-response","124","576965","0.0-27.0-0.3","SS1619739703800","","","null","","","","","","<p><img src= images/blank.png width =""600"" height = ""600"" style=""position:fixed;top:50%; left:50%; transform: translate(-50%, -50%); border:5px solid black"">","","","","","","","",""
"","10673.439999999595","sequential-stimulus-presentation-old","125","588811","0.0-27.0-1.3","SS1619739703800","trial","","40","500","11173.439999999595","images/stimuli/spore_stims/complex_01_A_a.gif","images/stimuli/spore_stims/complex_03_A_b.gif","forced_long","","9","complex_dissimilar","images/stimuli/spore_stims/complex_03_A_b.gif","","","","",""
"","null","html-keyboard-response","126","589847","0.0-27.0-0.4","SS1619739703800","","","null","","","","","","<p><img src= images/blank.png width =""600"" height = ""600"" style=""position:fixed;top:50%; left:50%; transform: translate(-50%, -50%); border:5px solid black"">","","","","","","","",""
"","52.20499999995809","sequential-stimulus-presentation-old","127","590411","0.0-27.0-1.4","SS1619739703800","trial","","40","500","552.2049999999581","images/stimuli/spore_stims/complex_01_A_a.gif","images/stimuli/spore_stims/complex_03_A_b.gif","forced_long","","9","complex_dissimilar","images/stimuli/spore_stims/complex_01_A_a.gif","","","","",""
"","null","html-keyboard-response","128","591641","0.0-27.0-0.5","SS1619739703800","","","null","","","","","","<p><img src= images/blank.png width =""600"" height = ""600"" style=""position:fixed;top:50%; left:50%; transform: translate(-50%, -50%); border:5px solid black"">","","","","","","","",""
"","904.0949999998556","sequential-stimulus-presentation-old","129","593055","0.0-27.0-1.5","SS1619739703800","trial","","40","500","1404.0949999998556","images/stimuli/spore_stims/complex_01_A_a.gif","images/stimuli/spore_stims/complex_03_A_b.gif","forced_long","","9","complex_dissimilar","images/stimuli/spore_stims/complex_03_A_b.gif","","","","",""
"","2525.7849999997998","survey-multi-choice","130","595594","0.0-28.0","SS1619739703800","math_question","","","","","","","","","","","","{""Q0"":""14""}","[0]","14","",""
"","null","html-keyboard-response","131","596748","0.0-29.0-0.0","SS1619739703800","","","null","","","","","","<p><img src= images/blank.png width =""600"" height = ""600"" style=""position:fixed;top:50%; left:50%; transform: translate(-50%, -50%); border:5px solid black"">","","","","","","","",""
"","3784.7750000001397","sequential-stimulus-presentation-old","132","601045","0.0-29.0-1.0","SS1619739703800","trial","","40","500","4284.77500000014","images/stimuli/spore_stims/simple_09_A_a.gif","images/stimuli/spore_stims/simple_06_A_b.gif","forced_short","","10","simple_dissimilar","images/stimuli/spore_stims/simple_06_A_b.gif","","","","",""
"","null","html-keyboard-response","133","601992","0.0-29.0-0.1","SS1619739703800","","","null","","","","","","<p><img src= images/blank.png width =""600"" height = ""600"" style=""position:fixed;top:50%; left:50%; transform: translate(-50%, -50%); border:5px solid black"">","","","","","","","",""
"","429.33999999961816","sequential-stimulus-presentation-old","134","602935","0.0-29.0-1.1","SS1619739703800","trial","","40","500","929.3399999996182","images/stimuli/spore_stims/simple_09_A_a.gif","images/stimuli/spore_stims/simple_06_A_b.gif","forced_short","","10","simple_dissimilar","images/stimuli/spore_stims/simple_06_A_b.gif","","","","",""
"","null","html-keyboard-response","135","604028","0.0-29.0-0.2","SS1619739703800","","","null","","","","","","<p><img src= images/blank.png width =""600"" height = ""600"" style=""position:fixed;top:50%; left:50%; transform: translate(-50%, -50%); border:5px solid black"">","","","","","","","",""
"","471.28499999968335","sequential-stimulus-presentation-old","136","605010","0.0-29.0-1.2","SS1619739703800","trial","","40","500","971.2849999996834","images/stimuli/spore_stims/simple_09_A_a.gif","images/stimuli/spore_stims/simple_06_A_b.gif","forced_short","","10","simple_dissimilar","images/stimuli/spore_stims/simple_06_A_b.gif","","","","",""
"","null","html-keyboard-response","137","606041","0.0-29.0-0.3","SS1619739703800","","","null","","","","","","<p><img src= images/blank.png width =""600"" height = ""600"" style=""position:fixed;top:50%; left:50%; transform: translate(-50%, -50%); border:5px solid black"">","","","","","","","",""
"","307.67499999911524","sequential-stimulus-presentation-old","138","606854","0.0-29.0-1.3","SS1619739703800","trial","","40","500","807.6749999991152","images/stimuli/spore_stims/simple_09_A_a.gif","images/stimuli/spore_stims/simple_06_A_b.gif","forced_short","","10","simple_dissimilar","images/stimuli/spore_stims/simple_06_A_b.gif","","","","",""
"","null","html-keyboard-response","139","608068","0.0-29.0-0.4","SS1619739703800","","","null","","","","","","<p><img src= images/blank.png width =""600"" height = ""600"" style=""position:fixed;top:50%; left:50%; transform: translate(-50%, -50%); border:5px solid black"">","","","","","","","",""
"","5870.730000000563","sequential-stimulus-presentation-old","140","614458","0.0-29.0-1.4","SS1619739703800","trial","","40","500","6370.730000000563","images/stimuli/spore_stims/simple_09_A_a.gif","images/stimuli/spore_stims/simple_06_A_b.gif","forced_short","","10","simple_dissimilar","images/stimuli/spore_stims/simple_06_A_b.gif","","","","",""
"","null","html-keyboard-response","141","615765","0.0-29.0-0.5","SS1619739703800","","","null","","","","","","<p><img src= images/blank.png width =""600"" height = ""600"" style=""position:fixed;top:50%; left:50%; transform: translate(-50%, -50%); border:5px solid black"">","","","","","","","",""
"","3918.060000000056","sequential-stimulus-presentation-old","142","620195","0.0-29.0-1.5","SS1619739703800","trial","","40","500","4418.060000000056","images/stimuli/spore_stims/simple_09_A_a.gif","images/stimuli/spore_stims/simple_06_A_b.gif","forced_short","","10","simple_dissimilar","images/stimuli/spore_stims/simple_06_A_b.gif","","","","",""
"","2379.880000000354","survey-multi-choice","143","622578","0.0-30.0","SS1619739703800","math_question","","","","","","","","","","","","{""Q0"":""4""}","[0]","4","",""
"","null","html-keyboard-response","144","624147","0.0-31.0-0.0","SS1619739703800","","","null","","","","","","<p><img src= images/blank.png width =""600"" height = ""600"" style=""position:fixed;top:50%; left:50%; transform: translate(-50%, -50%); border:5px solid black"">","","","","","","","",""
"","11789.929999999935","sequential-stimulus-presentation-old","145","651939","0.0-31.0-1.0","SS1619739703800","trial","","40","500","12289.929999999935","images/stimuli/spore_stims/simple_12_A_b.gif","images/stimuli/spore_stims/simple_07_A_a.gif","forced_long","","11","simple_dissimilar","images/stimuli/spore_stims/simple_07_A_a.gif","","","","",""
"","null","html-keyboard-response","146","652929","0.0-31.0-0.1","SS1619739703800","","","null","","","","","","<p><img src= images/blank.png width =""600"" height = ""600"" style=""position:fixed;top:50%; left:50%; transform: translate(-50%, -50%); border:5px solid black"">","","","","","","","",""
"","489.92499999981374","sequential-stimulus-presentation-old","147","653926","0.0-31.0-1.1","SS1619739703800","trial","","40","500","989.9249999998137","images/stimuli/spore_stims/simple_12_A_b.gif","images/stimuli/spore_stims/simple_07_A_a.gif","forced_long","","11","simple_dissimilar","images/stimuli/spore_stims/simple_07_A_a.gif","","","","",""
"","null","html-keyboard-response","148","655118","0.0-31.0-0.2","SS1619739703800","","","null","","","","","","<p><img src= images/blank.png width =""600"" height = ""600"" style=""position:fixed;top:50%; left:50%; transform: translate(-50%, -50%); border:5px solid black"">","","","","","","","",""
"","951.960000000312","sequential-stimulus-presentation-old","149","656579","0.0-31.0-1.2","SS1619739703800","trial","","40","500","1451.960000000312","images/stimuli/spore_stims/simple_12_A_b.gif","images/stimuli/spore_stims/simple_07_A_a.gif","forced_long","","11","simple_dissimilar","images/stimuli/spore_stims/simple_07_A_a.gif","","","","",""
"","null","html-keyboard-response","150","657727","0.0-31.0-0.3","SS1619739703800","","","null","","","","","","<p><img src= images/blank.png width =""600"" height = ""600"" style=""position:fixed;top:50%; left:50%; transform: translate(-50%, -50%); border:5px solid black"">","","","","","","","",""
"","715.6550000000279","sequential-stimulus-presentation-old","151","658949","0.0-31.0-1.3","SS1619739703800","trial","","40","500","1215.655000000028","images/stimuli/spore_stims/simple_12_A_b.gif","images/stimuli/spore_stims/simple_07_A_a.gif","forced_long","","11","simple_dissimilar","images/stimuli/spore_stims/simple_12_A_b.gif","","","","",""
"[{""page_index"":0,""viewing_time"":4605.525000000023}]","4605.875000000233","instructions","152","663562","0.0-32.0","SS1619739703800","instructions","","","","","","","","","","","","","","","",""
"","8659.97000000067","survey-likert","153","672226","0.0-33.0","SS1619739703800","similarity_question","","","","","","","","","","","","{""Q0"":4}","[0]","","images/stimuli/spore_stims/simple_06_A_b.gif","images/stimuli/spore_stims/simple_09_A_a.gif"
"","4655.320000000764","survey-likert","154","676890","0.0-34.0","SS1619739703800","similarity_question","","","","","","","","","","","","{""Q0"":2}","[0]","","images/stimuli/spore_stims/simple_13_A_b.gif","images/stimuli/spore_stims/simple_04_A_a.gif"
"","8832.994999999646","survey-likert","155","685730","0.0-35.0","SS1619739703800","similarity_question","","","","","","","","","","","","{""Q0"":2}","[0]","","images/stimuli/spore_stims/complex_06_A_b.gif","images/stimuli/spore_stims/complex_12_A_a.gif"
"","4243.975000000326","survey-likert","156","689980","0.0-36.0","SS1619739703800","similarity_question","","","","","","","","","","","","{""Q0"":1}","[0]","","images/stimuli/spore_stims/complex_11_A_b.gif","images/stimuli/spore_stims/complex_17_A_a.gif"
"","3449.630000000121","survey-likert","157","693433","0.0-37.0","SS1619739703800","similarity_question","","","","","","","","","","","","{""Q0"":4}","[0]","","images/stimuli/spore_stims/simple_01_A_b.gif","images/stimuli/spore_stims/simple_03_A_a.gif"
"","8925.129999999655","survey-likert","158","702362","0.0-38.0","SS1619739703800","similarity_question","","","","","","","","","","","","{""Q0"":2}","[0]","","images/stimuli/spore_stims/complex_03_A_b.gif","images/stimuli/spore_stims/complex_01_A_a.gif"
"","4579.729999999516","survey-likert","159","706946","0.0-39.0","SS1619739703800","similarity_question","","","","","","","","","","","","{""Q0"":1}","[0]","","images/stimuli/spore_stims/complex_13_A_b.gif","images/stimuli/spore_stims/complex_14_A_a.gif"
"","5332.089999999967","survey-likert","160","712282","0.0-40.0","SS1619739703800","similarity_question","","","","","","","","","","","","{""Q0"":4}","[0]","","images/stimuli/spore_stims/simple_01_A_a.gif","images/stimuli/spore_stims/simple_10_A_b.gif"
"","7387.894999999902","survey-likert","161","719674","0.0-41.0","SS1619739703800","similarity_question","","","","","","","","","","","","{""Q0"":2}","[0]","","images/stimuli/spore_stims/complex_15_A_a.gif","images/stimuli/spore_stims/complex_09_A_b.gif"
"","10411.570000000182","survey-likert","162","730090","0.0-42.0","SS1619739703800","similarity_question","","","","","","","","","","","","{""Q0"":2}","[0]","","images/stimuli/spore_stims/complex_02_A_a.gif","images/stimuli/spore_stims/complex_19_A_b.gif"
"","3564.224999999162","survey-likert","163","733658","0.0-43.0","SS1619739703800","similarity_question","","","","","","","","","","","","{""Q0"":2}","[0]","","images/stimuli/spore_stims/simple_14_A_b.gif","images/stimuli/spore_stims/simple_20_A_a.gif"
"","2435.5700000006473","survey-likert","164","736098","0.0-44.0","SS1619739703800","similarity_question","","","","","","","","","","","","{""Q0"":1}","[0]","","images/stimuli/spore_stims/simple_07_A_a.gif","images/stimuli/spore_stims/simple_12_A_b.gif"
"[{""page_index"":0,""viewing_time"":2140.2550000002375}]","2140.525000000722","instructions","165","738242","0.0-45.0","SS1619739703800","instructions","","","","","","","","","","","","","","","",""
"","3014.9799999999814","survey-likert","166","741260","0.0-46.0","SS1619739703800","","","","","","","","","images/stimuli/spore_stims/simple_03_A_a.gif","","","","{""Q0"":2}","[0]","","",""
"","4770.76500000013","survey-likert","167","746035","0.0-47.0","SS1619739703800","","","","","","","","","images/stimuli/spore_stims/simple_04_A_a.gif","","","","{""Q0"":2}","[0]","","",""
"","1960.4200000002747","survey-likert","168","748002","0.0-48.0","SS1619739703800","","","","","","","","","images/stimuli/spore_stims/simple_14_A_b.gif","","","","{""Q0"":2}","[0]","","",""
"","2121.055000000517","survey-likert","169","750130","0.0-49.0","SS1619739703800","","","","","","","","","images/stimuli/spore_stims/complex_01_A_a.gif","","","","{""Q0"":4}","[0]","","",""
"","4557.824999999953","survey-likert","170","754692","0.0-50.0","SS1619739703800","","","","","","","","","images/stimuli/spore_stims/complex_12_A_a.gif","","","","{""Q0"":5}","[0]","","",""
"","1729.605000000447","survey-likert","171","756426","0.0-51.0","SS1619739703800","","","","","","","","","images/stimuli/spore_stims/complex_09_A_b.gif","","","","{""Q0"":4}","[0]","","",""
"","2315.5549999992363","survey-likert","172","758746","0.0-52.0","SS1619739703800","","","","","","","","","images/stimuli/spore_stims/simple_09_A_a.gif","","","","{""Q0"":1}","[0]","","",""
"","4524.29000000027","survey-likert","173","763274","0.0-53.0","SS1619739703800","","","","","","","","","images/stimuli/spore_stims/simple_10_A_b.gif","","","","{""Q0"":2}","[0]","","",""
"","4228.1399999993155","survey-likert","174","767506","0.0-54.0","SS1619739703800","","","","","","","","","images/stimuli/spore_stims/complex_17_A_a.gif","","","","{""Q0"":4}","[0]","","",""
"","2163.6400000007125","survey-likert","175","769674","0.0-55.0","SS1619739703800","","","","","","","","","images/stimuli/spore_stims/simple_12_A_b.gif","","","","{""Q0"":1}","[0]","","",""
"","2899.9700000003213","survey-likert","176","772578","0.0-56.0","SS1619739703800","","","","","","","","","images/stimuli/spore_stims/complex_14_A_a.gif","","","","{""Q0"":5}","[0]","","",""
"","1972.3599999997532","survey-likert","177","774554","0.0-57.0","SS1619739703800","","","","","","","","","images/stimuli/spore_stims/complex_19_A_b.gif","","","","{""Q0"":5}","[0]","","",""
"[{""page_index"":0,""viewing_time"":1003.8699999996461}]","1004.1449999999022","instructions","178","775561","0.0-58.0","SS1619739703800","instructions","","","","","","","","","","","","","","","",""
"","2383.570000000065","demog-age","179","777953","0.0-59.0","SS1619739703800","","","","","","","","","","","","","{""age"":""31""}","","","",""
"","1938.1899999998277","demog-ethnic-US","180","779898","0.0-60.0","SS1619739703800","","","","","","","","","","","","","{""ethnicity"":[""Asian""]}","[0]","","",""
"","4203.360000000452","demog-gender-and-education","181","784106","0.0-61.0","SS1619739703800","","","","","","","","","","","","","{""gender"":""Female"",""education"":""Master's Degree""}","[0,1]","","",""
"","4865.835000000545","survey-text","182","788977","0.0-62.0","SS1619739703800","feedback","","","","","","","","","","","","{""Q0"":""no""}","","","",""
"[{""page_index"":0,""viewing_time"":963.6799999998184}]","963.9400000005262","instructions","183","789945","0.0-63.0","SS1619739703800","instructions","","","","","","","","","","","","","","","",""
