"view_history","rt","trial_type","trial_index","time_elapsed","internal_node_id","subject","stimulus_type","trial_stimulus","key_press","minimum_viewing_duration","trial_looking_time","block_deviant","block_background","exposure_type","stimulus","block_number","block_type","stimulus_displayed","responses","question_order","math_correct_answer","stimulus_left","stimulus_right"
"[{""page_index"":0,""viewing_time"":2145.630000042729}]","2146.2349999928847","instructions","0","2148","0.0-0.0","SS1619740641851","","","","","","","","","","","","","","","","",""
"[{""page_index"":0,""viewing_time"":8710.010000038892},{""page_index"":1,""viewing_time"":4670.439999899827}]","13380.9299999848","instructions","1","17535","0.0-1.0","SS1619740641851","instructions","","","","","","","","","","","","","","","",""
"","7080.3999999770895","sequential-stimulus-presentation-old","2","25125","0.0-2.0","SS1619740641851","","","40","500","7580.3999999770895","null","null","self_paced","","","","","","","","",""
"","7033.120000036433","sequential-stimulus-presentation-old","3","32665","0.0-3.0","SS1619740641851","","","40","500","7533.120000036433","null","null","self_paced","","","","","","","","",""
"[{""page_index"":0,""viewing_time"":26813.67499998305}]","26814.22499998007","instructions","4","59482","0.0-4.0","SS1619740641851","instructions","","","","","","","","","","","","","","","",""
"","986.9000000180677","sequential-stimulus-presentation-old","5","75472","0.0-5.0","SS1619740641851","","","40","500","1486.9000000180677","null","null","forced_long","","","","","","","","",""
"","3228.624999988824","sequential-stimulus-presentation-old","6","79206","0.0-6.0","SS1619740641851","","","40","500","3728.624999988824","null","null","forced_long","","","","","","","","",""
"[{""page_index"":0,""viewing_time"":5090.834999922663}]","5091.234999941662","instructions","7","84299","0.0-7.0","SS1619740641851","instructions","","","","","","","","","","","","","","","",""
"[{""page_index"":0,""viewing_time"":8591.710000066087},{""page_index"":1,""viewing_time"":10435.384999960661},{""page_index"":2,""viewing_time"":7322.530000004917},{""page_index"":3,""viewing_time"":2308.2649999996647},{""page_index"":4,""viewing_time"":1497.6150000002235}]","30155.88000009302","instructions","8","114456","0.0-8.0","SS1619740641851","instructions","","","","","","","","","","","","","","","",""
"","null","html-keyboard-response","9","115496","0.0-9.0-0.0","SS1619740641851","","","null","","","","","","<p><img src= images/blank.png width =""600"" height = ""600"" style=""position:fixed;top:50%; left:50%; transform: translate(-50%, -50%); border:5px solid black"">","","","","","","","",""
"","988.454999984242","sequential-stimulus-presentation-old","10","131488","0.0-9.0-1.0","SS1619740641851","trial","","40","500","1488.454999984242","images/stimuli/spore_stims/simple_19_A_a.gif","images/stimuli/spore_stims/simple_04_A_b.gif","forced_long","","0","simple_dissimilar","images/stimuli/spore_stims/simple_04_A_b.gif","","","","",""
"","null","html-keyboard-response","11","132654","0.0-9.0-0.1","SS1619740641851","","","null","","","","","","<p><img src= images/blank.png width =""600"" height = ""600"" style=""position:fixed;top:50%; left:50%; transform: translate(-50%, -50%); border:5px solid black"">","","","","","","","",""
"","926.1350000742823","sequential-stimulus-presentation-old","12","134089","0.0-9.0-1.1","SS1619740641851","trial","","40","500","1426.1350000742823","images/stimuli/spore_stims/simple_19_A_a.gif","images/stimuli/spore_stims/simple_04_A_b.gif","forced_long","","0","simple_dissimilar","images/stimuli/spore_stims/simple_04_A_b.gif","","","","",""
"","null","html-keyboard-response","13","134917","0.0-9.0-0.2","SS1619740641851","","","null","","","","","","<p><img src= images/blank.png width =""600"" height = ""600"" style=""position:fixed;top:50%; left:50%; transform: translate(-50%, -50%); border:5px solid black"">","","","","","","","",""
"","546.0400000447407","sequential-stimulus-presentation-old","14","135969","0.0-9.0-1.2","SS1619740641851","trial","","40","500","1046.0400000447407","images/stimuli/spore_stims/simple_19_A_a.gif","images/stimuli/spore_stims/simple_04_A_b.gif","forced_long","","0","simple_dissimilar","images/stimuli/spore_stims/simple_04_A_b.gif","","","","",""
"","null","html-keyboard-response","15","136890","0.0-9.0-0.3","SS1619740641851","","","null","","","","","","<p><img src= images/blank.png width =""600"" height = ""600"" style=""position:fixed;top:50%; left:50%; transform: translate(-50%, -50%); border:5px solid black"">","","","","","","","",""
"","35704.1550000431","sequential-stimulus-presentation-old","16","173098","0.0-9.0-1.3","SS1619740641851","trial","","40","500","36204.1550000431","images/stimuli/spore_stims/simple_19_A_a.gif","images/stimuli/spore_stims/simple_04_A_b.gif","forced_long","","0","simple_dissimilar","images/stimuli/spore_stims/simple_04_A_b.gif","","","","",""
"","5973.579999990761","survey-multi-choice","17","179069","0.0-10.0","SS1619740641851","math_question","","","","","","","","","","","","{""Q0"":""8""}","[0]","8","",""
"","null","html-keyboard-response","18","180340","0.0-11.0-0.0","SS1619740641851","","","null","","","","","","<p><img src= images/blank.png width =""600"" height = ""600"" style=""position:fixed;top:50%; left:50%; transform: translate(-50%, -50%); border:5px solid black"">","","","","","","","",""
"","1495.7599999615923","sequential-stimulus-presentation-old","19","182343","0.0-11.0-1.0","SS1619740641851","trial","","40","500","1995.7599999615923","images/stimuli/spore_stims/complex_02_A_b.gif","images/stimuli/spore_stims/complex_11_A_a.gif","forced_short","","1","complex_dissimilar","images/stimuli/spore_stims/complex_11_A_a.gif","","","","",""
"","null","html-keyboard-response","20","183499","0.0-11.0-0.1","SS1619740641851","","","null","","","","","","<p><img src= images/blank.png width =""600"" height = ""600"" style=""position:fixed;top:50%; left:50%; transform: translate(-50%, -50%); border:5px solid black"">","","","","","","","",""
"","35164.17999996338","sequential-stimulus-presentation-old","21","219174","0.0-11.0-1.1","SS1619740641851","trial","","40","500","35664.17999996338","images/stimuli/spore_stims/complex_02_A_b.gif","images/stimuli/spore_stims/complex_11_A_a.gif","forced_short","","1","complex_dissimilar","images/stimuli/spore_stims/complex_11_A_a.gif","","","","",""
"","null","html-keyboard-response","22","220266","0.0-11.0-0.2","SS1619740641851","","","null","","","","","","<p><img src= images/blank.png width =""600"" height = ""600"" style=""position:fixed;top:50%; left:50%; transform: translate(-50%, -50%); border:5px solid black"">","","","","","","","",""
"","29320.529999909922","sequential-stimulus-presentation-old","23","250100","0.0-11.0-1.2","SS1619740641851","trial","","40","500","29820.529999909922","images/stimuli/spore_stims/complex_02_A_b.gif","images/stimuli/spore_stims/complex_11_A_a.gif","forced_short","","1","complex_dissimilar","images/stimuli/spore_stims/complex_11_A_a.gif","","","","",""
"","null","html-keyboard-response","24","250944","0.0-11.0-0.3","SS1619740641851","","","null","","","","","","<p><img src= images/blank.png width =""600"" height = ""600"" style=""position:fixed;top:50%; left:50%; transform: translate(-50%, -50%); border:5px solid black"">","","","","","","","",""
"","9120.845000026748","sequential-stimulus-presentation-old","25","260570","0.0-11.0-1.3","SS1619740641851","trial","","40","500","9620.845000026748","images/stimuli/spore_stims/complex_02_A_b.gif","images/stimuli/spore_stims/complex_11_A_a.gif","forced_short","","1","complex_dissimilar","images/stimuli/spore_stims/complex_11_A_a.gif","","","","",""
"","null","html-keyboard-response","26","261791","0.0-11.0-0.4","SS1619740641851","","","null","","","","","","<p><img src= images/blank.png width =""600"" height = ""600"" style=""position:fixed;top:50%; left:50%; transform: translate(-50%, -50%); border:5px solid black"">","","","","","","","",""
"","20371.879999991506","sequential-stimulus-presentation-old","27","282667","0.0-11.0-1.4","SS1619740641851","trial","","40","500","20871.879999991506","images/stimuli/spore_stims/complex_02_A_b.gif","images/stimuli/spore_stims/complex_11_A_a.gif","forced_short","","1","complex_dissimilar","images/stimuli/spore_stims/complex_11_A_a.gif","","","","",""
"","4362.650000024587","survey-multi-choice","28","287032","0.0-12.0","SS1619740641851","math_question","","","","","","","","","","","","{""Q0"":""12""}","[0]","12","",""
"","null","html-keyboard-response","29","288195","0.0-13.0-0.0","SS1619740641851","","","null","","","","","","<p><img src= images/blank.png width =""600"" height = ""600"" style=""position:fixed;top:50%; left:50%; transform: translate(-50%, -50%); border:5px solid black"">","","","","","","","",""
"","2088.7600000714883","sequential-stimulus-presentation-old","30","290790","0.0-13.0-1.0","SS1619740641851","trial","","40","500","2588.7600000714883","images/stimuli/spore_stims/simple_08_A_a.gif","images/stimuli/spore_stims/simple_09_A_b.gif","forced_short","","2","simple_dissimilar","images/stimuli/spore_stims/simple_09_A_b.gif","","","","",""
"","null","html-keyboard-response","31","291993","0.0-13.0-0.1","SS1619740641851","","","null","","","","","","<p><img src= images/blank.png width =""600"" height = ""600"" style=""position:fixed;top:50%; left:50%; transform: translate(-50%, -50%); border:5px solid black"">","","","","","","","",""
"","35559.589999960735","sequential-stimulus-presentation-old","32","328052","0.0-13.0-1.1","SS1619740641851","trial","","40","500","36059.589999960735","images/stimuli/spore_stims/simple_08_A_a.gif","images/stimuli/spore_stims/simple_09_A_b.gif","forced_short","","2","simple_dissimilar","images/stimuli/spore_stims/simple_09_A_b.gif","","","","",""
"","null","html-keyboard-response","33","329213","0.0-13.0-0.2","SS1619740641851","","","null","","","","","","<p><img src= images/blank.png width =""600"" height = ""600"" style=""position:fixed;top:50%; left:50%; transform: translate(-50%, -50%); border:5px solid black"">","","","","","","","",""
"","4372.45999998413","sequential-stimulus-presentation-old","34","334096","0.0-13.0-1.2","SS1619740641851","trial","","40","500","4872.45999998413","images/stimuli/spore_stims/simple_08_A_a.gif","images/stimuli/spore_stims/simple_09_A_b.gif","forced_short","","2","simple_dissimilar","images/stimuli/spore_stims/simple_09_A_b.gif","","","","",""
"","null","html-keyboard-response","35","335340","0.0-13.0-0.3","SS1619740641851","","","null","","","","","","<p><img src= images/blank.png width =""600"" height = ""600"" style=""position:fixed;top:50%; left:50%; transform: translate(-50%, -50%); border:5px solid black"">","","","","","","","",""
"","27847.94000000693","sequential-stimulus-presentation-old","36","363692","0.0-13.0-1.3","SS1619740641851","trial","","40","500","28347.94000000693","images/stimuli/spore_stims/simple_08_A_a.gif","images/stimuli/spore_stims/simple_09_A_b.gif","forced_short","","2","simple_dissimilar","images/stimuli/spore_stims/simple_08_A_a.gif","","","","",""
"","null","html-keyboard-response","37","364727","0.0-13.0-0.4","SS1619740641851","","","null","","","","","","<p><img src= images/blank.png width =""600"" height = ""600"" style=""position:fixed;top:50%; left:50%; transform: translate(-50%, -50%); border:5px solid black"">","","","","","","","",""
"","3786.439999938011","sequential-stimulus-presentation-old","38","369023","0.0-13.0-1.4","SS1619740641851","trial","","40","500","4286.439999938011","images/stimuli/spore_stims/simple_08_A_a.gif","images/stimuli/spore_stims/simple_09_A_b.gif","forced_short","","2","simple_dissimilar","images/stimuli/spore_stims/simple_08_A_a.gif","","","","",""
"","4412.724999943748","survey-multi-choice","39","373437","0.0-14.0","SS1619740641851","math_question","","","","","","","","","","","","{""Q0"":""12""}","[0]","12","",""
"","null","html-keyboard-response","40","374486","0.0-15.0-0.0","SS1619740641851","","","null","","","","","","<p><img src= images/blank.png width =""600"" height = ""600"" style=""position:fixed;top:50%; left:50%; transform: translate(-50%, -50%); border:5px solid black"">","","","","","","","",""
"","16143.629999947734","sequential-stimulus-presentation-old","41","391145","0.0-15.0-1.0","SS1619740641851","trial","","40","500","16643.629999947734","images/stimuli/spore_stims/complex_16_A_b.gif","images/stimuli/spore_stims/complex_01_A_a.gif","self_paced","","3","complex_dissimilar","images/stimuli/spore_stims/complex_01_A_a.gif","","","","",""
"","null","html-keyboard-response","42","392289","0.0-15.0-0.1","SS1619740641851","","","null","","","","","","<p><img src= images/blank.png width =""600"" height = ""600"" style=""position:fixed;top:50%; left:50%; transform: translate(-50%, -50%); border:5px solid black"">","","","","","","","",""
"","4106.254999991506","sequential-stimulus-presentation-old","43","396902","0.0-15.0-1.1","SS1619740641851","trial","","40","500","4606.254999991506","images/stimuli/spore_stims/complex_16_A_b.gif","images/stimuli/spore_stims/complex_01_A_a.gif","self_paced","","3","complex_dissimilar","images/stimuli/spore_stims/complex_16_A_b.gif","","","","",""
"","null","html-keyboard-response","44","397926","0.0-15.0-0.2","SS1619740641851","","","null","","","","","","<p><img src= images/blank.png width =""600"" height = ""600"" style=""position:fixed;top:50%; left:50%; transform: translate(-50%, -50%); border:5px solid black"">","","","","","","","",""
"","12248.89000004623","sequential-stimulus-presentation-old","45","410683","0.0-15.0-1.2","SS1619740641851","trial","","40","500","12748.89000004623","images/stimuli/spore_stims/complex_16_A_b.gif","images/stimuli/spore_stims/complex_01_A_a.gif","self_paced","","3","complex_dissimilar","images/stimuli/spore_stims/complex_01_A_a.gif","","","","",""
"","null","html-keyboard-response","46","411649","0.0-15.0-0.3","SS1619740641851","","","null","","","","","","<p><img src= images/blank.png width =""600"" height = ""600"" style=""position:fixed;top:50%; left:50%; transform: translate(-50%, -50%); border:5px solid black"">","","","","","","","",""
"","8480.095000006258","sequential-stimulus-presentation-old","47","420650","0.0-15.0-1.3","SS1619740641851","trial","","40","500","8980.095000006258","images/stimuli/spore_stims/complex_16_A_b.gif","images/stimuli/spore_stims/complex_01_A_a.gif","self_paced","","3","complex_dissimilar","images/stimuli/spore_stims/complex_16_A_b.gif","","","","",""
"","null","html-keyboard-response","48","421532","0.0-15.0-0.4","SS1619740641851","","","null","","","","","","<p><img src= images/blank.png width =""600"" height = ""600"" style=""position:fixed;top:50%; left:50%; transform: translate(-50%, -50%); border:5px solid black"">","","","","","","","",""
"","4659.88000005018","sequential-stimulus-presentation-old","49","426697","0.0-15.0-1.4","SS1619740641851","trial","","40","500","5159.88000005018","images/stimuli/spore_stims/complex_16_A_b.gif","images/stimuli/spore_stims/complex_01_A_a.gif","self_paced","","3","complex_dissimilar","images/stimuli/spore_stims/complex_01_A_a.gif","","","","",""
"","null","html-keyboard-response","50","427561","0.0-15.0-0.5","SS1619740641851","","","null","","","","","","<p><img src= images/blank.png width =""600"" height = ""600"" style=""position:fixed;top:50%; left:50%; transform: translate(-50%, -50%); border:5px solid black"">","","","","","","","",""
"","2695.7499999552965","sequential-stimulus-presentation-old","51","430774","0.0-15.0-1.5","SS1619740641851","trial","","40","500","3195.7499999552965","images/stimuli/spore_stims/complex_16_A_b.gif","images/stimuli/spore_stims/complex_01_A_a.gif","self_paced","","3","complex_dissimilar","images/stimuli/spore_stims/complex_01_A_a.gif","","","","",""
"","10028.374999994412","survey-multi-choice","52","440805","0.0-16.0","SS1619740641851","math_question","","","","","","","","","","","","{""Q0"":""16""}","[0]","16","",""
"","null","html-keyboard-response","53","442049","0.0-17.0-0.0","SS1619740641851","","","null","","","","","","<p><img src= images/blank.png width =""600"" height = ""600"" style=""position:fixed;top:50%; left:50%; transform: translate(-50%, -50%); border:5px solid black"">","","","","","","","",""
"","5543.934999965131","sequential-stimulus-presentation-old","54","462597","0.0-17.0-1.0","SS1619740641851","trial","","40","500","6043.934999965131","images/stimuli/spore_stims/complex_18_A_b.gif","images/stimuli/spore_stims/complex_05_A_a.gif","forced_long","","4","complex_dissimilar","images/stimuli/spore_stims/complex_05_A_a.gif","","","","",""
"","null","html-keyboard-response","55","463821","0.0-17.0-0.1","SS1619740641851","","","null","","","","","","<p><img src= images/blank.png width =""600"" height = ""600"" style=""position:fixed;top:50%; left:50%; transform: translate(-50%, -50%); border:5px solid black"">","","","","","","","",""
"","36762.299999943934","sequential-stimulus-presentation-old","56","501086","0.0-17.0-1.1","SS1619740641851","trial","","40","500","37262.299999943934","images/stimuli/spore_stims/complex_18_A_b.gif","images/stimuli/spore_stims/complex_05_A_a.gif","forced_long","","4","complex_dissimilar","images/stimuli/spore_stims/complex_05_A_a.gif","","","","",""
"","null","html-keyboard-response","57","502332","0.0-17.0-0.2","SS1619740641851","","","null","","","","","","<p><img src= images/blank.png width =""600"" height = ""600"" style=""position:fixed;top:50%; left:50%; transform: translate(-50%, -50%); border:5px solid black"">","","","","","","","",""
"","36442.99500004854","sequential-stimulus-presentation-old","58","539281","0.0-17.0-1.2","SS1619740641851","trial","","40","500","36942.99500004854","images/stimuli/spore_stims/complex_18_A_b.gif","images/stimuli/spore_stims/complex_05_A_a.gif","forced_long","","4","complex_dissimilar","images/stimuli/spore_stims/complex_18_A_b.gif","","","","",""
"","null","html-keyboard-response","59","540107","0.0-17.0-0.3","SS1619740641851","","","null","","","","","","<p><img src= images/blank.png width =""600"" height = ""600"" style=""position:fixed;top:50%; left:50%; transform: translate(-50%, -50%); border:5px solid black"">","","","","","","","",""
"","17679.385000024922","sequential-stimulus-presentation-old","60","558299","0.0-17.0-1.3","SS1619740641851","trial","","40","500","18179.385000024922","images/stimuli/spore_stims/complex_18_A_b.gif","images/stimuli/spore_stims/complex_05_A_a.gif","forced_long","","4","complex_dissimilar","images/stimuli/spore_stims/complex_05_A_a.gif","","","","",""
"","null","html-keyboard-response","61","559504","0.0-17.0-0.4","SS1619740641851","","","null","","","","","","<p><img src= images/blank.png width =""600"" height = ""600"" style=""position:fixed;top:50%; left:50%; transform: translate(-50%, -50%); border:5px solid black"">","","","","","","","",""
"","29278.705000062473","sequential-stimulus-presentation-old","62","589292","0.0-17.0-1.4","SS1619740641851","trial","","40","500","29778.705000062473","images/stimuli/spore_stims/complex_18_A_b.gif","images/stimuli/spore_stims/complex_05_A_a.gif","forced_long","","4","complex_dissimilar","images/stimuli/spore_stims/complex_18_A_b.gif","","","","",""
"","3427.709999959916","survey-multi-choice","63","592723","0.0-18.0","SS1619740641851","math_question","","","","","","","","","","","","{""Q0"":""8""}","[0]","8","",""
"","null","html-keyboard-response","64","593734","0.0-19.0-0.0","SS1619740641851","","","null","","","","","","<p><img src= images/blank.png width =""600"" height = ""600"" style=""position:fixed;top:50%; left:50%; transform: translate(-50%, -50%); border:5px solid black"">","","","","","","","",""
"","1527.5350000010803","sequential-stimulus-presentation-old","65","595770","0.0-19.0-1.0","SS1619740641851","trial","","40","500","2027.5350000010803","images/stimuli/spore_stims/complex_07_A_b.gif","images/stimuli/spore_stims/complex_12_A_a.gif","forced_short","","5","complex_dissimilar","images/stimuli/spore_stims/complex_12_A_a.gif","","","","",""
"","null","html-keyboard-response","66","596734","0.0-19.0-0.1","SS1619740641851","","","null","","","","","","<p><img src= images/blank.png width =""600"" height = ""600"" style=""position:fixed;top:50%; left:50%; transform: translate(-50%, -50%); border:5px solid black"">","","","","","","","",""
"","26309.7500000149","sequential-stimulus-presentation-old","67","623545","0.0-19.0-1.1","SS1619740641851","trial","","40","500","26809.7500000149","images/stimuli/spore_stims/complex_07_A_b.gif","images/stimuli/spore_stims/complex_12_A_a.gif","forced_short","","5","complex_dissimilar","images/stimuli/spore_stims/complex_07_A_b.gif","","","","",""
"","null","html-keyboard-response","68","624845","0.0-19.0-0.2","SS1619740641851","","","null","","","","","","<p><img src= images/blank.png width =""600"" height = ""600"" style=""position:fixed;top:50%; left:50%; transform: translate(-50%, -50%); border:5px solid black"">","","","","","","","",""
"","18973.020000034012","sequential-stimulus-presentation-old","69","644323","0.0-19.0-1.2","SS1619740641851","trial","","40","500","19473.020000034012","images/stimuli/spore_stims/complex_07_A_b.gif","images/stimuli/spore_stims/complex_12_A_a.gif","forced_short","","5","complex_dissimilar","images/stimuli/spore_stims/complex_12_A_a.gif","","","","",""
"","null","html-keyboard-response","70","645170","0.0-19.0-0.3","SS1619740641851","","","null","","","","","","<p><img src= images/blank.png width =""600"" height = ""600"" style=""position:fixed;top:50%; left:50%; transform: translate(-50%, -50%); border:5px solid black"">","","","","","","","",""
"","23456.304999999702","sequential-stimulus-presentation-old","71","669140","0.0-19.0-1.3","SS1619740641851","trial","","40","500","23956.304999999702","images/stimuli/spore_stims/complex_07_A_b.gif","images/stimuli/spore_stims/complex_12_A_a.gif","forced_short","","5","complex_dissimilar","images/stimuli/spore_stims/complex_07_A_b.gif","","","","",""
"","null","html-keyboard-response","72","670308","0.0-19.0-0.4","SS1619740641851","","","null","","","","","","<p><img src= images/blank.png width =""600"" height = ""600"" style=""position:fixed;top:50%; left:50%; transform: translate(-50%, -50%); border:5px solid black"">","","","","","","","",""
"","22240.170000004582","sequential-stimulus-presentation-old","73","693057","0.0-19.0-1.4","SS1619740641851","trial","","40","500","22740.170000004582","images/stimuli/spore_stims/complex_07_A_b.gif","images/stimuli/spore_stims/complex_12_A_a.gif","forced_short","","5","complex_dissimilar","images/stimuli/spore_stims/complex_12_A_a.gif","","","","",""
"","5877.499999944121","survey-multi-choice","74","698938","0.0-20.0","SS1619740641851","math_question","","","","","","","","","","","","{""Q0"":""12""}","[0]","12","",""
"","null","html-keyboard-response","75","699782","0.0-21.0-0.0","SS1619740641851","","","null","","","","","","<p><img src= images/blank.png width =""600"" height = ""600"" style=""position:fixed;top:50%; left:50%; transform: translate(-50%, -50%); border:5px solid black"">","","","","","","","",""
"","1668.2349999900907","sequential-stimulus-presentation-old","76","701956","0.0-21.0-1.0","SS1619740641851","trial","","40","500","2168.2349999900907","images/stimuli/spore_stims/simple_05_A_a.gif","images/stimuli/spore_stims/simple_20_A_b.gif","forced_short","","6","simple_dissimilar","images/stimuli/spore_stims/simple_20_A_b.gif","","","","",""
"","null","html-keyboard-response","77","702973","0.0-21.0-0.1","SS1619740641851","","","null","","","","","","<p><img src= images/blank.png width =""600"" height = ""600"" style=""position:fixed;top:50%; left:50%; transform: translate(-50%, -50%); border:5px solid black"">","","","","","","","",""
"","87886.85000000987","sequential-stimulus-presentation-old","78","791365","0.0-21.0-1.1","SS1619740641851","trial","","40","500","88386.85000000987","images/stimuli/spore_stims/simple_05_A_a.gif","images/stimuli/spore_stims/simple_20_A_b.gif","forced_short","","6","simple_dissimilar","images/stimuli/spore_stims/simple_20_A_b.gif","","","","",""
"","null","html-keyboard-response","79","792383","0.0-21.0-0.2","SS1619740641851","","","null","","","","","","<p><img src= images/blank.png width =""600"" height = ""600"" style=""position:fixed;top:50%; left:50%; transform: translate(-50%, -50%); border:5px solid black"">","","","","","","","",""
"","28962.14499999769","sequential-stimulus-presentation-old","80","821854","0.0-21.0-1.2","SS1619740641851","trial","","40","500","29462.14499999769","images/stimuli/spore_stims/simple_05_A_a.gif","images/stimuli/spore_stims/simple_20_A_b.gif","forced_short","","6","simple_dissimilar","images/stimuli/spore_stims/simple_05_A_a.gif","","","","",""
"","null","html-keyboard-response","81","822970","0.0-21.0-0.3","SS1619740641851","","","null","","","","","","<p><img src= images/blank.png width =""600"" height = ""600"" style=""position:fixed;top:50%; left:50%; transform: translate(-50%, -50%); border:5px solid black"">","","","","","","","",""
"","3482.9550000140443","sequential-stimulus-presentation-old","82","826973","0.0-21.0-1.3","SS1619740641851","trial","","40","500","3982.9550000140443","images/stimuli/spore_stims/simple_05_A_a.gif","images/stimuli/spore_stims/simple_20_A_b.gif","forced_short","","6","simple_dissimilar","images/stimuli/spore_stims/simple_20_A_b.gif","","","","",""
"","null","html-keyboard-response","83","828136","0.0-21.0-0.4","SS1619740641851","","","null","","","","","","<p><img src= images/blank.png width =""600"" height = ""600"" style=""position:fixed;top:50%; left:50%; transform: translate(-50%, -50%); border:5px solid black"">","","","","","","","",""
"","3552.879999973811","sequential-stimulus-presentation-old","84","832196","0.0-21.0-1.4","SS1619740641851","trial","","40","500","4052.879999973811","images/stimuli/spore_stims/simple_05_A_a.gif","images/stimuli/spore_stims/simple_20_A_b.gif","forced_short","","6","simple_dissimilar","images/stimuli/spore_stims/simple_20_A_b.gif","","","","",""
"","null","html-keyboard-response","85","833033","0.0-21.0-0.5","SS1619740641851","","","null","","","","","","<p><img src= images/blank.png width =""600"" height = ""600"" style=""position:fixed;top:50%; left:50%; transform: translate(-50%, -50%); border:5px solid black"">","","","","","","","",""
"","14654.839999973774","sequential-stimulus-presentation-old","86","848202","0.0-21.0-1.5","SS1619740641851","trial","","40","500","15154.839999973774","images/stimuli/spore_stims/simple_05_A_a.gif","images/stimuli/spore_stims/simple_20_A_b.gif","forced_short","","6","simple_dissimilar","images/stimuli/spore_stims/simple_20_A_b.gif","","","","",""
"","6184.049999923445","survey-multi-choice","87","854396","0.0-22.0","SS1619740641851","math_question","","","","","","","","","","","","{""Q0"":""9""}","[0]","9","",""
"","null","html-keyboard-response","88","855307","0.0-23.0-0.0","SS1619740641851","","","null","","","","","","<p><img src= images/blank.png width =""600"" height = ""600"" style=""position:fixed;top:50%; left:50%; transform: translate(-50%, -50%); border:5px solid black"">","","","","","","","",""
"","8730.81999993883","sequential-stimulus-presentation-old","89","864548","0.0-23.0-1.0","SS1619740641851","trial","","40","500","9230.81999993883","images/stimuli/spore_stims/simple_18_A_b.gif","images/stimuli/spore_stims/simple_17_A_a.gif","self_paced","","7","simple_dissimilar","images/stimuli/spore_stims/simple_17_A_a.gif","","","","",""
"","null","html-keyboard-response","90","865730","0.0-23.0-0.1","SS1619740641851","","","null","","","","","","<p><img src= images/blank.png width =""600"" height = ""600"" style=""position:fixed;top:50%; left:50%; transform: translate(-50%, -50%); border:5px solid black"">","","","","","","","",""
"","13879.685000050813","sequential-stimulus-presentation-old","91","880116","0.0-23.0-1.1","SS1619740641851","trial","","40","500","14379.685000050813","images/stimuli/spore_stims/simple_18_A_b.gif","images/stimuli/spore_stims/simple_17_A_a.gif","self_paced","","7","simple_dissimilar","images/stimuli/spore_stims/simple_18_A_b.gif","","","","",""
"","null","html-keyboard-response","92","881193","0.0-23.0-0.2","SS1619740641851","","","null","","","","","","<p><img src= images/blank.png width =""600"" height = ""600"" style=""position:fixed;top:50%; left:50%; transform: translate(-50%, -50%); border:5px solid black"">","","","","","","","",""
"","14647.169999894686","sequential-stimulus-presentation-old","93","896347","0.0-23.0-1.2","SS1619740641851","trial","","40","500","15147.169999894686","images/stimuli/spore_stims/simple_18_A_b.gif","images/stimuli/spore_stims/simple_17_A_a.gif","self_paced","","7","simple_dissimilar","images/stimuli/spore_stims/simple_17_A_a.gif","","","","",""
"","null","html-keyboard-response","94","897625","0.0-23.0-0.3","SS1619740641851","","","null","","","","","","<p><img src= images/blank.png width =""600"" height = ""600"" style=""position:fixed;top:50%; left:50%; transform: translate(-50%, -50%); border:5px solid black"">","","","","","","","",""
"","3211.9149999925867","sequential-stimulus-presentation-old","95","901354","0.0-23.0-1.3","SS1619740641851","trial","","40","500","3711.9149999925867","images/stimuli/spore_stims/simple_18_A_b.gif","images/stimuli/spore_stims/simple_17_A_a.gif","self_paced","","7","simple_dissimilar","images/stimuli/spore_stims/simple_17_A_a.gif","","","","",""
"","null","html-keyboard-response","96","902656","0.0-23.0-0.4","SS1619740641851","","","null","","","","","","<p><img src= images/blank.png width =""600"" height = ""600"" style=""position:fixed;top:50%; left:50%; transform: translate(-50%, -50%); border:5px solid black"">","","","","","","","",""
"","3146.500000031665","sequential-stimulus-presentation-old","97","906308","0.0-23.0-1.4","SS1619740641851","trial","","40","500","3646.500000031665","images/stimuli/spore_stims/simple_18_A_b.gif","images/stimuli/spore_stims/simple_17_A_a.gif","self_paced","","7","simple_dissimilar","images/stimuli/spore_stims/simple_17_A_a.gif","","","","",""
"","3702.03499996569","survey-multi-choice","98","910013","0.0-24.0","SS1619740641851","math_question","","","","","","","","","","","","{""Q0"":""7""}","[0]","7","",""
"","null","html-keyboard-response","99","911066","0.0-25.0-0.0","SS1619740641851","","","null","","","","","","<p><img src= images/blank.png width =""600"" height = ""600"" style=""position:fixed;top:50%; left:50%; transform: translate(-50%, -50%); border:5px solid black"">","","","","","","","",""
"","2020.6449999241158","sequential-stimulus-presentation-old","100","928093","0.0-25.0-1.0","SS1619740641851","trial","","40","500","2520.644999924116","images/stimuli/spore_stims/complex_19_A_a.gif","images/stimuli/spore_stims/complex_01_A_b.gif","forced_long","","8","complex_dissimilar","images/stimuli/spore_stims/complex_01_A_b.gif","","","","",""
"","null","html-keyboard-response","101","929371","0.0-25.0-0.1","SS1619740641851","","","null","","","","","","<p><img src= images/blank.png width =""600"" height = ""600"" style=""position:fixed;top:50%; left:50%; transform: translate(-50%, -50%); border:5px solid black"">","","","","","","","",""
"","4592.609999934211","sequential-stimulus-presentation-old","102","934470","0.0-25.0-1.1","SS1619740641851","trial","","40","500","5092.609999934211","images/stimuli/spore_stims/complex_19_A_a.gif","images/stimuli/spore_stims/complex_01_A_b.gif","forced_long","","8","complex_dissimilar","images/stimuli/spore_stims/complex_01_A_b.gif","","","","",""
"","null","html-keyboard-response","103","935502","0.0-25.0-0.2","SS1619740641851","","","null","","","","","","<p><img src= images/blank.png width =""600"" height = ""600"" style=""position:fixed;top:50%; left:50%; transform: translate(-50%, -50%); border:5px solid black"">","","","","","","","",""
"","534.2800000216812","sequential-stimulus-presentation-old","104","936542","0.0-25.0-1.2","SS1619740641851","trial","","40","500","1034.2800000216812","images/stimuli/spore_stims/complex_19_A_a.gif","images/stimuli/spore_stims/complex_01_A_b.gif","forced_long","","8","complex_dissimilar","images/stimuli/spore_stims/complex_01_A_b.gif","","","","",""
"","null","html-keyboard-response","105","937834","0.0-25.0-0.3","SS1619740641851","","","null","","","","","","<p><img src= images/blank.png width =""600"" height = ""600"" style=""position:fixed;top:50%; left:50%; transform: translate(-50%, -50%); border:5px solid black"">","","","","","","","",""
"","56.90999992657453","sequential-stimulus-presentation-old","106","938408","0.0-25.0-1.3","SS1619740641851","trial","","40","500","556.9099999265745","images/stimuli/spore_stims/complex_19_A_a.gif","images/stimuli/spore_stims/complex_01_A_b.gif","forced_long","","8","complex_dissimilar","images/stimuli/spore_stims/complex_01_A_b.gif","","","","",""
"","null","html-keyboard-response","107","939532","0.0-25.0-0.4","SS1619740641851","","","null","","","","","","<p><img src= images/blank.png width =""600"" height = ""600"" style=""position:fixed;top:50%; left:50%; transform: translate(-50%, -50%); border:5px solid black"">","","","","","","","",""
"","8213.330000056885","sequential-stimulus-presentation-old","108","948257","0.0-25.0-1.4","SS1619740641851","trial","","40","500","8713.330000056885","images/stimuli/spore_stims/complex_19_A_a.gif","images/stimuli/spore_stims/complex_01_A_b.gif","forced_long","","8","complex_dissimilar","images/stimuli/spore_stims/complex_01_A_b.gif","","","","",""
"","null","html-keyboard-response","109","949237","0.0-25.0-0.5","SS1619740641851","","","null","","","","","","<p><img src= images/blank.png width =""600"" height = ""600"" style=""position:fixed;top:50%; left:50%; transform: translate(-50%, -50%); border:5px solid black"">","","","","","","","",""
"","2806.4099999610335","sequential-stimulus-presentation-old","110","952549","0.0-25.0-1.5","SS1619740641851","trial","","40","500","3306.4099999610335","images/stimuli/spore_stims/complex_19_A_a.gif","images/stimuli/spore_stims/complex_01_A_b.gif","forced_long","","8","complex_dissimilar","images/stimuli/spore_stims/complex_19_A_a.gif","","","","",""
"","4922.365000005811","survey-multi-choice","111","957475","0.0-26.0","SS1619740641851","math_question","","","","","","","","","","","","{""Q0"":""17""}","[0]","17","",""
"","null","html-keyboard-response","112","958311","0.0-27.0-0.0","SS1619740641851","","","null","","","","","","<p><img src= images/blank.png width =""600"" height = ""600"" style=""position:fixed;top:50%; left:50%; transform: translate(-50%, -50%); border:5px solid black"">","","","","","","","",""
"","599.8600000748411","sequential-stimulus-presentation-old","113","959418","0.0-27.0-1.0","SS1619740641851","trial","","40","500","1099.860000074841","images/stimuli/spore_stims/complex_18_A_a.gif","images/stimuli/spore_stims/complex_12_A_b.gif","self_paced","","9","complex_dissimilar","images/stimuli/spore_stims/complex_12_A_b.gif","","","","",""
"","null","html-keyboard-response","114","960731","0.0-27.0-0.1","SS1619740641851","","","null","","","","","","<p><img src= images/blank.png width =""600"" height = ""600"" style=""position:fixed;top:50%; left:50%; transform: translate(-50%, -50%); border:5px solid black"">","","","","","","","",""
"","881.7549999803305","sequential-stimulus-presentation-old","115","962117","0.0-27.0-1.1","SS1619740641851","trial","","40","500","1381.7549999803305","images/stimuli/spore_stims/complex_18_A_a.gif","images/stimuli/spore_stims/complex_12_A_b.gif","self_paced","","9","complex_dissimilar","images/stimuli/spore_stims/complex_12_A_b.gif","","","","",""
"","null","html-keyboard-response","116","963016","0.0-27.0-0.2","SS1619740641851","","","null","","","","","","<p><img src= images/blank.png width =""600"" height = ""600"" style=""position:fixed;top:50%; left:50%; transform: translate(-50%, -50%); border:5px solid black"">","","","","","","","",""
"","439.2249999800697","sequential-stimulus-presentation-old","117","963960","0.0-27.0-1.2","SS1619740641851","trial","","40","500","939.2249999800697","images/stimuli/spore_stims/complex_18_A_a.gif","images/stimuli/spore_stims/complex_12_A_b.gif","self_paced","","9","complex_dissimilar","images/stimuli/spore_stims/complex_18_A_a.gif","","","","",""
"","null","html-keyboard-response","118","964908","0.0-27.0-0.3","SS1619740641851","","","null","","","","","","<p><img src= images/blank.png width =""600"" height = ""600"" style=""position:fixed;top:50%; left:50%; transform: translate(-50%, -50%); border:5px solid black"">","","","","","","","",""
"","129.93500009179115","sequential-stimulus-presentation-old","119","965545","0.0-27.0-1.3","SS1619740641851","trial","","40","500","629.9350000917912","images/stimuli/spore_stims/complex_18_A_a.gif","images/stimuli/spore_stims/complex_12_A_b.gif","self_paced","","9","complex_dissimilar","images/stimuli/spore_stims/complex_12_A_b.gif","","","","",""
"","null","html-keyboard-response","120","966533","0.0-27.0-0.4","SS1619740641851","","","null","","","","","","<p><img src= images/blank.png width =""600"" height = ""600"" style=""position:fixed;top:50%; left:50%; transform: translate(-50%, -50%); border:5px solid black"">","","","","","","","",""
"","5.119999987073243","sequential-stimulus-presentation-old","121","967052","0.0-27.0-1.4","SS1619740641851","trial","","40","500","505.11999998707324","images/stimuli/spore_stims/complex_18_A_a.gif","images/stimuli/spore_stims/complex_12_A_b.gif","self_paced","","9","complex_dissimilar","images/stimuli/spore_stims/complex_12_A_b.gif","","","","",""
"","null","html-keyboard-response","122","967898","0.0-27.0-0.5","SS1619740641851","","","null","","","","","","<p><img src= images/blank.png width =""600"" height = ""600"" style=""position:fixed;top:50%; left:50%; transform: translate(-50%, -50%); border:5px solid black"">","","","","","","","",""
"","220.7250000210479","sequential-stimulus-presentation-old","123","968628","0.0-27.0-1.5","SS1619740641851","trial","","40","500","720.7250000210479","images/stimuli/spore_stims/complex_18_A_a.gif","images/stimuli/spore_stims/complex_12_A_b.gif","self_paced","","9","complex_dissimilar","images/stimuli/spore_stims/complex_18_A_a.gif","","","","",""
"","15379.165000049397","survey-multi-choice","124","984009","0.0-28.0","SS1619740641851","math_question","","","","","","","","","","","","{""Q0"":""11""}","[0]","11","",""
"","null","html-keyboard-response","125","985140","0.0-29.0-0.0","SS1619740641851","","","null","","","","","","<p><img src= images/blank.png width =""600"" height = ""600"" style=""position:fixed;top:50%; left:50%; transform: translate(-50%, -50%); border:5px solid black"">","","","","","","","",""
"","176.0449999710545","sequential-stimulus-presentation-old","126","985822","0.0-29.0-1.0","SS1619740641851","trial","","40","500","676.0449999710545","images/stimuli/spore_stims/simple_18_A_a.gif","images/stimuli/spore_stims/simple_16_A_b.gif","self_paced","","10","simple_dissimilar","images/stimuli/spore_stims/simple_16_A_b.gif","","","","",""
"","null","html-keyboard-response","127","986774","0.0-29.0-0.1","SS1619740641851","","","null","","","","","","<p><img src= images/blank.png width =""600"" height = ""600"" style=""position:fixed;top:50%; left:50%; transform: translate(-50%, -50%); border:5px solid black"">","","","","","","","",""
"","175.54999992717057","sequential-stimulus-presentation-old","128","987462","0.0-29.0-1.1","SS1619740641851","trial","","40","500","675.5499999271706","images/stimuli/spore_stims/simple_18_A_a.gif","images/stimuli/spore_stims/simple_16_A_b.gif","self_paced","","10","simple_dissimilar","images/stimuli/spore_stims/simple_16_A_b.gif","","","","",""
"","null","html-keyboard-response","129","988624","0.0-29.0-0.2","SS1619740641851","","","null","","","","","","<p><img src= images/blank.png width =""600"" height = ""600"" style=""position:fixed;top:50%; left:50%; transform: translate(-50%, -50%); border:5px solid black"">","","","","","","","",""
"","97.77999995276332","sequential-stimulus-presentation-old","130","989242","0.0-29.0-1.2","SS1619740641851","trial","","40","500","597.7799999527633","images/stimuli/spore_stims/simple_18_A_a.gif","images/stimuli/spore_stims/simple_16_A_b.gif","self_paced","","10","simple_dissimilar","images/stimuli/spore_stims/simple_18_A_a.gif","","","","",""
"","null","html-keyboard-response","131","990213","0.0-29.0-0.3","SS1619740641851","","","null","","","","","","<p><img src= images/blank.png width =""600"" height = ""600"" style=""position:fixed;top:50%; left:50%; transform: translate(-50%, -50%); border:5px solid black"">","","","","","","","",""
"","230.07499997038394","sequential-stimulus-presentation-old","132","990963","0.0-29.0-1.3","SS1619740641851","trial","","40","500","730.0749999703839","images/stimuli/spore_stims/simple_18_A_a.gif","images/stimuli/spore_stims/simple_16_A_b.gif","self_paced","","10","simple_dissimilar","images/stimuli/spore_stims/simple_16_A_b.gif","","","","",""
"","null","html-keyboard-response","133","992205","0.0-29.0-0.4","SS1619740641851","","","null","","","","","","<p><img src= images/blank.png width =""600"" height = ""600"" style=""position:fixed;top:50%; left:50%; transform: translate(-50%, -50%); border:5px solid black"">","","","","","","","",""
"","272.5249999202788","sequential-stimulus-presentation-old","134","992981","0.0-29.0-1.4","SS1619740641851","trial","","40","500","772.5249999202788","images/stimuli/spore_stims/simple_18_A_a.gif","images/stimuli/spore_stims/simple_16_A_b.gif","self_paced","","10","simple_dissimilar","images/stimuli/spore_stims/simple_16_A_b.gif","","","","",""
"","null","html-keyboard-response","135","994101","0.0-29.0-0.5","SS1619740641851","","","null","","","","","","<p><img src= images/blank.png width =""600"" height = ""600"" style=""position:fixed;top:50%; left:50%; transform: translate(-50%, -50%); border:5px solid black"">","","","","","","","",""
"","136.29499997477978","sequential-stimulus-presentation-old","136","994741","0.0-29.0-1.5","SS1619740641851","trial","","40","500","636.2949999747798","images/stimuli/spore_stims/simple_18_A_a.gif","images/stimuli/spore_stims/simple_16_A_b.gif","self_paced","","10","simple_dissimilar","images/stimuli/spore_stims/simple_16_A_b.gif","","","","",""
"","3207.53999997396","survey-multi-choice","137","997953","0.0-30.0","SS1619740641851","math_question","","","","","","","","","","","","{""Q0"":""2""}","[0]","2","",""
"","null","html-keyboard-response","138","998795","0.0-31.0-0.0","SS1619740641851","","","null","","","","","","<p><img src= images/blank.png width =""600"" height = ""600"" style=""position:fixed;top:50%; left:50%; transform: translate(-50%, -50%); border:5px solid black"">","","","","","","","",""
"","878.3149999799207","sequential-stimulus-presentation-old","139","1014678","0.0-31.0-1.0","SS1619740641851","trial","","40","500","1378.3149999799207","images/stimuli/spore_stims/simple_03_A_b.gif","images/stimuli/spore_stims/simple_07_A_a.gif","forced_long","","11","simple_dissimilar","images/stimuli/spore_stims/simple_07_A_a.gif","","","","",""
"","null","html-keyboard-response","140","1015830","0.0-31.0-0.1","SS1619740641851","","","null","","","","","","<p><img src= images/blank.png width =""600"" height = ""600"" style=""position:fixed;top:50%; left:50%; transform: translate(-50%, -50%); border:5px solid black"">","","","","","","","",""
"","175.9099999908358","sequential-stimulus-presentation-old","141","1016513","0.0-31.0-1.1","SS1619740641851","trial","","40","500","675.9099999908358","images/stimuli/spore_stims/simple_03_A_b.gif","images/stimuli/spore_stims/simple_07_A_a.gif","forced_long","","11","simple_dissimilar","images/stimuli/spore_stims/simple_07_A_a.gif","","","","",""
"","null","html-keyboard-response","142","1017533","0.0-31.0-0.2","SS1619740641851","","","null","","","","","","<p><img src= images/blank.png width =""600"" height = ""600"" style=""position:fixed;top:50%; left:50%; transform: translate(-50%, -50%); border:5px solid black"">","","","","","","","",""
"","95.69500002544373","sequential-stimulus-presentation-old","143","1018134","0.0-31.0-1.2","SS1619740641851","trial","","40","500","595.6950000254437","images/stimuli/spore_stims/simple_03_A_b.gif","images/stimuli/spore_stims/simple_07_A_a.gif","forced_long","","11","simple_dissimilar","images/stimuli/spore_stims/simple_03_A_b.gif","","","","",""
"","null","html-keyboard-response","144","1019104","0.0-31.0-0.3","SS1619740641851","","","null","","","","","","<p><img src= images/blank.png width =""600"" height = ""600"" style=""position:fixed;top:50%; left:50%; transform: translate(-50%, -50%); border:5px solid black"">","","","","","","","",""
"","73.97000002674758","sequential-stimulus-presentation-old","145","1019685","0.0-31.0-1.3","SS1619740641851","trial","","40","500","573.9700000267476","images/stimuli/spore_stims/simple_03_A_b.gif","images/stimuli/spore_stims/simple_07_A_a.gif","forced_long","","11","simple_dissimilar","images/stimuli/spore_stims/simple_03_A_b.gif","","","","",""
"","null","html-keyboard-response","146","1020640","0.0-31.0-0.4","SS1619740641851","","","null","","","","","","<p><img src= images/blank.png width =""600"" height = ""600"" style=""position:fixed;top:50%; left:50%; transform: translate(-50%, -50%); border:5px solid black"">","","","","","","","",""
"","69.3400000454858","sequential-stimulus-presentation-old","147","1021220","0.0-31.0-1.4","SS1619740641851","trial","","40","500","569.3400000454858","images/stimuli/spore_stims/simple_03_A_b.gif","images/stimuli/spore_stims/simple_07_A_a.gif","forced_long","","11","simple_dissimilar","images/stimuli/spore_stims/simple_07_A_a.gif","","","","",""
"","null","html-keyboard-response","148","1022172","0.0-31.0-0.5","SS1619740641851","","","null","","","","","","<p><img src= images/blank.png width =""600"" height = ""600"" style=""position:fixed;top:50%; left:50%; transform: translate(-50%, -50%); border:5px solid black"">","","","","","","","",""
"","162.15999994892627","sequential-stimulus-presentation-old","149","1022844","0.0-31.0-1.5","SS1619740641851","trial","","40","500","662.1599999489263","images/stimuli/spore_stims/simple_03_A_b.gif","images/stimuli/spore_stims/simple_07_A_a.gif","forced_long","","11","simple_dissimilar","images/stimuli/spore_stims/simple_07_A_a.gif","","","","",""
"[{""page_index"":0,""viewing_time"":4731.734999921173}]","4732.145000016317","instructions","150","1027579","0.0-32.0","SS1619740641851","instructions","","","","","","","","","","","","","","","",""
"","6135.000000009313","survey-likert","151","1033719","0.0-33.0","SS1619740641851","similarity_question","","","","","","","","","","","","{""Q0"":4}","[0]","","images/stimuli/spore_stims/complex_01_A_a.gif","images/stimuli/spore_stims/complex_16_A_b.gif"
"","5416.865000035614","survey-likert","152","1039152","0.0-34.0","SS1619740641851","similarity_question","","","","","","","","","","","","{""Q0"":2}","[0]","","images/stimuli/spore_stims/simple_16_A_b.gif","images/stimuli/spore_stims/simple_18_A_a.gif"
"","5966.075000003912","survey-likert","153","1045132","0.0-35.0","SS1619740641851","similarity_question","","","","","","","","","","","","{""Q0"":2}","[0]","","images/stimuli/spore_stims/simple_04_A_b.gif","images/stimuli/spore_stims/simple_19_A_a.gif"
"","5198.779999976978","survey-likert","154","1050345","0.0-36.0","SS1619740641851","similarity_question","","","","","","","","","","","","{""Q0"":2}","[0]","","images/stimuli/spore_stims/simple_09_A_b.gif","images/stimuli/spore_stims/simple_08_A_a.gif"
"","4474.054999998771","survey-likert","155","1054835","0.0-37.0","SS1619740641851","similarity_question","","","","","","","","","","","","{""Q0"":2}","[0]","","images/stimuli/spore_stims/complex_18_A_a.gif","images/stimuli/spore_stims/complex_12_A_b.gif"
"","4107.6100000645965","survey-likert","156","1058958","0.0-38.0","SS1619740641851","similarity_question","","","","","","","","","","","","{""Q0"":1}","[0]","","images/stimuli/spore_stims/complex_12_A_a.gif","images/stimuli/spore_stims/complex_07_A_b.gif"
"","4763.950000051409","survey-likert","157","1063736","0.0-39.0","SS1619740641851","similarity_question","","","","","","","","","","","","{""Q0"":3}","[0]","","images/stimuli/spore_stims/simple_03_A_b.gif","images/stimuli/spore_stims/simple_07_A_a.gif"
"","6250.145000056364","survey-likert","158","1070001","0.0-40.0","SS1619740641851","similarity_question","","","","","","","","","","","","{""Q0"":2}","[0]","","images/stimuli/spore_stims/simple_17_A_a.gif","images/stimuli/spore_stims/simple_18_A_b.gif"
"","4051.2699999380857","survey-likert","159","1074067","0.0-41.0","SS1619740641851","similarity_question","","","","","","","","","","","","{""Q0"":0}","[0]","","images/stimuli/spore_stims/complex_02_A_b.gif","images/stimuli/spore_stims/complex_11_A_a.gif"
"","3589.1149999806657","survey-likert","160","1077671","0.0-42.0","SS1619740641851","similarity_question","","","","","","","","","","","","{""Q0"":2}","[0]","","images/stimuli/spore_stims/complex_05_A_a.gif","images/stimuli/spore_stims/complex_18_A_b.gif"
"","6008.4550000028685","survey-likert","161","1083694","0.0-43.0","SS1619740641851","similarity_question","","","","","","","","","","","","{""Q0"":2}","[0]","","images/stimuli/spore_stims/simple_20_A_b.gif","images/stimuli/spore_stims/simple_05_A_a.gif"
"","5799.944999977015","survey-likert","162","1089509","0.0-44.0","SS1619740641851","similarity_question","","","","","","","","","","","","{""Q0"":2}","[0]","","images/stimuli/spore_stims/complex_01_A_b.gif","images/stimuli/spore_stims/complex_19_A_a.gif"
"[{""page_index"":0,""viewing_time"":5170.724999974482}]","5171.209999942221","instructions","163","1094693","0.0-45.0","SS1619740641851","instructions","","","","","","","","","","","","","","","",""
"","4110.5700000189245","survey-likert","164","1098808","0.0-46.0","SS1619740641851","","","","","","","","","images/stimuli/spore_stims/complex_18_A_a.gif","","","","{""Q0"":4}","[0]","","",""
"","5295.619999989867","survey-likert","165","1104119","0.0-47.0","SS1619740641851","","","","","","","","","images/stimuli/spore_stims/simple_07_A_a.gif","","","","{""Q0"":0}","[0]","","",""
"","2734.984999988228","survey-likert","166","1106869","0.0-48.0","SS1619740641851","","","","","","","","","images/stimuli/spore_stims/simple_08_A_a.gif","","","","{""Q0"":0}","[0]","","",""
"","3241.775000002235","survey-likert","167","1110124","0.0-49.0","SS1619740641851","","","","","","","","","images/stimuli/spore_stims/simple_18_A_a.gif","","","","{""Q0"":1}","[0]","","",""
"","3417.5149999791756","survey-likert","168","1113557","0.0-50.0","SS1619740641851","","","","","","","","","images/stimuli/spore_stims/complex_01_A_a.gif","","","","{""Q0"":4}","[0]","","",""
"","3432.1000000927597","survey-likert","169","1117004","0.0-51.0","SS1619740641851","","","","","","","","","images/stimuli/spore_stims/simple_04_A_b.gif","","","","{""Q0"":0}","[0]","","",""
"","4899.244999978691","survey-likert","170","1121918","0.0-52.0","SS1619740641851","","","","","","","","","images/stimuli/spore_stims/complex_07_A_b.gif","","","","{""Q0"":5}","[0]","","",""
"","3105.864999932237","survey-likert","171","1125039","0.0-53.0","SS1619740641851","","","","","","","","","images/stimuli/spore_stims/complex_19_A_a.gif","","","","{""Q0"":5}","[0]","","",""
"","6941.409999970347","survey-likert","172","1131996","0.0-54.0","SS1619740641851","","","","","","","","","images/stimuli/spore_stims/complex_18_A_b.gif","","","","{""Q0"":4}","[0]","","",""
"","2931.125000002794","survey-likert","173","1134943","0.0-55.0","SS1619740641851","","","","","","","","","images/stimuli/spore_stims/complex_02_A_b.gif","","","","{""Q0"":4}","[0]","","",""
"","4014.309999998659","survey-likert","174","1138971","0.0-56.0","SS1619740641851","","","","","","","","","images/stimuli/spore_stims/simple_17_A_a.gif","","","","{""Q0"":0}","[0]","","",""
"","4072.840000037104","survey-likert","175","1143059","0.0-57.0","SS1619740641851","","","","","","","","","images/stimuli/spore_stims/simple_05_A_a.gif","","","","{""Q0"":0}","[0]","","",""
"[{""page_index"":0,""viewing_time"":2720.8150000078604}]","2721.214999910444","instructions","176","1145795","0.0-58.0","SS1619740641851","instructions","","","","","","","","","","","","","","","",""
"","2938.5849999962375","demog-age","177","1148741","0.0-59.0","SS1619740641851","","","","","","","","","","","","","{""age"":""22""}","","","",""
"","7187.200000043958","demog-ethnic-US","178","1155937","0.0-60.0","SS1619740641851","","","","","","","","","","","","","{""ethnicity"":[""White""]}","[0]","","",""
"","24837.71999995224","demog-gender-and-education","179","1180791","0.0-61.0","SS1619740641851","","","","","","","","","","","","","{""gender"":""Female"",""education"":""Bachelor's Degree""}","[0,1]","","",""
"","14657.33000007458","survey-text","180","1195465","0.0-62.0","SS1619740641851","feedback","","","","","","","","","","","","{""Q0"":""no, it was okay""}","","","",""
"[{""page_index"":0,""viewing_time"":1542.394999996759}]","1542.7649999037385","instructions","181","1197012","0.0-63.0","SS1619740641851","instructions","","","","","","","","","","","","","","","",""
