"view_history","rt","trial_type","trial_index","time_elapsed","internal_node_id","subject","stimulus_type","trial_stimulus","key_press","minimum_viewing_duration","trial_looking_time","block_deviant","block_background","exposure_type","stimulus","block_number","block_type","stimulus_displayed","responses","question_order","math_correct_answer","stimulus_left","stimulus_right"
"[{""page_index"":0,""viewing_time"":23042.73500000272}]","23043.150000001333","instructions","0","23044","0.0-0.0","SS1619739838302","","","","","","","","","","","","","","","","",""
"[{""page_index"":0,""viewing_time"":13500.944999999774},{""page_index"":1,""viewing_time"":7431.9199999990815}]","20933.1749999983","instructions","1","45980","0.0-1.0","SS1619739838302","instructions","","","","","","","","","","","","","","","",""
"","6842.379999998229","sequential-stimulus-presentation-old","2","53327","0.0-2.0","SS1619739838302","","","40","500","7342.379999998229","null","null","self_paced","","","","","","","","",""
"","7381.195000001753","sequential-stimulus-presentation-old","3","61212","0.0-3.0","SS1619739838302","","","40","500","7881.195000001753","null","null","self_paced","","","","","","","","",""
"[{""page_index"":0,""viewing_time"":24733.40499999904}]","24733.714999998483","instructions","4","85948","0.0-4.0","SS1619739838302","instructions","","","","","","","","","","","","","","","",""
"","33772.67999999822","sequential-stimulus-presentation-old","5","134851","0.0-5.0","SS1619739838302","","","40","500","34272.67999999822","null","null","forced_long","","","","","","","","",""
"","4952.31000000058","sequential-stimulus-presentation-old","6","140307","0.0-6.0","SS1619739838302","","","40","500","5452.31000000058","null","null","forced_long","","","","","","","","",""
"[{""page_index"":0,""viewing_time"":5678.985000002285}]","5679.465000001073","instructions","7","145988","0.0-7.0","SS1619739838302","instructions","","","","","","","","","","","","","","","",""
"[{""page_index"":0,""viewing_time"":9974.07000000021},{""page_index"":1,""viewing_time"":10104.624999999942},{""page_index"":2,""viewing_time"":6023.515000000771},{""page_index"":3,""viewing_time"":1687.8450000003795},{""page_index"":4,""viewing_time"":1152.060000000347}]","28942.455000000336","instructions","8","174931","0.0-8.0","SS1619739838302","instructions","","","","","","","","","","","","","","","",""
"","null","html-keyboard-response","9","176181","0.0-9.0-0.0","SS1619739838302","","","null","","","","","","<p><img src= images/blank.png width =""600"" height = ""600"" style=""position:fixed;top:50%; left:50%; transform: translate(-50%, -50%); border:5px solid black"">","","","","","","","",""
"","1663.829999997688","sequential-stimulus-presentation-old","10","192852","0.0-9.0-1.0","SS1619739838302","trial","","40","500","2163.829999997688","images/stimuli/spore_stims/simple_02_A_a.gif","images/stimuli/spore_stims/simple_11_A_b.gif","forced_long","","0","simple_dissimilar","images/stimuli/spore_stims/simple_11_A_b.gif","","","","",""
"","null","html-keyboard-response","11","193918","0.0-9.0-0.1","SS1619739838302","","","null","","","","","","<p><img src= images/blank.png width =""600"" height = ""600"" style=""position:fixed;top:50%; left:50%; transform: translate(-50%, -50%); border:5px solid black"">","","","","","","","",""
"","6999.684999998863","sequential-stimulus-presentation-old","12","201420","0.0-9.0-1.1","SS1619739838302","trial","","40","500","7499.684999998863","images/stimuli/spore_stims/simple_02_A_a.gif","images/stimuli/spore_stims/simple_11_A_b.gif","forced_long","","0","simple_dissimilar","images/stimuli/spore_stims/simple_11_A_b.gif","","","","",""
"","null","html-keyboard-response","13","202700","0.0-9.0-0.2","SS1619739838302","","","null","","","","","","<p><img src= images/blank.png width =""600"" height = ""600"" style=""position:fixed;top:50%; left:50%; transform: translate(-50%, -50%); border:5px solid black"">","","","","","","","",""
"","28669.459999997343","sequential-stimulus-presentation-old","14","231876","0.0-9.0-1.2","SS1619739838302","trial","","40","500","29169.459999997343","images/stimuli/spore_stims/simple_02_A_a.gif","images/stimuli/spore_stims/simple_11_A_b.gif","forced_long","","0","simple_dissimilar","images/stimuli/spore_stims/simple_11_A_b.gif","","","","",""
"","null","html-keyboard-response","15","233028","0.0-9.0-0.3","SS1619739838302","","","null","","","","","","<p><img src= images/blank.png width =""600"" height = ""600"" style=""position:fixed;top:50%; left:50%; transform: translate(-50%, -50%); border:5px solid black"">","","","","","","","",""
"","16839.4100000005","sequential-stimulus-presentation-old","16","250371","0.0-9.0-1.3","SS1619739838302","trial","","40","500","17339.4100000005","images/stimuli/spore_stims/simple_02_A_a.gif","images/stimuli/spore_stims/simple_11_A_b.gif","forced_long","","0","simple_dissimilar","images/stimuli/spore_stims/simple_11_A_b.gif","","","","",""
"","null","html-keyboard-response","17","251666","0.0-9.0-0.4","SS1619739838302","","","null","","","","","","<p><img src= images/blank.png width =""600"" height = ""600"" style=""position:fixed;top:50%; left:50%; transform: translate(-50%, -50%); border:5px solid black"">","","","","","","","",""
"","8440.88500000001","sequential-stimulus-presentation-old","18","260611","0.0-9.0-1.4","SS1619739838302","trial","","40","500","8940.88500000001","images/stimuli/spore_stims/simple_02_A_a.gif","images/stimuli/spore_stims/simple_11_A_b.gif","forced_long","","0","simple_dissimilar","images/stimuli/spore_stims/simple_02_A_a.gif","","","","",""
"","null","html-keyboard-response","19","261836","0.0-9.0-0.5","SS1619739838302","","","null","","","","","","<p><img src= images/blank.png width =""600"" height = ""600"" style=""position:fixed;top:50%; left:50%; transform: translate(-50%, -50%); border:5px solid black"">","","","","","","","",""
"","4280.2149999988615","sequential-stimulus-presentation-old","20","266620","0.0-9.0-1.5","SS1619739838302","trial","","40","500","4780.2149999988615","images/stimuli/spore_stims/simple_02_A_a.gif","images/stimuli/spore_stims/simple_11_A_b.gif","forced_long","","0","simple_dissimilar","images/stimuli/spore_stims/simple_02_A_a.gif","","","","",""
"","5428.73999999935","survey-multi-choice","21","272052","0.0-10.0","SS1619739838302","math_question","","","","","","","","","","","","{""Q0"":""10""}","[0]","10","",""
"","null","html-keyboard-response","22","272995","0.0-11.0-0.0","SS1619739838302","","","null","","","","","","<p><img src= images/blank.png width =""600"" height = ""600"" style=""position:fixed;top:50%; left:50%; transform: translate(-50%, -50%); border:5px solid black"">","","","","","","","",""
"","10212.370000001101","sequential-stimulus-presentation-old","23","298211","0.0-11.0-1.0","SS1619739838302","trial","","40","500","10712.370000001101","images/stimuli/spore_stims/simple_14_A_b.gif","images/stimuli/spore_stims/simple_12_A_a.gif","forced_long","","1","simple_dissimilar","images/stimuli/spore_stims/simple_12_A_a.gif","","","","",""
"","null","html-keyboard-response","24","299227","0.0-11.0-0.1","SS1619739838302","","","null","","","","","","<p><img src= images/blank.png width =""600"" height = ""600"" style=""position:fixed;top:50%; left:50%; transform: translate(-50%, -50%); border:5px solid black"">","","","","","","","",""
"","14725.88000000175","sequential-stimulus-presentation-old","25","314459","0.0-11.0-1.1","SS1619739838302","trial","","40","500","15225.88000000175","images/stimuli/spore_stims/simple_14_A_b.gif","images/stimuli/spore_stims/simple_12_A_a.gif","forced_long","","1","simple_dissimilar","images/stimuli/spore_stims/simple_12_A_a.gif","","","","",""
"","null","html-keyboard-response","26","315296","0.0-11.0-0.2","SS1619739838302","","","null","","","","","","<p><img src= images/blank.png width =""600"" height = ""600"" style=""position:fixed;top:50%; left:50%; transform: translate(-50%, -50%); border:5px solid black"">","","","","","","","",""
"","5154.6999999991385","sequential-stimulus-presentation-old","27","320955","0.0-11.0-1.2","SS1619739838302","trial","","40","500","5654.6999999991385","images/stimuli/spore_stims/simple_14_A_b.gif","images/stimuli/spore_stims/simple_12_A_a.gif","forced_long","","1","simple_dissimilar","images/stimuli/spore_stims/simple_12_A_a.gif","","","","",""
"","null","html-keyboard-response","28","322079","0.0-11.0-0.3","SS1619739838302","","","null","","","","","","<p><img src= images/blank.png width =""600"" height = ""600"" style=""position:fixed;top:50%; left:50%; transform: translate(-50%, -50%); border:5px solid black"">","","","","","","","",""
"","4971.57999999763","sequential-stimulus-presentation-old","29","327555","0.0-11.0-1.3","SS1619739838302","trial","","40","500","5471.57999999763","images/stimuli/spore_stims/simple_14_A_b.gif","images/stimuli/spore_stims/simple_12_A_a.gif","forced_long","","1","simple_dissimilar","images/stimuli/spore_stims/simple_14_A_b.gif","","","","",""
"","4173.6650000020745","survey-multi-choice","30","331731","0.0-12.0","SS1619739838302","math_question","","","","","","","","","","","","{""Q0"":""3""}","[0]","3","",""
"","null","html-keyboard-response","31","332778","0.0-13.0-0.0","SS1619739838302","","","null","","","","","","<p><img src= images/blank.png width =""600"" height = ""600"" style=""position:fixed;top:50%; left:50%; transform: translate(-50%, -50%); border:5px solid black"">","","","","","","","",""
"","3482.829999997164","sequential-stimulus-presentation-old","32","336770","0.0-13.0-1.0","SS1619739838302","trial","","40","500","3982.829999997164","images/stimuli/spore_stims/complex_19_A_a.gif","images/stimuli/spore_stims/complex_10_A_b.gif","forced_short","","2","complex_dissimilar","images/stimuli/spore_stims/complex_10_A_b.gif","","","","",""
"","null","html-keyboard-response","33","337805","0.0-13.0-0.1","SS1619739838302","","","null","","","","","","<p><img src= images/blank.png width =""600"" height = ""600"" style=""position:fixed;top:50%; left:50%; transform: translate(-50%, -50%); border:5px solid black"">","","","","","","","",""
"","9398.140000001178","sequential-stimulus-presentation-old","34","347707","0.0-13.0-1.1","SS1619739838302","trial","","40","500","9898.140000001178","images/stimuli/spore_stims/complex_19_A_a.gif","images/stimuli/spore_stims/complex_10_A_b.gif","forced_short","","2","complex_dissimilar","images/stimuli/spore_stims/complex_19_A_a.gif","","","","",""
"","null","html-keyboard-response","35","348780","0.0-13.0-0.2","SS1619739838302","","","null","","","","","","<p><img src= images/blank.png width =""600"" height = ""600"" style=""position:fixed;top:50%; left:50%; transform: translate(-50%, -50%); border:5px solid black"">","","","","","","","",""
"","4637.779999997292","sequential-stimulus-presentation-old","36","353923","0.0-13.0-1.2","SS1619739838302","trial","","40","500","5137.779999997292","images/stimuli/spore_stims/complex_19_A_a.gif","images/stimuli/spore_stims/complex_10_A_b.gif","forced_short","","2","complex_dissimilar","images/stimuli/spore_stims/complex_10_A_b.gif","","","","",""
"","null","html-keyboard-response","37","355030","0.0-13.0-0.3","SS1619739838302","","","null","","","","","","<p><img src= images/blank.png width =""600"" height = ""600"" style=""position:fixed;top:50%; left:50%; transform: translate(-50%, -50%); border:5px solid black"">","","","","","","","",""
"","5485.229999998468","sequential-stimulus-presentation-old","38","361020","0.0-13.0-1.3","SS1619739838302","trial","","40","500","5985.229999998468","images/stimuli/spore_stims/complex_19_A_a.gif","images/stimuli/spore_stims/complex_10_A_b.gif","forced_short","","2","complex_dissimilar","images/stimuli/spore_stims/complex_10_A_b.gif","","","","",""
"","3556.1950000010547","survey-multi-choice","39","364579","0.0-14.0","SS1619739838302","math_question","","","","","","","","","","","","{""Q0"":""12""}","[0]","12","",""
"","null","html-keyboard-response","40","365725","0.0-15.0-0.0","SS1619739838302","","","null","","","","","","<p><img src= images/blank.png width =""600"" height = ""600"" style=""position:fixed;top:50%; left:50%; transform: translate(-50%, -50%); border:5px solid black"">","","","","","","","",""
"","3652.135000000242","sequential-stimulus-presentation-old","41","369882","0.0-15.0-1.0","SS1619739838302","trial","","40","500","4152.135000000242","images/stimuli/spore_stims/complex_02_A_a.gif","images/stimuli/spore_stims/complex_08_A_b.gif","self_paced","","3","complex_dissimilar","images/stimuli/spore_stims/complex_08_A_b.gif","","","","",""
"","null","html-keyboard-response","42","371074","0.0-15.0-0.1","SS1619739838302","","","null","","","","","","<p><img src= images/blank.png width =""600"" height = ""600"" style=""position:fixed;top:50%; left:50%; transform: translate(-50%, -50%); border:5px solid black"">","","","","","","","",""
"","4792.169999997015","sequential-stimulus-presentation-old","43","376371","0.0-15.0-1.1","SS1619739838302","trial","","40","500","5292.169999997015","images/stimuli/spore_stims/complex_02_A_a.gif","images/stimuli/spore_stims/complex_08_A_b.gif","self_paced","","3","complex_dissimilar","images/stimuli/spore_stims/complex_02_A_a.gif","","","","",""
"","null","html-keyboard-response","44","377212","0.0-15.0-0.2","SS1619739838302","","","null","","","","","","<p><img src= images/blank.png width =""600"" height = ""600"" style=""position:fixed;top:50%; left:50%; transform: translate(-50%, -50%); border:5px solid black"">","","","","","","","",""
"","2917.2849999995087","sequential-stimulus-presentation-old","45","380635","0.0-15.0-1.2","SS1619739838302","trial","","40","500","3417.2849999995087","images/stimuli/spore_stims/complex_02_A_a.gif","images/stimuli/spore_stims/complex_08_A_b.gif","self_paced","","3","complex_dissimilar","images/stimuli/spore_stims/complex_08_A_b.gif","","","","",""
"","null","html-keyboard-response","46","381726","0.0-15.0-0.3","SS1619739838302","","","null","","","","","","<p><img src= images/blank.png width =""600"" height = ""600"" style=""position:fixed;top:50%; left:50%; transform: translate(-50%, -50%); border:5px solid black"">","","","","","","","",""
"","3557.329999999667","sequential-stimulus-presentation-old","47","385787","0.0-15.0-1.3","SS1619739838302","trial","","40","500","4057.329999999667","images/stimuli/spore_stims/complex_02_A_a.gif","images/stimuli/spore_stims/complex_08_A_b.gif","self_paced","","3","complex_dissimilar","images/stimuli/spore_stims/complex_08_A_b.gif","","","","",""
"","2898.0550000015064","survey-multi-choice","48","388691","0.0-16.0","SS1619739838302","math_question","","","","","","","","","","","","{""Q0"":""6""}","[0]","6","",""
"","null","html-keyboard-response","49","389603","0.0-17.0-0.0","SS1619739838302","","","null","","","","","","<p><img src= images/blank.png width =""600"" height = ""600"" style=""position:fixed;top:50%; left:50%; transform: translate(-50%, -50%); border:5px solid black"">","","","","","","","",""
"","2254.594999998517","sequential-stimulus-presentation-old","50","392363","0.0-17.0-1.0","SS1619739838302","trial","","40","500","2754.594999998517","images/stimuli/spore_stims/simple_09_A_b.gif","images/stimuli/spore_stims/simple_04_A_a.gif","forced_short","","4","simple_dissimilar","images/stimuli/spore_stims/simple_04_A_a.gif","","","","",""
"","null","html-keyboard-response","51","393282","0.0-17.0-0.1","SS1619739838302","","","null","","","","","","<p><img src= images/blank.png width =""600"" height = ""600"" style=""position:fixed;top:50%; left:50%; transform: translate(-50%, -50%); border:5px solid black"">","","","","","","","",""
"","3157.2500000001746","sequential-stimulus-presentation-old","52","396947","0.0-17.0-1.1","SS1619739838302","trial","","40","500","3657.2500000001746","images/stimuli/spore_stims/simple_09_A_b.gif","images/stimuli/spore_stims/simple_04_A_a.gif","forced_short","","4","simple_dissimilar","images/stimuli/spore_stims/simple_09_A_b.gif","","","","",""
"","null","html-keyboard-response","53","397890","0.0-17.0-0.2","SS1619739838302","","","null","","","","","","<p><img src= images/blank.png width =""600"" height = ""600"" style=""position:fixed;top:50%; left:50%; transform: translate(-50%, -50%); border:5px solid black"">","","","","","","","",""
"","14849.914999998873","sequential-stimulus-presentation-old","54","413242","0.0-17.0-1.2","SS1619739838302","trial","","40","500","15349.914999998873","images/stimuli/spore_stims/simple_09_A_b.gif","images/stimuli/spore_stims/simple_04_A_a.gif","forced_short","","4","simple_dissimilar","images/stimuli/spore_stims/simple_04_A_a.gif","","","","",""
"","null","html-keyboard-response","55","414314","0.0-17.0-0.3","SS1619739838302","","","null","","","","","","<p><img src= images/blank.png width =""600"" height = ""600"" style=""position:fixed;top:50%; left:50%; transform: translate(-50%, -50%); border:5px solid black"">","","","","","","","",""
"","18000.819999997504","sequential-stimulus-presentation-old","56","432818","0.0-17.0-1.3","SS1619739838302","trial","","40","500","18500.819999997504","images/stimuli/spore_stims/simple_09_A_b.gif","images/stimuli/spore_stims/simple_04_A_a.gif","forced_short","","4","simple_dissimilar","images/stimuli/spore_stims/simple_04_A_a.gif","","","","",""
"","null","html-keyboard-response","57","433775","0.0-17.0-0.4","SS1619739838302","","","null","","","","","","<p><img src= images/blank.png width =""600"" height = ""600"" style=""position:fixed;top:50%; left:50%; transform: translate(-50%, -50%); border:5px solid black"">","","","","","","","",""
"","327.78999999939697","sequential-stimulus-presentation-old","58","434610","0.0-17.0-1.4","SS1619739838302","trial","","40","500","827.789999999397","images/stimuli/spore_stims/simple_09_A_b.gif","images/stimuli/spore_stims/simple_04_A_a.gif","forced_short","","4","simple_dissimilar","images/stimuli/spore_stims/simple_04_A_a.gif","","","","",""
"","2717.3250000014086","survey-multi-choice","59","437330","0.0-18.0","SS1619739838302","math_question","","","","","","","","","","","","{""Q0"":""7""}","[0]","7","",""
"","null","html-keyboard-response","60","438388","0.0-19.0-0.0","SS1619739838302","","","null","","","","","","<p><img src= images/blank.png width =""600"" height = ""600"" style=""position:fixed;top:50%; left:50%; transform: translate(-50%, -50%); border:5px solid black"">","","","","","","","",""
"","2634.1949999987264","sequential-stimulus-presentation-old","61","456705","0.0-19.0-1.0","SS1619739838302","trial","","40","500","3134.1949999987264","images/stimuli/spore_stims/complex_18_A_b.gif","images/stimuli/spore_stims/complex_14_A_a.gif","forced_long","","5","complex_dissimilar","images/stimuli/spore_stims/complex_14_A_a.gif","","","","",""
"","null","html-keyboard-response","62","457566","0.0-19.0-0.1","SS1619739838302","","","null","","","","","","<p><img src= images/blank.png width =""600"" height = ""600"" style=""position:fixed;top:50%; left:50%; transform: translate(-50%, -50%); border:5px solid black"">","","","","","","","",""
"","595.32499999844","sequential-stimulus-presentation-old","63","458666","0.0-19.0-1.1","SS1619739838302","trial","","40","500","1095.32499999844","images/stimuli/spore_stims/complex_18_A_b.gif","images/stimuli/spore_stims/complex_14_A_a.gif","forced_long","","5","complex_dissimilar","images/stimuli/spore_stims/complex_14_A_a.gif","","","","",""
"","null","html-keyboard-response","64","459954","0.0-19.0-0.2","SS1619739838302","","","null","","","","","","<p><img src= images/blank.png width =""600"" height = ""600"" style=""position:fixed;top:50%; left:50%; transform: translate(-50%, -50%); border:5px solid black"">","","","","","","","",""
"","3311.9249999981257","sequential-stimulus-presentation-old","65","463770","0.0-19.0-1.2","SS1619739838302","trial","","40","500","3811.9249999981257","images/stimuli/spore_stims/complex_18_A_b.gif","images/stimuli/spore_stims/complex_14_A_a.gif","forced_long","","5","complex_dissimilar","images/stimuli/spore_stims/complex_14_A_a.gif","","","","",""
"","null","html-keyboard-response","66","464972","0.0-19.0-0.3","SS1619739838302","","","null","","","","","","<p><img src= images/blank.png width =""600"" height = ""600"" style=""position:fixed;top:50%; left:50%; transform: translate(-50%, -50%); border:5px solid black"">","","","","","","","",""
"","374.01499999762746","sequential-stimulus-presentation-old","67","465850","0.0-19.0-1.3","SS1619739838302","trial","","40","500","874.0149999976275","images/stimuli/spore_stims/complex_18_A_b.gif","images/stimuli/spore_stims/complex_14_A_a.gif","forced_long","","5","complex_dissimilar","images/stimuli/spore_stims/complex_18_A_b.gif","","","","",""
"","null","html-keyboard-response","68","466939","0.0-19.0-0.4","SS1619739838302","","","null","","","","","","<p><img src= images/blank.png width =""600"" height = ""600"" style=""position:fixed;top:50%; left:50%; transform: translate(-50%, -50%); border:5px solid black"">","","","","","","","",""
"","974.9699999992736","sequential-stimulus-presentation-old","69","468418","0.0-19.0-1.4","SS1619739838302","trial","","40","500","1474.9699999992736","images/stimuli/spore_stims/complex_18_A_b.gif","images/stimuli/spore_stims/complex_14_A_a.gif","forced_long","","5","complex_dissimilar","images/stimuli/spore_stims/complex_18_A_b.gif","","","","",""
"","3987.6899999980815","survey-multi-choice","70","472410","0.0-20.0","SS1619739838302","math_question","","","","","","","","","","","","{""Q0"":""18""}","[0]","18","",""
"","null","html-keyboard-response","71","473445","0.0-21.0-0.0","SS1619739838302","","","null","","","","","","<p><img src= images/blank.png width =""600"" height = ""600"" style=""position:fixed;top:50%; left:50%; transform: translate(-50%, -50%); border:5px solid black"">","","","","","","","",""
"","1563.4199999985867","sequential-stimulus-presentation-old","72","475514","0.0-21.0-1.0","SS1619739838302","trial","","40","500","2063.4199999985867","images/stimuli/spore_stims/complex_01_A_b.gif","images/stimuli/spore_stims/complex_17_A_a.gif","forced_short","","6","complex_dissimilar","images/stimuli/spore_stims/complex_17_A_a.gif","","","","",""
"","null","html-keyboard-response","73","476796","0.0-21.0-0.1","SS1619739838302","","","null","","","","","","<p><img src= images/blank.png width =""600"" height = ""600"" style=""position:fixed;top:50%; left:50%; transform: translate(-50%, -50%); border:5px solid black"">","","","","","","","",""
"","3208.4050000012503","sequential-stimulus-presentation-old","74","480507","0.0-21.0-1.1","SS1619739838302","trial","","40","500","3708.4050000012503","images/stimuli/spore_stims/complex_01_A_b.gif","images/stimuli/spore_stims/complex_17_A_a.gif","forced_short","","6","complex_dissimilar","images/stimuli/spore_stims/complex_17_A_a.gif","","","","",""
"","null","html-keyboard-response","75","481517","0.0-21.0-0.2","SS1619739838302","","","null","","","","","","<p><img src= images/blank.png width =""600"" height = ""600"" style=""position:fixed;top:50%; left:50%; transform: translate(-50%, -50%); border:5px solid black"">","","","","","","","",""
"","3634.524999997695","sequential-stimulus-presentation-old","76","485658","0.0-21.0-1.2","SS1619739838302","trial","","40","500","4134.524999997695","images/stimuli/spore_stims/complex_01_A_b.gif","images/stimuli/spore_stims/complex_17_A_a.gif","forced_short","","6","complex_dissimilar","images/stimuli/spore_stims/complex_17_A_a.gif","","","","",""
"","null","html-keyboard-response","77","486550","0.0-21.0-0.3","SS1619739838302","","","null","","","","","","<p><img src= images/blank.png width =""600"" height = ""600"" style=""position:fixed;top:50%; left:50%; transform: translate(-50%, -50%); border:5px solid black"">","","","","","","","",""
"","1137.8550000008545","sequential-stimulus-presentation-old","78","488194","0.0-21.0-1.3","SS1619739838302","trial","","40","500","1637.8550000008545","images/stimuli/spore_stims/complex_01_A_b.gif","images/stimuli/spore_stims/complex_17_A_a.gif","forced_short","","6","complex_dissimilar","images/stimuli/spore_stims/complex_17_A_a.gif","","","","",""
"","2837.61500000034","survey-multi-choice","79","491034","0.0-22.0","SS1619739838302","math_question","","","","","","","","","","","","{""Q0"":""8""}","[0]","8","",""
"","null","html-keyboard-response","80","492144","0.0-23.0-0.0","SS1619739838302","","","null","","","","","","<p><img src= images/blank.png width =""600"" height = ""600"" style=""position:fixed;top:50%; left:50%; transform: translate(-50%, -50%); border:5px solid black"">","","","","","","","",""
"","9000.649999998102","sequential-stimulus-presentation-old","81","501650","0.0-23.0-1.0","SS1619739838302","trial","","40","500","9500.649999998102","images/stimuli/spore_stims/complex_05_A_a.gif","images/stimuli/spore_stims/complex_07_A_b.gif","self_paced","","7","complex_dissimilar","images/stimuli/spore_stims/complex_07_A_b.gif","","","","",""
"","null","html-keyboard-response","82","502923","0.0-23.0-0.1","SS1619739838302","","","null","","","","","","<p><img src= images/blank.png width =""600"" height = ""600"" style=""position:fixed;top:50%; left:50%; transform: translate(-50%, -50%); border:5px solid black"">","","","","","","","",""
"","254.7550000017509","sequential-stimulus-presentation-old","83","503682","0.0-23.0-1.1","SS1619739838302","trial","","40","500","754.7550000017509","images/stimuli/spore_stims/complex_05_A_a.gif","images/stimuli/spore_stims/complex_07_A_b.gif","self_paced","","7","complex_dissimilar","images/stimuli/spore_stims/complex_07_A_b.gif","","","","",""
"","null","html-keyboard-response","84","504590","0.0-23.0-0.2","SS1619739838302","","","null","","","","","","<p><img src= images/blank.png width =""600"" height = ""600"" style=""position:fixed;top:50%; left:50%; transform: translate(-50%, -50%); border:5px solid black"">","","","","","","","",""
"","26.109999998880085","sequential-stimulus-presentation-old","85","505122","0.0-23.0-1.2","SS1619739838302","trial","","40","500","526.1099999988801","images/stimuli/spore_stims/complex_05_A_a.gif","images/stimuli/spore_stims/complex_07_A_b.gif","self_paced","","7","complex_dissimilar","images/stimuli/spore_stims/complex_07_A_b.gif","","","","",""
"","null","html-keyboard-response","86","506229","0.0-23.0-0.3","SS1619739838302","","","null","","","","","","<p><img src= images/blank.png width =""600"" height = ""600"" style=""position:fixed;top:50%; left:50%; transform: translate(-50%, -50%); border:5px solid black"">","","","","","","","",""
"","397.46999999985565","sequential-stimulus-presentation-old","87","507130","0.0-23.0-1.3","SS1619739838302","trial","","40","500","897.4699999998556","images/stimuli/spore_stims/complex_05_A_a.gif","images/stimuli/spore_stims/complex_07_A_b.gif","self_paced","","7","complex_dissimilar","images/stimuli/spore_stims/complex_07_A_b.gif","","","","",""
"","null","html-keyboard-response","88","508418","0.0-23.0-0.4","SS1619739838302","","","null","","","","","","<p><img src= images/blank.png width =""600"" height = ""600"" style=""position:fixed;top:50%; left:50%; transform: translate(-50%, -50%); border:5px solid black"">","","","","","","","",""
"","216.71000000060303","sequential-stimulus-presentation-old","89","509138","0.0-23.0-1.4","SS1619739838302","trial","","40","500","716.710000000603","images/stimuli/spore_stims/complex_05_A_a.gif","images/stimuli/spore_stims/complex_07_A_b.gif","self_paced","","7","complex_dissimilar","images/stimuli/spore_stims/complex_07_A_b.gif","","","","",""
"","null","html-keyboard-response","90","510417","0.0-23.0-0.5","SS1619739838302","","","null","","","","","","<p><img src= images/blank.png width =""600"" height = ""600"" style=""position:fixed;top:50%; left:50%; transform: translate(-50%, -50%); border:5px solid black"">","","","","","","","",""
"","552.8149999991292","sequential-stimulus-presentation-old","91","511474","0.0-23.0-1.5","SS1619739838302","trial","","40","500","1052.8149999991292","images/stimuli/spore_stims/complex_05_A_a.gif","images/stimuli/spore_stims/complex_07_A_b.gif","self_paced","","7","complex_dissimilar","images/stimuli/spore_stims/complex_07_A_b.gif","","","","",""
"","3853.3300000017043","survey-multi-choice","92","515330","0.0-24.0","SS1619739838302","math_question","","","","","","","","","","","","{""Q0"":""12""}","[0]","12","",""
"","null","html-keyboard-response","93","516621","0.0-25.0-0.0","SS1619739838302","","","null","","","","","","<p><img src= images/blank.png width =""600"" height = ""600"" style=""position:fixed;top:50%; left:50%; transform: translate(-50%, -50%); border:5px solid black"">","","","","","","","",""
"","5026.480000000447","sequential-stimulus-presentation-old","94","536651","0.0-25.0-1.0","SS1619739838302","trial","","40","500","5526.480000000447","images/stimuli/spore_stims/complex_07_A_a.gif","images/stimuli/spore_stims/complex_09_A_b.gif","forced_long","","8","complex_dissimilar","images/stimuli/spore_stims/complex_09_A_b.gif","","","","",""
"","null","html-keyboard-response","95","537576","0.0-25.0-0.1","SS1619739838302","","","null","","","","","","<p><img src= images/blank.png width =""600"" height = ""600"" style=""position:fixed;top:50%; left:50%; transform: translate(-50%, -50%); border:5px solid black"">","","","","","","","",""
"","1776.4250000000466","sequential-stimulus-presentation-old","96","539858","0.0-25.0-1.1","SS1619739838302","trial","","40","500","2276.4250000000466","images/stimuli/spore_stims/complex_07_A_a.gif","images/stimuli/spore_stims/complex_09_A_b.gif","forced_long","","8","complex_dissimilar","images/stimuli/spore_stims/complex_09_A_b.gif","","","","",""
"","null","html-keyboard-response","97","541021","0.0-25.0-0.2","SS1619739838302","","","null","","","","","","<p><img src= images/blank.png width =""600"" height = ""600"" style=""position:fixed;top:50%; left:50%; transform: translate(-50%, -50%); border:5px solid black"">","","","","","","","",""
"","2330.0899999995017","sequential-stimulus-presentation-old","98","543858","0.0-25.0-1.2","SS1619739838302","trial","","40","500","2830.0899999995017","images/stimuli/spore_stims/complex_07_A_a.gif","images/stimuli/spore_stims/complex_09_A_b.gif","forced_long","","8","complex_dissimilar","images/stimuli/spore_stims/complex_09_A_b.gif","","","","",""
"","null","html-keyboard-response","99","544890","0.0-25.0-0.3","SS1619739838302","","","null","","","","","","<p><img src= images/blank.png width =""600"" height = ""600"" style=""position:fixed;top:50%; left:50%; transform: translate(-50%, -50%); border:5px solid black"">","","","","","","","",""
"","3462.5950000009034","sequential-stimulus-presentation-old","100","548858","0.0-25.0-1.3","SS1619739838302","trial","","40","500","3962.5950000009034","images/stimuli/spore_stims/complex_07_A_a.gif","images/stimuli/spore_stims/complex_09_A_b.gif","forced_long","","8","complex_dissimilar","images/stimuli/spore_stims/complex_09_A_b.gif","","","","",""
"","null","html-keyboard-response","101","549924","0.0-25.0-0.4","SS1619739838302","","","null","","","","","","<p><img src= images/blank.png width =""600"" height = ""600"" style=""position:fixed;top:50%; left:50%; transform: translate(-50%, -50%); border:5px solid black"">","","","","","","","",""
"","4837.325000000419","sequential-stimulus-presentation-old","102","555266","0.0-25.0-1.4","SS1619739838302","trial","","40","500","5337.325000000419","images/stimuli/spore_stims/complex_07_A_a.gif","images/stimuli/spore_stims/complex_09_A_b.gif","forced_long","","8","complex_dissimilar","images/stimuli/spore_stims/complex_09_A_b.gif","","","","",""
"","3237.1449999990873","survey-multi-choice","103","558507","0.0-26.0","SS1619739838302","math_question","","","","","","","","","","","","{""Q0"":""8""}","[0]","8","",""
"","null","html-keyboard-response","104","559563","0.0-27.0-0.0","SS1619739838302","","","null","","","","","","<p><img src= images/blank.png width =""600"" height = ""600"" style=""position:fixed;top:50%; left:50%; transform: translate(-50%, -50%); border:5px solid black"">","","","","","","","",""
"","5318.950000000768","sequential-stimulus-presentation-old","105","565386","0.0-27.0-1.0","SS1619739838302","trial","","40","500","5818.950000000768","images/stimuli/spore_stims/simple_11_A_a.gif","images/stimuli/spore_stims/simple_01_A_b.gif","self_paced","","9","simple_dissimilar","images/stimuli/spore_stims/simple_01_A_b.gif","","","","",""
"","null","html-keyboard-response","106","566318","0.0-27.0-0.1","SS1619739838302","","","null","","","","","","<p><img src= images/blank.png width =""600"" height = ""600"" style=""position:fixed;top:50%; left:50%; transform: translate(-50%, -50%); border:5px solid black"">","","","","","","","",""
"","9371.720000002766","sequential-stimulus-presentation-old","107","576195","0.0-27.0-1.1","SS1619739838302","trial","","40","500","9871.720000002766","images/stimuli/spore_stims/simple_11_A_a.gif","images/stimuli/spore_stims/simple_01_A_b.gif","self_paced","","9","simple_dissimilar","images/stimuli/spore_stims/simple_01_A_b.gif","","","","",""
"","null","html-keyboard-response","108","577472","0.0-27.0-0.2","SS1619739838302","","","null","","","","","","<p><img src= images/blank.png width =""600"" height = ""600"" style=""position:fixed;top:50%; left:50%; transform: translate(-50%, -50%); border:5px solid black"">","","","","","","","",""
"","529.2599999994272","sequential-stimulus-presentation-old","109","578507","0.0-27.0-1.2","SS1619739838302","trial","","40","500","1029.2599999994272","images/stimuli/spore_stims/simple_11_A_a.gif","images/stimuli/spore_stims/simple_01_A_b.gif","self_paced","","9","simple_dissimilar","images/stimuli/spore_stims/simple_01_A_b.gif","","","","",""
"","null","html-keyboard-response","110","579494","0.0-27.0-0.3","SS1619739838302","","","null","","","","","","<p><img src= images/blank.png width =""600"" height = ""600"" style=""position:fixed;top:50%; left:50%; transform: translate(-50%, -50%); border:5px solid black"">","","","","","","","",""
"","1625.9350000000559","sequential-stimulus-presentation-old","111","581625","0.0-27.0-1.3","SS1619739838302","trial","","40","500","2125.935000000056","images/stimuli/spore_stims/simple_11_A_a.gif","images/stimuli/spore_stims/simple_01_A_b.gif","self_paced","","9","simple_dissimilar","images/stimuli/spore_stims/simple_01_A_b.gif","","","","",""
"","4044.9850000004517","survey-multi-choice","112","585674","0.0-28.0","SS1619739838302","math_question","","","","","","","","","","","","{""Q0"":""11""}","[0]","11","",""
"","null","html-keyboard-response","113","586861","0.0-29.0-0.0","SS1619739838302","","","null","","","","","","<p><img src= images/blank.png width =""600"" height = ""600"" style=""position:fixed;top:50%; left:50%; transform: translate(-50%, -50%); border:5px solid black"">","","","","","","","",""
"","1372.1399999995483","sequential-stimulus-presentation-old","114","588738","0.0-29.0-1.0","SS1619739838302","trial","","40","500","1872.1399999995483","images/stimuli/spore_stims/simple_08_A_b.gif","images/stimuli/spore_stims/simple_05_A_a.gif","forced_short","","10","simple_dissimilar","images/stimuli/spore_stims/simple_05_A_a.gif","","","","",""
"","null","html-keyboard-response","115","589570","0.0-29.0-0.1","SS1619739838302","","","null","","","","","","<p><img src= images/blank.png width =""600"" height = ""600"" style=""position:fixed;top:50%; left:50%; transform: translate(-50%, -50%); border:5px solid black"">","","","","","","","",""
"","445.9999999998836","sequential-stimulus-presentation-old","116","590522","0.0-29.0-1.1","SS1619739838302","trial","","40","500","945.9999999998836","images/stimuli/spore_stims/simple_08_A_b.gif","images/stimuli/spore_stims/simple_05_A_a.gif","forced_short","","10","simple_dissimilar","images/stimuli/spore_stims/simple_05_A_a.gif","","","","",""
"","null","html-keyboard-response","117","591506","0.0-29.0-0.2","SS1619739838302","","","null","","","","","","<p><img src= images/blank.png width =""600"" height = ""600"" style=""position:fixed;top:50%; left:50%; transform: translate(-50%, -50%); border:5px solid black"">","","","","","","","",""
"","1719.9650000002002","sequential-stimulus-presentation-old","118","593729","0.0-29.0-1.2","SS1619739838302","trial","","40","500","2219.9650000002002","images/stimuli/spore_stims/simple_08_A_b.gif","images/stimuli/spore_stims/simple_05_A_a.gif","forced_short","","10","simple_dissimilar","images/stimuli/spore_stims/simple_08_A_b.gif","","","","",""
"","null","html-keyboard-response","119","594679","0.0-29.0-0.3","SS1619739838302","","","null","","","","","","<p><img src= images/blank.png width =""600"" height = ""600"" style=""position:fixed;top:50%; left:50%; transform: translate(-50%, -50%); border:5px solid black"">","","","","","","","",""
"","5290.369999998831","sequential-stimulus-presentation-old","120","600473","0.0-29.0-1.3","SS1619739838302","trial","","40","500","5790.369999998831","images/stimuli/spore_stims/simple_08_A_b.gif","images/stimuli/spore_stims/simple_05_A_a.gif","forced_short","","10","simple_dissimilar","images/stimuli/spore_stims/simple_08_A_b.gif","","","","",""
"","4149.474999998347","survey-multi-choice","121","604626","0.0-30.0","SS1619739838302","math_question","","","","","","","","","","","","{""Q0"":""12""}","[0]","12","",""
"","null","html-keyboard-response","122","605515","0.0-31.0-0.0","SS1619739838302","","","null","","","","","","<p><img src= images/blank.png width =""600"" height = ""600"" style=""position:fixed;top:50%; left:50%; transform: translate(-50%, -50%); border:5px solid black"">","","","","","","","",""
"","2175.4150000015507","sequential-stimulus-presentation-old","123","608195","0.0-31.0-1.0","SS1619739838302","trial","","40","500","2675.4150000015507","images/stimuli/spore_stims/simple_20_A_a.gif","images/stimuli/spore_stims/simple_15_A_b.gif","self_paced","","11","simple_dissimilar","images/stimuli/spore_stims/simple_15_A_b.gif","","","","",""
"","null","html-keyboard-response","124","609060","0.0-31.0-0.1","SS1619739838302","","","null","","","","","","<p><img src= images/blank.png width =""600"" height = ""600"" style=""position:fixed;top:50%; left:50%; transform: translate(-50%, -50%); border:5px solid black"">","","","","","","","",""
"","44.17500000272412","sequential-stimulus-presentation-old","125","609609","0.0-31.0-1.1","SS1619739838302","trial","","40","500","544.1750000027241","images/stimuli/spore_stims/simple_20_A_a.gif","images/stimuli/spore_stims/simple_15_A_b.gif","self_paced","","11","simple_dissimilar","images/stimuli/spore_stims/simple_15_A_b.gif","","","","",""
"","null","html-keyboard-response","126","610655","0.0-31.0-0.2","SS1619739838302","","","null","","","","","","<p><img src= images/blank.png width =""600"" height = ""600"" style=""position:fixed;top:50%; left:50%; transform: translate(-50%, -50%); border:5px solid black"">","","","","","","","",""
"","3020.394999999553","sequential-stimulus-presentation-old","127","614185","0.0-31.0-1.2","SS1619739838302","trial","","40","500","3520.394999999553","images/stimuli/spore_stims/simple_20_A_a.gif","images/stimuli/spore_stims/simple_15_A_b.gif","self_paced","","11","simple_dissimilar","images/stimuli/spore_stims/simple_15_A_b.gif","","","","",""
"","null","html-keyboard-response","128","615056","0.0-31.0-0.3","SS1619739838302","","","null","","","","","","<p><img src= images/blank.png width =""600"" height = ""600"" style=""position:fixed;top:50%; left:50%; transform: translate(-50%, -50%); border:5px solid black"">","","","","","","","",""
"","105.42999999970198","sequential-stimulus-presentation-old","129","615666","0.0-31.0-1.3","SS1619739838302","trial","","40","500","605.429999999702","images/stimuli/spore_stims/simple_20_A_a.gif","images/stimuli/spore_stims/simple_15_A_b.gif","self_paced","","11","simple_dissimilar","images/stimuli/spore_stims/simple_15_A_b.gif","","","","",""
"","null","html-keyboard-response","130","616725","0.0-31.0-0.4","SS1619739838302","","","null","","","","","","<p><img src= images/blank.png width =""600"" height = ""600"" style=""position:fixed;top:50%; left:50%; transform: translate(-50%, -50%); border:5px solid black"">","","","","","","","",""
"","299.93499999912456","sequential-stimulus-presentation-old","131","617529","0.0-31.0-1.4","SS1619739838302","trial","","40","500","799.9349999991246","images/stimuli/spore_stims/simple_20_A_a.gif","images/stimuli/spore_stims/simple_15_A_b.gif","self_paced","","11","simple_dissimilar","images/stimuli/spore_stims/simple_20_A_a.gif","","","","",""
"[{""page_index"":0,""viewing_time"":5957.370000000112}]","5957.689999999246","instructions","132","623489","0.0-32.0","SS1619739838302","instructions","","","","","","","","","","","","","","","",""
"","10988.984999999986","survey-likert","133","634483","0.0-33.0","SS1619739838302","similarity_question","","","","","","","","","","","","{""Q0"":1}","[0]","","images/stimuli/spore_stims/simple_15_A_b.gif","images/stimuli/spore_stims/simple_20_A_a.gif"
"","7914.345000001136","survey-likert","134","642402","0.0-34.0","SS1619739838302","similarity_question","","","","","","","","","","","","{""Q0"":2}","[0]","","images/stimuli/spore_stims/complex_14_A_a.gif","images/stimuli/spore_stims/complex_18_A_b.gif"
"","8475.859999998589","survey-likert","135","650882","0.0-35.0","SS1619739838302","similarity_question","","","","","","","","","","","","{""Q0"":3}","[0]","","images/stimuli/spore_stims/complex_09_A_b.gif","images/stimuli/spore_stims/complex_07_A_a.gif"
"","10130.525000000489","survey-likert","136","661018","0.0-36.0","SS1619739838302","similarity_question","","","","","","","","","","","","{""Q0"":4}","[0]","","images/stimuli/spore_stims/simple_11_A_a.gif","images/stimuli/spore_stims/simple_01_A_b.gif"
"","4772.300000000512","survey-likert","137","665794","0.0-37.0","SS1619739838302","similarity_question","","","","","","","","","","","","{""Q0"":0}","[0]","","images/stimuli/spore_stims/complex_05_A_a.gif","images/stimuli/spore_stims/complex_07_A_b.gif"
"","3947.874999998021","survey-likert","138","669746","0.0-38.0","SS1619739838302","similarity_question","","","","","","","","","","","","{""Q0"":4}","[0]","","images/stimuli/spore_stims/simple_04_A_a.gif","images/stimuli/spore_stims/simple_09_A_b.gif"
"","3635.940000000177","survey-likert","139","673386","0.0-39.0","SS1619739838302","similarity_question","","","","","","","","","","","","{""Q0"":4}","[0]","","images/stimuli/spore_stims/simple_12_A_a.gif","images/stimuli/spore_stims/simple_14_A_b.gif"
"","2595.0700000029756","survey-likert","140","675986","0.0-40.0","SS1619739838302","similarity_question","","","","","","","","","","","","{""Q0"":1}","[0]","","images/stimuli/spore_stims/simple_02_A_a.gif","images/stimuli/spore_stims/simple_11_A_b.gif"
"","4386.114999997546","survey-likert","141","680378","0.0-41.0","SS1619739838302","similarity_question","","","","","","","","","","","","{""Q0"":4}","[0]","","images/stimuli/spore_stims/simple_05_A_a.gif","images/stimuli/spore_stims/simple_08_A_b.gif"
"","4739.30499999912","survey-likert","142","685122","0.0-42.0","SS1619739838302","similarity_question","","","","","","","","","","","","{""Q0"":4}","[0]","","images/stimuli/spore_stims/complex_19_A_a.gif","images/stimuli/spore_stims/complex_10_A_b.gif"
"","3339.960000001127","survey-likert","143","688465","0.0-43.0","SS1619739838302","similarity_question","","","","","","","","","","","","{""Q0"":0}","[0]","","images/stimuli/spore_stims/complex_01_A_b.gif","images/stimuli/spore_stims/complex_17_A_a.gif"
"","3114.5949999990407","survey-likert","144","691586","0.0-44.0","SS1619739838302","similarity_question","","","","","","","","","","","","{""Q0"":1}","[0]","","images/stimuli/spore_stims/complex_02_A_a.gif","images/stimuli/spore_stims/complex_08_A_b.gif"
"[{""page_index"":0,""viewing_time"":6651.494999998249}]","6651.924999998184","instructions","145","698242","0.0-45.0","SS1619739838302","instructions","","","","","","","","","","","","","","","",""
"","6316.025000000023","survey-likert","146","704562","0.0-46.0","SS1619739838302","","","","","","","","","images/stimuli/spore_stims/complex_08_A_b.gif","","","","{""Q0"":4}","[0]","","",""
"","2467.259999997681","survey-likert","147","707033","0.0-47.0","SS1619739838302","","","","","","","","","images/stimuli/spore_stims/simple_05_A_a.gif","","","","{""Q0"":1}","[0]","","",""
"","1906.8799999986077","survey-likert","148","708946","0.0-48.0","SS1619739838302","","","","","","","","","images/stimuli/spore_stims/complex_17_A_a.gif","","","","{""Q0"":6}","[0]","","",""
"","2011.3050000000512","survey-likert","149","710961","0.0-49.0","SS1619739838302","","","","","","","","","images/stimuli/spore_stims/complex_18_A_b.gif","","","","{""Q0"":6}","[0]","","",""
"","1732.2400000011548","survey-likert","150","712697","0.0-50.0","SS1619739838302","","","","","","","","","images/stimuli/spore_stims/complex_07_A_a.gif","","","","{""Q0"":6}","[0]","","",""
"","5171.384999997797","survey-likert","151","717873","0.0-51.0","SS1619739838302","","","","","","","","","images/stimuli/spore_stims/simple_11_A_a.gif","","","","{""Q0"":2}","[0]","","",""
"","4508.864999999758","survey-likert","152","722386","0.0-52.0","SS1619739838302","","","","","","","","","images/stimuli/spore_stims/simple_20_A_a.gif","","","","{""Q0"":3}","[0]","","",""
"","5466.174999997835","survey-likert","153","727859","0.0-53.0","SS1619739838302","","","","","","","","","images/stimuli/spore_stims/simple_04_A_a.gif","","","","{""Q0"":2}","[0]","","",""
"","2650.9449999976205","survey-likert","154","730514","0.0-54.0","SS1619739838302","","","","","","","","","images/stimuli/spore_stims/complex_07_A_b.gif","","","","{""Q0"":6}","[0]","","",""
"","2522.099999998347","survey-likert","155","733042","0.0-55.0","SS1619739838302","","","","","","","","","images/stimuli/spore_stims/simple_02_A_a.gif","","","","{""Q0"":0}","[0]","","",""
"","2082.5000000004657","survey-likert","156","735130","0.0-56.0","SS1619739838302","","","","","","","","","images/stimuli/spore_stims/simple_14_A_b.gif","","","","{""Q0"":0}","[0]","","",""
"","2379.624999997788","survey-likert","157","737514","0.0-57.0","SS1619739838302","","","","","","","","","images/stimuli/spore_stims/complex_10_A_b.gif","","","","{""Q0"":6}","[0]","","",""
"[{""page_index"":0,""viewing_time"":3251.029999999446}]","3251.380000001518","instructions","158","740769","0.0-58.0","SS1619739838302","instructions","","","","","","","","","","","","","","","",""
"","3179.7850000002654","demog-age","159","743954","0.0-59.0","SS1619739838302","","","","","","","","","","","","","{""age"":""23""}","","","",""
"","5289.1949999976205","demog-ethnic-US","160","749251","0.0-60.0","SS1619739838302","","","","","","","","","","","","","{""ethnicity"":[""Hispanic or Latino""]}","[0]","","",""
"","7874.589999999385","demog-gender-and-education","161","757130","0.0-61.0","SS1619739838302","","","","","","","","","","","","","{""gender"":""Female"",""education"":""Bachelor's Degree""}","[0,1]","","",""
"","46376.09499999962","survey-text","162","803513","0.0-62.0","SS1619739838302","feedback","","","","","","","","","","","","{""Q0"":""Ninguno, solo son demasiadas extrañas las animaciones.""}","","","",""
"[{""page_index"":0,""viewing_time"":1851.4150000009686}]","1851.8949999997858","instructions","163","805370","0.0-63.0","SS1619739838302","instructions","","","","","","","","","","","","","","","",""
