"view_history","rt","trial_type","trial_index","time_elapsed","internal_node_id","subject","stimulus_type","trial_stimulus","key_press","minimum_viewing_duration","trial_looking_time","block_deviant","block_background","exposure_type","stimulus","block_number","block_type","stimulus_displayed","responses","question_order","math_correct_answer","stimulus_left","stimulus_right"
"[{""page_index"":0,""viewing_time"":5415.915000005043}]","5416.555000003427","instructions","0","5418","0.0-0.0","SS1619739965907","","","","","","","","","","","","","","","","",""
"[{""page_index"":0,""viewing_time"":18435.855000003357},{""page_index"":1,""viewing_time"":6448.850000000675}]","24884.86499999999","instructions","1","32311","0.0-1.0","SS1619739965907","instructions","","","","","","","","","","","","","","","",""
"","7842.464999994263","sequential-stimulus-presentation-old","2","40656","0.0-2.0","SS1619739965907","","","40","500","8342.464999994263","null","null","self_paced","","","","","","","","",""
"","4404.710000002524","sequential-stimulus-presentation-old","3","45563","0.0-3.0","SS1619739965907","","","40","500","4904.710000002524","null","null","self_paced","","","","","","","","",""
"[{""page_index"":0,""viewing_time"":226555.260000001}]","226555.50999999832","instructions","4","272120","0.0-4.0","SS1619739965907","instructions","","","","","","","","","","","","","","","",""
"","1525.595000006433","sequential-stimulus-presentation-old","5","288648","0.0-5.0","SS1619739965907","","","40","500","2025.595000006433","null","null","forced_long","","","","","","","","",""
"","2313.3449999950244","sequential-stimulus-presentation-old","6","291466","0.0-6.0","SS1619739965907","","","40","500","2813.3449999950244","null","null","forced_long","","","","","","","","",""
"[{""page_index"":0,""viewing_time"":5516.385000002629}]","5516.524999999092","instructions","7","296983","0.0-7.0","SS1619739965907","instructions","","","","","","","","","","","","","","","",""
"[{""page_index"":0,""viewing_time"":11801.274999997986},{""page_index"":1,""viewing_time"":14981.790000005276},{""page_index"":2,""viewing_time"":8291.534999996657},{""page_index"":3,""viewing_time"":2368.22000000393},{""page_index"":4,""viewing_time"":1252.1449999985634}]","38695.15500000125","instructions","8","335679","0.0-8.0","SS1619739965907","instructions","","","","","","","","","","","","","","","",""
"","null","html-keyboard-response","9","336734","0.0-9.0-0.0","SS1619739965907","","","null","","","","","","<p><img src= images/blank.png width =""600"" height = ""600"" style=""position:fixed;top:50%; left:50%; transform: translate(-50%, -50%); border:5px solid black"">","","","","","","","",""
"","4153.764999995474","sequential-stimulus-presentation-old","10","341390","0.0-9.0-1.0","SS1619739965907","trial","","40","500","4653.764999995474","images/stimuli/spore_stims/complex_15_A_a.gif","images/stimuli/spore_stims/complex_13_A_b.gif","self_paced","","0","complex_dissimilar","images/stimuli/spore_stims/complex_13_A_b.gif","","","","",""
"","null","html-keyboard-response","11","342322","0.0-9.0-0.1","SS1619739965907","","","null","","","","","","<p><img src= images/blank.png width =""600"" height = ""600"" style=""position:fixed;top:50%; left:50%; transform: translate(-50%, -50%); border:5px solid black"">","","","","","","","",""
"","5106.769999998505","sequential-stimulus-presentation-old","12","347940","0.0-9.0-1.1","SS1619739965907","trial","","40","500","5606.769999998505","images/stimuli/spore_stims/complex_15_A_a.gif","images/stimuli/spore_stims/complex_13_A_b.gif","self_paced","","0","complex_dissimilar","images/stimuli/spore_stims/complex_13_A_b.gif","","","","",""
"","null","html-keyboard-response","13","349017","0.0-9.0-0.2","SS1619739965907","","","null","","","","","","<p><img src= images/blank.png width =""600"" height = ""600"" style=""position:fixed;top:50%; left:50%; transform: translate(-50%, -50%); border:5px solid black"">","","","","","","","",""
"","2736.3249999980326","sequential-stimulus-presentation-old","14","352258","0.0-9.0-1.2","SS1619739965907","trial","","40","500","3236.3249999980326","images/stimuli/spore_stims/complex_15_A_a.gif","images/stimuli/spore_stims/complex_13_A_b.gif","self_paced","","0","complex_dissimilar","images/stimuli/spore_stims/complex_13_A_b.gif","","","","",""
"","null","html-keyboard-response","15","353106","0.0-9.0-0.3","SS1619739965907","","","null","","","","","","<p><img src= images/blank.png width =""600"" height = ""600"" style=""position:fixed;top:50%; left:50%; transform: translate(-50%, -50%); border:5px solid black"">","","","","","","","",""
"","4052.929999998014","sequential-stimulus-presentation-old","16","357662","0.0-9.0-1.3","SS1619739965907","trial","","40","500","4552.929999998014","images/stimuli/spore_stims/complex_15_A_a.gif","images/stimuli/spore_stims/complex_13_A_b.gif","self_paced","","0","complex_dissimilar","images/stimuli/spore_stims/complex_15_A_a.gif","","","","",""
"","3555.9100000027684","survey-multi-choice","17","361220","0.0-10.0","SS1619739965907","math_question","","","","","","","","","","","","{""Q0"":""11""}","[0]","11","",""
"","null","html-keyboard-response","18","362469","0.0-11.0-0.0","SS1619739965907","","","null","","","","","","<p><img src= images/blank.png width =""600"" height = ""600"" style=""position:fixed;top:50%; left:50%; transform: translate(-50%, -50%); border:5px solid black"">","","","","","","","",""
"","804.8200000048382","sequential-stimulus-presentation-old","19","378278","0.0-11.0-1.0","SS1619739965907","trial","","40","500","1304.8200000048382","images/stimuli/spore_stims/complex_02_A_a.gif","images/stimuli/spore_stims/complex_08_A_b.gif","forced_long","","1","complex_dissimilar","images/stimuli/spore_stims/complex_08_A_b.gif","","","","",""
"","null","html-keyboard-response","20","379460","0.0-11.0-0.1","SS1619739965907","","","null","","","","","","<p><img src= images/blank.png width =""600"" height = ""600"" style=""position:fixed;top:50%; left:50%; transform: translate(-50%, -50%); border:5px solid black"">","","","","","","","",""
"","1140.9550000025774","sequential-stimulus-presentation-old","21","381102","0.0-11.0-1.1","SS1619739965907","trial","","40","500","1640.9550000025774","images/stimuli/spore_stims/complex_02_A_a.gif","images/stimuli/spore_stims/complex_08_A_b.gif","forced_long","","1","complex_dissimilar","images/stimuli/spore_stims/complex_08_A_b.gif","","","","",""
"","null","html-keyboard-response","22","382403","0.0-11.0-0.2","SS1619739965907","","","null","","","","","","<p><img src= images/blank.png width =""600"" height = ""600"" style=""position:fixed;top:50%; left:50%; transform: translate(-50%, -50%); border:5px solid black"">","","","","","","","",""
"","595.9399999992456","sequential-stimulus-presentation-old","23","383502","0.0-11.0-1.2","SS1619739965907","trial","","40","500","1095.9399999992456","images/stimuli/spore_stims/complex_02_A_a.gif","images/stimuli/spore_stims/complex_08_A_b.gif","forced_long","","1","complex_dissimilar","images/stimuli/spore_stims/complex_08_A_b.gif","","","","",""
"","null","html-keyboard-response","24","384397","0.0-11.0-0.3","SS1619739965907","","","null","","","","","","<p><img src= images/blank.png width =""600"" height = ""600"" style=""position:fixed;top:50%; left:50%; transform: translate(-50%, -50%); border:5px solid black"">","","","","","","","",""
"","1978.3650000026682","sequential-stimulus-presentation-old","25","386881","0.0-11.0-1.3","SS1619739965907","trial","","40","500","2478.3650000026682","images/stimuli/spore_stims/complex_02_A_a.gif","images/stimuli/spore_stims/complex_08_A_b.gif","forced_long","","1","complex_dissimilar","images/stimuli/spore_stims/complex_08_A_b.gif","","","","",""
"","null","html-keyboard-response","26","387990","0.0-11.0-0.4","SS1619739965907","","","null","","","","","","<p><img src= images/blank.png width =""600"" height = ""600"" style=""position:fixed;top:50%; left:50%; transform: translate(-50%, -50%); border:5px solid black"">","","","","","","","",""
"","3326.0000000009313","sequential-stimulus-presentation-old","27","391818","0.0-11.0-1.4","SS1619739965907","trial","","40","500","3826.0000000009313","images/stimuli/spore_stims/complex_02_A_a.gif","images/stimuli/spore_stims/complex_08_A_b.gif","forced_long","","1","complex_dissimilar","images/stimuli/spore_stims/complex_02_A_a.gif","","","","",""
"","4151.999999994587","survey-multi-choice","28","395971","0.0-12.0","SS1619739965907","math_question","","","","","","","","","","","","{""Q0"":""12""}","[0]","12","",""
"","null","html-keyboard-response","29","397132","0.0-13.0-0.0","SS1619739965907","","","null","","","","","","<p><img src= images/blank.png width =""600"" height = ""600"" style=""position:fixed;top:50%; left:50%; transform: translate(-50%, -50%); border:5px solid black"">","","","","","","","",""
"","3392.3549999963143","sequential-stimulus-presentation-old","30","401027","0.0-13.0-1.0","SS1619739965907","trial","","40","500","3892.3549999963143","images/stimuli/spore_stims/complex_05_A_b.gif","images/stimuli/spore_stims/complex_18_A_a.gif","self_paced","","2","complex_dissimilar","images/stimuli/spore_stims/complex_18_A_a.gif","","","","",""
"","null","html-keyboard-response","31","402113","0.0-13.0-0.1","SS1619739965907","","","null","","","","","","<p><img src= images/blank.png width =""600"" height = ""600"" style=""position:fixed;top:50%; left:50%; transform: translate(-50%, -50%); border:5px solid black"">","","","","","","","",""
"","1541.2600000054226","sequential-stimulus-presentation-old","32","404156","0.0-13.0-1.1","SS1619739965907","trial","","40","500","2041.2600000054226","images/stimuli/spore_stims/complex_05_A_b.gif","images/stimuli/spore_stims/complex_18_A_a.gif","self_paced","","2","complex_dissimilar","images/stimuli/spore_stims/complex_18_A_a.gif","","","","",""
"","null","html-keyboard-response","33","404981","0.0-13.0-0.2","SS1619739965907","","","null","","","","","","<p><img src= images/blank.png width =""600"" height = ""600"" style=""position:fixed;top:50%; left:50%; transform: translate(-50%, -50%); border:5px solid black"">","","","","","","","",""
"","4166.749999996682","sequential-stimulus-presentation-old","34","409650","0.0-13.0-1.2","SS1619739965907","trial","","40","500","4666.749999996682","images/stimuli/spore_stims/complex_05_A_b.gif","images/stimuli/spore_stims/complex_18_A_a.gif","self_paced","","2","complex_dissimilar","images/stimuli/spore_stims/complex_05_A_b.gif","","","","",""
"","null","html-keyboard-response","35","410845","0.0-13.0-0.3","SS1619739965907","","","null","","","","","","<p><img src= images/blank.png width =""600"" height = ""600"" style=""position:fixed;top:50%; left:50%; transform: translate(-50%, -50%); border:5px solid black"">","","","","","","","",""
"","3893.6850000027334","sequential-stimulus-presentation-old","36","415241","0.0-13.0-1.3","SS1619739965907","trial","","40","500","4393.685000002733","images/stimuli/spore_stims/complex_05_A_b.gif","images/stimuli/spore_stims/complex_18_A_a.gif","self_paced","","2","complex_dissimilar","images/stimuli/spore_stims/complex_18_A_a.gif","","","","",""
"","null","html-keyboard-response","37","416266","0.0-13.0-0.4","SS1619739965907","","","null","","","","","","<p><img src= images/blank.png width =""600"" height = ""600"" style=""position:fixed;top:50%; left:50%; transform: translate(-50%, -50%); border:5px solid black"">","","","","","","","",""
"","2363.3199999967474","sequential-stimulus-presentation-old","38","419133","0.0-13.0-1.4","SS1619739965907","trial","","40","500","2863.3199999967474","images/stimuli/spore_stims/complex_05_A_b.gif","images/stimuli/spore_stims/complex_18_A_a.gif","self_paced","","2","complex_dissimilar","images/stimuli/spore_stims/complex_18_A_a.gif","","","","",""
"","null","html-keyboard-response","39","420360","0.0-13.0-0.5","SS1619739965907","","","null","","","","","","<p><img src= images/blank.png width =""600"" height = ""600"" style=""position:fixed;top:50%; left:50%; transform: translate(-50%, -50%); border:5px solid black"">","","","","","","","",""
"","2936.2249999976484","sequential-stimulus-presentation-old","40","423807","0.0-13.0-1.5","SS1619739965907","trial","","40","500","3436.2249999976484","images/stimuli/spore_stims/complex_05_A_b.gif","images/stimuli/spore_stims/complex_18_A_a.gif","self_paced","","2","complex_dissimilar","images/stimuli/spore_stims/complex_18_A_a.gif","","","","",""
"","6852.340000004915","survey-multi-choice","41","430661","0.0-14.0","SS1619739965907","math_question","","","","","","","","","","","","{""Q0"":""13""}","[0]","13","",""
"","null","html-keyboard-response","42","431510","0.0-15.0-0.0","SS1619739965907","","","null","","","","","","<p><img src= images/blank.png width =""600"" height = ""600"" style=""position:fixed;top:50%; left:50%; transform: translate(-50%, -50%); border:5px solid black"">","","","","","","","",""
"","9045.109999999113","sequential-stimulus-presentation-old","43","455558","0.0-15.0-1.0","SS1619739965907","trial","","40","500","9545.109999999113","images/stimuli/spore_stims/simple_15_A_b.gif","images/stimuli/spore_stims/simple_20_A_a.gif","forced_long","","3","simple_dissimilar","images/stimuli/spore_stims/simple_20_A_a.gif","","","","",""
"","null","html-keyboard-response","44","456423","0.0-15.0-0.1","SS1619739965907","","","null","","","","","","<p><img src= images/blank.png width =""600"" height = ""600"" style=""position:fixed;top:50%; left:50%; transform: translate(-50%, -50%); border:5px solid black"">","","","","","","","",""
"","575.1600000003236","sequential-stimulus-presentation-old","45","457510","0.0-15.0-1.1","SS1619739965907","trial","","40","500","1075.1600000003236","images/stimuli/spore_stims/simple_15_A_b.gif","images/stimuli/spore_stims/simple_20_A_a.gif","forced_long","","3","simple_dissimilar","images/stimuli/spore_stims/simple_15_A_b.gif","","","","",""
"","null","html-keyboard-response","46","458798","0.0-15.0-0.2","SS1619739965907","","","null","","","","","","<p><img src= images/blank.png width =""600"" height = ""600"" style=""position:fixed;top:50%; left:50%; transform: translate(-50%, -50%); border:5px solid black"">","","","","","","","",""
"","1143.434999998135","sequential-stimulus-presentation-old","47","460443","0.0-15.0-1.2","SS1619739965907","trial","","40","500","1643.434999998135","images/stimuli/spore_stims/simple_15_A_b.gif","images/stimuli/spore_stims/simple_20_A_a.gif","forced_long","","3","simple_dissimilar","images/stimuli/spore_stims/simple_20_A_a.gif","","","","",""
"","null","html-keyboard-response","48","461305","0.0-15.0-0.3","SS1619739965907","","","null","","","","","","<p><img src= images/blank.png width =""600"" height = ""600"" style=""position:fixed;top:50%; left:50%; transform: translate(-50%, -50%); border:5px solid black"">","","","","","","","",""
"","1160.5899999995017","sequential-stimulus-presentation-old","49","462967","0.0-15.0-1.3","SS1619739965907","trial","","40","500","1660.5899999995017","images/stimuli/spore_stims/simple_15_A_b.gif","images/stimuli/spore_stims/simple_20_A_a.gif","forced_long","","3","simple_dissimilar","images/stimuli/spore_stims/simple_15_A_b.gif","","","","",""
"","8858.01999999967","survey-multi-choice","50","471827","0.0-16.0","SS1619739965907","math_question","","","","","","","","","","","","{""Q0"":""3""}","[0]","3","",""
"","null","html-keyboard-response","51","473003","0.0-17.0-0.0","SS1619739965907","","","null","","","","","","<p><img src= images/blank.png width =""600"" height = ""600"" style=""position:fixed;top:50%; left:50%; transform: translate(-50%, -50%); border:5px solid black"">","","","","","","","",""
"","1253.5299999944982","sequential-stimulus-presentation-old","52","474758","0.0-17.0-1.0","SS1619739965907","trial","","40","500","1753.5299999944982","images/stimuli/spore_stims/complex_14_A_a.gif","images/stimuli/spore_stims/complex_01_A_b.gif","forced_short","","4","complex_dissimilar","images/stimuli/spore_stims/complex_01_A_b.gif","","","","",""
"","null","html-keyboard-response","53","475668","0.0-17.0-0.1","SS1619739965907","","","null","","","","","","<p><img src= images/blank.png width =""600"" height = ""600"" style=""position:fixed;top:50%; left:50%; transform: translate(-50%, -50%); border:5px solid black"">","","","","","","","",""
"","809.7199999974691","sequential-stimulus-presentation-old","54","476979","0.0-17.0-1.1","SS1619739965907","trial","","40","500","1309.7199999974691","images/stimuli/spore_stims/complex_14_A_a.gif","images/stimuli/spore_stims/complex_01_A_b.gif","forced_short","","4","complex_dissimilar","images/stimuli/spore_stims/complex_01_A_b.gif","","","","",""
"","null","html-keyboard-response","55","477827","0.0-17.0-0.2","SS1619739965907","","","null","","","","","","<p><img src= images/blank.png width =""600"" height = ""600"" style=""position:fixed;top:50%; left:50%; transform: translate(-50%, -50%); border:5px solid black"">","","","","","","","",""
"","1490.0300000008428","sequential-stimulus-presentation-old","56","479818","0.0-17.0-1.2","SS1619739965907","trial","","40","500","1990.0300000008428","images/stimuli/spore_stims/complex_14_A_a.gif","images/stimuli/spore_stims/complex_01_A_b.gif","forced_short","","4","complex_dissimilar","images/stimuli/spore_stims/complex_14_A_a.gif","","","","",""
"","null","html-keyboard-response","57","480714","0.0-17.0-0.3","SS1619739965907","","","null","","","","","","<p><img src= images/blank.png width =""600"" height = ""600"" style=""position:fixed;top:50%; left:50%; transform: translate(-50%, -50%); border:5px solid black"">","","","","","","","",""
"","1891.4549999972223","sequential-stimulus-presentation-old","58","483108","0.0-17.0-1.3","SS1619739965907","trial","","40","500","2391.4549999972223","images/stimuli/spore_stims/complex_14_A_a.gif","images/stimuli/spore_stims/complex_01_A_b.gif","forced_short","","4","complex_dissimilar","images/stimuli/spore_stims/complex_14_A_a.gif","","","","",""
"","2315.7349999964936","survey-multi-choice","59","485425","0.0-18.0","SS1619739965907","math_question","","","","","","","","","","","","{""Q0"":""16""}","[0]","16","",""
"","null","html-keyboard-response","60","486652","0.0-19.0-0.0","SS1619739965907","","","null","","","","","","<p><img src= images/blank.png width =""600"" height = ""600"" style=""position:fixed;top:50%; left:50%; transform: translate(-50%, -50%); border:5px solid black"">","","","","","","","",""
"","1067.960000000312","sequential-stimulus-presentation-old","61","488222","0.0-19.0-1.0","SS1619739965907","trial","","40","500","1567.960000000312","images/stimuli/spore_stims/simple_13_A_a.gif","images/stimuli/spore_stims/simple_16_A_b.gif","self_paced","","5","simple_dissimilar","images/stimuli/spore_stims/simple_16_A_b.gif","","","","",""
"","null","html-keyboard-response","62","489074","0.0-19.0-0.1","SS1619739965907","","","null","","","","","","<p><img src= images/blank.png width =""600"" height = ""600"" style=""position:fixed;top:50%; left:50%; transform: translate(-50%, -50%); border:5px solid black"">","","","","","","","",""
"","662.7249999946798","sequential-stimulus-presentation-old","63","490240","0.0-19.0-1.1","SS1619739965907","trial","","40","500","1162.7249999946798","images/stimuli/spore_stims/simple_13_A_a.gif","images/stimuli/spore_stims/simple_16_A_b.gif","self_paced","","5","simple_dissimilar","images/stimuli/spore_stims/simple_16_A_b.gif","","","","",""
"","null","html-keyboard-response","64","491121","0.0-19.0-0.2","SS1619739965907","","","null","","","","","","<p><img src= images/blank.png width =""600"" height = ""600"" style=""position:fixed;top:50%; left:50%; transform: translate(-50%, -50%); border:5px solid black"">","","","","","","","",""
"","1395.649999998568","sequential-stimulus-presentation-old","65","493019","0.0-19.0-1.2","SS1619739965907","trial","","40","500","1895.649999998568","images/stimuli/spore_stims/simple_13_A_a.gif","images/stimuli/spore_stims/simple_16_A_b.gif","self_paced","","5","simple_dissimilar","images/stimuli/spore_stims/simple_16_A_b.gif","","","","",""
"","null","html-keyboard-response","66","494247","0.0-19.0-0.3","SS1619739965907","","","null","","","","","","<p><img src= images/blank.png width =""600"" height = ""600"" style=""position:fixed;top:50%; left:50%; transform: translate(-50%, -50%); border:5px solid black"">","","","","","","","",""
"","1793.6249999984284","sequential-stimulus-presentation-old","67","496543","0.0-19.0-1.3","SS1619739965907","trial","","40","500","2293.6249999984284","images/stimuli/spore_stims/simple_13_A_a.gif","images/stimuli/spore_stims/simple_16_A_b.gif","self_paced","","5","simple_dissimilar","images/stimuli/spore_stims/simple_13_A_a.gif","","","","",""
"","null","html-keyboard-response","68","497551","0.0-19.0-0.4","SS1619739965907","","","null","","","","","","<p><img src= images/blank.png width =""600"" height = ""600"" style=""position:fixed;top:50%; left:50%; transform: translate(-50%, -50%); border:5px solid black"">","","","","","","","",""
"","1937.8250000008848","sequential-stimulus-presentation-old","69","499991","0.0-19.0-1.4","SS1619739965907","trial","","40","500","2437.8250000008848","images/stimuli/spore_stims/simple_13_A_a.gif","images/stimuli/spore_stims/simple_16_A_b.gif","self_paced","","5","simple_dissimilar","images/stimuli/spore_stims/simple_13_A_a.gif","","","","",""
"","2330.070000003616","survey-multi-choice","70","502323","0.0-20.0","SS1619739965907","math_question","","","","","","","","","","","","{""Q0"":""3""}","[0]","3","",""
"","null","html-keyboard-response","71","503344","0.0-21.0-0.0","SS1619739965907","","","null","","","","","","<p><img src= images/blank.png width =""600"" height = ""600"" style=""position:fixed;top:50%; left:50%; transform: translate(-50%, -50%); border:5px solid black"">","","","","","","","",""
"","558.1500000043889","sequential-stimulus-presentation-old","72","504404","0.0-21.0-1.0","SS1619739965907","trial","","40","500","1058.1500000043889","images/stimuli/spore_stims/simple_14_A_b.gif","images/stimuli/spore_stims/simple_18_A_a.gif","forced_short","","6","simple_dissimilar","images/stimuli/spore_stims/simple_18_A_a.gif","","","","",""
"","null","html-keyboard-response","73","505323","0.0-21.0-0.1","SS1619739965907","","","null","","","","","","<p><img src= images/blank.png width =""600"" height = ""600"" style=""position:fixed;top:50%; left:50%; transform: translate(-50%, -50%); border:5px solid black"">","","","","","","","",""
"","354.8000000009779","sequential-stimulus-presentation-old","74","506181","0.0-21.0-1.1","SS1619739965907","trial","","40","500","854.8000000009779","images/stimuli/spore_stims/simple_14_A_b.gif","images/stimuli/spore_stims/simple_18_A_a.gif","forced_short","","6","simple_dissimilar","images/stimuli/spore_stims/simple_14_A_b.gif","","","","",""
"","null","html-keyboard-response","75","507181","0.0-21.0-0.2","SS1619739965907","","","null","","","","","","<p><img src= images/blank.png width =""600"" height = ""600"" style=""position:fixed;top:50%; left:50%; transform: translate(-50%, -50%); border:5px solid black"">","","","","","","","",""
"","1206.6300000005867","sequential-stimulus-presentation-old","76","508889","0.0-21.0-1.2","SS1619739965907","trial","","40","500","1706.6300000005867","images/stimuli/spore_stims/simple_14_A_b.gif","images/stimuli/spore_stims/simple_18_A_a.gif","forced_short","","6","simple_dissimilar","images/stimuli/spore_stims/simple_18_A_a.gif","","","","",""
"","null","html-keyboard-response","77","509988","0.0-21.0-0.3","SS1619739965907","","","null","","","","","","<p><img src= images/blank.png width =""600"" height = ""600"" style=""position:fixed;top:50%; left:50%; transform: translate(-50%, -50%); border:5px solid black"">","","","","","","","",""
"","1119.9449999985518","sequential-stimulus-presentation-old","78","511611","0.0-21.0-1.3","SS1619739965907","trial","","40","500","1619.9449999985518","images/stimuli/spore_stims/simple_14_A_b.gif","images/stimuli/spore_stims/simple_18_A_a.gif","forced_short","","6","simple_dissimilar","images/stimuli/spore_stims/simple_14_A_b.gif","","","","",""
"","2584.069999997155","survey-multi-choice","79","514197","0.0-22.0","SS1619739965907","math_question","","","","","","","","","","","","{""Q0"":""13""}","[0]","13","",""
"","null","html-keyboard-response","80","515448","0.0-23.0-0.0","SS1619739965907","","","null","","","","","","<p><img src= images/blank.png width =""600"" height = ""600"" style=""position:fixed;top:50%; left:50%; transform: translate(-50%, -50%); border:5px solid black"">","","","","","","","",""
"","540.3250000017579","sequential-stimulus-presentation-old","81","516492","0.0-23.0-1.0","SS1619739965907","trial","","40","500","1040.3250000017579","images/stimuli/spore_stims/simple_01_A_a.gif","images/stimuli/spore_stims/simple_06_A_b.gif","forced_short","","7","simple_dissimilar","images/stimuli/spore_stims/simple_06_A_b.gif","","","","",""
"","null","html-keyboard-response","82","517411","0.0-23.0-0.1","SS1619739965907","","","null","","","","","","<p><img src= images/blank.png width =""600"" height = ""600"" style=""position:fixed;top:50%; left:50%; transform: translate(-50%, -50%); border:5px solid black"">","","","","","","","",""
"","1091.9799999974202","sequential-stimulus-presentation-old","83","519006","0.0-23.0-1.1","SS1619739965907","trial","","40","500","1591.9799999974202","images/stimuli/spore_stims/simple_01_A_a.gif","images/stimuli/spore_stims/simple_06_A_b.gif","forced_short","","7","simple_dissimilar","images/stimuli/spore_stims/simple_06_A_b.gif","","","","",""
"","null","html-keyboard-response","84","520241","0.0-23.0-0.2","SS1619739965907","","","null","","","","","","<p><img src= images/blank.png width =""600"" height = ""600"" style=""position:fixed;top:50%; left:50%; transform: translate(-50%, -50%); border:5px solid black"">","","","","","","","",""
"","501.82499999937136","sequential-stimulus-presentation-old","85","521245","0.0-23.0-1.2","SS1619739965907","trial","","40","500","1001.8249999993714","images/stimuli/spore_stims/simple_01_A_a.gif","images/stimuli/spore_stims/simple_06_A_b.gif","forced_short","","7","simple_dissimilar","images/stimuli/spore_stims/simple_06_A_b.gif","","","","",""
"","null","html-keyboard-response","86","522120","0.0-23.0-0.3","SS1619739965907","","","null","","","","","","<p><img src= images/blank.png width =""600"" height = ""600"" style=""position:fixed;top:50%; left:50%; transform: translate(-50%, -50%); border:5px solid black"">","","","","","","","",""
"","1119.6349999954691","sequential-stimulus-presentation-old","87","523756","0.0-23.0-1.3","SS1619739965907","trial","","40","500","1619.6349999954691","images/stimuli/spore_stims/simple_01_A_a.gif","images/stimuli/spore_stims/simple_06_A_b.gif","forced_short","","7","simple_dissimilar","images/stimuli/spore_stims/simple_06_A_b.gif","","","","",""
"","2237.105000000098","survey-multi-choice","88","525994","0.0-24.0","SS1619739965907","math_question","","","","","","","","","","","","{""Q0"":""12""}","[0]","12","",""
"","null","html-keyboard-response","89","527295","0.0-25.0-0.0","SS1619739965907","","","null","","","","","","<p><img src= images/blank.png width =""600"" height = ""600"" style=""position:fixed;top:50%; left:50%; transform: translate(-50%, -50%); border:5px solid black"">","","","","","","","",""
"","1105.8799999954645","sequential-stimulus-presentation-old","90","543404","0.0-25.0-1.0","SS1619739965907","trial","","40","500","1605.8799999954645","images/stimuli/spore_stims/complex_15_A_b.gif","images/stimuli/spore_stims/complex_04_A_a.gif","forced_long","","8","complex_dissimilar","images/stimuli/spore_stims/complex_04_A_a.gif","","","","",""
"","null","html-keyboard-response","91","544702","0.0-25.0-0.1","SS1619739965907","","","null","","","","","","<p><img src= images/blank.png width =""600"" height = ""600"" style=""position:fixed;top:50%; left:50%; transform: translate(-50%, -50%); border:5px solid black"">","","","","","","","",""
"","136.7499999977881","sequential-stimulus-presentation-old","92","545342","0.0-25.0-1.1","SS1619739965907","trial","","40","500","636.7499999977881","images/stimuli/spore_stims/complex_15_A_b.gif","images/stimuli/spore_stims/complex_04_A_a.gif","forced_long","","8","complex_dissimilar","images/stimuli/spore_stims/complex_04_A_a.gif","","","","",""
"","null","html-keyboard-response","93","546402","0.0-25.0-0.2","SS1619739965907","","","null","","","","","","<p><img src= images/blank.png width =""600"" height = ""600"" style=""position:fixed;top:50%; left:50%; transform: translate(-50%, -50%); border:5px solid black"">","","","","","","","",""
"","708.7949999987613","sequential-stimulus-presentation-old","94","547613","0.0-25.0-1.2","SS1619739965907","trial","","40","500","1208.7949999987613","images/stimuli/spore_stims/complex_15_A_b.gif","images/stimuli/spore_stims/complex_04_A_a.gif","forced_long","","8","complex_dissimilar","images/stimuli/spore_stims/complex_15_A_b.gif","","","","",""
"","null","html-keyboard-response","95","548465","0.0-25.0-0.3","SS1619739965907","","","null","","","","","","<p><img src= images/blank.png width =""600"" height = ""600"" style=""position:fixed;top:50%; left:50%; transform: translate(-50%, -50%); border:5px solid black"">","","","","","","","",""
"","1133.830000006128","sequential-stimulus-presentation-old","96","550101","0.0-25.0-1.3","SS1619739965907","trial","","40","500","1633.830000006128","images/stimuli/spore_stims/complex_15_A_b.gif","images/stimuli/spore_stims/complex_04_A_a.gif","forced_long","","8","complex_dissimilar","images/stimuli/spore_stims/complex_04_A_a.gif","","","","",""
"","null","html-keyboard-response","97","551083","0.0-25.0-0.4","SS1619739965907","","","null","","","","","","<p><img src= images/blank.png width =""600"" height = ""600"" style=""position:fixed;top:50%; left:50%; transform: translate(-50%, -50%); border:5px solid black"">","","","","","","","",""
"","972.2900000051595","sequential-stimulus-presentation-old","98","552557","0.0-25.0-1.4","SS1619739965907","trial","","40","500","1472.2900000051595","images/stimuli/spore_stims/complex_15_A_b.gif","images/stimuli/spore_stims/complex_04_A_a.gif","forced_long","","8","complex_dissimilar","images/stimuli/spore_stims/complex_04_A_a.gif","","","","",""
"","null","html-keyboard-response","99","553792","0.0-25.0-0.5","SS1619739965907","","","null","","","","","","<p><img src= images/blank.png width =""600"" height = ""600"" style=""position:fixed;top:50%; left:50%; transform: translate(-50%, -50%); border:5px solid black"">","","","","","","","",""
"","2138.3750000023283","sequential-stimulus-presentation-old","100","556433","0.0-25.0-1.5","SS1619739965907","trial","","40","500","2638.3750000023283","images/stimuli/spore_stims/complex_15_A_b.gif","images/stimuli/spore_stims/complex_04_A_a.gif","forced_long","","8","complex_dissimilar","images/stimuli/spore_stims/complex_15_A_b.gif","","","","",""
"","3094.6150000018533","survey-multi-choice","101","559529","0.0-26.0","SS1619739965907","math_question","","","","","","","","","","","","{""Q0"":""8""}","[0]","8","",""
"","null","html-keyboard-response","102","560761","0.0-27.0-0.0","SS1619739965907","","","null","","","","","","<p><img src= images/blank.png width =""600"" height = ""600"" style=""position:fixed;top:50%; left:50%; transform: translate(-50%, -50%); border:5px solid black"">","","","","","","","",""
"","739.8499999982305","sequential-stimulus-presentation-old","103","562003","0.0-27.0-1.0","SS1619739965907","trial","","40","500","1239.8499999982305","images/stimuli/spore_stims/complex_11_A_a.gif","images/stimuli/spore_stims/complex_06_A_b.gif","forced_short","","9","complex_dissimilar","images/stimuli/spore_stims/complex_06_A_b.gif","","","","",""
"","null","html-keyboard-response","104","563283","0.0-27.0-0.1","SS1619739965907","","","null","","","","","","<p><img src= images/blank.png width =""600"" height = ""600"" style=""position:fixed;top:50%; left:50%; transform: translate(-50%, -50%); border:5px solid black"">","","","","","","","",""
"","858.4350000019185","sequential-stimulus-presentation-old","105","564644","0.0-27.0-1.1","SS1619739965907","trial","","40","500","1358.4350000019185","images/stimuli/spore_stims/complex_11_A_a.gif","images/stimuli/spore_stims/complex_06_A_b.gif","forced_short","","9","complex_dissimilar","images/stimuli/spore_stims/complex_06_A_b.gif","","","","",""
"","null","html-keyboard-response","106","565743","0.0-27.0-0.2","SS1619739965907","","","null","","","","","","<p><img src= images/blank.png width =""600"" height = ""600"" style=""position:fixed;top:50%; left:50%; transform: translate(-50%, -50%); border:5px solid black"">","","","","","","","",""
"","278.71000000601634","sequential-stimulus-presentation-old","107","566532","0.0-27.0-1.2","SS1619739965907","trial","","40","500","778.7100000060163","images/stimuli/spore_stims/complex_11_A_a.gif","images/stimuli/spore_stims/complex_06_A_b.gif","forced_short","","9","complex_dissimilar","images/stimuli/spore_stims/complex_06_A_b.gif","","","","",""
"","null","html-keyboard-response","108","567689","0.0-27.0-0.3","SS1619739965907","","","null","","","","","","<p><img src= images/blank.png width =""600"" height = ""600"" style=""position:fixed;top:50%; left:50%; transform: translate(-50%, -50%); border:5px solid black"">","","","","","","","",""
"","699.7100000008941","sequential-stimulus-presentation-old","109","568892","0.0-27.0-1.3","SS1619739965907","trial","","40","500","1199.710000000894","images/stimuli/spore_stims/complex_11_A_a.gif","images/stimuli/spore_stims/complex_06_A_b.gif","forced_short","","9","complex_dissimilar","images/stimuli/spore_stims/complex_06_A_b.gif","","","","",""
"","null","html-keyboard-response","110","569789","0.0-27.0-0.4","SS1619739965907","","","null","","","","","","<p><img src= images/blank.png width =""600"" height = ""600"" style=""position:fixed;top:50%; left:50%; transform: translate(-50%, -50%); border:5px solid black"">","","","","","","","",""
"","2195.3800000047777","sequential-stimulus-presentation-old","111","572487","0.0-27.0-1.4","SS1619739965907","trial","","40","500","2695.3800000047777","images/stimuli/spore_stims/complex_11_A_a.gif","images/stimuli/spore_stims/complex_06_A_b.gif","forced_short","","9","complex_dissimilar","images/stimuli/spore_stims/complex_11_A_a.gif","","","","",""
"","null","html-keyboard-response","112","573672","0.0-27.0-0.5","SS1619739965907","","","null","","","","","","<p><img src= images/blank.png width =""600"" height = ""600"" style=""position:fixed;top:50%; left:50%; transform: translate(-50%, -50%); border:5px solid black"">","","","","","","","",""
"","785.0049999979092","sequential-stimulus-presentation-old","113","574972","0.0-27.0-1.5","SS1619739965907","trial","","40","500","1285.0049999979092","images/stimuli/spore_stims/complex_11_A_a.gif","images/stimuli/spore_stims/complex_06_A_b.gif","forced_short","","9","complex_dissimilar","images/stimuli/spore_stims/complex_11_A_a.gif","","","","",""
"","2293.595000002766","survey-multi-choice","114","577267","0.0-28.0","SS1619739965907","math_question","","","","","","","","","","","","{""Q0"":""16""}","[0]","16","",""
"","null","html-keyboard-response","115","578526","0.0-29.0-0.0","SS1619739965907","","","null","","","","","","<p><img src= images/blank.png width =""600"" height = ""600"" style=""position:fixed;top:50%; left:50%; transform: translate(-50%, -50%); border:5px solid black"">","","","","","","","",""
"","657.1750000002794","sequential-stimulus-presentation-old","116","579686","0.0-29.0-1.0","SS1619739965907","trial","","40","500","1157.1750000002794","images/stimuli/spore_stims/simple_09_A_b.gif","images/stimuli/spore_stims/simple_11_A_a.gif","self_paced","","10","simple_dissimilar","images/stimuli/spore_stims/simple_11_A_a.gif","","","","",""
"","null","html-keyboard-response","117","580529","0.0-29.0-0.1","SS1619739965907","","","null","","","","","","<p><img src= images/blank.png width =""600"" height = ""600"" style=""position:fixed;top:50%; left:50%; transform: translate(-50%, -50%); border:5px solid black"">","","","","","","","",""
"","880.8949999947799","sequential-stimulus-presentation-old","118","581923","0.0-29.0-1.1","SS1619739965907","trial","","40","500","1380.89499999478","images/stimuli/spore_stims/simple_09_A_b.gif","images/stimuli/spore_stims/simple_11_A_a.gif","self_paced","","10","simple_dissimilar","images/stimuli/spore_stims/simple_11_A_a.gif","","","","",""
"","null","html-keyboard-response","119","582873","0.0-29.0-0.2","SS1619739965907","","","null","","","","","","<p><img src= images/blank.png width =""600"" height = ""600"" style=""position:fixed;top:50%; left:50%; transform: translate(-50%, -50%); border:5px solid black"">","","","","","","","",""
"","935.5399999985239","sequential-stimulus-presentation-old","120","584312","0.0-29.0-1.2","SS1619739965907","trial","","40","500","1435.5399999985239","images/stimuli/spore_stims/simple_09_A_b.gif","images/stimuli/spore_stims/simple_11_A_a.gif","self_paced","","10","simple_dissimilar","images/stimuli/spore_stims/simple_11_A_a.gif","","","","",""
"","null","html-keyboard-response","121","585385","0.0-29.0-0.3","SS1619739965907","","","null","","","","","","<p><img src= images/blank.png width =""600"" height = ""600"" style=""position:fixed;top:50%; left:50%; transform: translate(-50%, -50%); border:5px solid black"">","","","","","","","",""
"","1374.5399999971269","sequential-stimulus-presentation-old","122","587266","0.0-29.0-1.3","SS1619739965907","trial","","40","500","1874.5399999971269","images/stimuli/spore_stims/simple_09_A_b.gif","images/stimuli/spore_stims/simple_11_A_a.gif","self_paced","","10","simple_dissimilar","images/stimuli/spore_stims/simple_09_A_b.gif","","","","",""
"","null","html-keyboard-response","123","588537","0.0-29.0-0.4","SS1619739965907","","","null","","","","","","<p><img src= images/blank.png width =""600"" height = ""600"" style=""position:fixed;top:50%; left:50%; transform: translate(-50%, -50%); border:5px solid black"">","","","","","","","",""
"","1259.7000000022817","sequential-stimulus-presentation-old","124","590299","0.0-29.0-1.4","SS1619739965907","trial","","40","500","1759.7000000022817","images/stimuli/spore_stims/simple_09_A_b.gif","images/stimuli/spore_stims/simple_11_A_a.gif","self_paced","","10","simple_dissimilar","images/stimuli/spore_stims/simple_09_A_b.gif","","","","",""
"","1945.4299999998184","survey-multi-choice","125","592247","0.0-30.0","SS1619739965907","math_question","","","","","","","","","","","","{""Q0"":""10""}","[0]","10","",""
"","null","html-keyboard-response","126","593212","0.0-31.0-0.0","SS1619739965907","","","null","","","","","","<p><img src= images/blank.png width =""600"" height = ""600"" style=""position:fixed;top:50%; left:50%; transform: translate(-50%, -50%); border:5px solid black"">","","","","","","","",""
"","455.8949999992037","sequential-stimulus-presentation-old","127","608674","0.0-31.0-1.0","SS1619739965907","trial","","40","500","955.8949999992037","images/stimuli/spore_stims/simple_08_A_a.gif","images/stimuli/spore_stims/simple_19_A_b.gif","forced_long","","11","simple_dissimilar","images/stimuli/spore_stims/simple_19_A_b.gif","","","","",""
"","null","html-keyboard-response","128","609926","0.0-31.0-0.1","SS1619739965907","","","null","","","","","","<p><img src= images/blank.png width =""600"" height = ""600"" style=""position:fixed;top:50%; left:50%; transform: translate(-50%, -50%); border:5px solid black"">","","","","","","","",""
"","701.2050000048475","sequential-stimulus-presentation-old","129","611140","0.0-31.0-1.1","SS1619739965907","trial","","40","500","1201.2050000048475","images/stimuli/spore_stims/simple_08_A_a.gif","images/stimuli/spore_stims/simple_19_A_b.gif","forced_long","","11","simple_dissimilar","images/stimuli/spore_stims/simple_19_A_b.gif","","","","",""
"","null","html-keyboard-response","130","612097","0.0-31.0-0.2","SS1619739965907","","","null","","","","","","<p><img src= images/blank.png width =""600"" height = ""600"" style=""position:fixed;top:50%; left:50%; transform: translate(-50%, -50%); border:5px solid black"">","","","","","","","",""
"","140.68499999842606","sequential-stimulus-presentation-old","131","612742","0.0-31.0-1.2","SS1619739965907","trial","","40","500","640.6849999984261","images/stimuli/spore_stims/simple_08_A_a.gif","images/stimuli/spore_stims/simple_19_A_b.gif","forced_long","","11","simple_dissimilar","images/stimuli/spore_stims/simple_19_A_b.gif","","","","",""
"","null","html-keyboard-response","132","613811","0.0-31.0-0.3","SS1619739965907","","","null","","","","","","<p><img src= images/blank.png width =""600"" height = ""600"" style=""position:fixed;top:50%; left:50%; transform: translate(-50%, -50%); border:5px solid black"">","","","","","","","",""
"","634.9550000014715","sequential-stimulus-presentation-old","133","614948","0.0-31.0-1.3","SS1619739965907","trial","","40","500","1134.9550000014715","images/stimuli/spore_stims/simple_08_A_a.gif","images/stimuli/spore_stims/simple_19_A_b.gif","forced_long","","11","simple_dissimilar","images/stimuli/spore_stims/simple_19_A_b.gif","","","","",""
"","null","html-keyboard-response","134","616161","0.0-31.0-0.4","SS1619739965907","","","null","","","","","","<p><img src= images/blank.png width =""600"" height = ""600"" style=""position:fixed;top:50%; left:50%; transform: translate(-50%, -50%); border:5px solid black"">","","","","","","","",""
"","430.549999997369","sequential-stimulus-presentation-old","135","617096","0.0-31.0-1.4","SS1619739965907","trial","","40","500","930.549999997369","images/stimuli/spore_stims/simple_08_A_a.gif","images/stimuli/spore_stims/simple_19_A_b.gif","forced_long","","11","simple_dissimilar","images/stimuli/spore_stims/simple_19_A_b.gif","","","","",""
"","null","html-keyboard-response","136","617949","0.0-31.0-0.5","SS1619739965907","","","null","","","","","","<p><img src= images/blank.png width =""600"" height = ""600"" style=""position:fixed;top:50%; left:50%; transform: translate(-50%, -50%); border:5px solid black"">","","","","","","","",""
"","478.77000000164844","sequential-stimulus-presentation-old","137","618934","0.0-31.0-1.5","SS1619739965907","trial","","40","500","978.7700000016484","images/stimuli/spore_stims/simple_08_A_a.gif","images/stimuli/spore_stims/simple_19_A_b.gif","forced_long","","11","simple_dissimilar","images/stimuli/spore_stims/simple_19_A_b.gif","","","","",""
"[{""page_index"":0,""viewing_time"":7874.524999999325}]","7874.754999997094","instructions","138","626810","0.0-32.0","SS1619739965907","instructions","","","","","","","","","","","","","","","",""
"","15523.430000001099","survey-likert","139","642335","0.0-33.0","SS1619739965907","similarity_question","","","","","","","","","","","","{""Q0"":1}","[0]","","images/stimuli/spore_stims/complex_01_A_b.gif","images/stimuli/spore_stims/complex_14_A_a.gif"
"","3989.8400000019465","survey-likert","140","646331","0.0-34.0","SS1619739965907","similarity_question","","","","","","","","","","","","{""Q0"":2}","[0]","","images/stimuli/spore_stims/complex_15_A_b.gif","images/stimuli/spore_stims/complex_04_A_a.gif"
"","3795.494999998482","survey-likert","141","650131","0.0-35.0","SS1619739965907","similarity_question","","","","","","","","","","","","{""Q0"":4}","[0]","","images/stimuli/spore_stims/simple_13_A_a.gif","images/stimuli/spore_stims/simple_16_A_b.gif"
"","2120.404999994207","survey-likert","142","652256","0.0-36.0","SS1619739965907","similarity_question","","","","","","","","","","","","{""Q0"":4}","[0]","","images/stimuli/spore_stims/simple_11_A_a.gif","images/stimuli/spore_stims/simple_09_A_b.gif"
"","9241.070000003674","survey-likert","143","661502","0.0-37.0","SS1619739965907","similarity_question","","","","","","","","","","","","{""Q0"":3}","[0]","","images/stimuli/spore_stims/complex_15_A_a.gif","images/stimuli/spore_stims/complex_13_A_b.gif"
"","5623.820000000764","survey-likert","144","667131","0.0-38.0","SS1619739965907","similarity_question","","","","","","","","","","","","{""Q0"":0}","[0]","","images/stimuli/spore_stims/complex_11_A_a.gif","images/stimuli/spore_stims/complex_06_A_b.gif"
"","3781.445000000531","survey-likert","145","670917","0.0-39.0","SS1619739965907","similarity_question","","","","","","","","","","","","{""Q0"":5}","[0]","","images/stimuli/spore_stims/simple_19_A_b.gif","images/stimuli/spore_stims/simple_08_A_a.gif"
"","2211.6800000004005","survey-likert","146","673133","0.0-40.0","SS1619739965907","similarity_question","","","","","","","","","","","","{""Q0"":4}","[0]","","images/stimuli/spore_stims/simple_18_A_a.gif","images/stimuli/spore_stims/simple_14_A_b.gif"
"","2144.134999994887","survey-likert","147","675282","0.0-41.0","SS1619739965907","similarity_question","","","","","","","","","","","","{""Q0"":5}","[0]","","images/stimuli/spore_stims/simple_06_A_b.gif","images/stimuli/spore_stims/simple_01_A_a.gif"
"","5983.619999998948","survey-likert","148","681270","0.0-42.0","SS1619739965907","similarity_question","","","","","","","","","","","","{""Q0"":1}","[0]","","images/stimuli/spore_stims/complex_02_A_a.gif","images/stimuli/spore_stims/complex_08_A_b.gif"
"","5736.805000000517","survey-likert","149","687012","0.0-43.0","SS1619739965907","similarity_question","","","","","","","","","","","","{""Q0"":0}","[0]","","images/stimuli/spore_stims/complex_18_A_a.gif","images/stimuli/spore_stims/complex_05_A_b.gif"
"","7021.209999999031","survey-likert","150","694038","0.0-44.0","SS1619739965907","similarity_question","","","","","","","","","","","","{""Q0"":5}","[0]","","images/stimuli/spore_stims/simple_20_A_a.gif","images/stimuli/spore_stims/simple_15_A_b.gif"
"[{""page_index"":0,""viewing_time"":6283.110000003828}]","6283.309999998892","instructions","151","700327","0.0-45.0","SS1619739965907","instructions","","","","","","","","","","","","","","","",""
"","14379.600000000093","survey-likert","152","714710","0.0-46.0","SS1619739965907","","","","","","","","","images/stimuli/spore_stims/simple_11_A_a.gif","","","","{""Q0"":0}","[0]","","",""
"","3607.1499999961816","survey-likert","153","718321","0.0-47.0","SS1619739965907","","","","","","","","","images/stimuli/spore_stims/simple_18_A_a.gif","","","","{""Q0"":1}","[0]","","",""
"","5696.7450000011595","survey-likert","154","724025","0.0-48.0","SS1619739965907","","","","","","","","","images/stimuli/spore_stims/complex_08_A_b.gif","","","","{""Q0"":4}","[0]","","",""
"","2267.8200000009965","survey-likert","155","726299","0.0-49.0","SS1619739965907","","","","","","","","","images/stimuli/spore_stims/simple_08_A_a.gif","","","","{""Q0"":0}","[0]","","",""
"","2633.5949999992736","survey-likert","156","728937","0.0-50.0","SS1619739965907","","","","","","","","","images/stimuli/spore_stims/complex_05_A_b.gif","","","","{""Q0"":4}","[0]","","",""
"","1913.4300000006333","survey-likert","157","730855","0.0-51.0","SS1619739965907","","","","","","","","","images/stimuli/spore_stims/complex_06_A_b.gif","","","","{""Q0"":4}","[0]","","",""
"","2665.8150000002934","survey-likert","158","733525","0.0-52.0","SS1619739965907","","","","","","","","","images/stimuli/spore_stims/complex_01_A_b.gif","","","","{""Q0"":4}","[0]","","",""
"","4056.7399999999907","survey-likert","159","737587","0.0-53.0","SS1619739965907","","","","","","","","","images/stimuli/spore_stims/simple_01_A_a.gif","","","","{""Q0"":0}","[0]","","",""
"","2856.095000002766","survey-likert","160","740448","0.0-54.0","SS1619739965907","","","","","","","","","images/stimuli/spore_stims/complex_15_A_a.gif","","","","{""Q0"":5}","[0]","","",""
"","1849.755000002915","survey-likert","161","742302","0.0-55.0","SS1619739965907","","","","","","","","","images/stimuli/spore_stims/simple_13_A_a.gif","","","","{""Q0"":0}","[0]","","",""
"","2134.1099999990547","survey-likert","162","744441","0.0-56.0","SS1619739965907","","","","","","","","","images/stimuli/spore_stims/complex_15_A_b.gif","","","","{""Q0"":5}","[0]","","",""
"","2393.824999999255","survey-likert","163","746840","0.0-57.0","SS1619739965907","","","","","","","","","images/stimuli/spore_stims/simple_20_A_a.gif","","","","{""Q0"":1}","[0]","","",""
"[{""page_index"":0,""viewing_time"":1865.655000001425}]","1865.8199999991339","instructions","164","748710","0.0-58.0","SS1619739965907","instructions","","","","","","","","","","","","","","","",""
"","2803.6399999982677","demog-age","165","751518","0.0-59.0","SS1619739965907","","","","","","","","","","","","","{""age"":""18""}","","","",""
"","5997.264999998151","demog-ethnic-US","166","757519","0.0-60.0","SS1619739965907","","","","","","","","","","","","","{""ethnicity"":[""White""]}","[0]","","",""
"","29215.649999998277","demog-gender-and-education","167","786740","0.0-61.0","SS1619739965907","","","","","","","","","","","","","{""gender"":""Male"",""education"":""Other""}","[0,1]","","",""
"","13997.414999998058","survey-text","168","800743","0.0-62.0","SS1619739965907","feedback","","","","","","","","","","","","{""Q0"":""no, everything worked well""}","","","",""
"[{""page_index"":0,""viewing_time"":1381.4599999968195}]","1381.6799999986542","instructions","169","802127","0.0-63.0","SS1619739965907","instructions","","","","","","","","","","","","","","","",""
