"view_history","rt","trial_type","trial_index","time_elapsed","internal_node_id","subject","stimulus_type","trial_stimulus","key_press","minimum_viewing_duration","trial_looking_time","block_deviant","block_background","exposure_type","stimulus","block_number","block_type","stimulus_displayed","responses","question_order","math_correct_answer","stimulus_left","stimulus_right"
"[{""page_index"":0,""viewing_time"":32029.884999996284}]","32031.810000000405","instructions","0","32042","0.0-0.0","SS1619739610683","","","","","","","","","","","","","","","","",""
"[{""page_index"":0,""viewing_time"":69799.67500000203},{""page_index"":1,""viewing_time"":13419.540000002598}]","83219.73500000604","instructions","1","117273","0.0-1.0","SS1619739610683","instructions","","","","","","","","","","","","","","","",""
"","9275.164999999106","sequential-stimulus-presentation-old","2","127057","0.0-2.0","SS1619739610683","","","40","500","9775.164999999106","null","null","self_paced","","","","","","","","",""
"","6858.399999997346","sequential-stimulus-presentation-old","3","134420","0.0-3.0","SS1619739610683","","","40","500","7358.399999997346","null","null","self_paced","","","","","","","","",""
"[{""page_index"":0,""viewing_time"":28839.554999998654}]","28840.26999998605","instructions","4","163264","0.0-4.0","SS1619739610683","instructions","","","","","","","","","","","","","","","",""
"","5032.164999996894","sequential-stimulus-presentation-old","5","183302","0.0-5.0","SS1619739610683","","","40","500","5532.164999996894","null","null","forced_long","","","","","","","","",""
"","3620.360000000801","sequential-stimulus-presentation-old","6","187429","0.0-6.0","SS1619739610683","","","40","500","4120.360000000801","null","null","forced_long","","","","","","","","",""
"[{""page_index"":0,""viewing_time"":9176.100000011502}]","9176.715000008699","instructions","7","196610","0.0-7.0","SS1619739610683","instructions","","","","","","","","","","","","","","","",""
"[{""page_index"":0,""viewing_time"":30344.744999994873},{""page_index"":1,""viewing_time"":7997.264999998151},{""page_index"":2,""viewing_time"":6850.485000002664},{""page_index"":3,""viewing_time"":3252.6900000084424},{""page_index"":4,""viewing_time"":2521.8999999924563}]","50967.875000002095","instructions","8","247584","0.0-8.0","SS1619739610683","instructions","","","","","","","","","","","","","","","",""
"","null","html-keyboard-response","9","248446","0.0-9.0-0.0","SS1619739610683","","","null","","","","","","<p><img src= images/blank.png width =""600"" height = ""600"" style=""position:fixed;top:50%; left:50%; transform: translate(-50%, -50%); border:5px solid black"">","","","","","","","",""
"","34457.76000000478","sequential-stimulus-presentation-old","10","283420","0.0-9.0-1.0","SS1619739610683","trial","","40","500","34957.76000000478","images/stimuli/spore_stims/simple_17_A_b.gif","images/stimuli/spore_stims/simple_15_A_a.gif","self_paced","","0","simple_dissimilar","images/stimuli/spore_stims/simple_15_A_a.gif","","","","",""
"","null","html-keyboard-response","11","284578","0.0-9.0-0.1","SS1619739610683","","","null","","","","","","<p><img src= images/blank.png width =""600"" height = ""600"" style=""position:fixed;top:50%; left:50%; transform: translate(-50%, -50%); border:5px solid black"">","","","","","","","",""
"","3197.650000001886","sequential-stimulus-presentation-old","12","288288","0.0-9.0-1.1","SS1619739610683","trial","","40","500","3697.650000001886","images/stimuli/spore_stims/simple_17_A_b.gif","images/stimuli/spore_stims/simple_15_A_a.gif","self_paced","","0","simple_dissimilar","images/stimuli/spore_stims/simple_17_A_b.gif","","","","",""
"","null","html-keyboard-response","13","289247","0.0-9.0-0.2","SS1619739610683","","","null","","","","","","<p><img src= images/blank.png width =""600"" height = ""600"" style=""position:fixed;top:50%; left:50%; transform: translate(-50%, -50%); border:5px solid black"">","","","","","","","",""
"","1946.3200000027427","sequential-stimulus-presentation-old","14","291706","0.0-9.0-1.2","SS1619739610683","trial","","40","500","2446.3200000027427","images/stimuli/spore_stims/simple_17_A_b.gif","images/stimuli/spore_stims/simple_15_A_a.gif","self_paced","","0","simple_dissimilar","images/stimuli/spore_stims/simple_15_A_a.gif","","","","",""
"","null","html-keyboard-response","15","292892","0.0-9.0-0.3","SS1619739610683","","","null","","","","","","<p><img src= images/blank.png width =""600"" height = ""600"" style=""position:fixed;top:50%; left:50%; transform: translate(-50%, -50%); border:5px solid black"">","","","","","","","",""
"","19525.780000010855","sequential-stimulus-presentation-old","16","312935","0.0-9.0-1.3","SS1619739610683","trial","","40","500","20025.780000010855","images/stimuli/spore_stims/simple_17_A_b.gif","images/stimuli/spore_stims/simple_15_A_a.gif","self_paced","","0","simple_dissimilar","images/stimuli/spore_stims/simple_15_A_a.gif","","","","",""
"","5718.225000004168","survey-multi-choice","17","318667","0.0-10.0","SS1619739610683","math_question","","","","","","","","","","","","{""Q0"":""10""}","[0]","10","",""
"","null","html-keyboard-response","18","319936","0.0-11.0-0.0","SS1619739610683","","","null","","","","","","<p><img src= images/blank.png width =""600"" height = ""600"" style=""position:fixed;top:50%; left:50%; transform: translate(-50%, -50%); border:5px solid black"">","","","","","","","",""
"","13826.859999986482","sequential-stimulus-presentation-old","19","334283","0.0-11.0-1.0","SS1619739610683","trial","","40","500","14326.859999986482","images/stimuli/spore_stims/complex_07_A_a.gif","images/stimuli/spore_stims/complex_06_A_b.gif","self_paced","","1","complex_dissimilar","images/stimuli/spore_stims/complex_06_A_b.gif","","","","",""
"","null","html-keyboard-response","20","335167","0.0-11.0-0.1","SS1619739610683","","","null","","","","","","<p><img src= images/blank.png width =""600"" height = ""600"" style=""position:fixed;top:50%; left:50%; transform: translate(-50%, -50%); border:5px solid black"">","","","","","","","",""
"","1818.954999995185","sequential-stimulus-presentation-old","21","337501","0.0-11.0-1.1","SS1619739610683","trial","","40","500","2318.954999995185","images/stimuli/spore_stims/complex_07_A_a.gif","images/stimuli/spore_stims/complex_06_A_b.gif","self_paced","","1","complex_dissimilar","images/stimuli/spore_stims/complex_06_A_b.gif","","","","",""
"","null","html-keyboard-response","22","338662","0.0-11.0-0.2","SS1619739610683","","","null","","","","","","<p><img src= images/blank.png width =""600"" height = ""600"" style=""position:fixed;top:50%; left:50%; transform: translate(-50%, -50%); border:5px solid black"">","","","","","","","",""
"","4843.51500000048","sequential-stimulus-presentation-old","23","344035","0.0-11.0-1.2","SS1619739610683","trial","","40","500","5343.51500000048","images/stimuli/spore_stims/complex_07_A_a.gif","images/stimuli/spore_stims/complex_06_A_b.gif","self_paced","","1","complex_dissimilar","images/stimuli/spore_stims/complex_07_A_a.gif","","","","",""
"","null","html-keyboard-response","24","345140","0.0-11.0-0.3","SS1619739610683","","","null","","","","","","<p><img src= images/blank.png width =""600"" height = ""600"" style=""position:fixed;top:50%; left:50%; transform: translate(-50%, -50%); border:5px solid black"">","","","","","","","",""
"","1572.310000003199","sequential-stimulus-presentation-old","25","347224","0.0-11.0-1.3","SS1619739610683","trial","","40","500","2072.310000003199","images/stimuli/spore_stims/complex_07_A_a.gif","images/stimuli/spore_stims/complex_06_A_b.gif","self_paced","","1","complex_dissimilar","images/stimuli/spore_stims/complex_06_A_b.gif","","","","",""
"","null","html-keyboard-response","26","348116","0.0-11.0-0.4","SS1619739610683","","","null","","","","","","<p><img src= images/blank.png width =""600"" height = ""600"" style=""position:fixed;top:50%; left:50%; transform: translate(-50%, -50%); border:5px solid black"">","","","","","","","",""
"","1775.3850000008242","sequential-stimulus-presentation-old","27","350404","0.0-11.0-1.4","SS1619739610683","trial","","40","500","2275.385000000824","images/stimuli/spore_stims/complex_07_A_a.gif","images/stimuli/spore_stims/complex_06_A_b.gif","self_paced","","1","complex_dissimilar","images/stimuli/spore_stims/complex_06_A_b.gif","","","","",""
"","null","html-keyboard-response","28","351314","0.0-11.0-0.5","SS1619739610683","","","null","","","","","","<p><img src= images/blank.png width =""600"" height = ""600"" style=""position:fixed;top:50%; left:50%; transform: translate(-50%, -50%); border:5px solid black"">","","","","","","","",""
"","20504.62000000698","sequential-stimulus-presentation-old","29","372333","0.0-11.0-1.5","SS1619739610683","trial","","40","500","21004.62000000698","images/stimuli/spore_stims/complex_07_A_a.gif","images/stimuli/spore_stims/complex_06_A_b.gif","self_paced","","1","complex_dissimilar","images/stimuli/spore_stims/complex_06_A_b.gif","","","","",""
"","6405.644999991637","survey-multi-choice","30","378750","0.0-12.0","SS1619739610683","math_question","","","","","","","","","","","","{""Q0"":""5""}","[0]","5","",""
"","null","html-keyboard-response","31","379958","0.0-13.0-0.0","SS1619739610683","","","null","","","","","","<p><img src= images/blank.png width =""600"" height = ""600"" style=""position:fixed;top:50%; left:50%; transform: translate(-50%, -50%); border:5px solid black"">","","","","","","","",""
"","898.1050000002142","sequential-stimulus-presentation-old","32","381374","0.0-13.0-1.0","SS1619739610683","trial","","40","500","1398.1050000002142","images/stimuli/spore_stims/complex_04_A_b.gif","images/stimuli/spore_stims/complex_06_A_a.gif","forced_short","","2","complex_dissimilar","images/stimuli/spore_stims/complex_06_A_a.gif","","","","",""
"","null","html-keyboard-response","33","382523","0.0-13.0-0.1","SS1619739610683","","","null","","","","","","<p><img src= images/blank.png width =""600"" height = ""600"" style=""position:fixed;top:50%; left:50%; transform: translate(-50%, -50%); border:5px solid black"">","","","","","","","",""
"","191.60499999998137","sequential-stimulus-presentation-old","34","383226","0.0-13.0-1.1","SS1619739610683","trial","","40","500","691.6049999999814","images/stimuli/spore_stims/complex_04_A_b.gif","images/stimuli/spore_stims/complex_06_A_a.gif","forced_short","","2","complex_dissimilar","images/stimuli/spore_stims/complex_06_A_a.gif","","","","",""
"","null","html-keyboard-response","35","384438","0.0-13.0-0.2","SS1619739610683","","","null","","","","","","<p><img src= images/blank.png width =""600"" height = ""600"" style=""position:fixed;top:50%; left:50%; transform: translate(-50%, -50%); border:5px solid black"">","","","","","","","",""
"","362.5749999919208","sequential-stimulus-presentation-old","36","385313","0.0-13.0-1.2","SS1619739610683","trial","","40","500","862.5749999919208","images/stimuli/spore_stims/complex_04_A_b.gif","images/stimuli/spore_stims/complex_06_A_a.gif","forced_short","","2","complex_dissimilar","images/stimuli/spore_stims/complex_04_A_b.gif","","","","",""
"","null","html-keyboard-response","37","386295","0.0-13.0-0.3","SS1619739610683","","","null","","","","","","<p><img src= images/blank.png width =""600"" height = ""600"" style=""position:fixed;top:50%; left:50%; transform: translate(-50%, -50%); border:5px solid black"">","","","","","","","",""
"","1562.2200000070734","sequential-stimulus-presentation-old","38","388370","0.0-13.0-1.3","SS1619739610683","trial","","40","500","2062.2200000070734","images/stimuli/spore_stims/complex_04_A_b.gif","images/stimuli/spore_stims/complex_06_A_a.gif","forced_short","","2","complex_dissimilar","images/stimuli/spore_stims/complex_06_A_a.gif","","","","",""
"","null","html-keyboard-response","39","389204","0.0-13.0-0.4","SS1619739610683","","","null","","","","","","<p><img src= images/blank.png width =""600"" height = ""600"" style=""position:fixed;top:50%; left:50%; transform: translate(-50%, -50%); border:5px solid black"">","","","","","","","",""
"","925.7050000014715","sequential-stimulus-presentation-old","40","390646","0.0-13.0-1.4","SS1619739610683","trial","","40","500","1425.7050000014715","images/stimuli/spore_stims/complex_04_A_b.gif","images/stimuli/spore_stims/complex_06_A_a.gif","forced_short","","2","complex_dissimilar","images/stimuli/spore_stims/complex_06_A_a.gif","","","","",""
"","null","html-keyboard-response","41","391489","0.0-13.0-0.5","SS1619739610683","","","null","","","","","","<p><img src= images/blank.png width =""600"" height = ""600"" style=""position:fixed;top:50%; left:50%; transform: translate(-50%, -50%); border:5px solid black"">","","","","","","","",""
"","1961.620000001858","sequential-stimulus-presentation-old","42","393974","0.0-13.0-1.5","SS1619739610683","trial","","40","500","2461.620000001858","images/stimuli/spore_stims/complex_04_A_b.gif","images/stimuli/spore_stims/complex_06_A_a.gif","forced_short","","2","complex_dissimilar","images/stimuli/spore_stims/complex_04_A_b.gif","","","","",""
"","6865.334999994957","survey-multi-choice","43","400849","0.0-14.0","SS1619739610683","math_question","","","","","","","","","","","","{""Q0"":""10""}","[0]","10","",""
"","null","html-keyboard-response","44","401907","0.0-15.0-0.0","SS1619739610683","","","null","","","","","","<p><img src= images/blank.png width =""600"" height = ""600"" style=""position:fixed;top:50%; left:50%; transform: translate(-50%, -50%); border:5px solid black"">","","","","","","","",""
"","18452.515000011772","sequential-stimulus-presentation-old","45","420874","0.0-15.0-1.0","SS1619739610683","trial","","40","500","18952.515000011772","images/stimuli/spore_stims/complex_20_A_a.gif","images/stimuli/spore_stims/complex_13_A_b.gif","forced_short","","3","complex_dissimilar","images/stimuli/spore_stims/complex_13_A_b.gif","","","","",""
"","null","html-keyboard-response","46","421768","0.0-15.0-0.1","SS1619739610683","","","null","","","","","","<p><img src= images/blank.png width =""600"" height = ""600"" style=""position:fixed;top:50%; left:50%; transform: translate(-50%, -50%); border:5px solid black"">","","","","","","","",""
"","864.594999991823","sequential-stimulus-presentation-old","47","423152","0.0-15.0-1.1","SS1619739610683","trial","","40","500","1364.594999991823","images/stimuli/spore_stims/complex_20_A_a.gif","images/stimuli/spore_stims/complex_13_A_b.gif","forced_short","","3","complex_dissimilar","images/stimuli/spore_stims/complex_13_A_b.gif","","","","",""
"","null","html-keyboard-response","48","424183","0.0-15.0-0.2","SS1619739610683","","","null","","","","","","<p><img src= images/blank.png width =""600"" height = ""600"" style=""position:fixed;top:50%; left:50%; transform: translate(-50%, -50%); border:5px solid black"">","","","","","","","",""
"","371.60500000754837","sequential-stimulus-presentation-old","49","425069","0.0-15.0-1.2","SS1619739610683","trial","","40","500","871.6050000075484","images/stimuli/spore_stims/complex_20_A_a.gif","images/stimuli/spore_stims/complex_13_A_b.gif","forced_short","","3","complex_dissimilar","images/stimuli/spore_stims/complex_20_A_a.gif","","","","",""
"","null","html-keyboard-response","50","425889","0.0-15.0-0.3","SS1619739610683","","","null","","","","","","<p><img src= images/blank.png width =""600"" height = ""600"" style=""position:fixed;top:50%; left:50%; transform: translate(-50%, -50%); border:5px solid black"">","","","","","","","",""
"","21.01500000571832","sequential-stimulus-presentation-old","51","426425","0.0-15.0-1.3","SS1619739610683","trial","","40","500","521.0150000057183","images/stimuli/spore_stims/complex_20_A_a.gif","images/stimuli/spore_stims/complex_13_A_b.gif","forced_short","","3","complex_dissimilar","images/stimuli/spore_stims/complex_13_A_b.gif","","","","",""
"","13964.175000000978","survey-multi-choice","52","440397","0.0-16.0","SS1619739610683","math_question","","","","","","","","","","","","{""Q0"":""10""}","[0]","10","",""
"","null","html-keyboard-response","53","441468","0.0-17.0-0.0","SS1619739610683","","","null","","","","","","<p><img src= images/blank.png width =""600"" height = ""600"" style=""position:fixed;top:50%; left:50%; transform: translate(-50%, -50%); border:5px solid black"">","","","","","","","",""
"","940.9450000093784","sequential-stimulus-presentation-old","54","457435","0.0-17.0-1.0","SS1619739610683","trial","","40","500","1440.9450000093784","images/stimuli/spore_stims/complex_13_A_a.gif","images/stimuli/spore_stims/complex_16_A_b.gif","forced_long","","4","complex_dissimilar","images/stimuli/spore_stims/complex_16_A_b.gif","","","","",""
"","null","html-keyboard-response","55","458644","0.0-17.0-0.1","SS1619739610683","","","null","","","","","","<p><img src= images/blank.png width =""600"" height = ""600"" style=""position:fixed;top:50%; left:50%; transform: translate(-50%, -50%); border:5px solid black"">","","","","","","","",""
"","938.1550000107381","sequential-stimulus-presentation-old","56","460101","0.0-17.0-1.1","SS1619739610683","trial","","40","500","1438.1550000107381","images/stimuli/spore_stims/complex_13_A_a.gif","images/stimuli/spore_stims/complex_16_A_b.gif","forced_long","","4","complex_dissimilar","images/stimuli/spore_stims/complex_16_A_b.gif","","","","",""
"","null","html-keyboard-response","57","461243","0.0-17.0-0.2","SS1619739610683","","","null","","","","","","<p><img src= images/blank.png width =""600"" height = ""600"" style=""position:fixed;top:50%; left:50%; transform: translate(-50%, -50%); border:5px solid black"">","","","","","","","",""
"","286.725000012666","sequential-stimulus-presentation-old","58","462042","0.0-17.0-1.2","SS1619739610683","trial","","40","500","786.725000012666","images/stimuli/spore_stims/complex_13_A_a.gif","images/stimuli/spore_stims/complex_16_A_b.gif","forced_long","","4","complex_dissimilar","images/stimuli/spore_stims/complex_16_A_b.gif","","","","",""
"","null","html-keyboard-response","59","462972","0.0-17.0-0.3","SS1619739610683","","","null","","","","","","<p><img src= images/blank.png width =""600"" height = ""600"" style=""position:fixed;top:50%; left:50%; transform: translate(-50%, -50%); border:5px solid black"">","","","","","","","",""
"","845.0849999935599","sequential-stimulus-presentation-old","60","464330","0.0-17.0-1.3","SS1619739610683","trial","","40","500","1345.08499999356","images/stimuli/spore_stims/complex_13_A_a.gif","images/stimuli/spore_stims/complex_16_A_b.gif","forced_long","","4","complex_dissimilar","images/stimuli/spore_stims/complex_16_A_b.gif","","","","",""
"","null","html-keyboard-response","61","465208","0.0-17.0-0.4","SS1619739610683","","","null","","","","","","<p><img src= images/blank.png width =""600"" height = ""600"" style=""position:fixed;top:50%; left:50%; transform: translate(-50%, -50%); border:5px solid black"">","","","","","","","",""
"","1455.1400000054855","sequential-stimulus-presentation-old","62","467174","0.0-17.0-1.4","SS1619739610683","trial","","40","500","1955.1400000054855","images/stimuli/spore_stims/complex_13_A_a.gif","images/stimuli/spore_stims/complex_16_A_b.gif","forced_long","","4","complex_dissimilar","images/stimuli/spore_stims/complex_13_A_a.gif","","","","",""
"","null","html-keyboard-response","63","468243","0.0-17.0-0.5","SS1619739610683","","","null","","","","","","<p><img src= images/blank.png width =""600"" height = ""600"" style=""position:fixed;top:50%; left:50%; transform: translate(-50%, -50%); border:5px solid black"">","","","","","","","",""
"","1656.5499999996973","sequential-stimulus-presentation-old","64","470418","0.0-17.0-1.5","SS1619739610683","trial","","40","500","2156.5499999996973","images/stimuli/spore_stims/complex_13_A_a.gif","images/stimuli/spore_stims/complex_16_A_b.gif","forced_long","","4","complex_dissimilar","images/stimuli/spore_stims/complex_16_A_b.gif","","","","",""
"","5976.234999994631","survey-multi-choice","65","476404","0.0-18.0","SS1619739610683","math_question","","","","","","","","","","","","{""Q0"":""15""}","[0]","15","",""
"","null","html-keyboard-response","66","477708","0.0-19.0-0.0","SS1619739610683","","","null","","","","","","<p><img src= images/blank.png width =""600"" height = ""600"" style=""position:fixed;top:50%; left:50%; transform: translate(-50%, -50%); border:5px solid black"">","","","","","","","",""
"","2126.399999993737","sequential-stimulus-presentation-old","67","480346","0.0-19.0-1.0","SS1619739610683","trial","","40","500","2626.399999993737","images/stimuli/spore_stims/simple_18_A_b.gif","images/stimuli/spore_stims/simple_19_A_a.gif","forced_short","","5","simple_dissimilar","images/stimuli/spore_stims/simple_19_A_a.gif","","","","",""
"","null","html-keyboard-response","68","481482","0.0-19.0-0.1","SS1619739610683","","","null","","","","","","<p><img src= images/blank.png width =""600"" height = ""600"" style=""position:fixed;top:50%; left:50%; transform: translate(-50%, -50%); border:5px solid black"">","","","","","","","",""
"","216.64000001328532","sequential-stimulus-presentation-old","69","482252","0.0-19.0-1.1","SS1619739610683","trial","","40","500","716.6400000132853","images/stimuli/spore_stims/simple_18_A_b.gif","images/stimuli/spore_stims/simple_19_A_a.gif","forced_short","","5","simple_dissimilar","images/stimuli/spore_stims/simple_19_A_a.gif","","","","",""
"","null","html-keyboard-response","70","483242","0.0-19.0-0.2","SS1619739610683","","","null","","","","","","<p><img src= images/blank.png width =""600"" height = ""600"" style=""position:fixed;top:50%; left:50%; transform: translate(-50%, -50%); border:5px solid black"">","","","","","","","",""
"","178.76500000420492","sequential-stimulus-presentation-old","71","483935","0.0-19.0-1.2","SS1619739610683","trial","","40","500","678.7650000042049","images/stimuli/spore_stims/simple_18_A_b.gif","images/stimuli/spore_stims/simple_19_A_a.gif","forced_short","","5","simple_dissimilar","images/stimuli/spore_stims/simple_19_A_a.gif","","","","",""
"","null","html-keyboard-response","72","484811","0.0-19.0-0.3","SS1619739610683","","","null","","","","","","<p><img src= images/blank.png width =""600"" height = ""600"" style=""position:fixed;top:50%; left:50%; transform: translate(-50%, -50%); border:5px solid black"">","","","","","","","",""
"","1041.930000006687","sequential-stimulus-presentation-old","73","486377","0.0-19.0-1.3","SS1619739610683","trial","","40","500","1541.930000006687","images/stimuli/spore_stims/simple_18_A_b.gif","images/stimuli/spore_stims/simple_19_A_a.gif","forced_short","","5","simple_dissimilar","images/stimuli/spore_stims/simple_19_A_a.gif","","","","",""
"","null","html-keyboard-response","74","487298","0.0-19.0-0.4","SS1619739610683","","","null","","","","","","<p><img src= images/blank.png width =""600"" height = ""600"" style=""position:fixed;top:50%; left:50%; transform: translate(-50%, -50%); border:5px solid black"">","","","","","","","",""
"","5184.785000004922","sequential-stimulus-presentation-old","75","492997","0.0-19.0-1.4","SS1619739610683","trial","","40","500","5684.785000004922","images/stimuli/spore_stims/simple_18_A_b.gif","images/stimuli/spore_stims/simple_19_A_a.gif","forced_short","","5","simple_dissimilar","images/stimuli/spore_stims/simple_18_A_b.gif","","","","",""
"","6211.880000002566","survey-multi-choice","76","499221","0.0-20.0","SS1619739610683","math_question","","","","","","","","","","","","{""Q0"":""11""}","[0]","11","",""
"","null","html-keyboard-response","77","500504","0.0-21.0-0.0","SS1619739610683","","","null","","","","","","<p><img src= images/blank.png width =""600"" height = ""600"" style=""position:fixed;top:50%; left:50%; transform: translate(-50%, -50%); border:5px solid black"">","","","","","","","",""
"","5152.035000006435","sequential-stimulus-presentation-old","78","520669","0.0-21.0-1.0","SS1619739610683","trial","","40","500","5652.035000006435","images/stimuli/spore_stims/complex_05_A_b.gif","images/stimuli/spore_stims/complex_19_A_a.gif","forced_long","","6","complex_dissimilar","images/stimuli/spore_stims/complex_19_A_a.gif","","","","",""
"","null","html-keyboard-response","79","521895","0.0-21.0-0.1","SS1619739610683","","","null","","","","","","<p><img src= images/blank.png width =""600"" height = ""600"" style=""position:fixed;top:50%; left:50%; transform: translate(-50%, -50%); border:5px solid black"">","","","","","","","",""
"","372.78499999956694","sequential-stimulus-presentation-old","80","522785","0.0-21.0-1.1","SS1619739610683","trial","","40","500","872.7849999995669","images/stimuli/spore_stims/complex_05_A_b.gif","images/stimuli/spore_stims/complex_19_A_a.gif","forced_long","","6","complex_dissimilar","images/stimuli/spore_stims/complex_19_A_a.gif","","","","",""
"","null","html-keyboard-response","81","523690","0.0-21.0-0.2","SS1619739610683","","","null","","","","","","<p><img src= images/blank.png width =""600"" height = ""600"" style=""position:fixed;top:50%; left:50%; transform: translate(-50%, -50%); border:5px solid black"">","","","","","","","",""
"","524.4050000037532","sequential-stimulus-presentation-old","82","524737","0.0-21.0-1.2","SS1619739610683","trial","","40","500","1024.4050000037532","images/stimuli/spore_stims/complex_05_A_b.gif","images/stimuli/spore_stims/complex_19_A_a.gif","forced_long","","6","complex_dissimilar","images/stimuli/spore_stims/complex_19_A_a.gif","","","","",""
"","null","html-keyboard-response","83","526031","0.0-21.0-0.3","SS1619739610683","","","null","","","","","","<p><img src= images/blank.png width =""600"" height = ""600"" style=""position:fixed;top:50%; left:50%; transform: translate(-50%, -50%); border:5px solid black"">","","","","","","","",""
"","154.82999999949243","sequential-stimulus-presentation-old","84","526702","0.0-21.0-1.3","SS1619739610683","trial","","40","500","654.8299999994924","images/stimuli/spore_stims/complex_05_A_b.gif","images/stimuli/spore_stims/complex_19_A_a.gif","forced_long","","6","complex_dissimilar","images/stimuli/spore_stims/complex_19_A_a.gif","","","","",""
"","null","html-keyboard-response","85","527530","0.0-21.0-0.4","SS1619739610683","","","null","","","","","","<p><img src= images/blank.png width =""600"" height = ""600"" style=""position:fixed;top:50%; left:50%; transform: translate(-50%, -50%); border:5px solid black"">","","","","","","","",""
"","3312.0449999987613","sequential-stimulus-presentation-old","86","531356","0.0-21.0-1.4","SS1619739610683","trial","","40","500","3812.0449999987613","images/stimuli/spore_stims/complex_05_A_b.gif","images/stimuli/spore_stims/complex_19_A_a.gif","forced_long","","6","complex_dissimilar","images/stimuli/spore_stims/complex_19_A_a.gif","","","","",""
"","77938.65499999083","survey-multi-choice","87","609305","0.0-22.0","SS1619739610683","math_question","","","","","","","","","","","","{""Q0"":""13""}","[0]","13","",""
"","null","html-keyboard-response","88","610184","0.0-23.0-0.0","SS1619739610683","","","null","","","","","","<p><img src= images/blank.png width =""600"" height = ""600"" style=""position:fixed;top:50%; left:50%; transform: translate(-50%, -50%); border:5px solid black"">","","","","","","","",""
"","882.6800000097137","sequential-stimulus-presentation-old","89","611586","0.0-23.0-1.0","SS1619739610683","trial","","40","500","1382.6800000097137","images/stimuli/spore_stims/simple_10_A_b.gif","images/stimuli/spore_stims/simple_01_A_a.gif","self_paced","","7","simple_dissimilar","images/stimuli/spore_stims/simple_01_A_a.gif","","","","",""
"","null","html-keyboard-response","90","612523","0.0-23.0-0.1","SS1619739610683","","","null","","","","","","<p><img src= images/blank.png width =""600"" height = ""600"" style=""position:fixed;top:50%; left:50%; transform: translate(-50%, -50%); border:5px solid black"">","","","","","","","",""
"","57.45500000193715","sequential-stimulus-presentation-old","91","613102","0.0-23.0-1.1","SS1619739610683","trial","","40","500","557.4550000019372","images/stimuli/spore_stims/simple_10_A_b.gif","images/stimuli/spore_stims/simple_01_A_a.gif","self_paced","","7","simple_dissimilar","images/stimuli/spore_stims/simple_01_A_a.gif","","","","",""
"","null","html-keyboard-response","92","614338","0.0-23.0-0.2","SS1619739610683","","","null","","","","","","<p><img src= images/blank.png width =""600"" height = ""600"" style=""position:fixed;top:50%; left:50%; transform: translate(-50%, -50%); border:5px solid black"">","","","","","","","",""
"","84.8649999970803","sequential-stimulus-presentation-old","93","614939","0.0-23.0-1.2","SS1619739610683","trial","","40","500","584.8649999970803","images/stimuli/spore_stims/simple_10_A_b.gif","images/stimuli/spore_stims/simple_01_A_a.gif","self_paced","","7","simple_dissimilar","images/stimuli/spore_stims/simple_01_A_a.gif","","","","",""
"","null","html-keyboard-response","94","615820","0.0-23.0-0.3","SS1619739610683","","","null","","","","","","<p><img src= images/blank.png width =""600"" height = ""600"" style=""position:fixed;top:50%; left:50%; transform: translate(-50%, -50%); border:5px solid black"">","","","","","","","",""
"","884.4800000078976","sequential-stimulus-presentation-old","95","617220","0.0-23.0-1.3","SS1619739610683","trial","","40","500","1384.4800000078976","images/stimuli/spore_stims/simple_10_A_b.gif","images/stimuli/spore_stims/simple_01_A_a.gif","self_paced","","7","simple_dissimilar","images/stimuli/spore_stims/simple_01_A_a.gif","","","","",""
"","null","html-keyboard-response","96","618074","0.0-23.0-0.4","SS1619739610683","","","null","","","","","","<p><img src= images/blank.png width =""600"" height = ""600"" style=""position:fixed;top:50%; left:50%; transform: translate(-50%, -50%); border:5px solid black"">","","","","","","","",""
"","22.349999999278225","sequential-stimulus-presentation-old","97","618617","0.0-23.0-1.4","SS1619739610683","trial","","40","500","522.3499999992782","images/stimuli/spore_stims/simple_10_A_b.gif","images/stimuli/spore_stims/simple_01_A_a.gif","self_paced","","7","simple_dissimilar","images/stimuli/spore_stims/simple_01_A_a.gif","","","","",""
"","6161.0599999985425","survey-multi-choice","98","624789","0.0-24.0","SS1619739610683","math_question","","","","","","","","","","","","{""Q0"":""9""}","[0]","9","",""
"","null","html-keyboard-response","99","626071","0.0-25.0-0.0","SS1619739610683","","","null","","","","","","<p><img src= images/blank.png width =""600"" height = ""600"" style=""position:fixed;top:50%; left:50%; transform: translate(-50%, -50%); border:5px solid black"">","","","","","","","",""
"","26019.18000000296","sequential-stimulus-presentation-old","100","667119","0.0-25.0-1.0","SS1619739610683","trial","","40","500","26519.18000000296","images/stimuli/spore_stims/simple_11_A_b.gif","images/stimuli/spore_stims/simple_05_A_a.gif","forced_long","","8","simple_dissimilar","images/stimuli/spore_stims/simple_05_A_a.gif","","","","",""
"","null","html-keyboard-response","101","668286","0.0-25.0-0.1","SS1619739610683","","","null","","","","","","<p><img src= images/blank.png width =""600"" height = ""600"" style=""position:fixed;top:50%; left:50%; transform: translate(-50%, -50%); border:5px solid black"">","","","","","","","",""
"","1100.1700000051642","sequential-stimulus-presentation-old","102","669913","0.0-25.0-1.1","SS1619739610683","trial","","40","500","1600.1700000051642","images/stimuli/spore_stims/simple_11_A_b.gif","images/stimuli/spore_stims/simple_05_A_a.gif","forced_long","","8","simple_dissimilar","images/stimuli/spore_stims/simple_05_A_a.gif","","","","",""
"","null","html-keyboard-response","103","670992","0.0-25.0-0.2","SS1619739610683","","","null","","","","","","<p><img src= images/blank.png width =""600"" height = ""600"" style=""position:fixed;top:50%; left:50%; transform: translate(-50%, -50%); border:5px solid black"">","","","","","","","",""
"","400.78499999071937","sequential-stimulus-presentation-old","104","671911","0.0-25.0-1.2","SS1619739610683","trial","","40","500","900.7849999907194","images/stimuli/spore_stims/simple_11_A_b.gif","images/stimuli/spore_stims/simple_05_A_a.gif","forced_long","","8","simple_dissimilar","images/stimuli/spore_stims/simple_05_A_a.gif","","","","",""
"","null","html-keyboard-response","105","672829","0.0-25.0-0.3","SS1619739610683","","","null","","","","","","<p><img src= images/blank.png width =""600"" height = ""600"" style=""position:fixed;top:50%; left:50%; transform: translate(-50%, -50%); border:5px solid black"">","","","","","","","",""
"","667.2399999952177","sequential-stimulus-presentation-old","106","674013","0.0-25.0-1.3","SS1619739610683","trial","","40","500","1167.2399999952177","images/stimuli/spore_stims/simple_11_A_b.gif","images/stimuli/spore_stims/simple_05_A_a.gif","forced_long","","8","simple_dissimilar","images/stimuli/spore_stims/simple_11_A_b.gif","","","","",""
"","null","html-keyboard-response","107","675100","0.0-25.0-0.4","SS1619739610683","","","null","","","","","","<p><img src= images/blank.png width =""600"" height = ""600"" style=""position:fixed;top:50%; left:50%; transform: translate(-50%, -50%); border:5px solid black"">","","","","","","","",""
"","2077.8600000048755","sequential-stimulus-presentation-old","108","677695","0.0-25.0-1.4","SS1619739610683","trial","","40","500","2577.8600000048755","images/stimuli/spore_stims/simple_11_A_b.gif","images/stimuli/spore_stims/simple_05_A_a.gif","forced_long","","8","simple_dissimilar","images/stimuli/spore_stims/simple_05_A_a.gif","","","","",""
"","null","html-keyboard-response","109","678538","0.0-25.0-0.5","SS1619739610683","","","null","","","","","","<p><img src= images/blank.png width =""600"" height = ""600"" style=""position:fixed;top:50%; left:50%; transform: translate(-50%, -50%); border:5px solid black"">","","","","","","","",""
"","38605.32999999123","sequential-stimulus-presentation-old","110","717661","0.0-25.0-1.5","SS1619739610683","trial","","40","500","39105.32999999123","images/stimuli/spore_stims/simple_11_A_b.gif","images/stimuli/spore_stims/simple_05_A_a.gif","forced_long","","8","simple_dissimilar","images/stimuli/spore_stims/simple_11_A_b.gif","","","","",""
"","4823.264999999083","survey-multi-choice","111","722502","0.0-26.0","SS1619739610683","math_question","","","","","","","","","","","","{""Q0"":""12""}","[0]","12","",""
"","null","html-keyboard-response","112","723360","0.0-27.0-0.0","SS1619739610683","","","null","","","","","","<p><img src= images/blank.png width =""600"" height = ""600"" style=""position:fixed;top:50%; left:50%; transform: translate(-50%, -50%); border:5px solid black"">","","","","","","","",""
"","212095.79000000667","sequential-stimulus-presentation-old","113","935976","0.0-27.0-1.0","SS1619739610683","trial","","40","500","212595.79000000667","images/stimuli/spore_stims/simple_12_A_a.gif","images/stimuli/spore_stims/simple_20_A_b.gif","forced_short","","9","simple_dissimilar","images/stimuli/spore_stims/simple_20_A_b.gif","","","","",""
"","null","html-keyboard-response","114","937298","0.0-27.0-0.1","SS1619739610683","","","null","","","","","","<p><img src= images/blank.png width =""600"" height = ""600"" style=""position:fixed;top:50%; left:50%; transform: translate(-50%, -50%); border:5px solid black"">","","","","","","","",""
"","207.2700000135228","sequential-stimulus-presentation-old","115","938015","0.0-27.0-1.1","SS1619739610683","trial","","40","500","707.2700000135228","images/stimuli/spore_stims/simple_12_A_a.gif","images/stimuli/spore_stims/simple_20_A_b.gif","forced_short","","9","simple_dissimilar","images/stimuli/spore_stims/simple_20_A_b.gif","","","","",""
"","null","html-keyboard-response","116","939167","0.0-27.0-0.2","SS1619739610683","","","null","","","","","","<p><img src= images/blank.png width =""600"" height = ""600"" style=""position:fixed;top:50%; left:50%; transform: translate(-50%, -50%); border:5px solid black"">","","","","","","","",""
"","865.9099999931641","sequential-stimulus-presentation-old","117","940551","0.0-27.0-1.2","SS1619739610683","trial","","40","500","1365.909999993164","images/stimuli/spore_stims/simple_12_A_a.gif","images/stimuli/spore_stims/simple_20_A_b.gif","forced_short","","9","simple_dissimilar","images/stimuli/spore_stims/simple_12_A_a.gif","","","","",""
"","null","html-keyboard-response","118","941391","0.0-27.0-0.3","SS1619739610683","","","null","","","","","","<p><img src= images/blank.png width =""600"" height = ""600"" style=""position:fixed;top:50%; left:50%; transform: translate(-50%, -50%); border:5px solid black"">","","","","","","","",""
"","1890.625","sequential-stimulus-presentation-old","119","943802","0.0-27.0-1.3","SS1619739610683","trial","","40","500","2390.625","images/stimuli/spore_stims/simple_12_A_a.gif","images/stimuli/spore_stims/simple_20_A_b.gif","forced_short","","9","simple_dissimilar","images/stimuli/spore_stims/simple_20_A_b.gif","","","","",""
"","null","html-keyboard-response","120","944974","0.0-27.0-0.4","SS1619739610683","","","null","","","","","","<p><img src= images/blank.png width =""600"" height = ""600"" style=""position:fixed;top:50%; left:50%; transform: translate(-50%, -50%); border:5px solid black"">","","","","","","","",""
"","314.75000000500586","sequential-stimulus-presentation-old","121","945811","0.0-27.0-1.4","SS1619739610683","trial","","40","500","814.7500000050059","images/stimuli/spore_stims/simple_12_A_a.gif","images/stimuli/spore_stims/simple_20_A_b.gif","forced_short","","9","simple_dissimilar","images/stimuli/spore_stims/simple_12_A_a.gif","","","","",""
"","5138.254999998026","survey-multi-choice","122","950961","0.0-28.0","SS1619739610683","math_question","","","","","","","","","","","","{""Q0"":""8""}","[0]","8","",""
"","null","html-keyboard-response","123","952012","0.0-29.0-0.0","SS1619739610683","","","null","","","","","","<p><img src= images/blank.png width =""600"" height = ""600"" style=""position:fixed;top:50%; left:50%; transform: translate(-50%, -50%); border:5px solid black"">","","","","","","","",""
"","17884.135000000242","sequential-stimulus-presentation-old","124","984909","0.0-29.0-1.0","SS1619739610683","trial","","40","500","18384.135000000242","images/stimuli/spore_stims/simple_07_A_b.gif","images/stimuli/spore_stims/simple_13_A_a.gif","forced_long","","10","simple_dissimilar","images/stimuli/spore_stims/simple_13_A_a.gif","","","","",""
"","null","html-keyboard-response","125","986070","0.0-29.0-0.1","SS1619739610683","","","null","","","","","","<p><img src= images/blank.png width =""600"" height = ""600"" style=""position:fixed;top:50%; left:50%; transform: translate(-50%, -50%); border:5px solid black"">","","","","","","","",""
"","61.77500000922009","sequential-stimulus-presentation-old","126","986651","0.0-29.0-1.1","SS1619739610683","trial","","40","500","561.7750000092201","images/stimuli/spore_stims/simple_07_A_b.gif","images/stimuli/spore_stims/simple_13_A_a.gif","forced_long","","10","simple_dissimilar","images/stimuli/spore_stims/simple_13_A_a.gif","","","","",""
"","null","html-keyboard-response","127","987741","0.0-29.0-0.2","SS1619739610683","","","null","","","","","","<p><img src= images/blank.png width =""600"" height = ""600"" style=""position:fixed;top:50%; left:50%; transform: translate(-50%, -50%); border:5px solid black"">","","","","","","","",""
"","364.9349999905098","sequential-stimulus-presentation-old","128","988625","0.0-29.0-1.2","SS1619739610683","trial","","40","500","864.9349999905098","images/stimuli/spore_stims/simple_07_A_b.gif","images/stimuli/spore_stims/simple_13_A_a.gif","forced_long","","10","simple_dissimilar","images/stimuli/spore_stims/simple_13_A_a.gif","","","","",""
"","null","html-keyboard-response","129","989936","0.0-29.0-0.3","SS1619739610683","","","null","","","","","","<p><img src= images/blank.png width =""600"" height = ""600"" style=""position:fixed;top:50%; left:50%; transform: translate(-50%, -50%); border:5px solid black"">","","","","","","","",""
"","117.79000000387896","sequential-stimulus-presentation-old","130","990571","0.0-29.0-1.3","SS1619739610683","trial","","40","500","617.790000003879","images/stimuli/spore_stims/simple_07_A_b.gif","images/stimuli/spore_stims/simple_13_A_a.gif","forced_long","","10","simple_dissimilar","images/stimuli/spore_stims/simple_13_A_a.gif","","","","",""
"","null","html-keyboard-response","131","991590","0.0-29.0-0.4","SS1619739610683","","","null","","","","","","<p><img src= images/blank.png width =""600"" height = ""600"" style=""position:fixed;top:50%; left:50%; transform: translate(-50%, -50%); border:5px solid black"">","","","","","","","",""
"","172.17499999969732","sequential-stimulus-presentation-old","132","992284","0.0-29.0-1.4","SS1619739610683","trial","","40","500","672.1749999996973","images/stimuli/spore_stims/simple_07_A_b.gif","images/stimuli/spore_stims/simple_13_A_a.gif","forced_long","","10","simple_dissimilar","images/stimuli/spore_stims/simple_07_A_b.gif","","","","",""
"","5432.209999999031","survey-multi-choice","133","997730","0.0-30.0","SS1619739610683","math_question","","","","","","","","","","","","{""Q0"":""7""}","[0]","7","",""
"","null","html-keyboard-response","134","998923","0.0-31.0-0.0","SS1619739610683","","","null","","","","","","<p><img src= images/blank.png width =""600"" height = ""600"" style=""position:fixed;top:50%; left:50%; transform: translate(-50%, -50%); border:5px solid black"">","","","","","","","",""
"","70593.86500000267","sequential-stimulus-presentation-old","135","1070041","0.0-31.0-1.0","SS1619739610683","trial","","40","500","71093.86500000267","images/stimuli/spore_stims/complex_11_A_a.gif","images/stimuli/spore_stims/complex_15_A_b.gif","self_paced","","11","complex_dissimilar","images/stimuli/spore_stims/complex_15_A_b.gif","","","","",""
"","null","html-keyboard-response","136","1071032","0.0-31.0-0.1","SS1619739610683","","","null","","","","","","<p><img src= images/blank.png width =""600"" height = ""600"" style=""position:fixed;top:50%; left:50%; transform: translate(-50%, -50%); border:5px solid black"">","","","","","","","",""
"","195.6650000065565","sequential-stimulus-presentation-old","137","1071751","0.0-31.0-1.1","SS1619739610683","trial","","40","500","695.6650000065565","images/stimuli/spore_stims/complex_11_A_a.gif","images/stimuli/spore_stims/complex_15_A_b.gif","self_paced","","11","complex_dissimilar","images/stimuli/spore_stims/complex_15_A_b.gif","","","","",""
"","null","html-keyboard-response","138","1072831","0.0-31.0-0.2","SS1619739610683","","","null","","","","","","<p><img src= images/blank.png width =""600"" height = ""600"" style=""position:fixed;top:50%; left:50%; transform: translate(-50%, -50%); border:5px solid black"">","","","","","","","",""
"","74.17999999597669","sequential-stimulus-presentation-old","139","1073430","0.0-31.0-1.2","SS1619739610683","trial","","40","500","574.1799999959767","images/stimuli/spore_stims/complex_11_A_a.gif","images/stimuli/spore_stims/complex_15_A_b.gif","self_paced","","11","complex_dissimilar","images/stimuli/spore_stims/complex_11_A_a.gif","","","","",""
"","null","html-keyboard-response","140","1074436","0.0-31.0-0.3","SS1619739610683","","","null","","","","","","<p><img src= images/blank.png width =""600"" height = ""600"" style=""position:fixed;top:50%; left:50%; transform: translate(-50%, -50%); border:5px solid black"">","","","","","","","",""
"","391.87000000686385","sequential-stimulus-presentation-old","141","1075347","0.0-31.0-1.3","SS1619739610683","trial","","40","500","891.8700000068638","images/stimuli/spore_stims/complex_11_A_a.gif","images/stimuli/spore_stims/complex_15_A_b.gif","self_paced","","11","complex_dissimilar","images/stimuli/spore_stims/complex_11_A_a.gif","","","","",""
"","null","html-keyboard-response","142","1076331","0.0-31.0-0.4","SS1619739610683","","","null","","","","","","<p><img src= images/blank.png width =""600"" height = ""600"" style=""position:fixed;top:50%; left:50%; transform: translate(-50%, -50%); border:5px solid black"">","","","","","","","",""
"","148.07999999891035","sequential-stimulus-presentation-old","143","1076996","0.0-31.0-1.4","SS1619739610683","trial","","40","500","648.0799999989104","images/stimuli/spore_stims/complex_11_A_a.gif","images/stimuli/spore_stims/complex_15_A_b.gif","self_paced","","11","complex_dissimilar","images/stimuli/spore_stims/complex_15_A_b.gif","","","","",""
"[{""page_index"":0,""viewing_time"":36985.840000008466}]","36986.45500000566","instructions","144","1113995","0.0-32.0","SS1619739610683","instructions","","","","","","","","","","","","","","","",""
"","9653.94000000367","survey-likert","145","1123662","0.0-33.0","SS1619739610683","similarity_question","","","","","","","","","","","","{""Q0"":1}","[0]","","images/stimuli/spore_stims/simple_13_A_a.gif","images/stimuli/spore_stims/simple_07_A_b.gif"
"","8479.790000012144","survey-likert","146","1132153","0.0-34.0","SS1619739610683","similarity_question","","","","","","","","","","","","{""Q0"":5}","[0]","","images/stimuli/spore_stims/simple_17_A_b.gif","images/stimuli/spore_stims/simple_15_A_a.gif"
"","9331.949999992736","survey-likert","147","1141496","0.0-35.0","SS1619739610683","similarity_question","","","","","","","","","","","","{""Q0"":4}","[0]","","images/stimuli/spore_stims/simple_18_A_b.gif","images/stimuli/spore_stims/simple_19_A_a.gif"
"","34465.7700000098","survey-likert","148","1175970","0.0-36.0","SS1619739610683","similarity_question","","","","","","","","","","","","{""Q0"":4}","[0]","","images/stimuli/spore_stims/simple_05_A_a.gif","images/stimuli/spore_stims/simple_11_A_b.gif"
"","13668.739999993704","survey-likert","149","1189647","0.0-37.0","SS1619739610683","similarity_question","","","","","","","","","","","","{""Q0"":1}","[0]","","images/stimuli/spore_stims/complex_13_A_b.gif","images/stimuli/spore_stims/complex_20_A_a.gif"
"","13090.244999999413","survey-likert","150","1202747","0.0-38.0","SS1619739610683","similarity_question","","","","","","","","","","","","{""Q0"":4}","[0]","","images/stimuli/spore_stims/simple_20_A_b.gif","images/stimuli/spore_stims/simple_12_A_a.gif"
"","8504.489999991842","survey-likert","151","1211259","0.0-39.0","SS1619739610683","similarity_question","","","","","","","","","","","","{""Q0"":1}","[0]","","images/stimuli/spore_stims/complex_11_A_a.gif","images/stimuli/spore_stims/complex_15_A_b.gif"
"","37404.79500000947","survey-likert","152","1248672","0.0-40.0","SS1619739610683","similarity_question","","","","","","","","","","","","{""Q0"":1}","[0]","","images/stimuli/spore_stims/complex_06_A_a.gif","images/stimuli/spore_stims/complex_04_A_b.gif"
"","4772.8349999962375","survey-likert","153","1253454","0.0-41.0","SS1619739610683","similarity_question","","","","","","","","","","","","{""Q0"":4}","[0]","","images/stimuli/spore_stims/simple_01_A_a.gif","images/stimuli/spore_stims/simple_10_A_b.gif"
"","22169.479999996955","survey-likert","154","1275631","0.0-42.0","SS1619739610683","similarity_question","","","","","","","","","","","","{""Q0"":1}","[0]","","images/stimuli/spore_stims/complex_05_A_b.gif","images/stimuli/spore_stims/complex_19_A_a.gif"
"","6158.609999998473","survey-likert","155","1281800","0.0-43.0","SS1619739610683","similarity_question","","","","","","","","","","","","{""Q0"":1}","[0]","","images/stimuli/spore_stims/complex_06_A_b.gif","images/stimuli/spore_stims/complex_07_A_a.gif"
"","6551.739999995334","survey-likert","156","1288364","0.0-44.0","SS1619739610683","similarity_question","","","","","","","","","","","","{""Q0"":1}","[0]","","images/stimuli/spore_stims/complex_16_A_b.gif","images/stimuli/spore_stims/complex_13_A_a.gif"
"[{""page_index"":0,""viewing_time"":5706.349999993108}]","5707.01499999268","instructions","157","1294080","0.0-45.0","SS1619739610683","instructions","","","","","","","","","","","","","","","",""
"","8795.304999992251","survey-likert","158","1302885","0.0-46.0","SS1619739610683","","","","","","","","","images/stimuli/spore_stims/simple_01_A_a.gif","","","","{""Q0"":1}","[0]","","",""
"","7587.530000004452","survey-likert","159","1310482","0.0-47.0","SS1619739610683","","","","","","","","","images/stimuli/spore_stims/complex_11_A_a.gif","","","","{""Q0"":4}","[0]","","",""
"","19938.21999999648","survey-likert","160","1330428","0.0-48.0","SS1619739610683","","","","","","","","","images/stimuli/spore_stims/simple_18_A_b.gif","","","","{""Q0"":1}","[0]","","",""
"","12921.075000005541","survey-likert","161","1343359","0.0-49.0","SS1619739610683","","","","","","","","","images/stimuli/spore_stims/complex_13_A_a.gif","","","","{""Q0"":5}","[0]","","",""
"","7219.5199999988545","survey-likert","162","1350589","0.0-50.0","SS1619739610683","","","","","","","","","images/stimuli/spore_stims/complex_07_A_a.gif","","","","{""Q0"":5}","[0]","","",""
"","4643.795000010636","survey-likert","163","1355241","0.0-51.0","SS1619739610683","","","","","","","","","images/stimuli/spore_stims/simple_11_A_b.gif","","","","{""Q0"":1}","[0]","","",""
"","4922.430000005988","survey-likert","164","1360173","0.0-52.0","SS1619739610683","","","","","","","","","images/stimuli/spore_stims/simple_13_A_a.gif","","","","{""Q0"":1}","[0]","","",""
"","4133.29000001261","survey-likert","165","1364315","0.0-53.0","SS1619739610683","","","","","","","","","images/stimuli/spore_stims/complex_06_A_a.gif","","","","{""Q0"":5}","[0]","","",""
"","4261.930000007851","survey-likert","166","1368587","0.0-54.0","SS1619739610683","","","","","","","","","images/stimuli/spore_stims/simple_15_A_a.gif","","","","{""Q0"":1}","[0]","","",""
"","19405.920000004815","survey-likert","167","1388003","0.0-55.0","SS1619739610683","","","","","","","","","images/stimuli/spore_stims/complex_19_A_a.gif","","","","{""Q0"":5}","[0]","","",""
"","4838.485000000335","survey-likert","168","1392851","0.0-56.0","SS1619739610683","","","","","","","","","images/stimuli/spore_stims/simple_12_A_a.gif","","","","{""Q0"":1}","[0]","","",""
"","9521.16999999294","survey-likert","169","1402381","0.0-57.0","SS1619739610683","","","","","","","","","images/stimuli/spore_stims/complex_13_A_b.gif","","","","{""Q0"":5}","[0]","","",""
"[{""page_index"":0,""viewing_time"":2777.5200000032783}]","2778.2150000131223","instructions","170","1405167","0.0-58.0","SS1619739610683","instructions","","","","","","","","","","","","","","","",""
"","4826.899999999907","demog-age","171","1410006","0.0-59.0","SS1619739610683","","","","","","","","","","","","","{""age"":""45""}","","","",""
"","8046.945000009146","demog-ethnic-US","172","1418066","0.0-60.0","SS1619739610683","","","","","","","","","","","","","{""ethnicity"":[""Black or African American""]}","[0]","","",""
"","11196.27500000922","demog-gender-and-education","173","1429272","0.0-61.0","SS1619739610683","","","","","","","","","","","","","{""gender"":""Male"",""education"":""Bachelor's Degree""}","[0,1]","","",""
"","16490.95999999554","survey-text","174","1445776","0.0-62.0","SS1619739610683","feedback","","","","","","","","","","","","{""Q0"":""None""}","","","",""
"[{""page_index"":0,""viewing_time"":2735.089999987278}]","2735.5399999939837","instructions","175","1448519","0.0-63.0","SS1619739610683","instructions","","","","","","","","","","","","","","","",""
