"view_history","rt","trial_type","trial_index","time_elapsed","internal_node_id","subject","stimulus_type","trial_stimulus","key_press","minimum_viewing_duration","trial_looking_time","block_deviant","block_background","exposure_type","stimulus","block_number","block_type","stimulus_displayed","responses","question_order","math_correct_answer","stimulus_left","stimulus_right"
"[{""page_index"":0,""viewing_time"":27943.035000003874}]","27944.14500001585","instructions","0","27945","0.0-0.0","SS1619739823278","","","","","","","","","","","","","","","","",""
"[{""page_index"":0,""viewing_time"":27970.60000000056},{""page_index"":1,""viewing_time"":6726.544999983162}]","34697.57999997819","instructions","1","64646","0.0-1.0","SS1619739823278","instructions","","","","","","","","","","","","","","","",""
"","6186.104999971576","sequential-stimulus-presentation-old","2","71339","0.0-2.0","SS1619739823278","","","40","500","6686.104999971576","null","null","self_paced","","","","","","","","",""
"","8930.840000044554","sequential-stimulus-presentation-old","3","80774","0.0-3.0","SS1619739823278","","","40","500","9430.840000044554","null","null","self_paced","","","","","","","","",""
"[{""page_index"":0,""viewing_time"":23828.7250000285}]","23829.070000036154","instructions","4","104605","0.0-4.0","SS1619739823278","instructions","","","","","","","","","","","","","","","",""
"","422.5200000219047","sequential-stimulus-presentation-old","5","120043","0.0-5.0","SS1619739823278","","","40","500","922.5200000219047","null","null","forced_long","","","","","","","","",""
"","3166.335000016261","sequential-stimulus-presentation-old","6","123714","0.0-6.0","SS1619739823278","","","40","500","3666.335000016261","null","null","forced_long","","","","","","","","",""
"[{""page_index"":0,""viewing_time"":5442.299999995157}]","5442.620000045281","instructions","7","129157","0.0-7.0","SS1619739823278","instructions","","","","","","","","","","","","","","","",""
"[{""page_index"":0,""viewing_time"":13651.980000024196},{""page_index"":1,""viewing_time"":12580.6749999756},{""page_index"":2,""viewing_time"":12330.874999985099},{""page_index"":3,""viewing_time"":1842.2450000070967},{""page_index"":4,""viewing_time"":1304.9200000241399}]","41711.04500000365","instructions","8","170871","0.0-8.0","SS1619739823278","instructions","","","","","","","","","","","","","","","",""
"","null","html-keyboard-response","9","171973","0.0-9.0-0.0","SS1619739823278","","","null","","","","","","<p><img src= images/blank.png width =""600"" height = ""600"" style=""position:fixed;top:50%; left:50%; transform: translate(-50%, -50%); border:5px solid black"">","","","","","","","",""
"","2835.9400000190362","sequential-stimulus-presentation-old","10","175317","0.0-9.0-1.0","SS1619739823278","trial","","40","500","3335.9400000190362","images/stimuli/spore_stims/complex_10_A_b.gif","images/stimuli/spore_stims/complex_13_A_a.gif","forced_short","","0","complex_dissimilar","images/stimuli/spore_stims/complex_13_A_a.gif","","","","",""
"","null","html-keyboard-response","11","176531","0.0-9.0-0.1","SS1619739823278","","","null","","","","","","<p><img src= images/blank.png width =""600"" height = ""600"" style=""position:fixed;top:50%; left:50%; transform: translate(-50%, -50%); border:5px solid black"">","","","","","","","",""
"","28928.809999953955","sequential-stimulus-presentation-old","12","205963","0.0-9.0-1.1","SS1619739823278","trial","","40","500","29428.809999953955","images/stimuli/spore_stims/complex_10_A_b.gif","images/stimuli/spore_stims/complex_13_A_a.gif","forced_short","","0","complex_dissimilar","images/stimuli/spore_stims/complex_13_A_a.gif","","","","",""
"","null","html-keyboard-response","13","206958","0.0-9.0-0.2","SS1619739823278","","","null","","","","","","<p><img src= images/blank.png width =""600"" height = ""600"" style=""position:fixed;top:50%; left:50%; transform: translate(-50%, -50%); border:5px solid black"">","","","","","","","",""
"","7240.434999985155","sequential-stimulus-presentation-old","14","214704","0.0-9.0-1.2","SS1619739823278","trial","","40","500","7740.434999985155","images/stimuli/spore_stims/complex_10_A_b.gif","images/stimuli/spore_stims/complex_13_A_a.gif","forced_short","","0","complex_dissimilar","images/stimuli/spore_stims/complex_10_A_b.gif","","","","",""
"","null","html-keyboard-response","15","215981","0.0-9.0-0.3","SS1619739823278","","","null","","","","","","<p><img src= images/blank.png width =""600"" height = ""600"" style=""position:fixed;top:50%; left:50%; transform: translate(-50%, -50%); border:5px solid black"">","","","","","","","",""
"","6555.705000006128","sequential-stimulus-presentation-old","16","223044","0.0-9.0-1.3","SS1619739823278","trial","","40","500","7055.705000006128","images/stimuli/spore_stims/complex_10_A_b.gif","images/stimuli/spore_stims/complex_13_A_a.gif","forced_short","","0","complex_dissimilar","images/stimuli/spore_stims/complex_13_A_a.gif","","","","",""
"","6257.805000001099","survey-multi-choice","17","229310","0.0-10.0","SS1619739823278","math_question","","","","","","","","","","","","{""Q0"":""8""}","[0]","8","",""
"","null","html-keyboard-response","18","230180","0.0-11.0-0.0","SS1619739823278","","","null","","","","","","<p><img src= images/blank.png width =""600"" height = ""600"" style=""position:fixed;top:50%; left:50%; transform: translate(-50%, -50%); border:5px solid black"">","","","","","","","",""
"","8581.750000012107","sequential-stimulus-presentation-old","19","239266","0.0-11.0-1.0","SS1619739823278","trial","","40","500","9081.750000012107","images/stimuli/spore_stims/simple_20_A_a.gif","images/stimuli/spore_stims/simple_16_A_b.gif","self_paced","","1","simple_dissimilar","images/stimuli/spore_stims/simple_16_A_b.gif","","","","",""
"","null","html-keyboard-response","20","240531","0.0-11.0-0.1","SS1619739823278","","","null","","","","","","<p><img src= images/blank.png width =""600"" height = ""600"" style=""position:fixed;top:50%; left:50%; transform: translate(-50%, -50%); border:5px solid black"">","","","","","","","",""
"","11554.340000031516","sequential-stimulus-presentation-old","21","252593","0.0-11.0-1.1","SS1619739823278","trial","","40","500","12054.340000031516","images/stimuli/spore_stims/simple_20_A_a.gif","images/stimuli/spore_stims/simple_16_A_b.gif","self_paced","","1","simple_dissimilar","images/stimuli/spore_stims/simple_20_A_a.gif","","","","",""
"","null","html-keyboard-response","22","253874","0.0-11.0-0.2","SS1619739823278","","","null","","","","","","<p><img src= images/blank.png width =""600"" height = ""600"" style=""position:fixed;top:50%; left:50%; transform: translate(-50%, -50%); border:5px solid black"">","","","","","","","",""
"","11413.960000034422","sequential-stimulus-presentation-old","23","265795","0.0-11.0-1.2","SS1619739823278","trial","","40","500","11913.960000034422","images/stimuli/spore_stims/simple_20_A_a.gif","images/stimuli/spore_stims/simple_16_A_b.gif","self_paced","","1","simple_dissimilar","images/stimuli/spore_stims/simple_20_A_a.gif","","","","",""
"","null","html-keyboard-response","24","266817","0.0-11.0-0.3","SS1619739823278","","","null","","","","","","<p><img src= images/blank.png width =""600"" height = ""600"" style=""position:fixed;top:50%; left:50%; transform: translate(-50%, -50%); border:5px solid black"">","","","","","","","",""
"","10478.189999994356","sequential-stimulus-presentation-old","25","277800","0.0-11.0-1.3","SS1619739823278","trial","","40","500","10978.189999994356","images/stimuli/spore_stims/simple_20_A_a.gif","images/stimuli/spore_stims/simple_16_A_b.gif","self_paced","","1","simple_dissimilar","images/stimuli/spore_stims/simple_16_A_b.gif","","","","",""
"","null","html-keyboard-response","26","278777","0.0-11.0-0.4","SS1619739823278","","","null","","","","","","<p><img src= images/blank.png width =""600"" height = ""600"" style=""position:fixed;top:50%; left:50%; transform: translate(-50%, -50%); border:5px solid black"">","","","","","","","",""
"","5957.204999984242","sequential-stimulus-presentation-old","27","285242","0.0-11.0-1.4","SS1619739823278","trial","","40","500","6457.204999984242","images/stimuli/spore_stims/simple_20_A_a.gif","images/stimuli/spore_stims/simple_16_A_b.gif","self_paced","","1","simple_dissimilar","images/stimuli/spore_stims/simple_16_A_b.gif","","","","",""
"","null","html-keyboard-response","28","286318","0.0-11.0-0.5","SS1619739823278","","","null","","","","","","<p><img src= images/blank.png width =""600"" height = ""600"" style=""position:fixed;top:50%; left:50%; transform: translate(-50%, -50%); border:5px solid black"">","","","","","","","",""
"","6514.480000012554","sequential-stimulus-presentation-old","29","293341","0.0-11.0-1.5","SS1619739823278","trial","","40","500","7014.480000012554","images/stimuli/spore_stims/simple_20_A_a.gif","images/stimuli/spore_stims/simple_16_A_b.gif","self_paced","","1","simple_dissimilar","images/stimuli/spore_stims/simple_16_A_b.gif","","","","",""
"","3949.8400000156835","survey-multi-choice","30","297293","0.0-12.0","SS1619739823278","math_question","","","","","","","","","","","","{""Q0"":""9""}","[0]","9","",""
"","null","html-keyboard-response","31","298398","0.0-13.0-0.0","SS1619739823278","","","null","","","","","","<p><img src= images/blank.png width =""600"" height = ""600"" style=""position:fixed;top:50%; left:50%; transform: translate(-50%, -50%); border:5px solid black"">","","","","","","","",""
"","4285.440000006929","sequential-stimulus-presentation-old","32","317687","0.0-13.0-1.0","SS1619739823278","trial","","40","500","4785.440000006929","images/stimuli/spore_stims/simple_12_A_a.gif","images/stimuli/spore_stims/simple_07_A_b.gif","forced_long","","2","simple_dissimilar","images/stimuli/spore_stims/simple_07_A_b.gif","","","","",""
"","null","html-keyboard-response","33","318895","0.0-13.0-0.1","SS1619739823278","","","null","","","","","","<p><img src= images/blank.png width =""600"" height = ""600"" style=""position:fixed;top:50%; left:50%; transform: translate(-50%, -50%); border:5px solid black"">","","","","","","","",""
"","27487.484999990556","sequential-stimulus-presentation-old","34","346890","0.0-13.0-1.1","SS1619739823278","trial","","40","500","27987.484999990556","images/stimuli/spore_stims/simple_12_A_a.gif","images/stimuli/spore_stims/simple_07_A_b.gif","forced_long","","2","simple_dissimilar","images/stimuli/spore_stims/simple_07_A_b.gif","","","","",""
"","null","html-keyboard-response","35","347812","0.0-13.0-0.2","SS1619739823278","","","null","","","","","","<p><img src= images/blank.png width =""600"" height = ""600"" style=""position:fixed;top:50%; left:50%; transform: translate(-50%, -50%); border:5px solid black"">","","","","","","","",""
"","6736.909999977797","sequential-stimulus-presentation-old","36","355057","0.0-13.0-1.2","SS1619739823278","trial","","40","500","7236.909999977797","images/stimuli/spore_stims/simple_12_A_a.gif","images/stimuli/spore_stims/simple_07_A_b.gif","forced_long","","2","simple_dissimilar","images/stimuli/spore_stims/simple_07_A_b.gif","","","","",""
"","null","html-keyboard-response","37","356043","0.0-13.0-0.3","SS1619739823278","","","null","","","","","","<p><img src= images/blank.png width =""600"" height = ""600"" style=""position:fixed;top:50%; left:50%; transform: translate(-50%, -50%); border:5px solid black"">","","","","","","","",""
"","8331.689999962691","sequential-stimulus-presentation-old","38","364888","0.0-13.0-1.3","SS1619739823278","trial","","40","500","8831.689999962691","images/stimuli/spore_stims/simple_12_A_a.gif","images/stimuli/spore_stims/simple_07_A_b.gif","forced_long","","2","simple_dissimilar","images/stimuli/spore_stims/simple_07_A_b.gif","","","","",""
"","5581.8949999520555","survey-multi-choice","39","370472","0.0-14.0","SS1619739823278","math_question","","","","","","","","","","","","{""Q0"":""17""}","[0]","17","",""
"","null","html-keyboard-response","40","371575","0.0-15.0-0.0","SS1619739823278","","","null","","","","","","<p><img src= images/blank.png width =""600"" height = ""600"" style=""position:fixed;top:50%; left:50%; transform: translate(-50%, -50%); border:5px solid black"">","","","","","","","",""
"","3237.4650000128895","sequential-stimulus-presentation-old","41","375319","0.0-15.0-1.0","SS1619739823278","trial","","40","500","3737.4650000128895","images/stimuli/spore_stims/complex_11_A_a.gif","images/stimuli/spore_stims/complex_01_A_b.gif","self_paced","","3","complex_dissimilar","images/stimuli/spore_stims/complex_01_A_b.gif","","","","",""
"","null","html-keyboard-response","42","376610","0.0-15.0-0.1","SS1619739823278","","","null","","","","","","<p><img src= images/blank.png width =""600"" height = ""600"" style=""position:fixed;top:50%; left:50%; transform: translate(-50%, -50%); border:5px solid black"">","","","","","","","",""
"","7083.084999991115","sequential-stimulus-presentation-old","43","384198","0.0-15.0-1.1","SS1619739823278","trial","","40","500","7583.084999991115","images/stimuli/spore_stims/complex_11_A_a.gif","images/stimuli/spore_stims/complex_01_A_b.gif","self_paced","","3","complex_dissimilar","images/stimuli/spore_stims/complex_11_A_a.gif","","","","",""
"","null","html-keyboard-response","44","385453","0.0-15.0-0.2","SS1619739823278","","","null","","","","","","<p><img src= images/blank.png width =""600"" height = ""600"" style=""position:fixed;top:50%; left:50%; transform: translate(-50%, -50%); border:5px solid black"">","","","","","","","",""
"","4563.525000005029","sequential-stimulus-presentation-old","45","390525","0.0-15.0-1.2","SS1619739823278","trial","","40","500","5063.525000005029","images/stimuli/spore_stims/complex_11_A_a.gif","images/stimuli/spore_stims/complex_01_A_b.gif","self_paced","","3","complex_dissimilar","images/stimuli/spore_stims/complex_01_A_b.gif","","","","",""
"","null","html-keyboard-response","46","391584","0.0-15.0-0.3","SS1619739823278","","","null","","","","","","<p><img src= images/blank.png width =""600"" height = ""600"" style=""position:fixed;top:50%; left:50%; transform: translate(-50%, -50%); border:5px solid black"">","","","","","","","",""
"","2971.369999984745","sequential-stimulus-presentation-old","47","395063","0.0-15.0-1.3","SS1619739823278","trial","","40","500","3471.369999984745","images/stimuli/spore_stims/complex_11_A_a.gif","images/stimuli/spore_stims/complex_01_A_b.gif","self_paced","","3","complex_dissimilar","images/stimuli/spore_stims/complex_11_A_a.gif","","","","",""
"","3882.325000013225","survey-multi-choice","48","398950","0.0-16.0","SS1619739823278","math_question","","","","","","","","","","","","{""Q0"":""11""}","[0]","11","",""
"","null","html-keyboard-response","49","400253","0.0-17.0-0.0","SS1619739823278","","","null","","","","","","<p><img src= images/blank.png width =""600"" height = ""600"" style=""position:fixed;top:50%; left:50%; transform: translate(-50%, -50%); border:5px solid black"">","","","","","","","",""
"","4762.219999975059","sequential-stimulus-presentation-old","50","405519","0.0-17.0-1.0","SS1619739823278","trial","","40","500","5262.219999975059","images/stimuli/spore_stims/complex_19_A_b.gif","images/stimuli/spore_stims/complex_05_A_a.gif","self_paced","","4","complex_dissimilar","images/stimuli/spore_stims/complex_05_A_a.gif","","","","",""
"","null","html-keyboard-response","51","406787","0.0-17.0-0.1","SS1619739823278","","","null","","","","","","<p><img src= images/blank.png width =""600"" height = ""600"" style=""position:fixed;top:50%; left:50%; transform: translate(-50%, -50%); border:5px solid black"">","","","","","","","",""
"","5021.30500000203","sequential-stimulus-presentation-old","52","412328","0.0-17.0-1.1","SS1619739823278","trial","","40","500","5521.30500000203","images/stimuli/spore_stims/complex_19_A_b.gif","images/stimuli/spore_stims/complex_05_A_a.gif","self_paced","","4","complex_dissimilar","images/stimuli/spore_stims/complex_05_A_a.gif","","","","",""
"","null","html-keyboard-response","53","413147","0.0-17.0-0.2","SS1619739823278","","","null","","","","","","<p><img src= images/blank.png width =""600"" height = ""600"" style=""position:fixed;top:50%; left:50%; transform: translate(-50%, -50%); border:5px solid black"">","","","","","","","",""
"","5093.340000021271","sequential-stimulus-presentation-old","54","418749","0.0-17.0-1.2","SS1619739823278","trial","","40","500","5593.340000021271","images/stimuli/spore_stims/complex_19_A_b.gif","images/stimuli/spore_stims/complex_05_A_a.gif","self_paced","","4","complex_dissimilar","images/stimuli/spore_stims/complex_19_A_b.gif","","","","",""
"","null","html-keyboard-response","55","419939","0.0-17.0-0.3","SS1619739823278","","","null","","","","","","<p><img src= images/blank.png width =""600"" height = ""600"" style=""position:fixed;top:50%; left:50%; transform: translate(-50%, -50%); border:5px solid black"">","","","","","","","",""
"","3500.1500000362284","sequential-stimulus-presentation-old","56","423946","0.0-17.0-1.3","SS1619739823278","trial","","40","500","4000.1500000362284","images/stimuli/spore_stims/complex_19_A_b.gif","images/stimuli/spore_stims/complex_05_A_a.gif","self_paced","","4","complex_dissimilar","images/stimuli/spore_stims/complex_05_A_a.gif","","","","",""
"","null","html-keyboard-response","57","424811","0.0-17.0-0.4","SS1619739823278","","","null","","","","","","<p><img src= images/blank.png width =""600"" height = ""600"" style=""position:fixed;top:50%; left:50%; transform: translate(-50%, -50%); border:5px solid black"">","","","","","","","",""
"","4251.459999999497","sequential-stimulus-presentation-old","58","429572","0.0-17.0-1.4","SS1619739823278","trial","","40","500","4751.459999999497","images/stimuli/spore_stims/complex_19_A_b.gif","images/stimuli/spore_stims/complex_05_A_a.gif","self_paced","","4","complex_dissimilar","images/stimuli/spore_stims/complex_19_A_b.gif","","","","",""
"","3644.674999988638","survey-multi-choice","59","433219","0.0-18.0","SS1619739823278","math_question","","","","","","","","","","","","{""Q0"":""5""}","[0]","5","",""
"","null","html-keyboard-response","60","434067","0.0-19.0-0.0","SS1619739823278","","","null","","","","","","<p><img src= images/blank.png width =""600"" height = ""600"" style=""position:fixed;top:50%; left:50%; transform: translate(-50%, -50%); border:5px solid black"">","","","","","","","",""
"","2175.1899999799207","sequential-stimulus-presentation-old","61","451247","0.0-19.0-1.0","SS1619739823278","trial","","40","500","2675.1899999799207","images/stimuli/spore_stims/complex_07_A_a.gif","images/stimuli/spore_stims/complex_17_A_b.gif","forced_long","","5","complex_dissimilar","images/stimuli/spore_stims/complex_17_A_b.gif","","","","",""
"","null","html-keyboard-response","62","452229","0.0-19.0-0.1","SS1619739823278","","","null","","","","","","<p><img src= images/blank.png width =""600"" height = ""600"" style=""position:fixed;top:50%; left:50%; transform: translate(-50%, -50%); border:5px solid black"">","","","","","","","",""
"","4120.2099999645725","sequential-stimulus-presentation-old","63","456871","0.0-19.0-1.1","SS1619739823278","trial","","40","500","4620.2099999645725","images/stimuli/spore_stims/complex_07_A_a.gif","images/stimuli/spore_stims/complex_17_A_b.gif","forced_long","","5","complex_dissimilar","images/stimuli/spore_stims/complex_07_A_a.gif","","","","",""
"","null","html-keyboard-response","64","458039","0.0-19.0-0.2","SS1619739823278","","","null","","","","","","<p><img src= images/blank.png width =""600"" height = ""600"" style=""position:fixed;top:50%; left:50%; transform: translate(-50%, -50%); border:5px solid black"">","","","","","","","",""
"","5348.014999995939","sequential-stimulus-presentation-old","65","463894","0.0-19.0-1.2","SS1619739823278","trial","","40","500","5848.014999995939","images/stimuli/spore_stims/complex_07_A_a.gif","images/stimuli/spore_stims/complex_17_A_b.gif","forced_long","","5","complex_dissimilar","images/stimuli/spore_stims/complex_17_A_b.gif","","","","",""
"","null","html-keyboard-response","66","465041","0.0-19.0-0.3","SS1619739823278","","","null","","","","","","<p><img src= images/blank.png width =""600"" height = ""600"" style=""position:fixed;top:50%; left:50%; transform: translate(-50%, -50%); border:5px solid black"">","","","","","","","",""
"","2463.179999962449","sequential-stimulus-presentation-old","67","468007","0.0-19.0-1.3","SS1619739823278","trial","","40","500","2963.179999962449","images/stimuli/spore_stims/complex_07_A_a.gif","images/stimuli/spore_stims/complex_17_A_b.gif","forced_long","","5","complex_dissimilar","images/stimuli/spore_stims/complex_17_A_b.gif","","","","",""
"","null","html-keyboard-response","68","468904","0.0-19.0-0.4","SS1619739823278","","","null","","","","","","<p><img src= images/blank.png width =""600"" height = ""600"" style=""position:fixed;top:50%; left:50%; transform: translate(-50%, -50%); border:5px solid black"">","","","","","","","",""
"","3003.9799999794923","sequential-stimulus-presentation-old","69","472431","0.0-19.0-1.4","SS1619739823278","trial","","40","500","3503.9799999794923","images/stimuli/spore_stims/complex_07_A_a.gif","images/stimuli/spore_stims/complex_17_A_b.gif","forced_long","","5","complex_dissimilar","images/stimuli/spore_stims/complex_17_A_b.gif","","","","",""
"","null","html-keyboard-response","70","473475","0.0-19.0-0.5","SS1619739823278","","","null","","","","","","<p><img src= images/blank.png width =""600"" height = ""600"" style=""position:fixed;top:50%; left:50%; transform: translate(-50%, -50%); border:5px solid black"">","","","","","","","",""
"","4491.740000026766","sequential-stimulus-presentation-old","71","478475","0.0-19.0-1.5","SS1619739823278","trial","","40","500","4991.740000026766","images/stimuli/spore_stims/complex_07_A_a.gif","images/stimuli/spore_stims/complex_17_A_b.gif","forced_long","","5","complex_dissimilar","images/stimuli/spore_stims/complex_07_A_a.gif","","","","",""
"","3457.059999986086","survey-multi-choice","72","481935","0.0-20.0","SS1619739823278","math_question","","","","","","","","","","","","{""Q0"":""11""}","[0]","11","",""
"","null","html-keyboard-response","73","482761","0.0-21.0-0.0","SS1619739823278","","","null","","","","","","<p><img src= images/blank.png width =""600"" height = ""600"" style=""position:fixed;top:50%; left:50%; transform: translate(-50%, -50%); border:5px solid black"">","","","","","","","",""
"","5576.300000015181","sequential-stimulus-presentation-old","74","488843","0.0-21.0-1.0","SS1619739823278","trial","","40","500","6076.300000015181","images/stimuli/spore_stims/complex_16_A_a.gif","images/stimuli/spore_stims/complex_11_A_b.gif","forced_short","","6","complex_dissimilar","images/stimuli/spore_stims/complex_11_A_b.gif","","","","",""
"","null","html-keyboard-response","75","489880","0.0-21.0-0.1","SS1619739823278","","","null","","","","","","<p><img src= images/blank.png width =""600"" height = ""600"" style=""position:fixed;top:50%; left:50%; transform: translate(-50%, -50%); border:5px solid black"">","","","","","","","",""
"","6267.62499997858","sequential-stimulus-presentation-old","76","496669","0.0-21.0-1.1","SS1619739823278","trial","","40","500","6767.62499997858","images/stimuli/spore_stims/complex_16_A_a.gif","images/stimuli/spore_stims/complex_11_A_b.gif","forced_short","","6","complex_dissimilar","images/stimuli/spore_stims/complex_11_A_b.gif","","","","",""
"","null","html-keyboard-response","77","497963","0.0-21.0-0.2","SS1619739823278","","","null","","","","","","<p><img src= images/blank.png width =""600"" height = ""600"" style=""position:fixed;top:50%; left:50%; transform: translate(-50%, -50%); border:5px solid black"">","","","","","","","",""
"","16632.610000029672","sequential-stimulus-presentation-old","78","515104","0.0-21.0-1.2","SS1619739823278","trial","","40","500","17132.610000029672","images/stimuli/spore_stims/complex_16_A_a.gif","images/stimuli/spore_stims/complex_11_A_b.gif","forced_short","","6","complex_dissimilar","images/stimuli/spore_stims/complex_16_A_a.gif","","","","",""
"","null","html-keyboard-response","79","515945","0.0-21.0-0.3","SS1619739823278","","","null","","","","","","<p><img src= images/blank.png width =""600"" height = ""600"" style=""position:fixed;top:50%; left:50%; transform: translate(-50%, -50%); border:5px solid black"">","","","","","","","",""
"","5261.605000006966","sequential-stimulus-presentation-old","80","521724","0.0-21.0-1.3","SS1619739823278","trial","","40","500","5761.605000006966","images/stimuli/spore_stims/complex_16_A_a.gif","images/stimuli/spore_stims/complex_11_A_b.gif","forced_short","","6","complex_dissimilar","images/stimuli/spore_stims/complex_11_A_b.gif","","","","",""
"","null","html-keyboard-response","81","522567","0.0-21.0-0.4","SS1619739823278","","","null","","","","","","<p><img src= images/blank.png width =""600"" height = ""600"" style=""position:fixed;top:50%; left:50%; transform: translate(-50%, -50%); border:5px solid black"">","","","","","","","",""
"","3823.229999979958","sequential-stimulus-presentation-old","82","526912","0.0-21.0-1.4","SS1619739823278","trial","","40","500","4323.229999979958","images/stimuli/spore_stims/complex_16_A_a.gif","images/stimuli/spore_stims/complex_11_A_b.gif","forced_short","","6","complex_dissimilar","images/stimuli/spore_stims/complex_11_A_b.gif","","","","",""
"","null","html-keyboard-response","83","527757","0.0-21.0-0.5","SS1619739823278","","","null","","","","","","<p><img src= images/blank.png width =""600"" height = ""600"" style=""position:fixed;top:50%; left:50%; transform: translate(-50%, -50%); border:5px solid black"">","","","","","","","",""
"","5189.094999979716","sequential-stimulus-presentation-old","84","533456","0.0-21.0-1.5","SS1619739823278","trial","","40","500","5689.094999979716","images/stimuli/spore_stims/complex_16_A_a.gif","images/stimuli/spore_stims/complex_11_A_b.gif","forced_short","","6","complex_dissimilar","images/stimuli/spore_stims/complex_16_A_a.gif","","","","",""
"","5506.990000023507","survey-multi-choice","85","538969","0.0-22.0","SS1619739823278","math_question","","","","","","","","","","","","{""Q0"":""17""}","[0]","17","",""
"","null","html-keyboard-response","86","539916","0.0-23.0-0.0","SS1619739823278","","","null","","","","","","<p><img src= images/blank.png width =""600"" height = ""600"" style=""position:fixed;top:50%; left:50%; transform: translate(-50%, -50%); border:5px solid black"">","","","","","","","",""
"","14471.0999999661","sequential-stimulus-presentation-old","87","569394","0.0-23.0-1.0","SS1619739823278","trial","","40","500","14971.0999999661","images/stimuli/spore_stims/complex_02_A_a.gif","images/stimuli/spore_stims/complex_13_A_b.gif","forced_long","","7","complex_dissimilar","images/stimuli/spore_stims/complex_13_A_b.gif","","","","",""
"","null","html-keyboard-response","88","570297","0.0-23.0-0.1","SS1619739823278","","","null","","","","","","<p><img src= images/blank.png width =""600"" height = ""600"" style=""position:fixed;top:50%; left:50%; transform: translate(-50%, -50%); border:5px solid black"">","","","","","","","",""
"","16312.654999957886","sequential-stimulus-presentation-old","89","587119","0.0-23.0-1.1","SS1619739823278","trial","","40","500","16812.654999957886","images/stimuli/spore_stims/complex_02_A_a.gif","images/stimuli/spore_stims/complex_13_A_b.gif","forced_long","","7","complex_dissimilar","images/stimuli/spore_stims/complex_13_A_b.gif","","","","",""
"","null","html-keyboard-response","90","587983","0.0-23.0-0.2","SS1619739823278","","","null","","","","","","<p><img src= images/blank.png width =""600"" height = ""600"" style=""position:fixed;top:50%; left:50%; transform: translate(-50%, -50%); border:5px solid black"">","","","","","","","",""
"","7541.479999956209","sequential-stimulus-presentation-old","91","596029","0.0-23.0-1.2","SS1619739823278","trial","","40","500","8041.479999956209","images/stimuli/spore_stims/complex_02_A_a.gif","images/stimuli/spore_stims/complex_13_A_b.gif","forced_long","","7","complex_dissimilar","images/stimuli/spore_stims/complex_13_A_b.gif","","","","",""
"","null","html-keyboard-response","92","597021","0.0-23.0-0.3","SS1619739823278","","","null","","","","","","<p><img src= images/blank.png width =""600"" height = ""600"" style=""position:fixed;top:50%; left:50%; transform: translate(-50%, -50%); border:5px solid black"">","","","","","","","",""
"","12646.970000001602","sequential-stimulus-presentation-old","93","610175","0.0-23.0-1.3","SS1619739823278","trial","","40","500","13146.970000001602","images/stimuli/spore_stims/complex_02_A_a.gif","images/stimuli/spore_stims/complex_13_A_b.gif","forced_long","","7","complex_dissimilar","images/stimuli/spore_stims/complex_13_A_b.gif","","","","",""
"","null","html-keyboard-response","94","611404","0.0-23.0-0.4","SS1619739823278","","","null","","","","","","<p><img src= images/blank.png width =""600"" height = ""600"" style=""position:fixed;top:50%; left:50%; transform: translate(-50%, -50%); border:5px solid black"">","","","","","","","",""
"","10183.075000008103","sequential-stimulus-presentation-old","95","622094","0.0-23.0-1.4","SS1619739823278","trial","","40","500","10683.075000008103","images/stimuli/spore_stims/complex_02_A_a.gif","images/stimuli/spore_stims/complex_13_A_b.gif","forced_long","","7","complex_dissimilar","images/stimuli/spore_stims/complex_13_A_b.gif","","","","",""
"","3786.9250000221655","survey-multi-choice","96","625885","0.0-24.0","SS1619739823278","math_question","","","","","","","","","","","","{""Q0"":""9""}","[0]","9","",""
"","null","html-keyboard-response","97","627168","0.0-25.0-0.0","SS1619739823278","","","null","","","","","","<p><img src= images/blank.png width =""600"" height = ""600"" style=""position:fixed;top:50%; left:50%; transform: translate(-50%, -50%); border:5px solid black"">","","","","","","","",""
"","6285.670000012033","sequential-stimulus-presentation-old","98","633959","0.0-25.0-1.0","SS1619739823278","trial","","40","500","6785.670000012033","images/stimuli/spore_stims/simple_02_A_b.gif","images/stimuli/spore_stims/simple_03_A_a.gif","forced_short","","8","simple_dissimilar","images/stimuli/spore_stims/simple_03_A_a.gif","","","","",""
"","null","html-keyboard-response","99","635110","0.0-25.0-0.1","SS1619739823278","","","null","","","","","","<p><img src= images/blank.png width =""600"" height = ""600"" style=""position:fixed;top:50%; left:50%; transform: translate(-50%, -50%); border:5px solid black"">","","","","","","","",""
"","7883.790000050794","sequential-stimulus-presentation-old","100","643503","0.0-25.0-1.1","SS1619739823278","trial","","40","500","8383.790000050794","images/stimuli/spore_stims/simple_02_A_b.gif","images/stimuli/spore_stims/simple_03_A_a.gif","forced_short","","8","simple_dissimilar","images/stimuli/spore_stims/simple_03_A_a.gif","","","","",""
"","null","html-keyboard-response","101","644360","0.0-25.0-0.2","SS1619739823278","","","null","","","","","","<p><img src= images/blank.png width =""600"" height = ""600"" style=""position:fixed;top:50%; left:50%; transform: translate(-50%, -50%); border:5px solid black"">","","","","","","","",""
"","9979.720000002999","sequential-stimulus-presentation-old","102","654846","0.0-25.0-1.2","SS1619739823278","trial","","40","500","10479.720000002999","images/stimuli/spore_stims/simple_02_A_b.gif","images/stimuli/spore_stims/simple_03_A_a.gif","forced_short","","8","simple_dissimilar","images/stimuli/spore_stims/simple_03_A_a.gif","","","","",""
"","null","html-keyboard-response","103","656142","0.0-25.0-0.3","SS1619739823278","","","null","","","","","","<p><img src= images/blank.png width =""600"" height = ""600"" style=""position:fixed;top:50%; left:50%; transform: translate(-50%, -50%); border:5px solid black"">","","","","","","","",""
"","11612.659999984317","sequential-stimulus-presentation-old","104","668279","0.0-25.0-1.3","SS1619739823278","trial","","40","500","12112.659999984317","images/stimuli/spore_stims/simple_02_A_b.gif","images/stimuli/spore_stims/simple_03_A_a.gif","forced_short","","8","simple_dissimilar","images/stimuli/spore_stims/simple_03_A_a.gif","","","","",""
"","null","html-keyboard-response","105","669538","0.0-25.0-0.4","SS1619739823278","","","null","","","","","","<p><img src= images/blank.png width =""600"" height = ""600"" style=""position:fixed;top:50%; left:50%; transform: translate(-50%, -50%); border:5px solid black"">","","","","","","","",""
"","8428.735000023153","sequential-stimulus-presentation-old","106","678488","0.0-25.0-1.4","SS1619739823278","trial","","40","500","8928.735000023153","images/stimuli/spore_stims/simple_02_A_b.gif","images/stimuli/spore_stims/simple_03_A_a.gif","forced_short","","8","simple_dissimilar","images/stimuli/spore_stims/simple_02_A_b.gif","","","","",""
"","5231.120000011288","survey-multi-choice","107","683726","0.0-26.0","SS1619739823278","math_question","","","","","","","","","","","","{""Q0"":""15""}","[0]","15","",""
"","null","html-keyboard-response","108","684999","0.0-27.0-0.0","SS1619739823278","","","null","","","","","","<p><img src= images/blank.png width =""600"" height = ""600"" style=""position:fixed;top:50%; left:50%; transform: translate(-50%, -50%); border:5px solid black"">","","","","","","","",""
"","12590.5849999981","sequential-stimulus-presentation-old","109","698098","0.0-27.0-1.0","SS1619739823278","trial","","40","500","13090.5849999981","images/stimuli/spore_stims/simple_19_A_b.gif","images/stimuli/spore_stims/simple_08_A_a.gif","self_paced","","9","simple_dissimilar","images/stimuli/spore_stims/simple_08_A_a.gif","","","","",""
"","null","html-keyboard-response","110","698946","0.0-27.0-0.1","SS1619739823278","","","null","","","","","","<p><img src= images/blank.png width =""600"" height = ""600"" style=""position:fixed;top:50%; left:50%; transform: translate(-50%, -50%); border:5px solid black"">","","","","","","","",""
"","9673.110000032466","sequential-stimulus-presentation-old","111","709129","0.0-27.0-1.1","SS1619739823278","trial","","40","500","10173.110000032466","images/stimuli/spore_stims/simple_19_A_b.gif","images/stimuli/spore_stims/simple_08_A_a.gif","self_paced","","9","simple_dissimilar","images/stimuli/spore_stims/simple_08_A_a.gif","","","","",""
"","null","html-keyboard-response","112","710394","0.0-27.0-0.2","SS1619739823278","","","null","","","","","","<p><img src= images/blank.png width =""600"" height = ""600"" style=""position:fixed;top:50%; left:50%; transform: translate(-50%, -50%); border:5px solid black"">","","","","","","","",""
"","7025.0900000100955","sequential-stimulus-presentation-old","113","717924","0.0-27.0-1.2","SS1619739823278","trial","","40","500","7525.0900000100955","images/stimuli/spore_stims/simple_19_A_b.gif","images/stimuli/spore_stims/simple_08_A_a.gif","self_paced","","9","simple_dissimilar","images/stimuli/spore_stims/simple_19_A_b.gif","","","","",""
"","null","html-keyboard-response","114","719142","0.0-27.0-0.3","SS1619739823278","","","null","","","","","","<p><img src= images/blank.png width =""600"" height = ""600"" style=""position:fixed;top:50%; left:50%; transform: translate(-50%, -50%); border:5px solid black"">","","","","","","","",""
"","4745.419999992009","sequential-stimulus-presentation-old","115","724406","0.0-27.0-1.3","SS1619739823278","trial","","40","500","5245.419999992009","images/stimuli/spore_stims/simple_19_A_b.gif","images/stimuli/spore_stims/simple_08_A_a.gif","self_paced","","9","simple_dissimilar","images/stimuli/spore_stims/simple_08_A_a.gif","","","","",""
"","3287.560000026133","survey-multi-choice","116","727702","0.0-28.0","SS1619739823278","math_question","","","","","","","","","","","","{""Q0"":""8""}","[0]","8","",""
"","null","html-keyboard-response","117","728865","0.0-29.0-0.0","SS1619739823278","","","null","","","","","","<p><img src= images/blank.png width =""600"" height = ""600"" style=""position:fixed;top:50%; left:50%; transform: translate(-50%, -50%); border:5px solid black"">","","","","","","","",""
"","5472.379999991972","sequential-stimulus-presentation-old","118","734841","0.0-29.0-1.0","SS1619739823278","trial","","40","500","5972.379999991972","images/stimuli/spore_stims/simple_14_A_b.gif","images/stimuli/spore_stims/simple_17_A_a.gif","forced_short","","10","simple_dissimilar","images/stimuli/spore_stims/simple_17_A_a.gif","","","","",""
"","null","html-keyboard-response","119","736026","0.0-29.0-0.1","SS1619739823278","","","null","","","","","","<p><img src= images/blank.png width =""600"" height = ""600"" style=""position:fixed;top:50%; left:50%; transform: translate(-50%, -50%); border:5px solid black"">","","","","","","","",""
"","2810.460000007879","sequential-stimulus-presentation-old","120","739358","0.0-29.0-1.1","SS1619739823278","trial","","40","500","3310.460000007879","images/stimuli/spore_stims/simple_14_A_b.gif","images/stimuli/spore_stims/simple_17_A_a.gif","forced_short","","10","simple_dissimilar","images/stimuli/spore_stims/simple_17_A_a.gif","","","","",""
"","null","html-keyboard-response","121","740248","0.0-29.0-0.2","SS1619739823278","","","null","","","","","","<p><img src= images/blank.png width =""600"" height = ""600"" style=""position:fixed;top:50%; left:50%; transform: translate(-50%, -50%); border:5px solid black"">","","","","","","","",""
"","1448.9949999842793","sequential-stimulus-presentation-old","122","742207","0.0-29.0-1.2","SS1619739823278","trial","","40","500","1948.9949999842793","images/stimuli/spore_stims/simple_14_A_b.gif","images/stimuli/spore_stims/simple_17_A_a.gif","forced_short","","10","simple_dissimilar","images/stimuli/spore_stims/simple_17_A_a.gif","","","","",""
"","null","html-keyboard-response","123","743441","0.0-29.0-0.3","SS1619739823278","","","null","","","","","","<p><img src= images/blank.png width =""600"" height = ""600"" style=""position:fixed;top:50%; left:50%; transform: translate(-50%, -50%); border:5px solid black"">","","","","","","","",""
"","2824.415000039153","sequential-stimulus-presentation-old","124","746788","0.0-29.0-1.3","SS1619739823278","trial","","40","500","3324.415000039153","images/stimuli/spore_stims/simple_14_A_b.gif","images/stimuli/spore_stims/simple_17_A_a.gif","forced_short","","10","simple_dissimilar","images/stimuli/spore_stims/simple_14_A_b.gif","","","","",""
"","4232.704999973066","survey-multi-choice","125","751028","0.0-30.0","SS1619739823278","math_question","","","","","","","","","","","","{""Q0"":""17""}","[0]","17","",""
"","null","html-keyboard-response","126","752131","0.0-31.0-0.0","SS1619739823278","","","null","","","","","","<p><img src= images/blank.png width =""600"" height = ""600"" style=""position:fixed;top:50%; left:50%; transform: translate(-50%, -50%); border:5px solid black"">","","","","","","","",""
"","3433.560000034049","sequential-stimulus-presentation-old","127","770570","0.0-31.0-1.0","SS1619739823278","trial","","40","500","3933.560000034049","images/stimuli/spore_stims/simple_05_A_a.gif","images/stimuli/spore_stims/simple_15_A_b.gif","forced_long","","11","simple_dissimilar","images/stimuli/spore_stims/simple_15_A_b.gif","","","","",""
"","null","html-keyboard-response","128","771639","0.0-31.0-0.1","SS1619739823278","","","null","","","","","","<p><img src= images/blank.png width =""600"" height = ""600"" style=""position:fixed;top:50%; left:50%; transform: translate(-50%, -50%); border:5px solid black"">","","","","","","","",""
"","6224.679999984801","sequential-stimulus-presentation-old","129","778373","0.0-31.0-1.1","SS1619739823278","trial","","40","500","6724.679999984801","images/stimuli/spore_stims/simple_05_A_a.gif","images/stimuli/spore_stims/simple_15_A_b.gif","forced_long","","11","simple_dissimilar","images/stimuli/spore_stims/simple_15_A_b.gif","","","","",""
"","null","html-keyboard-response","130","779517","0.0-31.0-0.2","SS1619739823278","","","null","","","","","","<p><img src= images/blank.png width =""600"" height = ""600"" style=""position:fixed;top:50%; left:50%; transform: translate(-50%, -50%); border:5px solid black"">","","","","","","","",""
"","4302.339999994729","sequential-stimulus-presentation-old","131","784328","0.0-31.0-1.2","SS1619739823278","trial","","40","500","4802.339999994729","images/stimuli/spore_stims/simple_05_A_a.gif","images/stimuli/spore_stims/simple_15_A_b.gif","forced_long","","11","simple_dissimilar","images/stimuli/spore_stims/simple_15_A_b.gif","","","","",""
"","null","html-keyboard-response","132","785460","0.0-31.0-0.3","SS1619739823278","","","null","","","","","","<p><img src= images/blank.png width =""600"" height = ""600"" style=""position:fixed;top:50%; left:50%; transform: translate(-50%, -50%); border:5px solid black"">","","","","","","","",""
"","4511.949999956414","sequential-stimulus-presentation-old","133","790476","0.0-31.0-1.3","SS1619739823278","trial","","40","500","5011.949999956414","images/stimuli/spore_stims/simple_05_A_a.gif","images/stimuli/spore_stims/simple_15_A_b.gif","forced_long","","11","simple_dissimilar","images/stimuli/spore_stims/simple_15_A_b.gif","","","","",""
"","null","html-keyboard-response","134","791422","0.0-31.0-0.4","SS1619739823278","","","null","","","","","","<p><img src= images/blank.png width =""600"" height = ""600"" style=""position:fixed;top:50%; left:50%; transform: translate(-50%, -50%); border:5px solid black"">","","","","","","","",""
"","3641.3900000043213","sequential-stimulus-presentation-old","135","795574","0.0-31.0-1.4","SS1619739823278","trial","","40","500","4141.390000004321","images/stimuli/spore_stims/simple_05_A_a.gif","images/stimuli/spore_stims/simple_15_A_b.gif","forced_long","","11","simple_dissimilar","images/stimuli/spore_stims/simple_15_A_b.gif","","","","",""
"","null","html-keyboard-response","136","796547","0.0-31.0-0.5","SS1619739823278","","","null","","","","","","<p><img src= images/blank.png width =""600"" height = ""600"" style=""position:fixed;top:50%; left:50%; transform: translate(-50%, -50%); border:5px solid black"">","","","","","","","",""
"","2532.2000000160187","sequential-stimulus-presentation-old","137","799583","0.0-31.0-1.5","SS1619739823278","trial","","40","500","3032.2000000160187","images/stimuli/spore_stims/simple_05_A_a.gif","images/stimuli/spore_stims/simple_15_A_b.gif","forced_long","","11","simple_dissimilar","images/stimuli/spore_stims/simple_05_A_a.gif","","","","",""
"[{""page_index"":0,""viewing_time"":8079.504999972414}]","8079.904999991413","instructions","138","807665","0.0-32.0","SS1619739823278","instructions","","","","","","","","","","","","","","","",""
"","18761.624999984633","survey-likert","139","826430","0.0-33.0","SS1619739823278","similarity_question","","","","","","","","","","","","{""Q0"":2}","[0]","","images/stimuli/spore_stims/complex_13_A_a.gif","images/stimuli/spore_stims/complex_10_A_b.gif"
"","5635.479999997187","survey-likert","140","832075","0.0-34.0","SS1619739823278","similarity_question","","","","","","","","","","","","{""Q0"":0}","[0]","","images/stimuli/spore_stims/complex_02_A_a.gif","images/stimuli/spore_stims/complex_13_A_b.gif"
"","3926.4499999699183","survey-likert","141","836008","0.0-35.0","SS1619739823278","similarity_question","","","","","","","","","","","","{""Q0"":5}","[0]","","images/stimuli/spore_stims/simple_20_A_a.gif","images/stimuli/spore_stims/simple_16_A_b.gif"
"","6896.875000034925","survey-likert","142","842916","0.0-36.0","SS1619739823278","similarity_question","","","","","","","","","","","","{""Q0"":2}","[0]","","images/stimuli/spore_stims/complex_05_A_a.gif","images/stimuli/spore_stims/complex_19_A_b.gif"
"","4026.880000019446","survey-likert","143","846949","0.0-37.0","SS1619739823278","similarity_question","","","","","","","","","","","","{""Q0"":1}","[0]","","images/stimuli/spore_stims/complex_17_A_b.gif","images/stimuli/spore_stims/complex_07_A_a.gif"
"","2866.2550000008196","survey-likert","144","849822","0.0-38.0","SS1619739823278","similarity_question","","","","","","","","","","","","{""Q0"":5}","[0]","","images/stimuli/spore_stims/simple_02_A_b.gif","images/stimuli/spore_stims/simple_03_A_a.gif"
"","5883.8200000463985","survey-likert","145","855714","0.0-39.0","SS1619739823278","similarity_question","","","","","","","","","","","","{""Q0"":4}","[0]","","images/stimuli/spore_stims/simple_14_A_b.gif","images/stimuli/spore_stims/simple_17_A_a.gif"
"","9991.60499998834","survey-likert","146","865711","0.0-40.0","SS1619739823278","similarity_question","","","","","","","","","","","","{""Q0"":1}","[0]","","images/stimuli/spore_stims/complex_01_A_b.gif","images/stimuli/spore_stims/complex_11_A_a.gif"
"","5734.034999972209","survey-likert","147","871453","0.0-41.0","SS1619739823278","similarity_question","","","","","","","","","","","","{""Q0"":2}","[0]","","images/stimuli/spore_stims/simple_12_A_a.gif","images/stimuli/spore_stims/simple_07_A_b.gif"
"","4836.940000008326","survey-likert","148","876297","0.0-42.0","SS1619739823278","similarity_question","","","","","","","","","","","","{""Q0"":4}","[0]","","images/stimuli/spore_stims/simple_19_A_b.gif","images/stimuli/spore_stims/simple_08_A_a.gif"
"","4232.744999986608","survey-likert","149","880538","0.0-43.0","SS1619739823278","similarity_question","","","","","","","","","","","","{""Q0"":4}","[0]","","images/stimuli/spore_stims/simple_05_A_a.gif","images/stimuli/spore_stims/simple_15_A_b.gif"
"","5644.205000018701","survey-likert","150","886193","0.0-44.0","SS1619739823278","similarity_question","","","","","","","","","","","","{""Q0"":1}","[0]","","images/stimuli/spore_stims/complex_11_A_b.gif","images/stimuli/spore_stims/complex_16_A_a.gif"
"[{""page_index"":0,""viewing_time"":7643.289999978151}]","7643.744999950286","instructions","151","893845","0.0-45.0","SS1619739823278","instructions","","","","","","","","","","","","","","","",""
"","4321.304999990389","survey-likert","152","898171","0.0-46.0","SS1619739823278","","","","","","","","","images/stimuli/spore_stims/simple_02_A_b.gif","","","","{""Q0"":0}","[0]","","",""
"","2768.51500000339","survey-likert","153","900948","0.0-47.0","SS1619739823278","","","","","","","","","images/stimuli/spore_stims/simple_17_A_a.gif","","","","{""Q0"":1}","[0]","","",""
"","3785.715000005439","survey-likert","154","904741","0.0-48.0","SS1619739823278","","","","","","","","","images/stimuli/spore_stims/simple_07_A_b.gif","","","","{""Q0"":0}","[0]","","",""
"","3906.134999997448","survey-likert","155","908654","0.0-49.0","SS1619739823278","","","","","","","","","images/stimuli/spore_stims/complex_13_A_a.gif","","","","{""Q0"":5}","[0]","","",""
"","3108.845000038855","survey-likert","156","911774","0.0-50.0","SS1619739823278","","","","","","","","","images/stimuli/spore_stims/simple_20_A_a.gif","","","","{""Q0"":1}","[0]","","",""
"","3167.814999993425","survey-likert","157","914949","0.0-51.0","SS1619739823278","","","","","","","","","images/stimuli/spore_stims/complex_05_A_a.gif","","","","{""Q0"":4}","[0]","","",""
"","6025.245000026189","survey-likert","158","920981","0.0-52.0","SS1619739823278","","","","","","","","","images/stimuli/spore_stims/complex_07_A_a.gif","","","","{""Q0"":5}","[0]","","",""
"","5901.599999982864","survey-likert","159","926891","0.0-53.0","SS1619739823278","","","","","","","","","images/stimuli/spore_stims/complex_02_A_a.gif","","","","{""Q0"":3}","[0]","","",""
"","2628.0449999612756","survey-likert","160","929528","0.0-54.0","SS1619739823278","","","","","","","","","images/stimuli/spore_stims/simple_19_A_b.gif","","","","{""Q0"":2}","[0]","","",""
"","3677.1000000298955","survey-likert","161","933214","0.0-55.0","SS1619739823278","","","","","","","","","images/stimuli/spore_stims/complex_16_A_a.gif","","","","{""Q0"":5}","[0]","","",""
"","3957.7750000171363","survey-likert","162","937179","0.0-56.0","SS1619739823278","","","","","","","","","images/stimuli/spore_stims/simple_15_A_b.gif","","","","{""Q0"":1}","[0]","","",""
"","3453.780000039842","survey-likert","163","940642","0.0-57.0","SS1619739823278","","","","","","","","","images/stimuli/spore_stims/complex_11_A_a.gif","","","","{""Q0"":4}","[0]","","",""
"[{""page_index"":0,""viewing_time"":3352.8299999888986}]","3353.275000001304","instructions","164","944001","0.0-58.0","SS1619739823278","instructions","","","","","","","","","","","","","","","",""
"","5056.604999990668","demog-age","165","949065","0.0-59.0","SS1619739823278","","","","","","","","","","","","","{""age"":""22""}","","","",""
"","10781.454999989364","demog-ethnic-US","166","959856","0.0-60.0","SS1619739823278","","","","","","","","","","","","","{""ethnicity"":[""White""]}","[0]","","",""
"","14047.269999980927","demog-gender-and-education","167","973910","0.0-61.0","SS1619739823278","","","","","","","","","","","","","{""gender"":""Male"",""education"":""Bachelor's Degree""}","[0,1]","","",""
"","18466.71000000788","survey-text","168","992387","0.0-62.0","SS1619739823278","feedback","","","","","","","","","","","","{""Q0"":""No, all perfect!""}","","","",""
"[{""page_index"":0,""viewing_time"":3038.914999982808}]","3039.325000019744","instructions","169","995433","0.0-63.0","SS1619739823278","instructions","","","","","","","","","","","","","","","",""
