"view_history","rt","trial_type","trial_index","time_elapsed","internal_node_id","subject","stimulus_type","trial_stimulus","key_press","minimum_viewing_duration","trial_looking_time","block_deviant","block_background","exposure_type","stimulus","block_number","block_type","stimulus_displayed","responses","question_order","math_correct_answer","stimulus_left","stimulus_right"
"[{""page_index"":0,""viewing_time"":10086.669999989681}]","10088.075000036042","instructions","0","10091","0.0-0.0","SS1619740097462","","","","","","","","","","","","","","","","",""
"[{""page_index"":0,""viewing_time"":12348.05500000948},{""page_index"":1,""viewing_time"":5059.729999979027}]","17408.120000036433","instructions","1","29505","0.0-1.0","SS1619740097462","instructions","","","","","","","","","","","","","","","",""
"","30831.069999956526","sequential-stimulus-presentation-old","2","60844","0.0-2.0","SS1619740097462","","","40","500","31331.069999956526","null","null","self_paced","","","","","","","","",""
"","8066.6349999955855","sequential-stimulus-presentation-old","3","69413","0.0-3.0","SS1619740097462","","","40","500","8566.634999995586","null","null","self_paced","","","","","","","","",""
"[{""page_index"":0,""viewing_time"":16314.610000001267}]","16314.929999993183","instructions","4","85729","0.0-4.0","SS1619740097462","instructions","","","","","","","","","","","","","","","",""
"","1020.3549999860115","sequential-stimulus-presentation-old","5","101757","0.0-5.0","SS1619740097462","","","40","500","1520.3549999860115","null","null","forced_long","","","","","","","","",""
"","8943.260000029113","sequential-stimulus-presentation-old","6","111204","0.0-6.0","SS1619740097462","","","40","500","9443.260000029113","null","null","forced_long","","","","","","","","",""
"[{""page_index"":0,""viewing_time"":7520.779999962542}]","7521.164999983739","instructions","7","118728","0.0-7.0","SS1619740097462","instructions","","","","","","","","","","","","","","","",""
"[{""page_index"":0,""viewing_time"":7747.529999993276},{""page_index"":1,""viewing_time"":8659.994999994524},{""page_index"":2,""viewing_time"":6042.730000044685},{""page_index"":3,""viewing_time"":2069.199999968987},{""page_index"":4,""viewing_time"":1336.2550000310875}]","25856.190000020433","instructions","8","144586","0.0-8.0","SS1619740097462","instructions","","","","","","","","","","","","","","","",""
"","null","html-keyboard-response","9","145802","0.0-9.0-0.0","SS1619740097462","","","null","","","","","","<p><img src= images/blank.png width =""600"" height = ""600"" style=""position:fixed;top:50%; left:50%; transform: translate(-50%, -50%); border:5px solid black"">","","","","","","","",""
"","1295.1299999840558","sequential-stimulus-presentation-old","10","162103","0.0-9.0-1.0","SS1619740097462","trial","","40","500","1795.1299999840558","images/stimuli/spore_stims/complex_09_A_a.gif","images/stimuli/spore_stims/complex_06_A_b.gif","forced_long","","0","complex_dissimilar","images/stimuli/spore_stims/complex_06_A_b.gif","","","","",""
"","null","html-keyboard-response","11","162933","0.0-9.0-0.1","SS1619740097462","","","null","","","","","","<p><img src= images/blank.png width =""600"" height = ""600"" style=""position:fixed;top:50%; left:50%; transform: translate(-50%, -50%); border:5px solid black"">","","","","","","","",""
"","11601.665000023786","sequential-stimulus-presentation-old","12","175042","0.0-9.0-1.1","SS1619740097462","trial","","40","500","12101.665000023786","images/stimuli/spore_stims/complex_09_A_a.gif","images/stimuli/spore_stims/complex_06_A_b.gif","forced_long","","0","complex_dissimilar","images/stimuli/spore_stims/complex_06_A_b.gif","","","","",""
"","null","html-keyboard-response","13","176187","0.0-9.0-0.2","SS1619740097462","","","null","","","","","","<p><img src= images/blank.png width =""600"" height = ""600"" style=""position:fixed;top:50%; left:50%; transform: translate(-50%, -50%); border:5px solid black"">","","","","","","","",""
"","5418.98499999661","sequential-stimulus-presentation-old","14","182110","0.0-9.0-1.2","SS1619740097462","trial","","40","500","5918.98499999661","images/stimuli/spore_stims/complex_09_A_a.gif","images/stimuli/spore_stims/complex_06_A_b.gif","forced_long","","0","complex_dissimilar","images/stimuli/spore_stims/complex_06_A_b.gif","","","","",""
"","null","html-keyboard-response","15","183316","0.0-9.0-0.3","SS1619740097462","","","null","","","","","","<p><img src= images/blank.png width =""600"" height = ""600"" style=""position:fixed;top:50%; left:50%; transform: translate(-50%, -50%); border:5px solid black"">","","","","","","","",""
"","19719.520000042394","sequential-stimulus-presentation-old","16","203547","0.0-9.0-1.3","SS1619740097462","trial","","40","500","20219.520000042394","images/stimuli/spore_stims/complex_09_A_a.gif","images/stimuli/spore_stims/complex_06_A_b.gif","forced_long","","0","complex_dissimilar","images/stimuli/spore_stims/complex_06_A_b.gif","","","","",""
"","null","html-keyboard-response","17","204774","0.0-9.0-0.4","SS1619740097462","","","null","","","","","","<p><img src= images/blank.png width =""600"" height = ""600"" style=""position:fixed;top:50%; left:50%; transform: translate(-50%, -50%); border:5px solid black"">","","","","","","","",""
"","5115.174999984447","sequential-stimulus-presentation-old","18","210396","0.0-9.0-1.4","SS1619740097462","trial","","40","500","5615.174999984447","images/stimuli/spore_stims/complex_09_A_a.gif","images/stimuli/spore_stims/complex_06_A_b.gif","forced_long","","0","complex_dissimilar","images/stimuli/spore_stims/complex_06_A_b.gif","","","","",""
"","2743.365000002086","survey-multi-choice","19","213146","0.0-10.0","SS1619740097462","math_question","","","","","","","","","","","","{""Q0"":""5""}","[0]","5","",""
"","null","html-keyboard-response","20","214286","0.0-11.0-0.0","SS1619740097462","","","null","","","","","","<p><img src= images/blank.png width =""600"" height = ""600"" style=""position:fixed;top:50%; left:50%; transform: translate(-50%, -50%); border:5px solid black"">","","","","","","","",""
"","1447.5749999983236","sequential-stimulus-presentation-old","21","216239","0.0-11.0-1.0","SS1619740097462","trial","","40","500","1947.5749999983236","images/stimuli/spore_stims/simple_20_A_a.gif","images/stimuli/spore_stims/simple_01_A_b.gif","forced_short","","1","simple_dissimilar","images/stimuli/spore_stims/simple_01_A_b.gif","","","","",""
"","null","html-keyboard-response","22","217441","0.0-11.0-0.1","SS1619740097462","","","null","","","","","","<p><img src= images/blank.png width =""600"" height = ""600"" style=""position:fixed;top:50%; left:50%; transform: translate(-50%, -50%); border:5px solid black"">","","","","","","","",""
"","43655.28500004439","sequential-stimulus-presentation-old","23","261603","0.0-11.0-1.1","SS1619740097462","trial","","40","500","44155.28500004439","images/stimuli/spore_stims/simple_20_A_a.gif","images/stimuli/spore_stims/simple_01_A_b.gif","forced_short","","1","simple_dissimilar","images/stimuli/spore_stims/simple_01_A_b.gif","","","","",""
"","null","html-keyboard-response","24","262545","0.0-11.0-0.2","SS1619740097462","","","null","","","","","","<p><img src= images/blank.png width =""600"" height = ""600"" style=""position:fixed;top:50%; left:50%; transform: translate(-50%, -50%); border:5px solid black"">","","","","","","","",""
"","3214.459999988321","sequential-stimulus-presentation-old","25","266267","0.0-11.0-1.2","SS1619740097462","trial","","40","500","3714.459999988321","images/stimuli/spore_stims/simple_20_A_a.gif","images/stimuli/spore_stims/simple_01_A_b.gif","forced_short","","1","simple_dissimilar","images/stimuli/spore_stims/simple_01_A_b.gif","","","","",""
"","null","html-keyboard-response","26","267272","0.0-11.0-0.3","SS1619740097462","","","null","","","","","","<p><img src= images/blank.png width =""600"" height = ""600"" style=""position:fixed;top:50%; left:50%; transform: translate(-50%, -50%); border:5px solid black"">","","","","","","","",""
"","8857.625000004191","sequential-stimulus-presentation-old","27","276634","0.0-11.0-1.3","SS1619740097462","trial","","40","500","9357.625000004191","images/stimuli/spore_stims/simple_20_A_a.gif","images/stimuli/spore_stims/simple_01_A_b.gif","forced_short","","1","simple_dissimilar","images/stimuli/spore_stims/simple_01_A_b.gif","","","","",""
"","null","html-keyboard-response","28","277745","0.0-11.0-0.4","SS1619740097462","","","null","","","","","","<p><img src= images/blank.png width =""600"" height = ""600"" style=""position:fixed;top:50%; left:50%; transform: translate(-50%, -50%); border:5px solid black"">","","","","","","","",""
"","6474.299999943469","sequential-stimulus-presentation-old","29","284730","0.0-11.0-1.4","SS1619740097462","trial","","40","500","6974.299999943469","images/stimuli/spore_stims/simple_20_A_a.gif","images/stimuli/spore_stims/simple_01_A_b.gif","forced_short","","1","simple_dissimilar","images/stimuli/spore_stims/simple_01_A_b.gif","","","","",""
"","2834.5449999906123","survey-multi-choice","30","287567","0.0-12.0","SS1619740097462","math_question","","","","","","","","","","","","{""Q0"":""4""}","[0]","4","",""
"","null","html-keyboard-response","31","288643","0.0-13.0-0.0","SS1619740097462","","","null","","","","","","<p><img src= images/blank.png width =""600"" height = ""600"" style=""position:fixed;top:50%; left:50%; transform: translate(-50%, -50%); border:5px solid black"">","","","","","","","",""
"","1547.6050000288524","sequential-stimulus-presentation-old","32","305198","0.0-13.0-1.0","SS1619740097462","trial","","40","500","2047.6050000288524","images/stimuli/spore_stims/simple_18_A_a.gif","images/stimuli/spore_stims/simple_08_A_b.gif","forced_long","","2","simple_dissimilar","images/stimuli/spore_stims/simple_08_A_b.gif","","","","",""
"","null","html-keyboard-response","33","306345","0.0-13.0-0.1","SS1619740097462","","","null","","","","","","<p><img src= images/blank.png width =""600"" height = ""600"" style=""position:fixed;top:50%; left:50%; transform: translate(-50%, -50%); border:5px solid black"">","","","","","","","",""
"","13006.859999964945","sequential-stimulus-presentation-old","34","319858","0.0-13.0-1.1","SS1619740097462","trial","","40","500","13506.859999964945","images/stimuli/spore_stims/simple_18_A_a.gif","images/stimuli/spore_stims/simple_08_A_b.gif","forced_long","","2","simple_dissimilar","images/stimuli/spore_stims/simple_08_A_b.gif","","","","",""
"","null","html-keyboard-response","35","320851","0.0-13.0-0.2","SS1619740097462","","","null","","","","","","<p><img src= images/blank.png width =""600"" height = ""600"" style=""position:fixed;top:50%; left:50%; transform: translate(-50%, -50%); border:5px solid black"">","","","","","","","",""
"","18244.479999993928","sequential-stimulus-presentation-old","36","339601","0.0-13.0-1.2","SS1619740097462","trial","","40","500","18744.479999993928","images/stimuli/spore_stims/simple_18_A_a.gif","images/stimuli/spore_stims/simple_08_A_b.gif","forced_long","","2","simple_dissimilar","images/stimuli/spore_stims/simple_08_A_b.gif","","","","",""
"","null","html-keyboard-response","37","340720","0.0-13.0-0.3","SS1619740097462","","","null","","","","","","<p><img src= images/blank.png width =""600"" height = ""600"" style=""position:fixed;top:50%; left:50%; transform: translate(-50%, -50%); border:5px solid black"">","","","","","","","",""
"","3624.995000020135","sequential-stimulus-presentation-old","38","344852","0.0-13.0-1.3","SS1619740097462","trial","","40","500","4124.995000020135","images/stimuli/spore_stims/simple_18_A_a.gif","images/stimuli/spore_stims/simple_08_A_b.gif","forced_long","","2","simple_dissimilar","images/stimuli/spore_stims/simple_08_A_b.gif","","","","",""
"","null","html-keyboard-response","39","346035","0.0-13.0-0.4","SS1619740097462","","","null","","","","","","<p><img src= images/blank.png width =""600"" height = ""600"" style=""position:fixed;top:50%; left:50%; transform: translate(-50%, -50%); border:5px solid black"">","","","","","","","",""
"","3655.060000019148","sequential-stimulus-presentation-old","40","350198","0.0-13.0-1.4","SS1619740097462","trial","","40","500","4155.060000019148","images/stimuli/spore_stims/simple_18_A_a.gif","images/stimuli/spore_stims/simple_08_A_b.gif","forced_long","","2","simple_dissimilar","images/stimuli/spore_stims/simple_08_A_b.gif","","","","",""
"","null","html-keyboard-response","41","351381","0.0-13.0-0.5","SS1619740097462","","","null","","","","","","<p><img src= images/blank.png width =""600"" height = ""600"" style=""position:fixed;top:50%; left:50%; transform: translate(-50%, -50%); border:5px solid black"">","","","","","","","",""
"","496.8399999779649","sequential-stimulus-presentation-old","42","352383","0.0-13.0-1.5","SS1619740097462","trial","","40","500","996.8399999779649","images/stimuli/spore_stims/simple_18_A_a.gif","images/stimuli/spore_stims/simple_08_A_b.gif","forced_long","","2","simple_dissimilar","images/stimuli/spore_stims/simple_08_A_b.gif","","","","",""
"","3387.255000008736","survey-multi-choice","43","355773","0.0-14.0","SS1619740097462","math_question","","","","","","","","","","","","{""Q0"":""9""}","[0]","9","",""
"","null","html-keyboard-response","44","356688","0.0-15.0-0.0","SS1619740097462","","","null","","","","","","<p><img src= images/blank.png width =""600"" height = ""600"" style=""position:fixed;top:50%; left:50%; transform: translate(-50%, -50%); border:5px solid black"">","","","","","","","",""
"","724.5550000225194","sequential-stimulus-presentation-old","45","357920","0.0-15.0-1.0","SS1619740097462","trial","","40","500","1224.5550000225194","images/stimuli/spore_stims/complex_09_A_b.gif","images/stimuli/spore_stims/complex_08_A_a.gif","self_paced","","3","complex_dissimilar","images/stimuli/spore_stims/complex_08_A_a.gif","","","","",""
"","null","html-keyboard-response","46","358776","0.0-15.0-0.1","SS1619740097462","","","null","","","","","","<p><img src= images/blank.png width =""600"" height = ""600"" style=""position:fixed;top:50%; left:50%; transform: translate(-50%, -50%); border:5px solid black"">","","","","","","","",""
"","18356.90999997314","sequential-stimulus-presentation-old","47","377643","0.0-15.0-1.1","SS1619740097462","trial","","40","500","18856.90999997314","images/stimuli/spore_stims/complex_09_A_b.gif","images/stimuli/spore_stims/complex_08_A_a.gif","self_paced","","3","complex_dissimilar","images/stimuli/spore_stims/complex_08_A_a.gif","","","","",""
"","null","html-keyboard-response","48","378806","0.0-15.0-0.2","SS1619740097462","","","null","","","","","","<p><img src= images/blank.png width =""600"" height = ""600"" style=""position:fixed;top:50%; left:50%; transform: translate(-50%, -50%); border:5px solid black"">","","","","","","","",""
"","5567.715000011958","sequential-stimulus-presentation-old","49","384879","0.0-15.0-1.2","SS1619740097462","trial","","40","500","6067.715000011958","images/stimuli/spore_stims/complex_09_A_b.gif","images/stimuli/spore_stims/complex_08_A_a.gif","self_paced","","3","complex_dissimilar","images/stimuli/spore_stims/complex_08_A_a.gif","","","","",""
"","null","html-keyboard-response","50","385947","0.0-15.0-0.3","SS1619740097462","","","null","","","","","","<p><img src= images/blank.png width =""600"" height = ""600"" style=""position:fixed;top:50%; left:50%; transform: translate(-50%, -50%); border:5px solid black"">","","","","","","","",""
"","3685.1499999756925","sequential-stimulus-presentation-old","51","390140","0.0-15.0-1.3","SS1619740097462","trial","","40","500","4185.1499999756925","images/stimuli/spore_stims/complex_09_A_b.gif","images/stimuli/spore_stims/complex_08_A_a.gif","self_paced","","3","complex_dissimilar","images/stimuli/spore_stims/complex_09_A_b.gif","","","","",""
"","null","html-keyboard-response","52","391392","0.0-15.0-0.4","SS1619740097462","","","null","","","","","","<p><img src= images/blank.png width =""600"" height = ""600"" style=""position:fixed;top:50%; left:50%; transform: translate(-50%, -50%); border:5px solid black"">","","","","","","","",""
"","3449.2849999805912","sequential-stimulus-presentation-old","53","395348","0.0-15.0-1.4","SS1619740097462","trial","","40","500","3949.2849999805912","images/stimuli/spore_stims/complex_09_A_b.gif","images/stimuli/spore_stims/complex_08_A_a.gif","self_paced","","3","complex_dissimilar","images/stimuli/spore_stims/complex_08_A_a.gif","","","","",""
"","null","html-keyboard-response","54","396269","0.0-15.0-0.5","SS1619740097462","","","null","","","","","","<p><img src= images/blank.png width =""600"" height = ""600"" style=""position:fixed;top:50%; left:50%; transform: translate(-50%, -50%); border:5px solid black"">","","","","","","","",""
"","704.3500000145286","sequential-stimulus-presentation-old","55","397480","0.0-15.0-1.5","SS1619740097462","trial","","40","500","1204.3500000145286","images/stimuli/spore_stims/complex_09_A_b.gif","images/stimuli/spore_stims/complex_08_A_a.gif","self_paced","","3","complex_dissimilar","images/stimuli/spore_stims/complex_08_A_a.gif","","","","",""
"","2985.6000000145286","survey-multi-choice","56","400468","0.0-16.0","SS1619740097462","math_question","","","","","","","","","","","","{""Q0"":""7""}","[0]","7","",""
"","null","html-keyboard-response","57","401633","0.0-17.0-0.0","SS1619740097462","","","null","","","","","","<p><img src= images/blank.png width =""600"" height = ""600"" style=""position:fixed;top:50%; left:50%; transform: translate(-50%, -50%); border:5px solid black"">","","","","","","","",""
"","1069.4750000257045","sequential-stimulus-presentation-old","58","403208","0.0-17.0-1.0","SS1619740097462","trial","","40","500","1569.4750000257045","images/stimuli/spore_stims/simple_20_A_b.gif","images/stimuli/spore_stims/simple_15_A_a.gif","forced_short","","4","simple_dissimilar","images/stimuli/spore_stims/simple_15_A_a.gif","","","","",""
"","null","html-keyboard-response","59","404128","0.0-17.0-0.1","SS1619740097462","","","null","","","","","","<p><img src= images/blank.png width =""600"" height = ""600"" style=""position:fixed;top:50%; left:50%; transform: translate(-50%, -50%); border:5px solid black"">","","","","","","","",""
"","8105.449999973644","sequential-stimulus-presentation-old","60","412739","0.0-17.0-1.1","SS1619740097462","trial","","40","500","8605.449999973644","images/stimuli/spore_stims/simple_20_A_b.gif","images/stimuli/spore_stims/simple_15_A_a.gif","forced_short","","4","simple_dissimilar","images/stimuli/spore_stims/simple_20_A_b.gif","","","","",""
"","null","html-keyboard-response","61","413591","0.0-17.0-0.2","SS1619740097462","","","null","","","","","","<p><img src= images/blank.png width =""600"" height = ""600"" style=""position:fixed;top:50%; left:50%; transform: translate(-50%, -50%); border:5px solid black"">","","","","","","","",""
"","3697.935000003781","sequential-stimulus-presentation-old","62","417797","0.0-17.0-1.2","SS1619740097462","trial","","40","500","4197.935000003781","images/stimuli/spore_stims/simple_20_A_b.gif","images/stimuli/spore_stims/simple_15_A_a.gif","forced_short","","4","simple_dissimilar","images/stimuli/spore_stims/simple_20_A_b.gif","","","","",""
"","null","html-keyboard-response","63","418999","0.0-17.0-0.3","SS1619740097462","","","null","","","","","","<p><img src= images/blank.png width =""600"" height = ""600"" style=""position:fixed;top:50%; left:50%; transform: translate(-50%, -50%); border:5px solid black"">","","","","","","","",""
"","6854.2949999682605","sequential-stimulus-presentation-old","64","426361","0.0-17.0-1.3","SS1619740097462","trial","","40","500","7354.2949999682605","images/stimuli/spore_stims/simple_20_A_b.gif","images/stimuli/spore_stims/simple_15_A_a.gif","forced_short","","4","simple_dissimilar","images/stimuli/spore_stims/simple_15_A_a.gif","","","","",""
"","2662.2649999917485","survey-multi-choice","65","429028","0.0-18.0","SS1619740097462","math_question","","","","","","","","","","","","{""Q0"":""5""}","[0]","5","",""
"","null","html-keyboard-response","66","430312","0.0-19.0-0.0","SS1619740097462","","","null","","","","","","<p><img src= images/blank.png width =""600"" height = ""600"" style=""position:fixed;top:50%; left:50%; transform: translate(-50%, -50%); border:5px solid black"">","","","","","","","",""
"","1175.9449999663047","sequential-stimulus-presentation-old","67","431993","0.0-19.0-1.0","SS1619740097462","trial","","40","500","1675.9449999663047","images/stimuli/spore_stims/complex_17_A_a.gif","images/stimuli/spore_stims/complex_11_A_b.gif","forced_short","","5","complex_dissimilar","images/stimuli/spore_stims/complex_11_A_b.gif","","","","",""
"","null","html-keyboard-response","68","433148","0.0-19.0-0.1","SS1619740097462","","","null","","","","","","<p><img src= images/blank.png width =""600"" height = ""600"" style=""position:fixed;top:50%; left:50%; transform: translate(-50%, -50%); border:5px solid black"">","","","","","","","",""
"","8072.259999986272","sequential-stimulus-presentation-old","69","441729","0.0-19.0-1.1","SS1619740097462","trial","","40","500","8572.259999986272","images/stimuli/spore_stims/complex_17_A_a.gif","images/stimuli/spore_stims/complex_11_A_b.gif","forced_short","","5","complex_dissimilar","images/stimuli/spore_stims/complex_11_A_b.gif","","","","",""
"","null","html-keyboard-response","70","442910","0.0-19.0-0.2","SS1619740097462","","","null","","","","","","<p><img src= images/blank.png width =""600"" height = ""600"" style=""position:fixed;top:50%; left:50%; transform: translate(-50%, -50%); border:5px solid black"">","","","","","","","",""
"","7925.164999964181","sequential-stimulus-presentation-old","71","451341","0.0-19.0-1.2","SS1619740097462","trial","","40","500","8425.164999964181","images/stimuli/spore_stims/complex_17_A_a.gif","images/stimuli/spore_stims/complex_11_A_b.gif","forced_short","","5","complex_dissimilar","images/stimuli/spore_stims/complex_17_A_a.gif","","","","",""
"","null","html-keyboard-response","72","452253","0.0-19.0-0.3","SS1619740097462","","","null","","","","","","<p><img src= images/blank.png width =""600"" height = ""600"" style=""position:fixed;top:50%; left:50%; transform: translate(-50%, -50%); border:5px solid black"">","","","","","","","",""
"","3840.284999983851","sequential-stimulus-presentation-old","73","456600","0.0-19.0-1.3","SS1619740097462","trial","","40","500","4340.284999983851","images/stimuli/spore_stims/complex_17_A_a.gif","images/stimuli/spore_stims/complex_11_A_b.gif","forced_short","","5","complex_dissimilar","images/stimuli/spore_stims/complex_11_A_b.gif","","","","",""
"","null","html-keyboard-response","74","457785","0.0-19.0-0.4","SS1619740097462","","","null","","","","","","<p><img src= images/blank.png width =""600"" height = ""600"" style=""position:fixed;top:50%; left:50%; transform: translate(-50%, -50%); border:5px solid black"">","","","","","","","",""
"","343.58500002417713","sequential-stimulus-presentation-old","75","458637","0.0-19.0-1.4","SS1619740097462","trial","","40","500","843.5850000241771","images/stimuli/spore_stims/complex_17_A_a.gif","images/stimuli/spore_stims/complex_11_A_b.gif","forced_short","","5","complex_dissimilar","images/stimuli/spore_stims/complex_11_A_b.gif","","","","",""
"","4187.529999995604","survey-multi-choice","76","462828","0.0-20.0","SS1619740097462","math_question","","","","","","","","","","","","{""Q0"":""13""}","[0]","13","",""
"","null","html-keyboard-response","77","464007","0.0-21.0-0.0","SS1619740097462","","","null","","","","","","<p><img src= images/blank.png width =""600"" height = ""600"" style=""position:fixed;top:50%; left:50%; transform: translate(-50%, -50%); border:5px solid black"">","","","","","","","",""
"","10473.494999983814","sequential-stimulus-presentation-old","78","489487","0.0-21.0-1.0","SS1619740097462","trial","","40","500","10973.494999983814","images/stimuli/spore_stims/complex_10_A_a.gif","images/stimuli/spore_stims/complex_12_A_b.gif","forced_long","","6","complex_dissimilar","images/stimuli/spore_stims/complex_12_A_b.gif","","","","",""
"","null","html-keyboard-response","79","490379","0.0-21.0-0.1","SS1619740097462","","","null","","","","","","<p><img src= images/blank.png width =""600"" height = ""600"" style=""position:fixed;top:50%; left:50%; transform: translate(-50%, -50%); border:5px solid black"">","","","","","","","",""
"","4247.8700000210665","sequential-stimulus-presentation-old","80","495137","0.0-21.0-1.1","SS1619740097462","trial","","40","500","4747.8700000210665","images/stimuli/spore_stims/complex_10_A_a.gif","images/stimuli/spore_stims/complex_12_A_b.gif","forced_long","","6","complex_dissimilar","images/stimuli/spore_stims/complex_12_A_b.gif","","","","",""
"","null","html-keyboard-response","81","496372","0.0-21.0-0.2","SS1619740097462","","","null","","","","","","<p><img src= images/blank.png width =""600"" height = ""600"" style=""position:fixed;top:50%; left:50%; transform: translate(-50%, -50%); border:5px solid black"">","","","","","","","",""
"","6937.015000032261","sequential-stimulus-presentation-old","82","503817","0.0-21.0-1.2","SS1619740097462","trial","","40","500","7437.015000032261","images/stimuli/spore_stims/complex_10_A_a.gif","images/stimuli/spore_stims/complex_12_A_b.gif","forced_long","","6","complex_dissimilar","images/stimuli/spore_stims/complex_12_A_b.gif","","","","",""
"","null","html-keyboard-response","83","505060","0.0-21.0-0.3","SS1619740097462","","","null","","","","","","<p><img src= images/blank.png width =""600"" height = ""600"" style=""position:fixed;top:50%; left:50%; transform: translate(-50%, -50%); border:5px solid black"">","","","","","","","",""
"","6499.234999995679","sequential-stimulus-presentation-old","84","512065","0.0-21.0-1.3","SS1619740097462","trial","","40","500","6999.234999995679","images/stimuli/spore_stims/complex_10_A_a.gif","images/stimuli/spore_stims/complex_12_A_b.gif","forced_long","","6","complex_dissimilar","images/stimuli/spore_stims/complex_10_A_a.gif","","","","",""
"","null","html-keyboard-response","85","513066","0.0-21.0-0.4","SS1619740097462","","","null","","","","","","<p><img src= images/blank.png width =""600"" height = ""600"" style=""position:fixed;top:50%; left:50%; transform: translate(-50%, -50%); border:5px solid black"">","","","","","","","",""
"","1458.0150000401773","sequential-stimulus-presentation-old","86","515031","0.0-21.0-1.4","SS1619740097462","trial","","40","500","1958.0150000401773","images/stimuli/spore_stims/complex_10_A_a.gif","images/stimuli/spore_stims/complex_12_A_b.gif","forced_long","","6","complex_dissimilar","images/stimuli/spore_stims/complex_12_A_b.gif","","","","",""
"","null","html-keyboard-response","87","515871","0.0-21.0-0.5","SS1619740097462","","","null","","","","","","<p><img src= images/blank.png width =""600"" height = ""600"" style=""position:fixed;top:50%; left:50%; transform: translate(-50%, -50%); border:5px solid black"">","","","","","","","",""
"","260.36500005284324","sequential-stimulus-presentation-old","88","516637","0.0-21.0-1.5","SS1619740097462","trial","","40","500","760.3650000528432","images/stimuli/spore_stims/complex_10_A_a.gif","images/stimuli/spore_stims/complex_12_A_b.gif","forced_long","","6","complex_dissimilar","images/stimuli/spore_stims/complex_12_A_b.gif","","","","",""
"","2316.2249999586493","survey-multi-choice","89","518957","0.0-22.0","SS1619740097462","math_question","","","","","","","","","","","","{""Q0"":""6""}","[0]","6","",""
"","null","html-keyboard-response","90","519967","0.0-23.0-0.0","SS1619740097462","","","null","","","","","","<p><img src= images/blank.png width =""600"" height = ""600"" style=""position:fixed;top:50%; left:50%; transform: translate(-50%, -50%); border:5px solid black"">","","","","","","","",""
"","904.9799999920651","sequential-stimulus-presentation-old","91","535881","0.0-23.0-1.0","SS1619740097462","trial","","40","500","1404.9799999920651","images/stimuli/spore_stims/simple_02_A_a.gif","images/stimuli/spore_stims/simple_03_A_b.gif","forced_long","","7","simple_dissimilar","images/stimuli/spore_stims/simple_03_A_b.gif","","","","",""
"","null","html-keyboard-response","92","536914","0.0-23.0-0.1","SS1619740097462","","","null","","","","","","<p><img src= images/blank.png width =""600"" height = ""600"" style=""position:fixed;top:50%; left:50%; transform: translate(-50%, -50%); border:5px solid black"">","","","","","","","",""
"","43834.11500003422","sequential-stimulus-presentation-old","93","581259","0.0-23.0-1.1","SS1619740097462","trial","","40","500","44334.11500003422","images/stimuli/spore_stims/simple_02_A_a.gif","images/stimuli/spore_stims/simple_03_A_b.gif","forced_long","","7","simple_dissimilar","images/stimuli/spore_stims/simple_03_A_b.gif","","","","",""
"","null","html-keyboard-response","94","582268","0.0-23.0-0.2","SS1619740097462","","","null","","","","","","<p><img src= images/blank.png width =""600"" height = ""600"" style=""position:fixed;top:50%; left:50%; transform: translate(-50%, -50%); border:5px solid black"">","","","","","","","",""
"","6050.029999983963","sequential-stimulus-presentation-old","95","588826","0.0-23.0-1.2","SS1619740097462","trial","","40","500","6550.029999983963","images/stimuli/spore_stims/simple_02_A_a.gif","images/stimuli/spore_stims/simple_03_A_b.gif","forced_long","","7","simple_dissimilar","images/stimuli/spore_stims/simple_02_A_a.gif","","","","",""
"","null","html-keyboard-response","96","589980","0.0-23.0-0.3","SS1619740097462","","","null","","","","","","<p><img src= images/blank.png width =""600"" height = ""600"" style=""position:fixed;top:50%; left:50%; transform: translate(-50%, -50%); border:5px solid black"">","","","","","","","",""
"","15140.399999974761","sequential-stimulus-presentation-old","97","605628","0.0-23.0-1.3","SS1619740097462","trial","","40","500","15640.399999974761","images/stimuli/spore_stims/simple_02_A_a.gif","images/stimuli/spore_stims/simple_03_A_b.gif","forced_long","","7","simple_dissimilar","images/stimuli/spore_stims/simple_03_A_b.gif","","","","",""
"","null","html-keyboard-response","98","606509","0.0-23.0-0.4","SS1619740097462","","","null","","","","","","<p><img src= images/blank.png width =""600"" height = ""600"" style=""position:fixed;top:50%; left:50%; transform: translate(-50%, -50%); border:5px solid black"">","","","","","","","",""
"","3732.015000015963","sequential-stimulus-presentation-old","99","610750","0.0-23.0-1.4","SS1619740097462","trial","","40","500","4232.015000015963","images/stimuli/spore_stims/simple_02_A_a.gif","images/stimuli/spore_stims/simple_03_A_b.gif","forced_long","","7","simple_dissimilar","images/stimuli/spore_stims/simple_02_A_a.gif","","","","",""
"","3517.1550000086427","survey-multi-choice","100","614272","0.0-24.0","SS1619740097462","math_question","","","","","","","","","","","","{""Q0"":""11""}","[0]","11","",""
"","null","html-keyboard-response","101","615112","0.0-25.0-0.0","SS1619740097462","","","null","","","","","","<p><img src= images/blank.png width =""600"" height = ""600"" style=""position:fixed;top:50%; left:50%; transform: translate(-50%, -50%); border:5px solid black"">","","","","","","","",""
"","5830.829999991693","sequential-stimulus-presentation-old","102","621451","0.0-25.0-1.0","SS1619740097462","trial","","40","500","6330.829999991693","images/stimuli/spore_stims/complex_01_A_a.gif","images/stimuli/spore_stims/complex_08_A_b.gif","self_paced","","8","complex_dissimilar","images/stimuli/spore_stims/complex_08_A_b.gif","","","","",""
"","null","html-keyboard-response","103","622309","0.0-25.0-0.1","SS1619740097462","","","null","","","","","","<p><img src= images/blank.png width =""600"" height = ""600"" style=""position:fixed;top:50%; left:50%; transform: translate(-50%, -50%); border:5px solid black"">","","","","","","","",""
"","3191.244999994524","sequential-stimulus-presentation-old","104","626010","0.0-25.0-1.1","SS1619740097462","trial","","40","500","3691.244999994524","images/stimuli/spore_stims/complex_01_A_a.gif","images/stimuli/spore_stims/complex_08_A_b.gif","self_paced","","8","complex_dissimilar","images/stimuli/spore_stims/complex_08_A_b.gif","","","","",""
"","null","html-keyboard-response","105","626819","0.0-25.0-0.2","SS1619740097462","","","null","","","","","","<p><img src= images/blank.png width =""600"" height = ""600"" style=""position:fixed;top:50%; left:50%; transform: translate(-50%, -50%); border:5px solid black"">","","","","","","","",""
"","4155.1999999792315","sequential-stimulus-presentation-old","106","631481","0.0-25.0-1.2","SS1619740097462","trial","","40","500","4655.1999999792315","images/stimuli/spore_stims/complex_01_A_a.gif","images/stimuli/spore_stims/complex_08_A_b.gif","self_paced","","8","complex_dissimilar","images/stimuli/spore_stims/complex_08_A_b.gif","","","","",""
"","null","html-keyboard-response","107","632731","0.0-25.0-0.3","SS1619740097462","","","null","","","","","","<p><img src= images/blank.png width =""600"" height = ""600"" style=""position:fixed;top:50%; left:50%; transform: translate(-50%, -50%); border:5px solid black"">","","","","","","","",""
"","314.91499999538064","sequential-stimulus-presentation-old","108","633556","0.0-25.0-1.3","SS1619740097462","trial","","40","500","814.9149999953806","images/stimuli/spore_stims/complex_01_A_a.gif","images/stimuli/spore_stims/complex_08_A_b.gif","self_paced","","8","complex_dissimilar","images/stimuli/spore_stims/complex_08_A_b.gif","","","","",""
"","null","html-keyboard-response","109","634566","0.0-25.0-0.4","SS1619740097462","","","null","","","","","","<p><img src= images/blank.png width =""600"" height = ""600"" style=""position:fixed;top:50%; left:50%; transform: translate(-50%, -50%); border:5px solid black"">","","","","","","","",""
"","3326.7800000030547","sequential-stimulus-presentation-old","110","638402","0.0-25.0-1.4","SS1619740097462","trial","","40","500","3826.7800000030547","images/stimuli/spore_stims/complex_01_A_a.gif","images/stimuli/spore_stims/complex_08_A_b.gif","self_paced","","8","complex_dissimilar","images/stimuli/spore_stims/complex_08_A_b.gif","","","","",""
"","null","html-keyboard-response","111","639436","0.0-25.0-0.5","SS1619740097462","","","null","","","","","","<p><img src= images/blank.png width =""600"" height = ""600"" style=""position:fixed;top:50%; left:50%; transform: translate(-50%, -50%); border:5px solid black"">","","","","","","","",""
"","1332.8200000105426","sequential-stimulus-presentation-old","112","641279","0.0-25.0-1.5","SS1619740097462","trial","","40","500","1832.8200000105426","images/stimuli/spore_stims/complex_01_A_a.gif","images/stimuli/spore_stims/complex_08_A_b.gif","self_paced","","8","complex_dissimilar","images/stimuli/spore_stims/complex_08_A_b.gif","","","","",""
"","3198.804999992717","survey-multi-choice","113","644481","0.0-26.0","SS1619740097462","math_question","","","","","","","","","","","","{""Q0"":""9""}","[0]","9","",""
"","null","html-keyboard-response","114","645594","0.0-27.0-0.0","SS1619740097462","","","null","","","","","","<p><img src= images/blank.png width =""600"" height = ""600"" style=""position:fixed;top:50%; left:50%; transform: translate(-50%, -50%); border:5px solid black"">","","","","","","","",""
"","715.3500000131316","sequential-stimulus-presentation-old","115","646815","0.0-27.0-1.0","SS1619740097462","trial","","40","500","1215.3500000131316","images/stimuli/spore_stims/simple_16_A_a.gif","images/stimuli/spore_stims/simple_13_A_b.gif","self_paced","","9","simple_dissimilar","images/stimuli/spore_stims/simple_13_A_b.gif","","","","",""
"","null","html-keyboard-response","116","647968","0.0-27.0-0.1","SS1619740097462","","","null","","","","","","<p><img src= images/blank.png width =""600"" height = ""600"" style=""position:fixed;top:50%; left:50%; transform: translate(-50%, -50%); border:5px solid black"">","","","","","","","",""
"","456.4750000135973","sequential-stimulus-presentation-old","117","648932","0.0-27.0-1.1","SS1619740097462","trial","","40","500","956.4750000135973","images/stimuli/spore_stims/simple_16_A_a.gif","images/stimuli/spore_stims/simple_13_A_b.gif","self_paced","","9","simple_dissimilar","images/stimuli/spore_stims/simple_13_A_b.gif","","","","",""
"","null","html-keyboard-response","118","649846","0.0-27.0-0.2","SS1619740097462","","","null","","","","","","<p><img src= images/blank.png width =""600"" height = ""600"" style=""position:fixed;top:50%; left:50%; transform: translate(-50%, -50%); border:5px solid black"">","","","","","","","",""
"","1171.9400000292808","sequential-stimulus-presentation-old","119","651523","0.0-27.0-1.2","SS1619740097462","trial","","40","500","1671.9400000292808","images/stimuli/spore_stims/simple_16_A_a.gif","images/stimuli/spore_stims/simple_13_A_b.gif","self_paced","","9","simple_dissimilar","images/stimuli/spore_stims/simple_16_A_a.gif","","","","",""
"","null","html-keyboard-response","120","652548","0.0-27.0-0.3","SS1619740097462","","","null","","","","","","<p><img src= images/blank.png width =""600"" height = ""600"" style=""position:fixed;top:50%; left:50%; transform: translate(-50%, -50%); border:5px solid black"">","","","","","","","",""
"","5925.8499999996275","sequential-stimulus-presentation-old","121","658981","0.0-27.0-1.3","SS1619740097462","trial","","40","500","6425.8499999996275","images/stimuli/spore_stims/simple_16_A_a.gif","images/stimuli/spore_stims/simple_13_A_b.gif","self_paced","","9","simple_dissimilar","images/stimuli/spore_stims/simple_13_A_b.gif","","","","",""
"","null","html-keyboard-response","122","660282","0.0-27.0-0.4","SS1619740097462","","","null","","","","","","<p><img src= images/blank.png width =""600"" height = ""600"" style=""position:fixed;top:50%; left:50%; transform: translate(-50%, -50%); border:5px solid black"">","","","","","","","",""
"","2114.2349999863654","sequential-stimulus-presentation-old","123","662907","0.0-27.0-1.4","SS1619740097462","trial","","40","500","2614.2349999863654","images/stimuli/spore_stims/simple_16_A_a.gif","images/stimuli/spore_stims/simple_13_A_b.gif","self_paced","","9","simple_dissimilar","images/stimuli/spore_stims/simple_13_A_b.gif","","","","",""
"","3222.4000000278465","survey-multi-choice","124","666134","0.0-28.0","SS1619740097462","math_question","","","","","","","","","","","","{""Q0"":""12""}","[0]","12","",""
"","null","html-keyboard-response","125","667385","0.0-29.0-0.0","SS1619740097462","","","null","","","","","","<p><img src= images/blank.png width =""600"" height = ""600"" style=""position:fixed;top:50%; left:50%; transform: translate(-50%, -50%); border:5px solid black"">","","","","","","","",""
"","1004.3450000230223","sequential-stimulus-presentation-old","126","668896","0.0-29.0-1.0","SS1619740097462","trial","","40","500","1504.3450000230223","images/stimuli/spore_stims/complex_19_A_b.gif","images/stimuli/spore_stims/complex_04_A_a.gif","forced_short","","10","complex_dissimilar","images/stimuli/spore_stims/complex_04_A_a.gif","","","","",""
"","null","html-keyboard-response","127","670126","0.0-29.0-0.1","SS1619740097462","","","null","","","","","","<p><img src= images/blank.png width =""600"" height = ""600"" style=""position:fixed;top:50%; left:50%; transform: translate(-50%, -50%); border:5px solid black"">","","","","","","","",""
"","1568.8499999814667","sequential-stimulus-presentation-old","128","672203","0.0-29.0-1.1","SS1619740097462","trial","","40","500","2068.8499999814667","images/stimuli/spore_stims/complex_19_A_b.gif","images/stimuli/spore_stims/complex_04_A_a.gif","forced_short","","10","complex_dissimilar","images/stimuli/spore_stims/complex_04_A_a.gif","","","","",""
"","null","html-keyboard-response","129","673135","0.0-29.0-0.2","SS1619740097462","","","null","","","","","","<p><img src= images/blank.png width =""600"" height = ""600"" style=""position:fixed;top:50%; left:50%; transform: translate(-50%, -50%); border:5px solid black"">","","","","","","","",""
"","3939.4399999873713","sequential-stimulus-presentation-old","130","677581","0.0-29.0-1.2","SS1619740097462","trial","","40","500","4439.439999987371","images/stimuli/spore_stims/complex_19_A_b.gif","images/stimuli/spore_stims/complex_04_A_a.gif","forced_short","","10","complex_dissimilar","images/stimuli/spore_stims/complex_19_A_b.gif","","","","",""
"","null","html-keyboard-response","131","678575","0.0-29.0-0.3","SS1619740097462","","","null","","","","","","<p><img src= images/blank.png width =""600"" height = ""600"" style=""position:fixed;top:50%; left:50%; transform: translate(-50%, -50%); border:5px solid black"">","","","","","","","",""
"","1647.7650000015274","sequential-stimulus-presentation-old","132","680732","0.0-29.0-1.3","SS1619740097462","trial","","40","500","2147.7650000015274","images/stimuli/spore_stims/complex_19_A_b.gif","images/stimuli/spore_stims/complex_04_A_a.gif","forced_short","","10","complex_dissimilar","images/stimuli/spore_stims/complex_04_A_a.gif","","","","",""
"","null","html-keyboard-response","133","681803","0.0-29.0-0.4","SS1619740097462","","","null","","","","","","<p><img src= images/blank.png width =""600"" height = ""600"" style=""position:fixed;top:50%; left:50%; transform: translate(-50%, -50%); border:5px solid black"">","","","","","","","",""
"","1920.70000001695","sequential-stimulus-presentation-old","134","684235","0.0-29.0-1.4","SS1619740097462","trial","","40","500","2420.70000001695","images/stimuli/spore_stims/complex_19_A_b.gif","images/stimuli/spore_stims/complex_04_A_a.gif","forced_short","","10","complex_dissimilar","images/stimuli/spore_stims/complex_19_A_b.gif","","","","",""
"","3598.775000020396","survey-multi-choice","135","687839","0.0-30.0","SS1619740097462","math_question","","","","","","","","","","","","{""Q0"":""11""}","[0]","11","",""
"","null","html-keyboard-response","136","688683","0.0-31.0-0.0","SS1619740097462","","","null","","","","","","<p><img src= images/blank.png width =""600"" height = ""600"" style=""position:fixed;top:50%; left:50%; transform: translate(-50%, -50%); border:5px solid black"">","","","","","","","",""
"","1538.0850000074133","sequential-stimulus-presentation-old","137","690728","0.0-31.0-1.0","SS1619740097462","trial","","40","500","2038.0850000074133","images/stimuli/spore_stims/simple_17_A_a.gif","images/stimuli/spore_stims/simple_15_A_b.gif","self_paced","","11","simple_dissimilar","images/stimuli/spore_stims/simple_15_A_b.gif","","","","",""
"","null","html-keyboard-response","138","691544","0.0-31.0-0.1","SS1619740097462","","","null","","","","","","<p><img src= images/blank.png width =""600"" height = ""600"" style=""position:fixed;top:50%; left:50%; transform: translate(-50%, -50%); border:5px solid black"">","","","","","","","",""
"","930.8399999863468","sequential-stimulus-presentation-old","139","692982","0.0-31.0-1.1","SS1619740097462","trial","","40","500","1430.8399999863468","images/stimuli/spore_stims/simple_17_A_a.gif","images/stimuli/spore_stims/simple_15_A_b.gif","self_paced","","11","simple_dissimilar","images/stimuli/spore_stims/simple_15_A_b.gif","","","","",""
"","null","html-keyboard-response","140","694131","0.0-31.0-0.2","SS1619740097462","","","null","","","","","","<p><img src= images/blank.png width =""600"" height = ""600"" style=""position:fixed;top:50%; left:50%; transform: translate(-50%, -50%); border:5px solid black"">","","","","","","","",""
"","3124.1400000290014","sequential-stimulus-presentation-old","141","697763","0.0-31.0-1.2","SS1619740097462","trial","","40","500","3624.1400000290014","images/stimuli/spore_stims/simple_17_A_a.gif","images/stimuli/spore_stims/simple_15_A_b.gif","self_paced","","11","simple_dissimilar","images/stimuli/spore_stims/simple_15_A_b.gif","","","","",""
"","null","html-keyboard-response","142","698666","0.0-31.0-0.3","SS1619740097462","","","null","","","","","","<p><img src= images/blank.png width =""600"" height = ""600"" style=""position:fixed;top:50%; left:50%; transform: translate(-50%, -50%); border:5px solid black"">","","","","","","","",""
"","29.02000001631677","sequential-stimulus-presentation-old","143","699207","0.0-31.0-1.3","SS1619740097462","trial","","40","500","529.0200000163168","images/stimuli/spore_stims/simple_17_A_a.gif","images/stimuli/spore_stims/simple_15_A_b.gif","self_paced","","11","simple_dissimilar","images/stimuli/spore_stims/simple_15_A_b.gif","","","","",""
"","null","html-keyboard-response","144","700341","0.0-31.0-0.4","SS1619740097462","","","null","","","","","","<p><img src= images/blank.png width =""600"" height = ""600"" style=""position:fixed;top:50%; left:50%; transform: translate(-50%, -50%); border:5px solid black"">","","","","","","","",""
"","1131.0899999807589","sequential-stimulus-presentation-old","145","701978","0.0-31.0-1.4","SS1619740097462","trial","","40","500","1631.0899999807589","images/stimuli/spore_stims/simple_17_A_a.gif","images/stimuli/spore_stims/simple_15_A_b.gif","self_paced","","11","simple_dissimilar","images/stimuli/spore_stims/simple_15_A_b.gif","","","","",""
"","null","html-keyboard-response","146","702928","0.0-31.0-0.5","SS1619740097462","","","null","","","","","","<p><img src= images/blank.png width =""600"" height = ""600"" style=""position:fixed;top:50%; left:50%; transform: translate(-50%, -50%); border:5px solid black"">","","","","","","","",""
"","3353.3900000038557","sequential-stimulus-presentation-old","147","706787","0.0-31.0-1.5","SS1619740097462","trial","","40","500","3853.3900000038557","images/stimuli/spore_stims/simple_17_A_a.gif","images/stimuli/spore_stims/simple_15_A_b.gif","self_paced","","11","simple_dissimilar","images/stimuli/spore_stims/simple_15_A_b.gif","","","","",""
"[{""page_index"":0,""viewing_time"":3966.729999985546}]","3967.1249999664724","instructions","148","710757","0.0-32.0","SS1619740097462","instructions","","","","","","","","","","","","","","","",""
"","6924.1649999748915","survey-likert","149","717695","0.0-33.0","SS1619740097462","similarity_question","","","","","","","","","","","","{""Q0"":4}","[0]","","images/stimuli/spore_stims/complex_19_A_b.gif","images/stimuli/spore_stims/complex_04_A_a.gif"
"","8649.435000028461","survey-likert","150","726352","0.0-34.0","SS1619740097462","similarity_question","","","","","","","","","","","","{""Q0"":2}","[0]","","images/stimuli/spore_stims/complex_08_A_a.gif","images/stimuli/spore_stims/complex_09_A_b.gif"
"","7875.27499999851","survey-likert","151","734236","0.0-35.0","SS1619740097462","similarity_question","","","","","","","","","","","","{""Q0"":5}","[0]","","images/stimuli/spore_stims/simple_17_A_a.gif","images/stimuli/spore_stims/simple_15_A_b.gif"
"","20145.019999996293","survey-likert","152","754391","0.0-36.0","SS1619740097462","similarity_question","","","","","","","","","","","","{""Q0"":3}","[0]","","images/stimuli/spore_stims/complex_10_A_a.gif","images/stimuli/spore_stims/complex_12_A_b.gif"
"","10732.039999973495","survey-likert","153","765132","0.0-37.0","SS1619740097462","similarity_question","","","","","","","","","","","","{""Q0"":2}","[0]","","images/stimuli/spore_stims/complex_08_A_b.gif","images/stimuli/spore_stims/complex_01_A_a.gif"
"","5282.559999963269","survey-likert","154","770420","0.0-38.0","SS1619740097462","similarity_question","","","","","","","","","","","","{""Q0"":0}","[0]","","images/stimuli/spore_stims/complex_11_A_b.gif","images/stimuli/spore_stims/complex_17_A_a.gif"
"","2804.954999999609","survey-likert","155","773232","0.0-39.0","SS1619740097462","similarity_question","","","","","","","","","","","","{""Q0"":5}","[0]","","images/stimuli/spore_stims/simple_01_A_b.gif","images/stimuli/spore_stims/simple_20_A_a.gif"
"","2683.1900000106543","survey-likert","156","775920","0.0-40.0","SS1619740097462","similarity_question","","","","","","","","","","","","{""Q0"":5}","[0]","","images/stimuli/spore_stims/simple_20_A_b.gif","images/stimuli/spore_stims/simple_15_A_a.gif"
"","3256.5899999463","survey-likert","157","779183","0.0-41.0","SS1619740097462","similarity_question","","","","","","","","","","","","{""Q0"":4}","[0]","","images/stimuli/spore_stims/simple_02_A_a.gif","images/stimuli/spore_stims/simple_03_A_b.gif"
"","4008.4849999984726","survey-likert","158","783197","0.0-42.0","SS1619740097462","similarity_question","","","","","","","","","","","","{""Q0"":5}","[0]","","images/stimuli/spore_stims/simple_08_A_b.gif","images/stimuli/spore_stims/simple_18_A_a.gif"
"","2720.6500000320375","survey-likert","159","785926","0.0-43.0","SS1619740097462","similarity_question","","","","","","","","","","","","{""Q0"":5}","[0]","","images/stimuli/spore_stims/simple_16_A_a.gif","images/stimuli/spore_stims/simple_13_A_b.gif"
"","4609.984999988228","survey-likert","160","790544","0.0-44.0","SS1619740097462","similarity_question","","","","","","","","","","","","{""Q0"":4}","[0]","","images/stimuli/spore_stims/complex_09_A_a.gif","images/stimuli/spore_stims/complex_06_A_b.gif"
"[{""page_index"":0,""viewing_time"":3562.1399999945424}]","3563.780000025872","instructions","161","794113","0.0-45.0","SS1619740097462","instructions","","","","","","","","","","","","","","","",""
"","7145.484999986365","survey-likert","162","801266","0.0-46.0","SS1619740097462","","","","","","","","","images/stimuli/spore_stims/complex_17_A_a.gif","","","","{""Q0"":5}","[0]","","",""
"","3160.6949999695644","survey-likert","163","804435","0.0-47.0","SS1619740097462","","","","","","","","","images/stimuli/spore_stims/complex_01_A_a.gif","","","","{""Q0"":4}","[0]","","",""
"","2624.8300000443123","survey-likert","164","807067","0.0-48.0","SS1619740097462","","","","","","","","","images/stimuli/spore_stims/complex_19_A_b.gif","","","","{""Q0"":6}","[0]","","",""
"","2601.8700000131503","survey-likert","165","809675","0.0-49.0","SS1619740097462","","","","","","","","","images/stimuli/spore_stims/simple_15_A_a.gif","","","","{""Q0"":0}","[0]","","",""
"","2135.4149999679066","survey-likert","166","811818","0.0-50.0","SS1619740097462","","","","","","","","","images/stimuli/spore_stims/simple_16_A_a.gif","","","","{""Q0"":1}","[0]","","",""
"","2329.364999954123","survey-likert","167","814156","0.0-51.0","SS1619740097462","","","","","","","","","images/stimuli/spore_stims/simple_15_A_b.gif","","","","{""Q0"":1}","[0]","","",""
"","3361.4700000034645","survey-likert","168","817526","0.0-52.0","SS1619740097462","","","","","","","","","images/stimuli/spore_stims/simple_18_A_a.gif","","","","{""Q0"":2}","[0]","","",""
"","3982.2350000031292","survey-likert","169","821512","0.0-53.0","SS1619740097462","","","","","","","","","images/stimuli/spore_stims/complex_09_A_a.gif","","","","{""Q0"":5}","[0]","","",""
"","2248.5800000140443","survey-likert","170","823766","0.0-54.0","SS1619740097462","","","","","","","","","images/stimuli/spore_stims/complex_10_A_a.gif","","","","{""Q0"":6}","[0]","","",""
"","2268.099999986589","survey-likert","171","826039","0.0-55.0","SS1619740097462","","","","","","","","","images/stimuli/spore_stims/complex_08_A_a.gif","","","","{""Q0"":6}","[0]","","",""
"","2229.2000000015832","survey-likert","172","828273","0.0-56.0","SS1619740097462","","","","","","","","","images/stimuli/spore_stims/simple_20_A_a.gif","","","","{""Q0"":1}","[0]","","",""
"","2248.974999994971","survey-likert","173","830530","0.0-57.0","SS1619740097462","","","","","","","","","images/stimuli/spore_stims/simple_02_A_a.gif","","","","{""Q0"":0}","[0]","","",""
"[{""page_index"":0,""viewing_time"":1770.0049999984913}]","1770.4149999772198","instructions","174","832306","0.0-58.0","SS1619740097462","instructions","","","","","","","","","","","","","","","",""
"","2285.9000000171363","demog-age","175","834604","0.0-59.0","SS1619740097462","","","","","","","","","","","","","{""age"":""23""}","","","",""
"","7805.82000000868","demog-ethnic-US","176","842423","0.0-60.0","SS1619740097462","","","","","","","","","","","","","{""ethnicity"":[""Other""]}","[0]","","",""
"","12143.54000001913","demog-gender-and-education","177","854572","0.0-61.0","SS1619740097462","","","","","","","","","","","","","{""gender"":""Female"",""education"":""Bachelor's Degree""}","[0,1]","","",""
"","23509.12000000244","survey-text","178","878093","0.0-62.0","SS1619740097462","feedback","","","","","","","","","","","","{""Q0"":""none""}","","","",""
"[{""page_index"":0,""viewing_time"":3339.604999986477}]","3339.990000007674","instructions","179","881439","0.0-63.0","SS1619740097462","instructions","","","","","","","","","","","","","","","",""
