"view_history","rt","trial_type","trial_index","time_elapsed","internal_node_id","subject","stimulus_type","trial_stimulus","key_press","minimum_viewing_duration","trial_looking_time","block_deviant","block_background","exposure_type","stimulus","block_number","block_type","stimulus_displayed","responses","question_order","math_correct_answer","stimulus_left","stimulus_right"
"[{""page_index"":0,""viewing_time"":19468}]","19468","instructions","0","19469","0.0-0.0","SS1619739729654","","","","","","","","","","","","","","","","",""
"[{""page_index"":0,""viewing_time"":10714},{""page_index"":1,""viewing_time"":4546}]","15260","instructions","1","36735","0.0-1.0","SS1619739729654","instructions","","","","","","","","","","","","","","","",""
"","4922","sequential-stimulus-presentation-old","2","42165","0.0-2.0","SS1619739729654","","","40","500","5422","null","null","self_paced","","","","","","","","",""
"","3440","sequential-stimulus-presentation-old","3","46117","0.0-3.0","SS1619739729654","","","40","500","3940","null","null","self_paced","","","","","","","","",""
"[{""page_index"":0,""viewing_time"":38890}]","38890","instructions","4","85009","0.0-4.0","SS1619739729654","instructions","","","","","","","","","","","","","","","",""
"","2621","sequential-stimulus-presentation-old","5","102645","0.0-5.0","SS1619739729654","","","40","500","3121","null","null","forced_long","","","","","","","","",""
"","1810","sequential-stimulus-presentation-old","6","104969","0.0-6.0","SS1619739729654","","","40","500","2310","null","null","forced_long","","","","","","","","",""
"[{""page_index"":0,""viewing_time"":2201}]","2201","instructions","7","107172","0.0-7.0","SS1619739729654","instructions","","","","","","","","","","","","","","","",""
"[{""page_index"":0,""viewing_time"":8909},{""page_index"":1,""viewing_time"":5406},{""page_index"":2,""viewing_time"":4495},{""page_index"":3,""viewing_time"":781},{""page_index"":4,""viewing_time"":824}]","20415","instructions","8","127588","0.0-8.0","SS1619739729654","instructions","","","","","","","","","","","","","","","",""
"","null","html-keyboard-response","9","128621","0.0-9.0-0.0","SS1619739729654","","","null","","","","","","<p><img src= images/blank.png width =""600"" height = ""600"" style=""position:fixed;top:50%; left:50%; transform: translate(-50%, -50%); border:5px solid black"">","","","","","","","",""
"","1729","sequential-stimulus-presentation-old","10","130856","0.0-9.0-1.0","SS1619739729654","trial","","40","500","2229","images/stimuli/spore_stims/simple_07_A_b.gif","images/stimuli/spore_stims/simple_10_A_a.gif","forced_short","","0","simple_dissimilar","images/stimuli/spore_stims/simple_10_A_a.gif","","","","",""
"","null","html-keyboard-response","11","131804","0.0-9.0-0.1","SS1619739729654","","","null","","","","","","<p><img src= images/blank.png width =""600"" height = ""600"" style=""position:fixed;top:50%; left:50%; transform: translate(-50%, -50%); border:5px solid black"">","","","","","","","",""
"","1005","sequential-stimulus-presentation-old","12","133317","0.0-9.0-1.1","SS1619739729654","trial","","40","500","1505","images/stimuli/spore_stims/simple_07_A_b.gif","images/stimuli/spore_stims/simple_10_A_a.gif","forced_short","","0","simple_dissimilar","images/stimuli/spore_stims/simple_10_A_a.gif","","","","",""
"","null","html-keyboard-response","13","134157","0.0-9.0-0.2","SS1619739729654","","","null","","","","","","<p><img src= images/blank.png width =""600"" height = ""600"" style=""position:fixed;top:50%; left:50%; transform: translate(-50%, -50%); border:5px solid black"">","","","","","","","",""
"","5050","sequential-stimulus-presentation-old","14","139715","0.0-9.0-1.2","SS1619739729654","trial","","40","500","5550","images/stimuli/spore_stims/simple_07_A_b.gif","images/stimuli/spore_stims/simple_10_A_a.gif","forced_short","","0","simple_dissimilar","images/stimuli/spore_stims/simple_10_A_a.gif","","","","",""
"","null","html-keyboard-response","15","140864","0.0-9.0-0.3","SS1619739729654","","","null","","","","","","<p><img src= images/blank.png width =""600"" height = ""600"" style=""position:fixed;top:50%; left:50%; transform: translate(-50%, -50%); border:5px solid black"">","","","","","","","",""
"","4453","sequential-stimulus-presentation-old","16","145826","0.0-9.0-1.3","SS1619739729654","trial","","40","500","4953","images/stimuli/spore_stims/simple_07_A_b.gif","images/stimuli/spore_stims/simple_10_A_a.gif","forced_short","","0","simple_dissimilar","images/stimuli/spore_stims/simple_10_A_a.gif","","","","",""
"","null","html-keyboard-response","17","146815","0.0-9.0-0.4","SS1619739729654","","","null","","","","","","<p><img src= images/blank.png width =""600"" height = ""600"" style=""position:fixed;top:50%; left:50%; transform: translate(-50%, -50%); border:5px solid black"">","","","","","","","",""
"","5755","sequential-stimulus-presentation-old","18","153079","0.0-9.0-1.4","SS1619739729654","trial","","40","500","6255","images/stimuli/spore_stims/simple_07_A_b.gif","images/stimuli/spore_stims/simple_10_A_a.gif","forced_short","","0","simple_dissimilar","images/stimuli/spore_stims/simple_07_A_b.gif","","","","",""
"","3055","survey-multi-choice","19","156137","0.0-10.0","SS1619739729654","math_question","","","","","","","","","","","","{""Q0"":""5""}","[0]","5","",""
"","null","html-keyboard-response","20","157118","0.0-11.0-0.0","SS1619739729654","","","null","","","","","","<p><img src= images/blank.png width =""600"" height = ""600"" style=""position:fixed;top:50%; left:50%; transform: translate(-50%, -50%); border:5px solid black"">","","","","","","","",""
"","3370","sequential-stimulus-presentation-old","21","160997","0.0-11.0-1.0","SS1619739729654","trial","","40","500","3870","images/stimuli/spore_stims/simple_01_A_a.gif","images/stimuli/spore_stims/simple_09_A_b.gif","self_paced","","1","simple_dissimilar","images/stimuli/spore_stims/simple_09_A_b.gif","","","","",""
"","null","html-keyboard-response","22","162115","0.0-11.0-0.1","SS1619739729654","","","null","","","","","","<p><img src= images/blank.png width =""600"" height = ""600"" style=""position:fixed;top:50%; left:50%; transform: translate(-50%, -50%); border:5px solid black"">","","","","","","","",""
"","355","sequential-stimulus-presentation-old","23","162977","0.0-11.0-1.1","SS1619739729654","trial","","40","500","855","images/stimuli/spore_stims/simple_01_A_a.gif","images/stimuli/spore_stims/simple_09_A_b.gif","self_paced","","1","simple_dissimilar","images/stimuli/spore_stims/simple_09_A_b.gif","","","","",""
"","null","html-keyboard-response","24","163930","0.0-11.0-0.2","SS1619739729654","","","null","","","","","","<p><img src= images/blank.png width =""600"" height = ""600"" style=""position:fixed;top:50%; left:50%; transform: translate(-50%, -50%); border:5px solid black"">","","","","","","","",""
"","9368","sequential-stimulus-presentation-old","25","173804","0.0-11.0-1.2","SS1619739729654","trial","","40","500","9868","images/stimuli/spore_stims/simple_01_A_a.gif","images/stimuli/spore_stims/simple_09_A_b.gif","self_paced","","1","simple_dissimilar","images/stimuli/spore_stims/simple_09_A_b.gif","","","","",""
"","null","html-keyboard-response","26","174659","0.0-11.0-0.3","SS1619739729654","","","null","","","","","","<p><img src= images/blank.png width =""600"" height = ""600"" style=""position:fixed;top:50%; left:50%; transform: translate(-50%, -50%); border:5px solid black"">","","","","","","","",""
"","820","sequential-stimulus-presentation-old","27","175989","0.0-11.0-1.3","SS1619739729654","trial","","40","500","1320","images/stimuli/spore_stims/simple_01_A_a.gif","images/stimuli/spore_stims/simple_09_A_b.gif","self_paced","","1","simple_dissimilar","images/stimuli/spore_stims/simple_09_A_b.gif","","","","",""
"","14106","survey-multi-choice","28","190098","0.0-12.0","SS1619739729654","math_question","","","","","","","","","","","","{""Q0"":""15""}","[0]","15","",""
"","null","html-keyboard-response","29","190993","0.0-13.0-0.0","SS1619739729654","","","null","","","","","","<p><img src= images/blank.png width =""600"" height = ""600"" style=""position:fixed;top:50%; left:50%; transform: translate(-50%, -50%); border:5px solid black"">","","","","","","","",""
"","974","sequential-stimulus-presentation-old","30","206984","0.0-13.0-1.0","SS1619739729654","trial","","40","500","1474","images/stimuli/spore_stims/simple_04_A_b.gif","images/stimuli/spore_stims/simple_07_A_a.gif","forced_long","","2","simple_dissimilar","images/stimuli/spore_stims/simple_07_A_a.gif","","","","",""
"","null","html-keyboard-response","31","208130","0.0-13.0-0.1","SS1619739729654","","","null","","","","","","<p><img src= images/blank.png width =""600"" height = ""600"" style=""position:fixed;top:50%; left:50%; transform: translate(-50%, -50%); border:5px solid black"">","","","","","","","",""
"","8736","sequential-stimulus-presentation-old","32","217374","0.0-13.0-1.1","SS1619739729654","trial","","40","500","9236","images/stimuli/spore_stims/simple_04_A_b.gif","images/stimuli/spore_stims/simple_07_A_a.gif","forced_long","","2","simple_dissimilar","images/stimuli/spore_stims/simple_07_A_a.gif","","","","",""
"","null","html-keyboard-response","33","218312","0.0-13.0-0.2","SS1619739729654","","","null","","","","","","<p><img src= images/blank.png width =""600"" height = ""600"" style=""position:fixed;top:50%; left:50%; transform: translate(-50%, -50%); border:5px solid black"">","","","","","","","",""
"","4840","sequential-stimulus-presentation-old","34","223660","0.0-13.0-1.2","SS1619739729654","trial","","40","500","5340","images/stimuli/spore_stims/simple_04_A_b.gif","images/stimuli/spore_stims/simple_07_A_a.gif","forced_long","","2","simple_dissimilar","images/stimuli/spore_stims/simple_07_A_a.gif","","","","",""
"","null","html-keyboard-response","35","224956","0.0-13.0-0.3","SS1619739729654","","","null","","","","","","<p><img src= images/blank.png width =""600"" height = ""600"" style=""position:fixed;top:50%; left:50%; transform: translate(-50%, -50%); border:5px solid black"">","","","","","","","",""
"","939","sequential-stimulus-presentation-old","36","226400","0.0-13.0-1.3","SS1619739729654","trial","","40","500","1439","images/stimuli/spore_stims/simple_04_A_b.gif","images/stimuli/spore_stims/simple_07_A_a.gif","forced_long","","2","simple_dissimilar","images/stimuli/spore_stims/simple_07_A_a.gif","","","","",""
"","2877","survey-multi-choice","37","229281","0.0-14.0","SS1619739729654","math_question","","","","","","","","","","","","{""Q0"":""3""}","[0]","3","",""
"","null","html-keyboard-response","38","230199","0.0-15.0-0.0","SS1619739729654","","","null","","","","","","<p><img src= images/blank.png width =""600"" height = ""600"" style=""position:fixed;top:50%; left:50%; transform: translate(-50%, -50%); border:5px solid black"">","","","","","","","",""
"","3880","sequential-stimulus-presentation-old","39","234585","0.0-15.0-1.0","SS1619739729654","trial","","40","500","4380","images/stimuli/spore_stims/complex_18_A_a.gif","images/stimuli/spore_stims/complex_14_A_b.gif","self_paced","","3","complex_dissimilar","images/stimuli/spore_stims/complex_14_A_b.gif","","","","",""
"","null","html-keyboard-response","40","235859","0.0-15.0-0.1","SS1619739729654","","","null","","","","","","<p><img src= images/blank.png width =""600"" height = ""600"" style=""position:fixed;top:50%; left:50%; transform: translate(-50%, -50%); border:5px solid black"">","","","","","","","",""
"","6733","sequential-stimulus-presentation-old","41","243100","0.0-15.0-1.1","SS1619739729654","trial","","40","500","7233","images/stimuli/spore_stims/complex_18_A_a.gif","images/stimuli/spore_stims/complex_14_A_b.gif","self_paced","","3","complex_dissimilar","images/stimuli/spore_stims/complex_18_A_a.gif","","","","",""
"","null","html-keyboard-response","42","244137","0.0-15.0-0.2","SS1619739729654","","","null","","","","","","<p><img src= images/blank.png width =""600"" height = ""600"" style=""position:fixed;top:50%; left:50%; transform: translate(-50%, -50%); border:5px solid black"">","","","","","","","",""
"","11127","sequential-stimulus-presentation-old","43","255770","0.0-15.0-1.2","SS1619739729654","trial","","40","500","11627","images/stimuli/spore_stims/complex_18_A_a.gif","images/stimuli/spore_stims/complex_14_A_b.gif","self_paced","","3","complex_dissimilar","images/stimuli/spore_stims/complex_18_A_a.gif","","","","",""
"","null","html-keyboard-response","44","256977","0.0-15.0-0.3","SS1619739729654","","","null","","","","","","<p><img src= images/blank.png width =""600"" height = ""600"" style=""position:fixed;top:50%; left:50%; transform: translate(-50%, -50%); border:5px solid black"">","","","","","","","",""
"","6814","sequential-stimulus-presentation-old","45","264299","0.0-15.0-1.3","SS1619739729654","trial","","40","500","7314","images/stimuli/spore_stims/complex_18_A_a.gif","images/stimuli/spore_stims/complex_14_A_b.gif","self_paced","","3","complex_dissimilar","images/stimuli/spore_stims/complex_14_A_b.gif","","","","",""
"","null","html-keyboard-response","46","265575","0.0-15.0-0.4","SS1619739729654","","","null","","","","","","<p><img src= images/blank.png width =""600"" height = ""600"" style=""position:fixed;top:50%; left:50%; transform: translate(-50%, -50%); border:5px solid black"">","","","","","","","",""
"","3538","sequential-stimulus-presentation-old","47","269619","0.0-15.0-1.4","SS1619739729654","trial","","40","500","4038","images/stimuli/spore_stims/complex_18_A_a.gif","images/stimuli/spore_stims/complex_14_A_b.gif","self_paced","","3","complex_dissimilar","images/stimuli/spore_stims/complex_14_A_b.gif","","","","",""
"","null","html-keyboard-response","48","270480","0.0-15.0-0.5","SS1619739729654","","","null","","","","","","<p><img src= images/blank.png width =""600"" height = ""600"" style=""position:fixed;top:50%; left:50%; transform: translate(-50%, -50%); border:5px solid black"">","","","","","","","",""
"","100","sequential-stimulus-presentation-old","49","271086","0.0-15.0-1.5","SS1619739729654","trial","","40","500","600","images/stimuli/spore_stims/complex_18_A_a.gif","images/stimuli/spore_stims/complex_14_A_b.gif","self_paced","","3","complex_dissimilar","images/stimuli/spore_stims/complex_14_A_b.gif","","","","",""
"","2547","survey-multi-choice","50","273637","0.0-16.0","SS1619739729654","math_question","","","","","","","","","","","","{""Q0"":""12""}","[0]","12","",""
"","null","html-keyboard-response","51","274829","0.0-17.0-0.0","SS1619739729654","","","null","","","","","","<p><img src= images/blank.png width =""600"" height = ""600"" style=""position:fixed;top:50%; left:50%; transform: translate(-50%, -50%); border:5px solid black"">","","","","","","","",""
"","3259","sequential-stimulus-presentation-old","52","278597","0.0-17.0-1.0","SS1619739729654","trial","","40","500","3759","images/stimuli/spore_stims/complex_12_A_a.gif","images/stimuli/spore_stims/complex_06_A_b.gif","forced_short","","4","complex_dissimilar","images/stimuli/spore_stims/complex_06_A_b.gif","","","","",""
"","null","html-keyboard-response","53","279768","0.0-17.0-0.1","SS1619739729654","","","null","","","","","","<p><img src= images/blank.png width =""600"" height = ""600"" style=""position:fixed;top:50%; left:50%; transform: translate(-50%, -50%); border:5px solid black"">","","","","","","","",""
"","4878","sequential-stimulus-presentation-old","54","285153","0.0-17.0-1.1","SS1619739729654","trial","","40","500","5378","images/stimuli/spore_stims/complex_12_A_a.gif","images/stimuli/spore_stims/complex_06_A_b.gif","forced_short","","4","complex_dissimilar","images/stimuli/spore_stims/complex_06_A_b.gif","","","","",""
"","null","html-keyboard-response","55","286303","0.0-17.0-0.2","SS1619739729654","","","null","","","","","","<p><img src= images/blank.png width =""600"" height = ""600"" style=""position:fixed;top:50%; left:50%; transform: translate(-50%, -50%); border:5px solid black"">","","","","","","","",""
"","1229","sequential-stimulus-presentation-old","56","288040","0.0-17.0-1.2","SS1619739729654","trial","","40","500","1729","images/stimuli/spore_stims/complex_12_A_a.gif","images/stimuli/spore_stims/complex_06_A_b.gif","forced_short","","4","complex_dissimilar","images/stimuli/spore_stims/complex_06_A_b.gif","","","","",""
"","null","html-keyboard-response","57","289039","0.0-17.0-0.3","SS1619739729654","","","null","","","","","","<p><img src= images/blank.png width =""600"" height = ""600"" style=""position:fixed;top:50%; left:50%; transform: translate(-50%, -50%); border:5px solid black"">","","","","","","","",""
"","7298","sequential-stimulus-presentation-old","58","296846","0.0-17.0-1.3","SS1619739729654","trial","","40","500","7798","images/stimuli/spore_stims/complex_12_A_a.gif","images/stimuli/spore_stims/complex_06_A_b.gif","forced_short","","4","complex_dissimilar","images/stimuli/spore_stims/complex_06_A_b.gif","","","","",""
"","3629","survey-multi-choice","59","300479","0.0-18.0","SS1619739729654","math_question","","","","","","","","","","","","{""Q0"":""8""}","[0]","8","",""
"","null","html-keyboard-response","60","301715","0.0-19.0-0.0","SS1619739729654","","","null","","","","","","<p><img src= images/blank.png width =""600"" height = ""600"" style=""position:fixed;top:50%; left:50%; transform: translate(-50%, -50%); border:5px solid black"">","","","","","","","",""
"","622","sequential-stimulus-presentation-old","61","317349","0.0-19.0-1.0","SS1619739729654","trial","","40","500","1122","images/stimuli/spore_stims/complex_05_A_b.gif","images/stimuli/spore_stims/complex_07_A_a.gif","forced_long","","5","complex_dissimilar","images/stimuli/spore_stims/complex_07_A_a.gif","","","","",""
"","null","html-keyboard-response","62","318636","0.0-19.0-0.1","SS1619739729654","","","null","","","","","","<p><img src= images/blank.png width =""600"" height = ""600"" style=""position:fixed;top:50%; left:50%; transform: translate(-50%, -50%); border:5px solid black"">","","","","","","","",""
"","11506","sequential-stimulus-presentation-old","63","330650","0.0-19.0-1.1","SS1619739729654","trial","","40","500","12006","images/stimuli/spore_stims/complex_05_A_b.gif","images/stimuli/spore_stims/complex_07_A_a.gif","forced_long","","5","complex_dissimilar","images/stimuli/spore_stims/complex_07_A_a.gif","","","","",""
"","null","html-keyboard-response","64","331753","0.0-19.0-0.2","SS1619739729654","","","null","","","","","","<p><img src= images/blank.png width =""600"" height = ""600"" style=""position:fixed;top:50%; left:50%; transform: translate(-50%, -50%); border:5px solid black"">","","","","","","","",""
"","9178","sequential-stimulus-presentation-old","65","341439","0.0-19.0-1.2","SS1619739729654","trial","","40","500","9678","images/stimuli/spore_stims/complex_05_A_b.gif","images/stimuli/spore_stims/complex_07_A_a.gif","forced_long","","5","complex_dissimilar","images/stimuli/spore_stims/complex_07_A_a.gif","","","","",""
"","null","html-keyboard-response","66","342639","0.0-19.0-0.3","SS1619739729654","","","null","","","","","","<p><img src= images/blank.png width =""600"" height = ""600"" style=""position:fixed;top:50%; left:50%; transform: translate(-50%, -50%); border:5px solid black"">","","","","","","","",""
"","2653","sequential-stimulus-presentation-old","67","345799","0.0-19.0-1.3","SS1619739729654","trial","","40","500","3153","images/stimuli/spore_stims/complex_05_A_b.gif","images/stimuli/spore_stims/complex_07_A_a.gif","forced_long","","5","complex_dissimilar","images/stimuli/spore_stims/complex_05_A_b.gif","","","","",""
"","2598","survey-multi-choice","68","348402","0.0-20.0","SS1619739729654","math_question","","","","","","","","","","","","{""Q0"":""9""}","[0]","9","",""
"","null","html-keyboard-response","69","349605","0.0-21.0-0.0","SS1619739729654","","","null","","","","","","<p><img src= images/blank.png width =""600"" height = ""600"" style=""position:fixed;top:50%; left:50%; transform: translate(-50%, -50%); border:5px solid black"">","","","","","","","",""
"","1530","sequential-stimulus-presentation-old","70","351643","0.0-21.0-1.0","SS1619739729654","trial","","40","500","2030","images/stimuli/spore_stims/simple_14_A_b.gif","images/stimuli/spore_stims/simple_17_A_a.gif","self_paced","","6","simple_dissimilar","images/stimuli/spore_stims/simple_17_A_a.gif","","","","",""
"","null","html-keyboard-response","71","352741","0.0-21.0-0.1","SS1619739729654","","","null","","","","","","<p><img src= images/blank.png width =""600"" height = ""600"" style=""position:fixed;top:50%; left:50%; transform: translate(-50%, -50%); border:5px solid black"">","","","","","","","",""
"","398","sequential-stimulus-presentation-old","72","353648","0.0-21.0-1.1","SS1619739729654","trial","","40","500","898","images/stimuli/spore_stims/simple_14_A_b.gif","images/stimuli/spore_stims/simple_17_A_a.gif","self_paced","","6","simple_dissimilar","images/stimuli/spore_stims/simple_14_A_b.gif","","","","",""
"","null","html-keyboard-response","73","354465","0.0-21.0-0.2","SS1619739729654","","","null","","","","","","<p><img src= images/blank.png width =""600"" height = ""600"" style=""position:fixed;top:50%; left:50%; transform: translate(-50%, -50%); border:5px solid black"">","","","","","","","",""
"","387","sequential-stimulus-presentation-old","74","355359","0.0-21.0-1.2","SS1619739729654","trial","","40","500","887","images/stimuli/spore_stims/simple_14_A_b.gif","images/stimuli/spore_stims/simple_17_A_a.gif","self_paced","","6","simple_dissimilar","images/stimuli/spore_stims/simple_14_A_b.gif","","","","",""
"","null","html-keyboard-response","75","356619","0.0-21.0-0.3","SS1619739729654","","","null","","","","","","<p><img src= images/blank.png width =""600"" height = ""600"" style=""position:fixed;top:50%; left:50%; transform: translate(-50%, -50%); border:5px solid black"">","","","","","","","",""
"","2787","sequential-stimulus-presentation-old","76","359913","0.0-21.0-1.3","SS1619739729654","trial","","40","500","3287","images/stimuli/spore_stims/simple_14_A_b.gif","images/stimuli/spore_stims/simple_17_A_a.gif","self_paced","","6","simple_dissimilar","images/stimuli/spore_stims/simple_17_A_a.gif","","","","",""
"","6764","survey-multi-choice","77","366681","0.0-22.0","SS1619739729654","math_question","","","","","","","","","","","","{""Q0"":""14""}","[0]","14","",""
"","null","html-keyboard-response","78","367524","0.0-23.0-0.0","SS1619739729654","","","null","","","","","","<p><img src= images/blank.png width =""600"" height = ""600"" style=""position:fixed;top:50%; left:50%; transform: translate(-50%, -50%); border:5px solid black"">","","","","","","","",""
"","6142","sequential-stimulus-presentation-old","79","374174","0.0-23.0-1.0","SS1619739729654","trial","","40","500","6642","images/stimuli/spore_stims/complex_03_A_b.gif","images/stimuli/spore_stims/complex_19_A_a.gif","self_paced","","7","complex_dissimilar","images/stimuli/spore_stims/complex_19_A_a.gif","","","","",""
"","null","html-keyboard-response","80","375106","0.0-23.0-0.1","SS1619739729654","","","null","","","","","","<p><img src= images/blank.png width =""600"" height = ""600"" style=""position:fixed;top:50%; left:50%; transform: translate(-50%, -50%); border:5px solid black"">","","","","","","","",""
"","8388","sequential-stimulus-presentation-old","81","384001","0.0-23.0-1.1","SS1619739729654","trial","","40","500","8888","images/stimuli/spore_stims/complex_03_A_b.gif","images/stimuli/spore_stims/complex_19_A_a.gif","self_paced","","7","complex_dissimilar","images/stimuli/spore_stims/complex_19_A_a.gif","","","","",""
"","null","html-keyboard-response","82","385286","0.0-23.0-0.2","SS1619739729654","","","null","","","","","","<p><img src= images/blank.png width =""600"" height = ""600"" style=""position:fixed;top:50%; left:50%; transform: translate(-50%, -50%); border:5px solid black"">","","","","","","","",""
"","11527","sequential-stimulus-presentation-old","83","397321","0.0-23.0-1.2","SS1619739729654","trial","","40","500","12027","images/stimuli/spore_stims/complex_03_A_b.gif","images/stimuli/spore_stims/complex_19_A_a.gif","self_paced","","7","complex_dissimilar","images/stimuli/spore_stims/complex_19_A_a.gif","","","","",""
"","null","html-keyboard-response","84","398188","0.0-23.0-0.3","SS1619739729654","","","null","","","","","","<p><img src= images/blank.png width =""600"" height = ""600"" style=""position:fixed;top:50%; left:50%; transform: translate(-50%, -50%); border:5px solid black"">","","","","","","","",""
"","3228","sequential-stimulus-presentation-old","85","401922","0.0-23.0-1.3","SS1619739729654","trial","","40","500","3728","images/stimuli/spore_stims/complex_03_A_b.gif","images/stimuli/spore_stims/complex_19_A_a.gif","self_paced","","7","complex_dissimilar","images/stimuli/spore_stims/complex_03_A_b.gif","","","","",""
"","null","html-keyboard-response","86","402769","0.0-23.0-0.4","SS1619739729654","","","null","","","","","","<p><img src= images/blank.png width =""600"" height = ""600"" style=""position:fixed;top:50%; left:50%; transform: translate(-50%, -50%); border:5px solid black"">","","","","","","","",""
"","5215","sequential-stimulus-presentation-old","87","408492","0.0-23.0-1.4","SS1619739729654","trial","","40","500","5715","images/stimuli/spore_stims/complex_03_A_b.gif","images/stimuli/spore_stims/complex_19_A_a.gif","self_paced","","7","complex_dissimilar","images/stimuli/spore_stims/complex_19_A_a.gif","","","","",""
"","4016","survey-multi-choice","88","412511","0.0-24.0","SS1619739729654","math_question","","","","","","","","","","","","{""Q0"":""14""}","[0]","14","",""
"","null","html-keyboard-response","89","413319","0.0-25.0-0.0","SS1619739729654","","","null","","","","","","<p><img src= images/blank.png width =""600"" height = ""600"" style=""position:fixed;top:50%; left:50%; transform: translate(-50%, -50%); border:5px solid black"">","","","","","","","",""
"","14322","sequential-stimulus-presentation-old","90","428149","0.0-25.0-1.0","SS1619739729654","trial","","40","500","14822","images/stimuli/spore_stims/simple_10_A_b.gif","images/stimuli/spore_stims/simple_04_A_a.gif","forced_short","","8","simple_dissimilar","images/stimuli/spore_stims/simple_04_A_a.gif","","","","",""
"","null","html-keyboard-response","91","429433","0.0-25.0-0.1","SS1619739729654","","","null","","","","","","<p><img src= images/blank.png width =""600"" height = ""600"" style=""position:fixed;top:50%; left:50%; transform: translate(-50%, -50%); border:5px solid black"">","","","","","","","",""
"","4266","sequential-stimulus-presentation-old","92","434208","0.0-25.0-1.1","SS1619739729654","trial","","40","500","4766","images/stimuli/spore_stims/simple_10_A_b.gif","images/stimuli/spore_stims/simple_04_A_a.gif","forced_short","","8","simple_dissimilar","images/stimuli/spore_stims/simple_04_A_a.gif","","","","",""
"","null","html-keyboard-response","93","435353","0.0-25.0-0.2","SS1619739729654","","","null","","","","","","<p><img src= images/blank.png width =""600"" height = ""600"" style=""position:fixed;top:50%; left:50%; transform: translate(-50%, -50%); border:5px solid black"">","","","","","","","",""
"","4233","sequential-stimulus-presentation-old","94","440092","0.0-25.0-1.2","SS1619739729654","trial","","40","500","4733","images/stimuli/spore_stims/simple_10_A_b.gif","images/stimuli/spore_stims/simple_04_A_a.gif","forced_short","","8","simple_dissimilar","images/stimuli/spore_stims/simple_04_A_a.gif","","","","",""
"","null","html-keyboard-response","95","441134","0.0-25.0-0.3","SS1619739729654","","","null","","","","","","<p><img src= images/blank.png width =""600"" height = ""600"" style=""position:fixed;top:50%; left:50%; transform: translate(-50%, -50%); border:5px solid black"">","","","","","","","",""
"","4726","sequential-stimulus-presentation-old","96","446368","0.0-25.0-1.3","SS1619739729654","trial","","40","500","5226","images/stimuli/spore_stims/simple_10_A_b.gif","images/stimuli/spore_stims/simple_04_A_a.gif","forced_short","","8","simple_dissimilar","images/stimuli/spore_stims/simple_10_A_b.gif","","","","",""
"","null","html-keyboard-response","97","447531","0.0-25.0-0.4","SS1619739729654","","","null","","","","","","<p><img src= images/blank.png width =""600"" height = ""600"" style=""position:fixed;top:50%; left:50%; transform: translate(-50%, -50%); border:5px solid black"">","","","","","","","",""
"","14796","sequential-stimulus-presentation-old","98","462835","0.0-25.0-1.4","SS1619739729654","trial","","40","500","15296","images/stimuli/spore_stims/simple_10_A_b.gif","images/stimuli/spore_stims/simple_04_A_a.gif","forced_short","","8","simple_dissimilar","images/stimuli/spore_stims/simple_04_A_a.gif","","","","",""
"","null","html-keyboard-response","99","464032","0.0-25.0-0.5","SS1619739729654","","","null","","","","","","<p><img src= images/blank.png width =""600"" height = ""600"" style=""position:fixed;top:50%; left:50%; transform: translate(-50%, -50%); border:5px solid black"">","","","","","","","",""
"","135","sequential-stimulus-presentation-old","100","464674","0.0-25.0-1.5","SS1619739729654","trial","","40","500","635","images/stimuli/spore_stims/simple_10_A_b.gif","images/stimuli/spore_stims/simple_04_A_a.gif","forced_short","","8","simple_dissimilar","images/stimuli/spore_stims/simple_10_A_b.gif","","","","",""
"","4354","survey-multi-choice","101","469033","0.0-26.0","SS1619739729654","math_question","","","","","","","","","","","","{""Q0"":""9""}","[0]","9","",""
"","null","html-keyboard-response","102","470184","0.0-27.0-0.0","SS1619739729654","","","null","","","","","","<p><img src= images/blank.png width =""600"" height = ""600"" style=""position:fixed;top:50%; left:50%; transform: translate(-50%, -50%); border:5px solid black"">","","","","","","","",""
"","3070","sequential-stimulus-presentation-old","103","473762","0.0-27.0-1.0","SS1619739729654","trial","","40","500","3570","images/stimuli/spore_stims/complex_01_A_a.gif","images/stimuli/spore_stims/complex_12_A_b.gif","forced_short","","9","complex_dissimilar","images/stimuli/spore_stims/complex_12_A_b.gif","","","","",""
"","null","html-keyboard-response","104","474920","0.0-27.0-0.1","SS1619739729654","","","null","","","","","","<p><img src= images/blank.png width =""600"" height = ""600"" style=""position:fixed;top:50%; left:50%; transform: translate(-50%, -50%); border:5px solid black"">","","","","","","","",""
"","1138","sequential-stimulus-presentation-old","105","476567","0.0-27.0-1.1","SS1619739729654","trial","","40","500","1638","images/stimuli/spore_stims/complex_01_A_a.gif","images/stimuli/spore_stims/complex_12_A_b.gif","forced_short","","9","complex_dissimilar","images/stimuli/spore_stims/complex_12_A_b.gif","","","","",""
"","null","html-keyboard-response","106","477518","0.0-27.0-0.2","SS1619739729654","","","null","","","","","","<p><img src= images/blank.png width =""600"" height = ""600"" style=""position:fixed;top:50%; left:50%; transform: translate(-50%, -50%); border:5px solid black"">","","","","","","","",""
"","8255","sequential-stimulus-presentation-old","107","486279","0.0-27.0-1.2","SS1619739729654","trial","","40","500","8755","images/stimuli/spore_stims/complex_01_A_a.gif","images/stimuli/spore_stims/complex_12_A_b.gif","forced_short","","9","complex_dissimilar","images/stimuli/spore_stims/complex_01_A_a.gif","","","","",""
"","null","html-keyboard-response","108","487159","0.0-27.0-0.3","SS1619739729654","","","null","","","","","","<p><img src= images/blank.png width =""600"" height = ""600"" style=""position:fixed;top:50%; left:50%; transform: translate(-50%, -50%); border:5px solid black"">","","","","","","","",""
"","3758","sequential-stimulus-presentation-old","109","491424","0.0-27.0-1.3","SS1619739729654","trial","","40","500","4258","images/stimuli/spore_stims/complex_01_A_a.gif","images/stimuli/spore_stims/complex_12_A_b.gif","forced_short","","9","complex_dissimilar","images/stimuli/spore_stims/complex_12_A_b.gif","","","","",""
"","null","html-keyboard-response","110","492523","0.0-27.0-0.4","SS1619739729654","","","null","","","","","","<p><img src= images/blank.png width =""600"" height = ""600"" style=""position:fixed;top:50%; left:50%; transform: translate(-50%, -50%); border:5px solid black"">","","","","","","","",""
"","1250","sequential-stimulus-presentation-old","111","494281","0.0-27.0-1.4","SS1619739729654","trial","","40","500","1750","images/stimuli/spore_stims/complex_01_A_a.gif","images/stimuli/spore_stims/complex_12_A_b.gif","forced_short","","9","complex_dissimilar","images/stimuli/spore_stims/complex_01_A_a.gif","","","","",""
"","2393","survey-multi-choice","112","496681","0.0-28.0","SS1619739729654","math_question","","","","","","","","","","","","{""Q0"":""11""}","[0]","11","",""
"","null","html-keyboard-response","113","497504","0.0-29.0-0.0","SS1619739729654","","","null","","","","","","<p><img src= images/blank.png width =""600"" height = ""600"" style=""position:fixed;top:50%; left:50%; transform: translate(-50%, -50%); border:5px solid black"">","","","","","","","",""
"","5028","sequential-stimulus-presentation-old","114","517544","0.0-29.0-1.0","SS1619739729654","trial","","40","500","5528","images/stimuli/spore_stims/simple_05_A_b.gif","images/stimuli/spore_stims/simple_02_A_a.gif","forced_long","","10","simple_dissimilar","images/stimuli/spore_stims/simple_02_A_a.gif","","","","",""
"","null","html-keyboard-response","115","518789","0.0-29.0-0.1","SS1619739729654","","","null","","","","","","<p><img src= images/blank.png width =""600"" height = ""600"" style=""position:fixed;top:50%; left:50%; transform: translate(-50%, -50%); border:5px solid black"">","","","","","","","",""
"","1019","sequential-stimulus-presentation-old","116","520315","0.0-29.0-1.1","SS1619739729654","trial","","40","500","1519","images/stimuli/spore_stims/simple_05_A_b.gif","images/stimuli/spore_stims/simple_02_A_a.gif","forced_long","","10","simple_dissimilar","images/stimuli/spore_stims/simple_05_A_b.gif","","","","",""
"","null","html-keyboard-response","117","521281","0.0-29.0-0.2","SS1619739729654","","","null","","","","","","<p><img src= images/blank.png width =""600"" height = ""600"" style=""position:fixed;top:50%; left:50%; transform: translate(-50%, -50%); border:5px solid black"">","","","","","","","",""
"","3676","sequential-stimulus-presentation-old","118","525464","0.0-29.0-1.2","SS1619739729654","trial","","40","500","4176","images/stimuli/spore_stims/simple_05_A_b.gif","images/stimuli/spore_stims/simple_02_A_a.gif","forced_long","","10","simple_dissimilar","images/stimuli/spore_stims/simple_02_A_a.gif","","","","",""
"","null","html-keyboard-response","119","526476","0.0-29.0-0.3","SS1619739729654","","","null","","","","","","<p><img src= images/blank.png width =""600"" height = ""600"" style=""position:fixed;top:50%; left:50%; transform: translate(-50%, -50%); border:5px solid black"">","","","","","","","",""
"","2295","sequential-stimulus-presentation-old","120","529281","0.0-29.0-1.3","SS1619739729654","trial","","40","500","2795","images/stimuli/spore_stims/simple_05_A_b.gif","images/stimuli/spore_stims/simple_02_A_a.gif","forced_long","","10","simple_dissimilar","images/stimuli/spore_stims/simple_02_A_a.gif","","","","",""
"","3607","survey-multi-choice","121","532891","0.0-30.0","SS1619739729654","math_question","","","","","","","","","","","","{""Q0"":""10""}","[0]","10","",""
"","null","html-keyboard-response","122","534001","0.0-31.0-0.0","SS1619739729654","","","null","","","","","","<p><img src= images/blank.png width =""600"" height = ""600"" style=""position:fixed;top:50%; left:50%; transform: translate(-50%, -50%); border:5px solid black"">","","","","","","","",""
"","1304","sequential-stimulus-presentation-old","123","550315","0.0-31.0-1.0","SS1619739729654","trial","","40","500","1804","images/stimuli/spore_stims/complex_11_A_b.gif","images/stimuli/spore_stims/complex_04_A_a.gif","forced_long","","11","complex_dissimilar","images/stimuli/spore_stims/complex_04_A_a.gif","","","","",""
"","null","html-keyboard-response","124","551455","0.0-31.0-0.1","SS1619739729654","","","null","","","","","","<p><img src= images/blank.png width =""600"" height = ""600"" style=""position:fixed;top:50%; left:50%; transform: translate(-50%, -50%); border:5px solid black"">","","","","","","","",""
"","382","sequential-stimulus-presentation-old","125","552345","0.0-31.0-1.1","SS1619739729654","trial","","40","500","882","images/stimuli/spore_stims/complex_11_A_b.gif","images/stimuli/spore_stims/complex_04_A_a.gif","forced_long","","11","complex_dissimilar","images/stimuli/spore_stims/complex_04_A_a.gif","","","","",""
"","null","html-keyboard-response","126","553423","0.0-31.0-0.2","SS1619739729654","","","null","","","","","","<p><img src= images/blank.png width =""600"" height = ""600"" style=""position:fixed;top:50%; left:50%; transform: translate(-50%, -50%); border:5px solid black"">","","","","","","","",""
"","494","sequential-stimulus-presentation-old","127","554425","0.0-31.0-1.2","SS1619739729654","trial","","40","500","994","images/stimuli/spore_stims/complex_11_A_b.gif","images/stimuli/spore_stims/complex_04_A_a.gif","forced_long","","11","complex_dissimilar","images/stimuli/spore_stims/complex_04_A_a.gif","","","","",""
"","null","html-keyboard-response","128","555515","0.0-31.0-0.3","SS1619739729654","","","null","","","","","","<p><img src= images/blank.png width =""600"" height = ""600"" style=""position:fixed;top:50%; left:50%; transform: translate(-50%, -50%); border:5px solid black"">","","","","","","","",""
"","1633","sequential-stimulus-presentation-old","129","557657","0.0-31.0-1.3","SS1619739729654","trial","","40","500","2133","images/stimuli/spore_stims/complex_11_A_b.gif","images/stimuli/spore_stims/complex_04_A_a.gif","forced_long","","11","complex_dissimilar","images/stimuli/spore_stims/complex_04_A_a.gif","","","","",""
"[{""page_index"":0,""viewing_time"":3977}]","3977","instructions","130","561636","0.0-32.0","SS1619739729654","instructions","","","","","","","","","","","","","","","",""
"","10219","survey-likert","131","571862","0.0-33.0","SS1619739729654","similarity_question","","","","","","","","","","","","{""Q0"":6}","[0]","","images/stimuli/spore_stims/simple_10_A_b.gif","images/stimuli/spore_stims/simple_04_A_a.gif"
"","3252","survey-likert","132","575124","0.0-34.0","SS1619739729654","similarity_question","","","","","","","","","","","","{""Q0"":4}","[0]","","images/stimuli/spore_stims/simple_04_A_b.gif","images/stimuli/spore_stims/simple_07_A_a.gif"
"","1822","survey-likert","133","576952","0.0-35.0","SS1619739729654","similarity_question","","","","","","","","","","","","{""Q0"":6}","[0]","","images/stimuli/spore_stims/simple_05_A_b.gif","images/stimuli/spore_stims/simple_02_A_a.gif"
"","3206","survey-likert","134","580168","0.0-36.0","SS1619739729654","similarity_question","","","","","","","","","","","","{""Q0"":5}","[0]","","images/stimuli/spore_stims/simple_09_A_b.gif","images/stimuli/spore_stims/simple_01_A_a.gif"
"","5506","survey-likert","135","585681","0.0-37.0","SS1619739729654","similarity_question","","","","","","","","","","","","{""Q0"":4}","[0]","","images/stimuli/spore_stims/complex_18_A_a.gif","images/stimuli/spore_stims/complex_14_A_b.gif"
"","3777","survey-likert","136","589465","0.0-38.0","SS1619739729654","similarity_question","","","","","","","","","","","","{""Q0"":4}","[0]","","images/stimuli/spore_stims/complex_01_A_a.gif","images/stimuli/spore_stims/complex_12_A_b.gif"
"","6154","survey-likert","137","595622","0.0-39.0","SS1619739729654","similarity_question","","","","","","","","","","","","{""Q0"":5}","[0]","","images/stimuli/spore_stims/simple_17_A_a.gif","images/stimuli/spore_stims/simple_14_A_b.gif"
"","8208","survey-likert","138","603837","0.0-40.0","SS1619739729654","similarity_question","","","","","","","","","","","","{""Q0"":3}","[0]","","images/stimuli/spore_stims/complex_03_A_b.gif","images/stimuli/spore_stims/complex_19_A_a.gif"
"","4428","survey-likert","139","608272","0.0-41.0","SS1619739729654","similarity_question","","","","","","","","","","","","{""Q0"":1}","[0]","","images/stimuli/spore_stims/complex_11_A_b.gif","images/stimuli/spore_stims/complex_04_A_a.gif"
"","3289","survey-likert","140","611565","0.0-42.0","SS1619739729654","similarity_question","","","","","","","","","","","","{""Q0"":2}","[0]","","images/stimuli/spore_stims/complex_06_A_b.gif","images/stimuli/spore_stims/complex_12_A_a.gif"
"","2744","survey-likert","141","614316","0.0-43.0","SS1619739729654","similarity_question","","","","","","","","","","","","{""Q0"":2}","[0]","","images/stimuli/spore_stims/simple_07_A_b.gif","images/stimuli/spore_stims/simple_10_A_a.gif"
"","3706","survey-likert","142","618032","0.0-44.0","SS1619739729654","similarity_question","","","","","","","","","","","","{""Q0"":2}","[0]","","images/stimuli/spore_stims/complex_05_A_b.gif","images/stimuli/spore_stims/complex_07_A_a.gif"
"[{""page_index"":0,""viewing_time"":4436}]","4436","instructions","143","622474","0.0-45.0","SS1619739729654","instructions","","","","","","","","","","","","","","","",""
"","5487","survey-likert","144","627971","0.0-46.0","SS1619739729654","","","","","","","","","images/stimuli/spore_stims/complex_12_A_a.gif","","","","{""Q0"":5}","[0]","","",""
"","3242","survey-likert","145","631218","0.0-47.0","SS1619739729654","","","","","","","","","images/stimuli/spore_stims/simple_07_A_a.gif","","","","{""Q0"":1}","[0]","","",""
"","1889","survey-likert","146","633112","0.0-48.0","SS1619739729654","","","","","","","","","images/stimuli/spore_stims/simple_17_A_a.gif","","","","{""Q0"":1}","[0]","","",""
"","3538","survey-likert","147","636654","0.0-49.0","SS1619739729654","","","","","","","","","images/stimuli/spore_stims/complex_05_A_b.gif","","","","{""Q0"":4}","[0]","","",""
"","2608","survey-likert","148","639267","0.0-50.0","SS1619739729654","","","","","","","","","images/stimuli/spore_stims/complex_14_A_b.gif","","","","{""Q0"":4}","[0]","","",""
"","2442","survey-likert","149","641718","0.0-51.0","SS1619739729654","","","","","","","","","images/stimuli/spore_stims/complex_04_A_a.gif","","","","{""Q0"":5}","[0]","","",""
"","2796","survey-likert","150","644522","0.0-52.0","SS1619739729654","","","","","","","","","images/stimuli/spore_stims/simple_01_A_a.gif","","","","{""Q0"":0}","[0]","","",""
"","2021","survey-likert","151","646551","0.0-53.0","SS1619739729654","","","","","","","","","images/stimuli/spore_stims/simple_10_A_b.gif","","","","{""Q0"":0}","[0]","","",""
"","2222","survey-likert","152","648778","0.0-54.0","SS1619739729654","","","","","","","","","images/stimuli/spore_stims/simple_02_A_a.gif","","","","{""Q0"":0}","[0]","","",""
"","1762","survey-likert","153","650545","0.0-55.0","SS1619739729654","","","","","","","","","images/stimuli/spore_stims/simple_07_A_b.gif","","","","{""Q0"":1}","[0]","","",""
"","3445","survey-likert","154","653997","0.0-56.0","SS1619739729654","","","","","","","","","images/stimuli/spore_stims/complex_12_A_b.gif","","","","{""Q0"":5}","[0]","","",""
"","1965","survey-likert","155","655970","0.0-57.0","SS1619739729654","","","","","","","","","images/stimuli/spore_stims/complex_03_A_b.gif","","","","{""Q0"":5}","[0]","","",""
"[{""page_index"":0,""viewing_time"":1698}]","1699","instructions","156","657675","0.0-58.0","SS1619739729654","instructions","","","","","","","","","","","","","","","",""
"","3248","demog-age","157","660938","0.0-59.0","SS1619739729654","","","","","","","","","","","","","{""age"":""19""}","","","",""
"","2244","demog-ethnic-US","158","663188","0.0-60.0","SS1619739729654","","","","","","","","","","","","","{""ethnicity"":[""White""]}","[0]","","",""
"","19296","demog-gender-and-education","159","682490","0.0-61.0","SS1619739729654","","","","","","","","","","","","","{""gender"":""Male"",""education"":""High school diploma""}","[0,1]","","",""
"","11232","survey-text","160","693734","0.0-62.0","SS1619739729654","feedback","","","","","","","","","","","","{""Q0"":""No issues ""}","","","",""
"[{""page_index"":0,""viewing_time"":1358}]","1358","instructions","161","695098","0.0-63.0","SS1619739729654","instructions","","","","","","","","","","","","","","","",""
