"view_history","rt","trial_type","trial_index","time_elapsed","internal_node_id","subject","stimulus_type","trial_stimulus","key_press","minimum_viewing_duration","trial_looking_time","block_deviant","block_background","exposure_type","stimulus","block_number","block_type","stimulus_displayed","responses","question_order","math_correct_answer","stimulus_left","stimulus_right"
"[{""page_index"":0,""viewing_time"":28397.14499999991}]","28397.75499999996","instructions","0","28399","0.0-0.0","SS1619739196799","","","","","","","","","","","","","","","","",""
"[{""page_index"":0,""viewing_time"":17726.99999999986},{""page_index"":1,""viewing_time"":6408.190000000104}]","24135.435000000143","instructions","1","54546","0.0-1.0","SS1619739196799","instructions","","","","","","","","","","","","","","","",""
"","7554.549999999836","sequential-stimulus-presentation-old","2","62604","0.0-2.0","SS1619739196799","","","40","500","8054.549999999836","null","null","self_paced","","","","","","","","",""
"","6160.62499999952","sequential-stimulus-presentation-old","3","69266","0.0-3.0","SS1619739196799","","","40","500","6660.62499999952","null","null","self_paced","","","","","","","","",""
"[{""page_index"":0,""viewing_time"":25975.19999999985}]","25975.539999999455","instructions","4","95242","0.0-4.0","SS1619739196799","instructions","","","","","","","","","","","","","","","",""
"","642.6650000002992","sequential-stimulus-presentation-old","5","110887","0.0-5.0","SS1619739196799","","","40","500","1142.6650000002992","null","null","forced_long","","","","","","","","",""
"","1543.2049999999435","sequential-stimulus-presentation-old","6","112932","0.0-6.0","SS1619739196799","","","40","500","2043.2049999999435","null","null","forced_long","","","","","","","","",""
"[{""page_index"":0,""viewing_time"":5589.5749999999825}]","5589.77499999947","instructions","7","118522","0.0-7.0","SS1619739196799","instructions","","","","","","","","","","","","","","","",""
"[{""page_index"":0,""viewing_time"":11606.469999999725},{""page_index"":1,""viewing_time"":11980.010000000213},{""page_index"":2,""viewing_time"":16296.370000000024},{""page_index"":3,""viewing_time"":1699.4699999995646},{""page_index"":4,""viewing_time"":1095.8950000003679}]","42678.449999999415","instructions","8","161202","0.0-8.0","SS1619739196799","instructions","","","","","","","","","","","","","","","",""
"","null","html-keyboard-response","9","162472","0.0-9.0-0.0","SS1619739196799","","","null","","","","","","<p><img src= images/blank.png width =""600"" height = ""600"" style=""position:fixed;top:50%; left:50%; transform: translate(-50%, -50%); border:5px solid black"">","","","","","","","",""
"","506.625","sequential-stimulus-presentation-old","10","177981","0.0-9.0-1.0","SS1619739196799","trial","","40","500","1006.625","images/stimuli/spore_stims/simple_06_A_a.gif","images/stimuli/spore_stims/simple_10_A_b.gif","forced_long","","0","simple_dissimilar","images/stimuli/spore_stims/simple_10_A_b.gif","","","","",""
"","null","html-keyboard-response","11","178948","0.0-9.0-0.1","SS1619739196799","","","null","","","","","","<p><img src= images/blank.png width =""600"" height = ""600"" style=""position:fixed;top:50%; left:50%; transform: translate(-50%, -50%); border:5px solid black"">","","","","","","","",""
"","47374.21999999968","sequential-stimulus-presentation-old","12","226825","0.0-9.0-1.1","SS1619739196799","trial","","40","500","47874.21999999968","images/stimuli/spore_stims/simple_06_A_a.gif","images/stimuli/spore_stims/simple_10_A_b.gif","forced_long","","0","simple_dissimilar","images/stimuli/spore_stims/simple_10_A_b.gif","","","","",""
"","null","html-keyboard-response","13","228111","0.0-9.0-0.2","SS1619739196799","","","null","","","","","","<p><img src= images/blank.png width =""600"" height = ""600"" style=""position:fixed;top:50%; left:50%; transform: translate(-50%, -50%); border:5px solid black"">","","","","","","","",""
"","22602.390000000014","sequential-stimulus-presentation-old","14","251229","0.0-9.0-1.2","SS1619739196799","trial","","40","500","23102.390000000014","images/stimuli/spore_stims/simple_06_A_a.gif","images/stimuli/spore_stims/simple_10_A_b.gif","forced_long","","0","simple_dissimilar","images/stimuli/spore_stims/simple_10_A_b.gif","","","","",""
"","null","html-keyboard-response","15","252362","0.0-9.0-0.3","SS1619739196799","","","null","","","","","","<p><img src= images/blank.png width =""600"" height = ""600"" style=""position:fixed;top:50%; left:50%; transform: translate(-50%, -50%); border:5px solid black"">","","","","","","","",""
"","17375.52999999933","sequential-stimulus-presentation-old","16","270240","0.0-9.0-1.3","SS1619739196799","trial","","40","500","17875.52999999933","images/stimuli/spore_stims/simple_06_A_a.gif","images/stimuli/spore_stims/simple_10_A_b.gif","forced_long","","0","simple_dissimilar","images/stimuli/spore_stims/simple_10_A_b.gif","","","","",""
"","null","html-keyboard-response","17","271455","0.0-9.0-0.4","SS1619739196799","","","null","","","","","","<p><img src= images/blank.png width =""600"" height = ""600"" style=""position:fixed;top:50%; left:50%; transform: translate(-50%, -50%); border:5px solid black"">","","","","","","","",""
"","22752.695000000123","sequential-stimulus-presentation-old","18","294710","0.0-9.0-1.4","SS1619739196799","trial","","40","500","23252.695000000123","images/stimuli/spore_stims/simple_06_A_a.gif","images/stimuli/spore_stims/simple_10_A_b.gif","forced_long","","0","simple_dissimilar","images/stimuli/spore_stims/simple_06_A_a.gif","","","","",""
"","4549.849999999395","survey-multi-choice","19","299263","0.0-10.0","SS1619739196799","math_question","","","","","","","","","","","","{""Q0"":""15""}","[0]","15","",""
"","null","html-keyboard-response","20","300106","0.0-11.0-0.0","SS1619739196799","","","null","","","","","","<p><img src= images/blank.png width =""600"" height = ""600"" style=""position:fixed;top:50%; left:50%; transform: translate(-50%, -50%); border:5px solid black"">","","","","","","","",""
"","10458.15500000026","sequential-stimulus-presentation-old","21","325576","0.0-11.0-1.0","SS1619739196799","trial","","40","500","10958.15500000026","images/stimuli/spore_stims/simple_09_A_a.gif","images/stimuli/spore_stims/simple_20_A_b.gif","forced_long","","1","simple_dissimilar","images/stimuli/spore_stims/simple_20_A_b.gif","","","","",""
"","null","html-keyboard-response","22","326692","0.0-11.0-0.1","SS1619739196799","","","null","","","","","","<p><img src= images/blank.png width =""600"" height = ""600"" style=""position:fixed;top:50%; left:50%; transform: translate(-50%, -50%); border:5px solid black"">","","","","","","","",""
"","24354.430000000284","sequential-stimulus-presentation-old","23","351549","0.0-11.0-1.1","SS1619739196799","trial","","40","500","24854.430000000284","images/stimuli/spore_stims/simple_09_A_a.gif","images/stimuli/spore_stims/simple_20_A_b.gif","forced_long","","1","simple_dissimilar","images/stimuli/spore_stims/simple_20_A_b.gif","","","","",""
"","null","html-keyboard-response","24","352391","0.0-11.0-0.2","SS1619739196799","","","null","","","","","","<p><img src= images/blank.png width =""600"" height = ""600"" style=""position:fixed;top:50%; left:50%; transform: translate(-50%, -50%); border:5px solid black"">","","","","","","","",""
"","11026.004999999714","sequential-stimulus-presentation-old","25","363919","0.0-11.0-1.2","SS1619739196799","trial","","40","500","11526.004999999714","images/stimuli/spore_stims/simple_09_A_a.gif","images/stimuli/spore_stims/simple_20_A_b.gif","forced_long","","1","simple_dissimilar","images/stimuli/spore_stims/simple_20_A_b.gif","","","","",""
"","null","html-keyboard-response","26","364779","0.0-11.0-0.3","SS1619739196799","","","null","","","","","","<p><img src= images/blank.png width =""600"" height = ""600"" style=""position:fixed;top:50%; left:50%; transform: translate(-50%, -50%); border:5px solid black"">","","","","","","","",""
"","4334.209999999963","sequential-stimulus-presentation-old","27","369616","0.0-11.0-1.3","SS1619739196799","trial","","40","500","4834.209999999963","images/stimuli/spore_stims/simple_09_A_a.gif","images/stimuli/spore_stims/simple_20_A_b.gif","forced_long","","1","simple_dissimilar","images/stimuli/spore_stims/simple_20_A_b.gif","","","","",""
"","4333.489999999991","survey-multi-choice","28","373951","0.0-12.0","SS1619739196799","math_question","","","","","","","","","","","","{""Q0"":""15""}","[0]","15","",""
"","null","html-keyboard-response","29","375093","0.0-13.0-0.0","SS1619739196799","","","null","","","","","","<p><img src= images/blank.png width =""600"" height = ""600"" style=""position:fixed;top:50%; left:50%; transform: translate(-50%, -50%); border:5px solid black"">","","","","","","","",""
"","31685.160000000033","sequential-stimulus-presentation-old","30","407291","0.0-13.0-1.0","SS1619739196799","trial","","40","500","32185.160000000033","images/stimuli/spore_stims/simple_18_A_a.gif","images/stimuli/spore_stims/simple_09_A_b.gif","self_paced","","2","simple_dissimilar","images/stimuli/spore_stims/simple_09_A_b.gif","","","","",""
"","null","html-keyboard-response","31","408402","0.0-13.0-0.1","SS1619739196799","","","null","","","","","","<p><img src= images/blank.png width =""600"" height = ""600"" style=""position:fixed;top:50%; left:50%; transform: translate(-50%, -50%); border:5px solid black"">","","","","","","","",""
"","14120.495000000112","sequential-stimulus-presentation-old","32","423035","0.0-13.0-1.1","SS1619739196799","trial","","40","500","14620.495000000112","images/stimuli/spore_stims/simple_18_A_a.gif","images/stimuli/spore_stims/simple_09_A_b.gif","self_paced","","2","simple_dissimilar","images/stimuli/spore_stims/simple_18_A_a.gif","","","","",""
"","null","html-keyboard-response","33","424068","0.0-13.0-0.2","SS1619739196799","","","null","","","","","","<p><img src= images/blank.png width =""600"" height = ""600"" style=""position:fixed;top:50%; left:50%; transform: translate(-50%, -50%); border:5px solid black"">","","","","","","","",""
"","6264.745000000403","sequential-stimulus-presentation-old","34","430846","0.0-13.0-1.2","SS1619739196799","trial","","40","500","6764.745000000403","images/stimuli/spore_stims/simple_18_A_a.gif","images/stimuli/spore_stims/simple_09_A_b.gif","self_paced","","2","simple_dissimilar","images/stimuli/spore_stims/simple_09_A_b.gif","","","","",""
"","null","html-keyboard-response","35","431780","0.0-13.0-0.3","SS1619739196799","","","null","","","","","","<p><img src= images/blank.png width =""600"" height = ""600"" style=""position:fixed;top:50%; left:50%; transform: translate(-50%, -50%); border:5px solid black"">","","","","","","","",""
"","5037.21000000037","sequential-stimulus-presentation-old","36","437320","0.0-13.0-1.3","SS1619739196799","trial","","40","500","5537.21000000037","images/stimuli/spore_stims/simple_18_A_a.gif","images/stimuli/spore_stims/simple_09_A_b.gif","self_paced","","2","simple_dissimilar","images/stimuli/spore_stims/simple_09_A_b.gif","","","","",""
"","null","html-keyboard-response","37","438266","0.0-13.0-0.4","SS1619739196799","","","null","","","","","","<p><img src= images/blank.png width =""600"" height = ""600"" style=""position:fixed;top:50%; left:50%; transform: translate(-50%, -50%); border:5px solid black"">","","","","","","","",""
"","11929.739999999583","sequential-stimulus-presentation-old","38","450697","0.0-13.0-1.4","SS1619739196799","trial","","40","500","12429.739999999583","images/stimuli/spore_stims/simple_18_A_a.gif","images/stimuli/spore_stims/simple_09_A_b.gif","self_paced","","2","simple_dissimilar","images/stimuli/spore_stims/simple_18_A_a.gif","","","","",""
"","2740.3150000000605","survey-multi-choice","39","453439","0.0-14.0","SS1619739196799","math_question","","","","","","","","","","","","{""Q0"":""5""}","[0]","5","",""
"","null","html-keyboard-response","40","454589","0.0-15.0-0.0","SS1619739196799","","","null","","","","","","<p><img src= images/blank.png width =""600"" height = ""600"" style=""position:fixed;top:50%; left:50%; transform: translate(-50%, -50%); border:5px solid black"">","","","","","","","",""
"","29874.339999999385","sequential-stimulus-presentation-old","41","484971","0.0-15.0-1.0","SS1619739196799","trial","","40","500","30374.339999999385","images/stimuli/spore_stims/complex_02_A_b.gif","images/stimuli/spore_stims/complex_17_A_a.gif","forced_short","","3","complex_dissimilar","images/stimuli/spore_stims/complex_17_A_a.gif","","","","",""
"","null","html-keyboard-response","42","485786","0.0-15.0-0.1","SS1619739196799","","","null","","","","","","<p><img src= images/blank.png width =""600"" height = ""600"" style=""position:fixed;top:50%; left:50%; transform: translate(-50%, -50%); border:5px solid black"">","","","","","","","",""
"","2046.9499999998952","sequential-stimulus-presentation-old","43","488343","0.0-15.0-1.1","SS1619739196799","trial","","40","500","2546.949999999895","images/stimuli/spore_stims/complex_02_A_b.gif","images/stimuli/spore_stims/complex_17_A_a.gif","forced_short","","3","complex_dissimilar","images/stimuli/spore_stims/complex_17_A_a.gif","","","","",""
"","null","html-keyboard-response","44","489566","0.0-15.0-0.2","SS1619739196799","","","null","","","","","","<p><img src= images/blank.png width =""600"" height = ""600"" style=""position:fixed;top:50%; left:50%; transform: translate(-50%, -50%); border:5px solid black"">","","","","","","","",""
"","8252.835000000254","sequential-stimulus-presentation-old","45","498337","0.0-15.0-1.2","SS1619739196799","trial","","40","500","8752.835000000254","images/stimuli/spore_stims/complex_02_A_b.gif","images/stimuli/spore_stims/complex_17_A_a.gif","forced_short","","3","complex_dissimilar","images/stimuli/spore_stims/complex_17_A_a.gif","","","","",""
"","null","html-keyboard-response","46","499582","0.0-15.0-0.3","SS1619739196799","","","null","","","","","","<p><img src= images/blank.png width =""600"" height = ""600"" style=""position:fixed;top:50%; left:50%; transform: translate(-50%, -50%); border:5px solid black"">","","","","","","","",""
"","12807.310000000114","sequential-stimulus-presentation-old","47","512891","0.0-15.0-1.3","SS1619739196799","trial","","40","500","13307.310000000114","images/stimuli/spore_stims/complex_02_A_b.gif","images/stimuli/spore_stims/complex_17_A_a.gif","forced_short","","3","complex_dissimilar","images/stimuli/spore_stims/complex_02_A_b.gif","","","","",""
"","3485.67999999976","survey-multi-choice","48","516379","0.0-16.0","SS1619739196799","math_question","","","","","","","","","","","","{""Q0"":""7""}","[0]","7","",""
"","null","html-keyboard-response","49","517386","0.0-17.0-0.0","SS1619739196799","","","null","","","","","","<p><img src= images/blank.png width =""600"" height = ""600"" style=""position:fixed;top:50%; left:50%; transform: translate(-50%, -50%); border:5px solid black"">","","","","","","","",""
"","4277.7150000002","sequential-stimulus-presentation-old","50","522172","0.0-17.0-1.0","SS1619739196799","trial","","40","500","4777.7150000002","images/stimuli/spore_stims/complex_18_A_a.gif","images/stimuli/spore_stims/complex_05_A_b.gif","forced_short","","4","complex_dissimilar","images/stimuli/spore_stims/complex_05_A_b.gif","","","","",""
"","null","html-keyboard-response","51","523121","0.0-17.0-0.1","SS1619739196799","","","null","","","","","","<p><img src= images/blank.png width =""600"" height = ""600"" style=""position:fixed;top:50%; left:50%; transform: translate(-50%, -50%); border:5px solid black"">","","","","","","","",""
"","2485.335000000312","sequential-stimulus-presentation-old","52","526109","0.0-17.0-1.1","SS1619739196799","trial","","40","500","2985.335000000312","images/stimuli/spore_stims/complex_18_A_a.gif","images/stimuli/spore_stims/complex_05_A_b.gif","forced_short","","4","complex_dissimilar","images/stimuli/spore_stims/complex_05_A_b.gif","","","","",""
"","null","html-keyboard-response","53","527145","0.0-17.0-0.2","SS1619739196799","","","null","","","","","","<p><img src= images/blank.png width =""600"" height = ""600"" style=""position:fixed;top:50%; left:50%; transform: translate(-50%, -50%); border:5px solid black"">","","","","","","","",""
"","2983.8399999999674","sequential-stimulus-presentation-old","54","530640","0.0-17.0-1.2","SS1619739196799","trial","","40","500","3483.8399999999674","images/stimuli/spore_stims/complex_18_A_a.gif","images/stimuli/spore_stims/complex_05_A_b.gif","forced_short","","4","complex_dissimilar","images/stimuli/spore_stims/complex_05_A_b.gif","","","","",""
"","null","html-keyboard-response","55","531835","0.0-17.0-0.3","SS1619739196799","","","null","","","","","","<p><img src= images/blank.png width =""600"" height = ""600"" style=""position:fixed;top:50%; left:50%; transform: translate(-50%, -50%); border:5px solid black"">","","","","","","","",""
"","910.40500000061","sequential-stimulus-presentation-old","56","533256","0.0-17.0-1.3","SS1619739196799","trial","","40","500","1410.40500000061","images/stimuli/spore_stims/complex_18_A_a.gif","images/stimuli/spore_stims/complex_05_A_b.gif","forced_short","","4","complex_dissimilar","images/stimuli/spore_stims/complex_05_A_b.gif","","","","",""
"","null","html-keyboard-response","57","534477","0.0-17.0-0.4","SS1619739196799","","","null","","","","","","<p><img src= images/blank.png width =""600"" height = ""600"" style=""position:fixed;top:50%; left:50%; transform: translate(-50%, -50%); border:5px solid black"">","","","","","","","",""
"","9417.100000000559","sequential-stimulus-presentation-old","58","544396","0.0-17.0-1.4","SS1619739196799","trial","","40","500","9917.100000000559","images/stimuli/spore_stims/complex_18_A_a.gif","images/stimuli/spore_stims/complex_05_A_b.gif","forced_short","","4","complex_dissimilar","images/stimuli/spore_stims/complex_18_A_a.gif","","","","",""
"","null","html-keyboard-response","59","545584","0.0-17.0-0.5","SS1619739196799","","","null","","","","","","<p><img src= images/blank.png width =""600"" height = ""600"" style=""position:fixed;top:50%; left:50%; transform: translate(-50%, -50%); border:5px solid black"">","","","","","","","",""
"","8494.225000000326","sequential-stimulus-presentation-old","60","554580","0.0-17.0-1.5","SS1619739196799","trial","","40","500","8994.225000000326","images/stimuli/spore_stims/complex_18_A_a.gif","images/stimuli/spore_stims/complex_05_A_b.gif","forced_short","","4","complex_dissimilar","images/stimuli/spore_stims/complex_18_A_a.gif","","","","",""
"","5104.5050000002375","survey-multi-choice","61","559687","0.0-18.0","SS1619739196799","math_question","","","","","","","","","","","","{""Q0"":""8""}","[0]","8","",""
"","null","html-keyboard-response","62","560795","0.0-19.0-0.0","SS1619739196799","","","null","","","","","","<p><img src= images/blank.png width =""600"" height = ""600"" style=""position:fixed;top:50%; left:50%; transform: translate(-50%, -50%); border:5px solid black"">","","","","","","","",""
"","12892.345000000205","sequential-stimulus-presentation-old","63","574190","0.0-19.0-1.0","SS1619739196799","trial","","40","500","13392.345000000205","images/stimuli/spore_stims/simple_11_A_a.gif","images/stimuli/spore_stims/simple_01_A_b.gif","self_paced","","5","simple_dissimilar","images/stimuli/spore_stims/simple_01_A_b.gif","","","","",""
"","null","html-keyboard-response","64","575452","0.0-19.0-0.1","SS1619739196799","","","null","","","","","","<p><img src= images/blank.png width =""600"" height = ""600"" style=""position:fixed;top:50%; left:50%; transform: translate(-50%, -50%); border:5px solid black"">","","","","","","","",""
"","7559.680000000284","sequential-stimulus-presentation-old","65","583515","0.0-19.0-1.1","SS1619739196799","trial","","40","500","8059.680000000284","images/stimuli/spore_stims/simple_11_A_a.gif","images/stimuli/spore_stims/simple_01_A_b.gif","self_paced","","5","simple_dissimilar","images/stimuli/spore_stims/simple_01_A_b.gif","","","","",""
"","null","html-keyboard-response","66","584596","0.0-19.0-0.2","SS1619739196799","","","null","","","","","","<p><img src= images/blank.png width =""600"" height = ""600"" style=""position:fixed;top:50%; left:50%; transform: translate(-50%, -50%); border:5px solid black"">","","","","","","","",""
"","7150.504999999655","sequential-stimulus-presentation-old","67","592257","0.0-19.0-1.2","SS1619739196799","trial","","40","500","7650.504999999655","images/stimuli/spore_stims/simple_11_A_a.gif","images/stimuli/spore_stims/simple_01_A_b.gif","self_paced","","5","simple_dissimilar","images/stimuli/spore_stims/simple_11_A_a.gif","","","","",""
"","null","html-keyboard-response","68","593457","0.0-19.0-0.3","SS1619739196799","","","null","","","","","","<p><img src= images/blank.png width =""600"" height = ""600"" style=""position:fixed;top:50%; left:50%; transform: translate(-50%, -50%); border:5px solid black"">","","","","","","","",""
"","13153.729999999981","sequential-stimulus-presentation-old","69","607114","0.0-19.0-1.3","SS1619739196799","trial","","40","500","13653.729999999981","images/stimuli/spore_stims/simple_11_A_a.gif","images/stimuli/spore_stims/simple_01_A_b.gif","self_paced","","5","simple_dissimilar","images/stimuli/spore_stims/simple_01_A_b.gif","","","","",""
"","null","html-keyboard-response","70","608411","0.0-19.0-0.4","SS1619739196799","","","null","","","","","","<p><img src= images/blank.png width =""600"" height = ""600"" style=""position:fixed;top:50%; left:50%; transform: translate(-50%, -50%); border:5px solid black"">","","","","","","","",""
"","1760.2150000003166","sequential-stimulus-presentation-old","71","610676","0.0-19.0-1.4","SS1619739196799","trial","","40","500","2260.2150000003166","images/stimuli/spore_stims/simple_11_A_a.gif","images/stimuli/spore_stims/simple_01_A_b.gif","self_paced","","5","simple_dissimilar","images/stimuli/spore_stims/simple_11_A_a.gif","","","","",""
"","4476.155000000261","survey-multi-choice","72","615154","0.0-20.0","SS1619739196799","math_question","","","","","","","","","","","","{""Q0"":""10""}","[0]","10","",""
"","null","html-keyboard-response","73","616211","0.0-21.0-0.0","SS1619739196799","","","null","","","","","","<p><img src= images/blank.png width =""600"" height = ""600"" style=""position:fixed;top:50%; left:50%; transform: translate(-50%, -50%); border:5px solid black"">","","","","","","","",""
"","1409.5999999999767","sequential-stimulus-presentation-old","74","618134","0.0-21.0-1.0","SS1619739196799","trial","","40","500","1909.5999999999767","images/stimuli/spore_stims/simple_08_A_b.gif","images/stimuli/spore_stims/simple_02_A_a.gif","forced_short","","6","simple_dissimilar","images/stimuli/spore_stims/simple_02_A_a.gif","","","","",""
"","null","html-keyboard-response","75","619080","0.0-21.0-0.1","SS1619739196799","","","null","","","","","","<p><img src= images/blank.png width =""600"" height = ""600"" style=""position:fixed;top:50%; left:50%; transform: translate(-50%, -50%); border:5px solid black"">","","","","","","","",""
"","4376.1599999998","sequential-stimulus-presentation-old","76","623970","0.0-21.0-1.1","SS1619739196799","trial","","40","500","4876.1599999998","images/stimuli/spore_stims/simple_08_A_b.gif","images/stimuli/spore_stims/simple_02_A_a.gif","forced_short","","6","simple_dissimilar","images/stimuli/spore_stims/simple_02_A_a.gif","","","","",""
"","null","html-keyboard-response","77","625060","0.0-21.0-0.2","SS1619739196799","","","null","","","","","","<p><img src= images/blank.png width =""600"" height = ""600"" style=""position:fixed;top:50%; left:50%; transform: translate(-50%, -50%); border:5px solid black"">","","","","","","","",""
"","2947.3649999999907","sequential-stimulus-presentation-old","78","628511","0.0-21.0-1.2","SS1619739196799","trial","","40","500","3447.3649999999907","images/stimuli/spore_stims/simple_08_A_b.gif","images/stimuli/spore_stims/simple_02_A_a.gif","forced_short","","6","simple_dissimilar","images/stimuli/spore_stims/simple_02_A_a.gif","","","","",""
"","null","html-keyboard-response","79","629432","0.0-21.0-0.3","SS1619739196799","","","null","","","","","","<p><img src= images/blank.png width =""600"" height = ""600"" style=""position:fixed;top:50%; left:50%; transform: translate(-50%, -50%); border:5px solid black"">","","","","","","","",""
"","1620.925000000163","sequential-stimulus-presentation-old","80","631569","0.0-21.0-1.3","SS1619739196799","trial","","40","500","2120.925000000163","images/stimuli/spore_stims/simple_08_A_b.gif","images/stimuli/spore_stims/simple_02_A_a.gif","forced_short","","6","simple_dissimilar","images/stimuli/spore_stims/simple_02_A_a.gif","","","","",""
"","3003.649999999674","survey-multi-choice","81","634575","0.0-22.0","SS1619739196799","math_question","","","","","","","","","","","","{""Q0"":""3""}","[0]","3","",""
"","null","html-keyboard-response","82","635712","0.0-23.0-0.0","SS1619739196799","","","null","","","","","","<p><img src= images/blank.png width =""600"" height = ""600"" style=""position:fixed;top:50%; left:50%; transform: translate(-50%, -50%); border:5px solid black"">","","","","","","","",""
"","1009.4199999994598","sequential-stimulus-presentation-old","83","637225","0.0-23.0-1.0","SS1619739196799","trial","","40","500","1509.4199999994598","images/stimuli/spore_stims/simple_10_A_a.gif","images/stimuli/spore_stims/simple_07_A_b.gif","forced_short","","7","simple_dissimilar","images/stimuli/spore_stims/simple_07_A_b.gif","","","","",""
"","null","html-keyboard-response","84","638125","0.0-23.0-0.1","SS1619739196799","","","null","","","","","","<p><img src= images/blank.png width =""600"" height = ""600"" style=""position:fixed;top:50%; left:50%; transform: translate(-50%, -50%); border:5px solid black"">","","","","","","","",""
"","1534.7299999993993","sequential-stimulus-presentation-old","85","640173","0.0-23.0-1.1","SS1619739196799","trial","","40","500","2034.7299999993993","images/stimuli/spore_stims/simple_10_A_a.gif","images/stimuli/spore_stims/simple_07_A_b.gif","forced_short","","7","simple_dissimilar","images/stimuli/spore_stims/simple_10_A_a.gif","","","","",""
"","null","html-keyboard-response","86","641141","0.0-23.0-0.2","SS1619739196799","","","null","","","","","","<p><img src= images/blank.png width =""600"" height = ""600"" style=""position:fixed;top:50%; left:50%; transform: translate(-50%, -50%); border:5px solid black"">","","","","","","","",""
"","3790.739999999525","sequential-stimulus-presentation-old","87","645447","0.0-23.0-1.2","SS1619739196799","trial","","40","500","4290.739999999525","images/stimuli/spore_stims/simple_10_A_a.gif","images/stimuli/spore_stims/simple_07_A_b.gif","forced_short","","7","simple_dissimilar","images/stimuli/spore_stims/simple_07_A_b.gif","","","","",""
"","null","html-keyboard-response","88","646405","0.0-23.0-0.3","SS1619739196799","","","null","","","","","","<p><img src= images/blank.png width =""600"" height = ""600"" style=""position:fixed;top:50%; left:50%; transform: translate(-50%, -50%); border:5px solid black"">","","","","","","","",""
"","1892.8750000004657","sequential-stimulus-presentation-old","89","648812","0.0-23.0-1.3","SS1619739196799","trial","","40","500","2392.8750000004657","images/stimuli/spore_stims/simple_10_A_a.gif","images/stimuli/spore_stims/simple_07_A_b.gif","forced_short","","7","simple_dissimilar","images/stimuli/spore_stims/simple_07_A_b.gif","","","","",""
"","null","html-keyboard-response","90","649673","0.0-23.0-0.4","SS1619739196799","","","null","","","","","","<p><img src= images/blank.png width =""600"" height = ""600"" style=""position:fixed;top:50%; left:50%; transform: translate(-50%, -50%); border:5px solid black"">","","","","","","","",""
"","3042.734999999986","sequential-stimulus-presentation-old","91","653230","0.0-23.0-1.4","SS1619739196799","trial","","40","500","3542.734999999986","images/stimuli/spore_stims/simple_10_A_a.gif","images/stimuli/spore_stims/simple_07_A_b.gif","forced_short","","7","simple_dissimilar","images/stimuli/spore_stims/simple_07_A_b.gif","","","","",""
"","null","html-keyboard-response","92","654526","0.0-23.0-0.5","SS1619739196799","","","null","","","","","","<p><img src= images/blank.png width =""600"" height = ""600"" style=""position:fixed;top:50%; left:50%; transform: translate(-50%, -50%); border:5px solid black"">","","","","","","","",""
"","1393.3850000003586","sequential-stimulus-presentation-old","93","656421","0.0-23.0-1.5","SS1619739196799","trial","","40","500","1893.3850000003586","images/stimuli/spore_stims/simple_10_A_a.gif","images/stimuli/spore_stims/simple_07_A_b.gif","forced_short","","7","simple_dissimilar","images/stimuli/spore_stims/simple_07_A_b.gif","","","","",""
"","3368.9899999998743","survey-multi-choice","94","659792","0.0-24.0","SS1619739196799","math_question","","","","","","","","","","","","{""Q0"":""11""}","[0]","11","",""
"","null","html-keyboard-response","95","660842","0.0-25.0-0.0","SS1619739196799","","","null","","","","","","<p><img src= images/blank.png width =""600"" height = ""600"" style=""position:fixed;top:50%; left:50%; transform: translate(-50%, -50%); border:5px solid black"">","","","","","","","",""
"","7570.934999999707","sequential-stimulus-presentation-old","96","683416","0.0-25.0-1.0","SS1619739196799","trial","","40","500","8070.934999999707","images/stimuli/spore_stims/complex_12_A_a.gif","images/stimuli/spore_stims/complex_14_A_b.gif","forced_long","","8","complex_dissimilar","images/stimuli/spore_stims/complex_14_A_b.gif","","","","",""
"","null","html-keyboard-response","97","684522","0.0-25.0-0.1","SS1619739196799","","","null","","","","","","<p><img src= images/blank.png width =""600"" height = ""600"" style=""position:fixed;top:50%; left:50%; transform: translate(-50%, -50%); border:5px solid black"">","","","","","","","",""
"","7256.629999999772","sequential-stimulus-presentation-old","98","692282","0.0-25.0-1.1","SS1619739196799","trial","","40","500","7756.629999999772","images/stimuli/spore_stims/complex_12_A_a.gif","images/stimuli/spore_stims/complex_14_A_b.gif","forced_long","","8","complex_dissimilar","images/stimuli/spore_stims/complex_12_A_a.gif","","","","",""
"","null","html-keyboard-response","99","693462","0.0-25.0-0.2","SS1619739196799","","","null","","","","","","<p><img src= images/blank.png width =""600"" height = ""600"" style=""position:fixed;top:50%; left:50%; transform: translate(-50%, -50%); border:5px solid black"">","","","","","","","",""
"","407.6150000001071","sequential-stimulus-presentation-old","100","694378","0.0-25.0-1.2","SS1619739196799","trial","","40","500","907.6150000001071","images/stimuli/spore_stims/complex_12_A_a.gif","images/stimuli/spore_stims/complex_14_A_b.gif","forced_long","","8","complex_dissimilar","images/stimuli/spore_stims/complex_14_A_b.gif","","","","",""
"","null","html-keyboard-response","101","695308","0.0-25.0-0.3","SS1619739196799","","","null","","","","","","<p><img src= images/blank.png width =""600"" height = ""600"" style=""position:fixed;top:50%; left:50%; transform: translate(-50%, -50%); border:5px solid black"">","","","","","","","",""
"","1476.2149999997346","sequential-stimulus-presentation-old","102","697299","0.0-25.0-1.3","SS1619739196799","trial","","40","500","1976.2149999997346","images/stimuli/spore_stims/complex_12_A_a.gif","images/stimuli/spore_stims/complex_14_A_b.gif","forced_long","","8","complex_dissimilar","images/stimuli/spore_stims/complex_14_A_b.gif","","","","",""
"","null","html-keyboard-response","103","698420","0.0-25.0-0.4","SS1619739196799","","","null","","","","","","<p><img src= images/blank.png width =""600"" height = ""600"" style=""position:fixed;top:50%; left:50%; transform: translate(-50%, -50%); border:5px solid black"">","","","","","","","",""
"","2187.1499999997905","sequential-stimulus-presentation-old","104","701122","0.0-25.0-1.4","SS1619739196799","trial","","40","500","2687.1499999997905","images/stimuli/spore_stims/complex_12_A_a.gif","images/stimuli/spore_stims/complex_14_A_b.gif","forced_long","","8","complex_dissimilar","images/stimuli/spore_stims/complex_14_A_b.gif","","","","",""
"","null","html-keyboard-response","105","702308","0.0-25.0-0.5","SS1619739196799","","","null","","","","","","<p><img src= images/blank.png width =""600"" height = ""600"" style=""position:fixed;top:50%; left:50%; transform: translate(-50%, -50%); border:5px solid black"">","","","","","","","",""
"","1121.175000000163","sequential-stimulus-presentation-old","106","703947","0.0-25.0-1.5","SS1619739196799","trial","","40","500","1621.175000000163","images/stimuli/spore_stims/complex_12_A_a.gif","images/stimuli/spore_stims/complex_14_A_b.gif","forced_long","","8","complex_dissimilar","images/stimuli/spore_stims/complex_14_A_b.gif","","","","",""
"","4502.719999999506","survey-multi-choice","107","708451","0.0-26.0","SS1619739196799","math_question","","","","","","","","","","","","{""Q0"":""7""}","[0]","7","",""
"","null","html-keyboard-response","108","709665","0.0-27.0-0.0","SS1619739196799","","","null","","","","","","<p><img src= images/blank.png width =""600"" height = ""600"" style=""position:fixed;top:50%; left:50%; transform: translate(-50%, -50%); border:5px solid black"">","","","","","","","",""
"","29981.85999999987","sequential-stimulus-presentation-old","109","754650","0.0-27.0-1.0","SS1619739196799","trial","","40","500","30481.85999999987","images/stimuli/spore_stims/complex_15_A_a.gif","images/stimuli/spore_stims/complex_06_A_b.gif","forced_long","","9","complex_dissimilar","images/stimuli/spore_stims/complex_06_A_b.gif","","","","",""
"","null","html-keyboard-response","110","755581","0.0-27.0-0.1","SS1619739196799","","","null","","","","","","<p><img src= images/blank.png width =""600"" height = ""600"" style=""position:fixed;top:50%; left:50%; transform: translate(-50%, -50%); border:5px solid black"">","","","","","","","",""
"","1370.3749999995343","sequential-stimulus-presentation-old","111","757454","0.0-27.0-1.1","SS1619739196799","trial","","40","500","1870.3749999995343","images/stimuli/spore_stims/complex_15_A_a.gif","images/stimuli/spore_stims/complex_06_A_b.gif","forced_long","","9","complex_dissimilar","images/stimuli/spore_stims/complex_06_A_b.gif","","","","",""
"","null","html-keyboard-response","112","758577","0.0-27.0-0.2","SS1619739196799","","","null","","","","","","<p><img src= images/blank.png width =""600"" height = ""600"" style=""position:fixed;top:50%; left:50%; transform: translate(-50%, -50%); border:5px solid black"">","","","","","","","",""
"","2099.79000000027","sequential-stimulus-presentation-old","113","761189","0.0-27.0-1.2","SS1619739196799","trial","","40","500","2599.79000000027","images/stimuli/spore_stims/complex_15_A_a.gif","images/stimuli/spore_stims/complex_06_A_b.gif","forced_long","","9","complex_dissimilar","images/stimuli/spore_stims/complex_06_A_b.gif","","","","",""
"","null","html-keyboard-response","114","762407","0.0-27.0-0.3","SS1619739196799","","","null","","","","","","<p><img src= images/blank.png width =""600"" height = ""600"" style=""position:fixed;top:50%; left:50%; transform: translate(-50%, -50%); border:5px solid black"">","","","","","","","",""
"","4082.2950000001583","sequential-stimulus-presentation-old","115","766992","0.0-27.0-1.3","SS1619739196799","trial","","40","500","4582.295000000158","images/stimuli/spore_stims/complex_15_A_a.gif","images/stimuli/spore_stims/complex_06_A_b.gif","forced_long","","9","complex_dissimilar","images/stimuli/spore_stims/complex_06_A_b.gif","","","","",""
"","null","html-keyboard-response","116","767879","0.0-27.0-0.4","SS1619739196799","","","null","","","","","","<p><img src= images/blank.png width =""600"" height = ""600"" style=""position:fixed;top:50%; left:50%; transform: translate(-50%, -50%); border:5px solid black"">","","","","","","","",""
"","1413.5100000002421","sequential-stimulus-presentation-old","117","769807","0.0-27.0-1.4","SS1619739196799","trial","","40","500","1913.5100000002421","images/stimuli/spore_stims/complex_15_A_a.gif","images/stimuli/spore_stims/complex_06_A_b.gif","forced_long","","9","complex_dissimilar","images/stimuli/spore_stims/complex_06_A_b.gif","","","","",""
"","null","html-keyboard-response","118","770869","0.0-27.0-0.5","SS1619739196799","","","null","","","","","","<p><img src= images/blank.png width =""600"" height = ""600"" style=""position:fixed;top:50%; left:50%; transform: translate(-50%, -50%); border:5px solid black"">","","","","","","","",""
"","1759.6149999999907","sequential-stimulus-presentation-old","119","773131","0.0-27.0-1.5","SS1619739196799","trial","","40","500","2259.6149999999907","images/stimuli/spore_stims/complex_15_A_a.gif","images/stimuli/spore_stims/complex_06_A_b.gif","forced_long","","9","complex_dissimilar","images/stimuli/spore_stims/complex_06_A_b.gif","","","","",""
"","5152.259999999893","survey-multi-choice","120","778285","0.0-28.0","SS1619739196799","math_question","","","","","","","","","","","","{""Q0"":""8""}","[0]","8","",""
"","null","html-keyboard-response","121","779275","0.0-29.0-0.0","SS1619739196799","","","null","","","","","","<p><img src= images/blank.png width =""600"" height = ""600"" style=""position:fixed;top:50%; left:50%; transform: translate(-50%, -50%); border:5px solid black"">","","","","","","","",""
"","3901.6900000006426","sequential-stimulus-presentation-old","122","783679","0.0-29.0-1.0","SS1619739196799","trial","","40","500","4401.690000000643","images/stimuli/spore_stims/complex_01_A_b.gif","images/stimuli/spore_stims/complex_09_A_a.gif","self_paced","","10","complex_dissimilar","images/stimuli/spore_stims/complex_09_A_a.gif","","","","",""
"","null","html-keyboard-response","123","784747","0.0-29.0-0.1","SS1619739196799","","","null","","","","","","<p><img src= images/blank.png width =""600"" height = ""600"" style=""position:fixed;top:50%; left:50%; transform: translate(-50%, -50%); border:5px solid black"">","","","","","","","",""
"","4958.7700000002515","sequential-stimulus-presentation-old","124","790208","0.0-29.0-1.1","SS1619739196799","trial","","40","500","5458.7700000002515","images/stimuli/spore_stims/complex_01_A_b.gif","images/stimuli/spore_stims/complex_09_A_a.gif","self_paced","","10","complex_dissimilar","images/stimuli/spore_stims/complex_09_A_a.gif","","","","",""
"","null","html-keyboard-response","125","791328","0.0-29.0-0.2","SS1619739196799","","","null","","","","","","<p><img src= images/blank.png width =""600"" height = ""600"" style=""position:fixed;top:50%; left:50%; transform: translate(-50%, -50%); border:5px solid black"">","","","","","","","",""
"","3877.3250000003027","sequential-stimulus-presentation-old","126","795720","0.0-29.0-1.2","SS1619739196799","trial","","40","500","4377.325000000303","images/stimuli/spore_stims/complex_01_A_b.gif","images/stimuli/spore_stims/complex_09_A_a.gif","self_paced","","10","complex_dissimilar","images/stimuli/spore_stims/complex_09_A_a.gif","","","","",""
"","null","html-keyboard-response","127","796742","0.0-29.0-0.3","SS1619739196799","","","null","","","","","","<p><img src= images/blank.png width =""600"" height = ""600"" style=""position:fixed;top:50%; left:50%; transform: translate(-50%, -50%); border:5px solid black"">","","","","","","","",""
"","460.35000000032596","sequential-stimulus-presentation-old","128","797717","0.0-29.0-1.3","SS1619739196799","trial","","40","500","960.350000000326","images/stimuli/spore_stims/complex_01_A_b.gif","images/stimuli/spore_stims/complex_09_A_a.gif","self_paced","","10","complex_dissimilar","images/stimuli/spore_stims/complex_09_A_a.gif","","","","",""
"","null","html-keyboard-response","129","798644","0.0-29.0-0.4","SS1619739196799","","","null","","","","","","<p><img src= images/blank.png width =""600"" height = ""600"" style=""position:fixed;top:50%; left:50%; transform: translate(-50%, -50%); border:5px solid black"">","","","","","","","",""
"","1085.3550000000978","sequential-stimulus-presentation-old","130","800241","0.0-29.0-1.4","SS1619739196799","trial","","40","500","1585.3550000000978","images/stimuli/spore_stims/complex_01_A_b.gif","images/stimuli/spore_stims/complex_09_A_a.gif","self_paced","","10","complex_dissimilar","images/stimuli/spore_stims/complex_01_A_b.gif","","","","",""
"","2774.4999999995343","survey-multi-choice","131","803017","0.0-30.0","SS1619739196799","math_question","","","","","","","","","","","","{""Q0"":""4""}","[0]","4","",""
"","null","html-keyboard-response","132","803878","0.0-31.0-0.0","SS1619739196799","","","null","","","","","","<p><img src= images/blank.png width =""600"" height = ""600"" style=""position:fixed;top:50%; left:50%; transform: translate(-50%, -50%); border:5px solid black"">","","","","","","","",""
"","48231.220000000554","sequential-stimulus-presentation-old","133","852613","0.0-31.0-1.0","SS1619739196799","trial","","40","500","48731.220000000554","images/stimuli/spore_stims/complex_19_A_b.gif","images/stimuli/spore_stims/complex_08_A_a.gif","self_paced","","11","complex_dissimilar","images/stimuli/spore_stims/complex_08_A_a.gif","","","","",""
"","null","html-keyboard-response","134","853696","0.0-31.0-0.1","SS1619739196799","","","null","","","","","","<p><img src= images/blank.png width =""600"" height = ""600"" style=""position:fixed;top:50%; left:50%; transform: translate(-50%, -50%); border:5px solid black"">","","","","","","","",""
"","15148.965000000317","sequential-stimulus-presentation-old","135","869372","0.0-31.0-1.1","SS1619739196799","trial","","40","500","15648.965000000317","images/stimuli/spore_stims/complex_19_A_b.gif","images/stimuli/spore_stims/complex_08_A_a.gif","self_paced","","11","complex_dissimilar","images/stimuli/spore_stims/complex_08_A_a.gif","","","","",""
"","null","html-keyboard-response","136","870427","0.0-31.0-0.2","SS1619739196799","","","null","","","","","","<p><img src= images/blank.png width =""600"" height = ""600"" style=""position:fixed;top:50%; left:50%; transform: translate(-50%, -50%); border:5px solid black"">","","","","","","","",""
"","1723.1700000001583","sequential-stimulus-presentation-old","137","872653","0.0-31.0-1.2","SS1619739196799","trial","","40","500","2223.1700000001583","images/stimuli/spore_stims/complex_19_A_b.gif","images/stimuli/spore_stims/complex_08_A_a.gif","self_paced","","11","complex_dissimilar","images/stimuli/spore_stims/complex_19_A_b.gif","","","","",""
"","null","html-keyboard-response","138","873639","0.0-31.0-0.3","SS1619739196799","","","null","","","","","","<p><img src= images/blank.png width =""600"" height = ""600"" style=""position:fixed;top:50%; left:50%; transform: translate(-50%, -50%); border:5px solid black"">","","","","","","","",""
"","1046.13499999966","sequential-stimulus-presentation-old","139","875201","0.0-31.0-1.3","SS1619739196799","trial","","40","500","1546.13499999966","images/stimuli/spore_stims/complex_19_A_b.gif","images/stimuli/spore_stims/complex_08_A_a.gif","self_paced","","11","complex_dissimilar","images/stimuli/spore_stims/complex_08_A_a.gif","","","","",""
"","null","html-keyboard-response","140","876274","0.0-31.0-0.4","SS1619739196799","","","null","","","","","","<p><img src= images/blank.png width =""600"" height = ""600"" style=""position:fixed;top:50%; left:50%; transform: translate(-50%, -50%); border:5px solid black"">","","","","","","","",""
"","562.6850000007544","sequential-stimulus-presentation-old","141","877350","0.0-31.0-1.4","SS1619739196799","trial","","40","500","1062.6850000007544","images/stimuli/spore_stims/complex_19_A_b.gif","images/stimuli/spore_stims/complex_08_A_a.gif","self_paced","","11","complex_dissimilar","images/stimuli/spore_stims/complex_19_A_b.gif","","","","",""
"[{""page_index"":0,""viewing_time"":6046.914999999921}]","6047.285000000615","instructions","142","883399","0.0-32.0","SS1619739196799","instructions","","","","","","","","","","","","","","","",""
"","4029.309999999823","survey-likert","143","887431","0.0-33.0","SS1619739196799","similarity_question","","","","","","","","","","","","{""Q0"":5}","[0]","","images/stimuli/spore_stims/simple_09_A_a.gif","images/stimuli/spore_stims/simple_20_A_b.gif"
"","5384.849999999395","survey-likert","144","892819","0.0-34.0","SS1619739196799","similarity_question","","","","","","","","","","","","{""Q0"":1}","[0]","","images/stimuli/spore_stims/complex_02_A_b.gif","images/stimuli/spore_stims/complex_17_A_a.gif"
"","3829.490000000107","survey-likert","145","896651","0.0-35.0","SS1619739196799","similarity_question","","","","","","","","","","","","{""Q0"":5}","[0]","","images/stimuli/spore_stims/simple_08_A_b.gif","images/stimuli/spore_stims/simple_02_A_a.gif"
"","4769.38499999966","survey-likert","146","901423","0.0-36.0","SS1619739196799","similarity_question","","","","","","","","","","","","{""Q0"":1}","[0]","","images/stimuli/spore_stims/complex_12_A_a.gif","images/stimuli/spore_stims/complex_14_A_b.gif"
"","4373.094999999972","survey-likert","147","905799","0.0-37.0","SS1619739196799","similarity_question","","","","","","","","","","","","{""Q0"":4}","[0]","","images/stimuli/spore_stims/complex_06_A_b.gif","images/stimuli/spore_stims/complex_15_A_a.gif"
"","3161.5499999998137","survey-likert","148","908963","0.0-38.0","SS1619739196799","similarity_question","","","","","","","","","","","","{""Q0"":5}","[0]","","images/stimuli/spore_stims/simple_01_A_b.gif","images/stimuli/spore_stims/simple_11_A_a.gif"
"","4801.53000000061","survey-likert","149","913767","0.0-39.0","SS1619739196799","similarity_question","","","","","","","","","","","","{""Q0"":1}","[0]","","images/stimuli/spore_stims/complex_08_A_a.gif","images/stimuli/spore_stims/complex_19_A_b.gif"
"","46929.33999999962","survey-likert","150","960699","0.0-40.0","SS1619739196799","similarity_question","","","","","","","","","","","","{""Q0"":0}","[0]","","images/stimuli/spore_stims/complex_01_A_b.gif","images/stimuli/spore_stims/complex_09_A_a.gif"
"","3121.7399999996414","survey-likert","151","963824","0.0-41.0","SS1619739196799","similarity_question","","","","","","","","","","","","{""Q0"":5}","[0]","","images/stimuli/spore_stims/simple_06_A_a.gif","images/stimuli/spore_stims/simple_10_A_b.gif"
"","3937.0549999993527","survey-likert","152","967763","0.0-42.0","SS1619739196799","similarity_question","","","","","","","","","","","","{""Q0"":2}","[0]","","images/stimuli/spore_stims/simple_18_A_a.gif","images/stimuli/spore_stims/simple_09_A_b.gif"
"","5357.180000000051","survey-likert","153","973123","0.0-43.0","SS1619739196799","similarity_question","","","","","","","","","","","","{""Q0"":2}","[0]","","images/stimuli/spore_stims/complex_05_A_b.gif","images/stimuli/spore_stims/complex_18_A_a.gif"
"","4870.230000000447","survey-likert","154","977996","0.0-44.0","SS1619739196799","similarity_question","","","","","","","","","","","","{""Q0"":4}","[0]","","images/stimuli/spore_stims/simple_07_A_b.gif","images/stimuli/spore_stims/simple_10_A_a.gif"
"[{""page_index"":0,""viewing_time"":6347.4250000008615}]","6347.700000000303","instructions","155","984347","0.0-45.0","SS1619739196799","instructions","","","","","","","","","","","","","","","",""
"","3305.465000000433","survey-likert","156","987655","0.0-46.0","SS1619739196799","","","","","","","","","images/stimuli/spore_stims/complex_18_A_a.gif","","","","{""Q0"":6}","[0]","","",""
"","2097.7949999996927","survey-likert","157","989755","0.0-47.0","SS1619739196799","","","","","","","","","images/stimuli/spore_stims/complex_06_A_b.gif","","","","{""Q0"":6}","[0]","","",""
"","2548.375000000233","survey-likert","158","992307","0.0-48.0","SS1619739196799","","","","","","","","","images/stimuli/spore_stims/simple_02_A_a.gif","","","","{""Q0"":0}","[0]","","",""
"","1793.4800000003306","survey-likert","159","994103","0.0-49.0","SS1619739196799","","","","","","","","","images/stimuli/spore_stims/simple_11_A_a.gif","","","","{""Q0"":0}","[0]","","",""
"","3713.4800000003306","survey-likert","160","997819","0.0-50.0","SS1619739196799","","","","","","","","","images/stimuli/spore_stims/simple_18_A_a.gif","","","","{""Q0"":1}","[0]","","",""
"","2624.9250000000466","survey-likert","161","1000447","0.0-51.0","SS1619739196799","","","","","","","","","images/stimuli/spore_stims/simple_09_A_a.gif","","","","{""Q0"":0}","[0]","","",""
"","2105.2500000004657","survey-likert","162","1002555","0.0-52.0","SS1619739196799","","","","","","","","","images/stimuli/spore_stims/simple_10_A_b.gif","","","","{""Q0"":1}","[0]","","",""
"","2241.7299999997485","survey-likert","163","1004799","0.0-53.0","SS1619739196799","","","","","","","","","images/stimuli/spore_stims/complex_01_A_b.gif","","","","{""Q0"":6}","[0]","","",""
"","3945.0000000006985","survey-likert","164","1008747","0.0-54.0","SS1619739196799","","","","","","","","","images/stimuli/spore_stims/simple_07_A_b.gif","","","","{""Q0"":1}","[0]","","",""
"","3873.0599999999395","survey-likert","165","1012623","0.0-55.0","SS1619739196799","","","","","","","","","images/stimuli/spore_stims/complex_02_A_b.gif","","","","{""Q0"":5}","[0]","","",""
"","2305.3950000002515","survey-likert","166","1014931","0.0-56.0","SS1619739196799","","","","","","","","","images/stimuli/spore_stims/complex_14_A_b.gif","","","","{""Q0"":5}","[0]","","",""
"","3384.680000000051","survey-likert","167","1018319","0.0-57.0","SS1619739196799","","","","","","","","","images/stimuli/spore_stims/complex_19_A_b.gif","","","","{""Q0"":5}","[0]","","",""
"[{""page_index"":0,""viewing_time"":2081.4650000002002}]","2081.7400000005728","instructions","168","1020403","0.0-58.0","SS1619739196799","instructions","","","","","","","","","","","","","","","",""
"","2928.5849999996135","demog-age","169","1023335","0.0-59.0","SS1619739196799","","","","","","","","","","","","","{""age"":""21""}","","","",""
"","5252.169999999809","demog-ethnic-US","170","1028592","0.0-60.0","SS1619739196799","","","","","","","","","","","","","{""ethnicity"":[""White""]}","[0]","","",""
"","7293.070000000647","demog-gender-and-education","171","1035887","0.0-61.0","SS1619739196799","","","","","","","","","","","","","{""gender"":""Female"",""education"":""Bachelor's Degree""}","[0,1]","","",""
"","12400.220000000438","survey-text","172","1048291","0.0-62.0","SS1619739196799","feedback","","","","","","","","","","","","{""Q0"":""No, it was all great!!""}","","","",""
"[{""page_index"":0,""viewing_time"":1857.1700000001583}]","1857.4799999997485","instructions","173","1050151","0.0-63.0","SS1619739196799","instructions","","","","","","","","","","","","","","","",""
