"view_history","rt","trial_type","trial_index","time_elapsed","internal_node_id","subject","stimulus_type","trial_stimulus","key_press","minimum_viewing_duration","trial_looking_time","block_deviant","block_background","exposure_type","stimulus","block_number","block_type","stimulus_displayed","responses","question_order","math_correct_answer","stimulus_left","stimulus_right"
"[{""page_index"":0,""viewing_time"":22197}]","22197","instructions","0","22199","0.0-0.0","SS1619739812145","","","","","","","","","","","","","","","","",""
"[{""page_index"":0,""viewing_time"":35286},{""page_index"":1,""viewing_time"":8991}]","44277","instructions","1","68479","0.0-1.0","SS1619739812145","instructions","","","","","","","","","","","","","","","",""
"","6708","sequential-stimulus-presentation-old","2","75732","0.0-2.0","SS1619739812145","","","40","500","7208","null","null","self_paced","","","","","","","","",""
"","6481","sequential-stimulus-presentation-old","3","82718","0.0-3.0","SS1619739812145","","","40","500","6981","null","null","self_paced","","","","","","","","",""
"[{""page_index"":0,""viewing_time"":13479}]","13479","instructions","4","96199","0.0-4.0","SS1619739812145","instructions","","","","","","","","","","","","","","","",""
"","942","sequential-stimulus-presentation-old","5","112158","0.0-5.0","SS1619739812145","","","40","500","1442","null","null","forced_long","","","","","","","","",""
"","1971","sequential-stimulus-presentation-old","6","114631","0.0-6.0","SS1619739812145","","","40","500","2471","null","null","forced_long","","","","","","","","",""
"[{""page_index"":0,""viewing_time"":3756}]","3757","instructions","7","118390","0.0-7.0","SS1619739812145","instructions","","","","","","","","","","","","","","","",""
"[{""page_index"":0,""viewing_time"":10695},{""page_index"":1,""viewing_time"":11952},{""page_index"":2,""viewing_time"":3864},{""page_index"":3,""viewing_time"":1511},{""page_index"":4,""viewing_time"":1057}]","29079","instructions","8","147470","0.0-8.0","SS1619739812145","instructions","","","","","","","","","","","","","","","",""
"","null","html-keyboard-response","9","148642","0.0-9.0-0.0","SS1619739812145","","","null","","","","","","<p><img src= images/blank.png width =""600"" height = ""600"" style=""position:fixed;top:50%; left:50%; transform: translate(-50%, -50%); border:5px solid black"">","","","","","","","",""
"","7527","sequential-stimulus-presentation-old","10","156679","0.0-9.0-1.0","SS1619739812145","trial","","40","500","8027","images/stimuli/spore_stims/simple_09_A_b.gif","images/stimuli/spore_stims/simple_07_A_a.gif","self_paced","","0","simple_dissimilar","images/stimuli/spore_stims/simple_07_A_a.gif","","","","",""
"","null","html-keyboard-response","11","157564","0.0-9.0-0.1","SS1619739812145","","","null","","","","","","<p><img src= images/blank.png width =""600"" height = ""600"" style=""position:fixed;top:50%; left:50%; transform: translate(-50%, -50%); border:5px solid black"">","","","","","","","",""
"","4243","sequential-stimulus-presentation-old","12","162311","0.0-9.0-1.1","SS1619739812145","trial","","40","500","4743","images/stimuli/spore_stims/simple_09_A_b.gif","images/stimuli/spore_stims/simple_07_A_a.gif","self_paced","","0","simple_dissimilar","images/stimuli/spore_stims/simple_07_A_a.gif","","","","",""
"","null","html-keyboard-response","13","163503","0.0-9.0-0.2","SS1619739812145","","","null","","","","","","<p><img src= images/blank.png width =""600"" height = ""600"" style=""position:fixed;top:50%; left:50%; transform: translate(-50%, -50%); border:5px solid black"">","","","","","","","",""
"","4141","sequential-stimulus-presentation-old","14","168149","0.0-9.0-1.2","SS1619739812145","trial","","40","500","4641","images/stimuli/spore_stims/simple_09_A_b.gif","images/stimuli/spore_stims/simple_07_A_a.gif","self_paced","","0","simple_dissimilar","images/stimuli/spore_stims/simple_09_A_b.gif","","","","",""
"","null","html-keyboard-response","15","169005","0.0-9.0-0.3","SS1619739812145","","","null","","","","","","<p><img src= images/blank.png width =""600"" height = ""600"" style=""position:fixed;top:50%; left:50%; transform: translate(-50%, -50%); border:5px solid black"">","","","","","","","",""
"","4555","sequential-stimulus-presentation-old","16","174063","0.0-9.0-1.3","SS1619739812145","trial","","40","500","5055","images/stimuli/spore_stims/simple_09_A_b.gif","images/stimuli/spore_stims/simple_07_A_a.gif","self_paced","","0","simple_dissimilar","images/stimuli/spore_stims/simple_09_A_b.gif","","","","",""
"","null","html-keyboard-response","17","175270","0.0-9.0-0.4","SS1619739812145","","","null","","","","","","<p><img src= images/blank.png width =""600"" height = ""600"" style=""position:fixed;top:50%; left:50%; transform: translate(-50%, -50%); border:5px solid black"">","","","","","","","",""
"","5786","sequential-stimulus-presentation-old","18","181559","0.0-9.0-1.4","SS1619739812145","trial","","40","500","6286","images/stimuli/spore_stims/simple_09_A_b.gif","images/stimuli/spore_stims/simple_07_A_a.gif","self_paced","","0","simple_dissimilar","images/stimuli/spore_stims/simple_07_A_a.gif","","","","",""
"","null","html-keyboard-response","19","182853","0.0-9.0-0.5","SS1619739812145","","","null","","","","","","<p><img src= images/blank.png width =""600"" height = ""600"" style=""position:fixed;top:50%; left:50%; transform: translate(-50%, -50%); border:5px solid black"">","","","","","","","",""
"","5120","sequential-stimulus-presentation-old","20","188478","0.0-9.0-1.5","SS1619739812145","trial","","40","500","5620","images/stimuli/spore_stims/simple_09_A_b.gif","images/stimuli/spore_stims/simple_07_A_a.gif","self_paced","","0","simple_dissimilar","images/stimuli/spore_stims/simple_07_A_a.gif","","","","",""
"","11581","survey-multi-choice","21","200076","0.0-10.0","SS1619739812145","math_question","","","","","","","","","","","","{""Q0"":""12""}","[0]","12","",""
"","null","html-keyboard-response","22","201015","0.0-11.0-0.0","SS1619739812145","","","null","","","","","","<p><img src= images/blank.png width =""600"" height = ""600"" style=""position:fixed;top:50%; left:50%; transform: translate(-50%, -50%); border:5px solid black"">","","","","","","","",""
"","1476","sequential-stimulus-presentation-old","23","202997","0.0-11.0-1.0","SS1619739812145","trial","","40","500","1976","images/stimuli/spore_stims/simple_02_A_a.gif","images/stimuli/spore_stims/simple_01_A_b.gif","forced_short","","1","simple_dissimilar","images/stimuli/spore_stims/simple_01_A_b.gif","","","","",""
"","null","html-keyboard-response","24","203989","0.0-11.0-0.1","SS1619739812145","","","null","","","","","","<p><img src= images/blank.png width =""600"" height = ""600"" style=""position:fixed;top:50%; left:50%; transform: translate(-50%, -50%); border:5px solid black"">","","","","","","","",""
"","4255","sequential-stimulus-presentation-old","25","208751","0.0-11.0-1.1","SS1619739812145","trial","","40","500","4755","images/stimuli/spore_stims/simple_02_A_a.gif","images/stimuli/spore_stims/simple_01_A_b.gif","forced_short","","1","simple_dissimilar","images/stimuli/spore_stims/simple_02_A_a.gif","","","","",""
"","null","html-keyboard-response","26","209773","0.0-11.0-0.2","SS1619739812145","","","null","","","","","","<p><img src= images/blank.png width =""600"" height = ""600"" style=""position:fixed;top:50%; left:50%; transform: translate(-50%, -50%); border:5px solid black"">","","","","","","","",""
"","1417","sequential-stimulus-presentation-old","27","211693","0.0-11.0-1.2","SS1619739812145","trial","","40","500","1917","images/stimuli/spore_stims/simple_02_A_a.gif","images/stimuli/spore_stims/simple_01_A_b.gif","forced_short","","1","simple_dissimilar","images/stimuli/spore_stims/simple_01_A_b.gif","","","","",""
"","null","html-keyboard-response","28","212904","0.0-11.0-0.3","SS1619739812145","","","null","","","","","","<p><img src= images/blank.png width =""600"" height = ""600"" style=""position:fixed;top:50%; left:50%; transform: translate(-50%, -50%); border:5px solid black"">","","","","","","","",""
"","3535","sequential-stimulus-presentation-old","29","216943","0.0-11.0-1.3","SS1619739812145","trial","","40","500","4035","images/stimuli/spore_stims/simple_02_A_a.gif","images/stimuli/spore_stims/simple_01_A_b.gif","forced_short","","1","simple_dissimilar","images/stimuli/spore_stims/simple_01_A_b.gif","","","","",""
"","null","html-keyboard-response","30","218098","0.0-11.0-0.4","SS1619739812145","","","null","","","","","","<p><img src= images/blank.png width =""600"" height = ""600"" style=""position:fixed;top:50%; left:50%; transform: translate(-50%, -50%); border:5px solid black"">","","","","","","","",""
"","2326","sequential-stimulus-presentation-old","31","220927","0.0-11.0-1.4","SS1619739812145","trial","","40","500","2826","images/stimuli/spore_stims/simple_02_A_a.gif","images/stimuli/spore_stims/simple_01_A_b.gif","forced_short","","1","simple_dissimilar","images/stimuli/spore_stims/simple_02_A_a.gif","","","","",""
"","4218","survey-multi-choice","32","225151","0.0-12.0","SS1619739812145","math_question","","","","","","","","","","","","{""Q0"":""13""}","[0]","13","",""
"","null","html-keyboard-response","33","226174","0.0-13.0-0.0","SS1619739812145","","","null","","","","","","<p><img src= images/blank.png width =""600"" height = ""600"" style=""position:fixed;top:50%; left:50%; transform: translate(-50%, -50%); border:5px solid black"">","","","","","","","",""
"","2017","sequential-stimulus-presentation-old","34","228694","0.0-13.0-1.0","SS1619739812145","trial","","40","500","2517","images/stimuli/spore_stims/complex_19_A_b.gif","images/stimuli/spore_stims/complex_09_A_a.gif","forced_short","","2","complex_dissimilar","images/stimuli/spore_stims/complex_09_A_a.gif","","","","",""
"","null","html-keyboard-response","35","229721","0.0-13.0-0.1","SS1619739812145","","","null","","","","","","<p><img src= images/blank.png width =""600"" height = ""600"" style=""position:fixed;top:50%; left:50%; transform: translate(-50%, -50%); border:5px solid black"">","","","","","","","",""
"","12508","sequential-stimulus-presentation-old","36","242734","0.0-13.0-1.1","SS1619739812145","trial","","40","500","13008","images/stimuli/spore_stims/complex_19_A_b.gif","images/stimuli/spore_stims/complex_09_A_a.gif","forced_short","","2","complex_dissimilar","images/stimuli/spore_stims/complex_09_A_a.gif","","","","",""
"","null","html-keyboard-response","37","243995","0.0-13.0-0.2","SS1619739812145","","","null","","","","","","<p><img src= images/blank.png width =""600"" height = ""600"" style=""position:fixed;top:50%; left:50%; transform: translate(-50%, -50%); border:5px solid black"">","","","","","","","",""
"","8260","sequential-stimulus-presentation-old","38","252758","0.0-13.0-1.2","SS1619739812145","trial","","40","500","8760","images/stimuli/spore_stims/complex_19_A_b.gif","images/stimuli/spore_stims/complex_09_A_a.gif","forced_short","","2","complex_dissimilar","images/stimuli/spore_stims/complex_09_A_a.gif","","","","",""
"","null","html-keyboard-response","39","253902","0.0-13.0-0.3","SS1619739812145","","","null","","","","","","<p><img src= images/blank.png width =""600"" height = ""600"" style=""position:fixed;top:50%; left:50%; transform: translate(-50%, -50%); border:5px solid black"">","","","","","","","",""
"","5943","sequential-stimulus-presentation-old","40","260351","0.0-13.0-1.3","SS1619739812145","trial","","40","500","6443","images/stimuli/spore_stims/complex_19_A_b.gif","images/stimuli/spore_stims/complex_09_A_a.gif","forced_short","","2","complex_dissimilar","images/stimuli/spore_stims/complex_09_A_a.gif","","","","",""
"","null","html-keyboard-response","41","261495","0.0-13.0-0.4","SS1619739812145","","","null","","","","","","<p><img src= images/blank.png width =""600"" height = ""600"" style=""position:fixed;top:50%; left:50%; transform: translate(-50%, -50%); border:5px solid black"">","","","","","","","",""
"","12142","sequential-stimulus-presentation-old","42","274143","0.0-13.0-1.4","SS1619739812145","trial","","40","500","12642","images/stimuli/spore_stims/complex_19_A_b.gif","images/stimuli/spore_stims/complex_09_A_a.gif","forced_short","","2","complex_dissimilar","images/stimuli/spore_stims/complex_19_A_b.gif","","","","",""
"","null","html-keyboard-response","43","275277","0.0-13.0-0.5","SS1619739812145","","","null","","","","","","<p><img src= images/blank.png width =""600"" height = ""600"" style=""position:fixed;top:50%; left:50%; transform: translate(-50%, -50%); border:5px solid black"">","","","","","","","",""
"","5459","sequential-stimulus-presentation-old","44","281246","0.0-13.0-1.5","SS1619739812145","trial","","40","500","5959","images/stimuli/spore_stims/complex_19_A_b.gif","images/stimuli/spore_stims/complex_09_A_a.gif","forced_short","","2","complex_dissimilar","images/stimuli/spore_stims/complex_09_A_a.gif","","","","",""
"","2943","survey-multi-choice","45","284195","0.0-14.0","SS1619739812145","math_question","","","","","","","","","","","","{""Q0"":""10""}","[0]","10","",""
"","null","html-keyboard-response","46","285174","0.0-15.0-0.0","SS1619739812145","","","null","","","","","","<p><img src= images/blank.png width =""600"" height = ""600"" style=""position:fixed;top:50%; left:50%; transform: translate(-50%, -50%); border:5px solid black"">","","","","","","","",""
"","1454","sequential-stimulus-presentation-old","47","287134","0.0-15.0-1.0","SS1619739812145","trial","","40","500","1954","images/stimuli/spore_stims/complex_03_A_b.gif","images/stimuli/spore_stims/complex_15_A_a.gif","forced_short","","3","complex_dissimilar","images/stimuli/spore_stims/complex_15_A_a.gif","","","","",""
"","null","html-keyboard-response","48","288052","0.0-15.0-0.1","SS1619739812145","","","null","","","","","","<p><img src= images/blank.png width =""600"" height = ""600"" style=""position:fixed;top:50%; left:50%; transform: translate(-50%, -50%); border:5px solid black"">","","","","","","","",""
"","9535","sequential-stimulus-presentation-old","49","298095","0.0-15.0-1.1","SS1619739812145","trial","","40","500","10035","images/stimuli/spore_stims/complex_03_A_b.gif","images/stimuli/spore_stims/complex_15_A_a.gif","forced_short","","3","complex_dissimilar","images/stimuli/spore_stims/complex_15_A_a.gif","","","","",""
"","null","html-keyboard-response","50","299026","0.0-15.0-0.2","SS1619739812145","","","null","","","","","","<p><img src= images/blank.png width =""600"" height = ""600"" style=""position:fixed;top:50%; left:50%; transform: translate(-50%, -50%); border:5px solid black"">","","","","","","","",""
"","11842","sequential-stimulus-presentation-old","51","311374","0.0-15.0-1.2","SS1619739812145","trial","","40","500","12342","images/stimuli/spore_stims/complex_03_A_b.gif","images/stimuli/spore_stims/complex_15_A_a.gif","forced_short","","3","complex_dissimilar","images/stimuli/spore_stims/complex_15_A_a.gif","","","","",""
"","null","html-keyboard-response","52","312542","0.0-15.0-0.3","SS1619739812145","","","null","","","","","","<p><img src= images/blank.png width =""600"" height = ""600"" style=""position:fixed;top:50%; left:50%; transform: translate(-50%, -50%); border:5px solid black"">","","","","","","","",""
"","8537","sequential-stimulus-presentation-old","53","321598","0.0-15.0-1.3","SS1619739812145","trial","","40","500","9037","images/stimuli/spore_stims/complex_03_A_b.gif","images/stimuli/spore_stims/complex_15_A_a.gif","forced_short","","3","complex_dissimilar","images/stimuli/spore_stims/complex_15_A_a.gif","","","","",""
"","null","html-keyboard-response","54","322842","0.0-15.0-0.4","SS1619739812145","","","null","","","","","","<p><img src= images/blank.png width =""600"" height = ""600"" style=""position:fixed;top:50%; left:50%; transform: translate(-50%, -50%); border:5px solid black"">","","","","","","","",""
"","1799","sequential-stimulus-presentation-old","55","325159","0.0-15.0-1.4","SS1619739812145","trial","","40","500","2299","images/stimuli/spore_stims/complex_03_A_b.gif","images/stimuli/spore_stims/complex_15_A_a.gif","forced_short","","3","complex_dissimilar","images/stimuli/spore_stims/complex_15_A_a.gif","","","","",""
"","null","html-keyboard-response","56","326069","0.0-15.0-0.5","SS1619739812145","","","null","","","","","","<p><img src= images/blank.png width =""600"" height = ""600"" style=""position:fixed;top:50%; left:50%; transform: translate(-50%, -50%); border:5px solid black"">","","","","","","","",""
"","4879","sequential-stimulus-presentation-old","57","331456","0.0-15.0-1.5","SS1619739812145","trial","","40","500","5379","images/stimuli/spore_stims/complex_03_A_b.gif","images/stimuli/spore_stims/complex_15_A_a.gif","forced_short","","3","complex_dissimilar","images/stimuli/spore_stims/complex_15_A_a.gif","","","","",""
"","4650","survey-multi-choice","58","336119","0.0-16.0","SS1619739812145","math_question","","","","","","","","","","","","{""Q0"":""12""}","[0]","12","",""
"","null","html-keyboard-response","59","337298","0.0-17.0-0.0","SS1619739812145","","","null","","","","","","<p><img src= images/blank.png width =""600"" height = ""600"" style=""position:fixed;top:50%; left:50%; transform: translate(-50%, -50%); border:5px solid black"">","","","","","","","",""
"","1952","sequential-stimulus-presentation-old","60","339758","0.0-17.0-1.0","SS1619739812145","trial","","40","500","2452","images/stimuli/spore_stims/simple_13_A_a.gif","images/stimuli/spore_stims/simple_04_A_b.gif","self_paced","","4","simple_dissimilar","images/stimuli/spore_stims/simple_04_A_b.gif","","","","",""
"","null","html-keyboard-response","61","340929","0.0-17.0-0.1","SS1619739812145","","","null","","","","","","<p><img src= images/blank.png width =""600"" height = ""600"" style=""position:fixed;top:50%; left:50%; transform: translate(-50%, -50%); border:5px solid black"">","","","","","","","",""
"","2898","sequential-stimulus-presentation-old","62","344335","0.0-17.0-1.1","SS1619739812145","trial","","40","500","3398","images/stimuli/spore_stims/simple_13_A_a.gif","images/stimuli/spore_stims/simple_04_A_b.gif","self_paced","","4","simple_dissimilar","images/stimuli/spore_stims/simple_04_A_b.gif","","","","",""
"","null","html-keyboard-response","63","345274","0.0-17.0-0.2","SS1619739812145","","","null","","","","","","<p><img src= images/blank.png width =""600"" height = ""600"" style=""position:fixed;top:50%; left:50%; transform: translate(-50%, -50%); border:5px solid black"">","","","","","","","",""
"","1952","sequential-stimulus-presentation-old","64","347734","0.0-17.0-1.2","SS1619739812145","trial","","40","500","2452","images/stimuli/spore_stims/simple_13_A_a.gif","images/stimuli/spore_stims/simple_04_A_b.gif","self_paced","","4","simple_dissimilar","images/stimuli/spore_stims/simple_04_A_b.gif","","","","",""
"","null","html-keyboard-response","65","348774","0.0-17.0-0.3","SS1619739812145","","","null","","","","","","<p><img src= images/blank.png width =""600"" height = ""600"" style=""position:fixed;top:50%; left:50%; transform: translate(-50%, -50%); border:5px solid black"">","","","","","","","",""
"","1509","sequential-stimulus-presentation-old","66","350790","0.0-17.0-1.3","SS1619739812145","trial","","40","500","2009","images/stimuli/spore_stims/simple_13_A_a.gif","images/stimuli/spore_stims/simple_04_A_b.gif","self_paced","","4","simple_dissimilar","images/stimuli/spore_stims/simple_04_A_b.gif","","","","",""
"","null","html-keyboard-response","67","352053","0.0-17.0-0.4","SS1619739812145","","","null","","","","","","<p><img src= images/blank.png width =""600"" height = ""600"" style=""position:fixed;top:50%; left:50%; transform: translate(-50%, -50%); border:5px solid black"">","","","","","","","",""
"","6541","sequential-stimulus-presentation-old","68","359102","0.0-17.0-1.4","SS1619739812145","trial","","40","500","7041","images/stimuli/spore_stims/simple_13_A_a.gif","images/stimuli/spore_stims/simple_04_A_b.gif","self_paced","","4","simple_dissimilar","images/stimuli/spore_stims/simple_13_A_a.gif","","","","",""
"","3251","survey-multi-choice","69","362359","0.0-18.0","SS1619739812145","math_question","","","","","","","","","","","","{""Q0"":""3""}","[0]","3","",""
"","null","html-keyboard-response","70","363656","0.0-19.0-0.0","SS1619739812145","","","null","","","","","","<p><img src= images/blank.png width =""600"" height = ""600"" style=""position:fixed;top:50%; left:50%; transform: translate(-50%, -50%); border:5px solid black"">","","","","","","","",""
"","3593","sequential-stimulus-presentation-old","71","382255","0.0-19.0-1.0","SS1619739812145","trial","","40","500","4093","images/stimuli/spore_stims/complex_05_A_a.gif","images/stimuli/spore_stims/complex_13_A_b.gif","forced_long","","5","complex_dissimilar","images/stimuli/spore_stims/complex_13_A_b.gif","","","","",""
"","null","html-keyboard-response","72","383081","0.0-19.0-0.1","SS1619739812145","","","null","","","","","","<p><img src= images/blank.png width =""600"" height = ""600"" style=""position:fixed;top:50%; left:50%; transform: translate(-50%, -50%); border:5px solid black"">","","","","","","","",""
"","19436","sequential-stimulus-presentation-old","73","403023","0.0-19.0-1.1","SS1619739812145","trial","","40","500","19936","images/stimuli/spore_stims/complex_05_A_a.gif","images/stimuli/spore_stims/complex_13_A_b.gif","forced_long","","5","complex_dissimilar","images/stimuli/spore_stims/complex_13_A_b.gif","","","","",""
"","null","html-keyboard-response","74","404196","0.0-19.0-0.2","SS1619739812145","","","null","","","","","","<p><img src= images/blank.png width =""600"" height = ""600"" style=""position:fixed;top:50%; left:50%; transform: translate(-50%, -50%); border:5px solid black"">","","","","","","","",""
"","9580","sequential-stimulus-presentation-old","75","414286","0.0-19.0-1.2","SS1619739812145","trial","","40","500","10080","images/stimuli/spore_stims/complex_05_A_a.gif","images/stimuli/spore_stims/complex_13_A_b.gif","forced_long","","5","complex_dissimilar","images/stimuli/spore_stims/complex_13_A_b.gif","","","","",""
"","null","html-keyboard-response","76","415467","0.0-19.0-0.3","SS1619739812145","","","null","","","","","","<p><img src= images/blank.png width =""600"" height = ""600"" style=""position:fixed;top:50%; left:50%; transform: translate(-50%, -50%); border:5px solid black"">","","","","","","","",""
"","9495","sequential-stimulus-presentation-old","77","425471","0.0-19.0-1.3","SS1619739812145","trial","","40","500","9995","images/stimuli/spore_stims/complex_05_A_a.gif","images/stimuli/spore_stims/complex_13_A_b.gif","forced_long","","5","complex_dissimilar","images/stimuli/spore_stims/complex_13_A_b.gif","","","","",""
"","null","html-keyboard-response","78","426373","0.0-19.0-0.4","SS1619739812145","","","null","","","","","","<p><img src= images/blank.png width =""600"" height = ""600"" style=""position:fixed;top:50%; left:50%; transform: translate(-50%, -50%); border:5px solid black"">","","","","","","","",""
"","7852","sequential-stimulus-presentation-old","79","434735","0.0-19.0-1.4","SS1619739812145","trial","","40","500","8352","images/stimuli/spore_stims/complex_05_A_a.gif","images/stimuli/spore_stims/complex_13_A_b.gif","forced_long","","5","complex_dissimilar","images/stimuli/spore_stims/complex_13_A_b.gif","","","","",""
"","2616","survey-multi-choice","80","437359","0.0-20.0","SS1619739812145","math_question","","","","","","","","","","","","{""Q0"":""6""}","[0]","6","",""
"","null","html-keyboard-response","81","438619","0.0-21.0-0.0","SS1619739812145","","","null","","","","","","<p><img src= images/blank.png width =""600"" height = ""600"" style=""position:fixed;top:50%; left:50%; transform: translate(-50%, -50%); border:5px solid black"">","","","","","","","",""
"","582","sequential-stimulus-presentation-old","82","454207","0.0-21.0-1.0","SS1619739812145","trial","","40","500","1082","images/stimuli/spore_stims/complex_14_A_b.gif","images/stimuli/spore_stims/complex_18_A_a.gif","forced_long","","6","complex_dissimilar","images/stimuli/spore_stims/complex_18_A_a.gif","","","","",""
"","null","html-keyboard-response","83","455477","0.0-21.0-0.1","SS1619739812145","","","null","","","","","","<p><img src= images/blank.png width =""600"" height = ""600"" style=""position:fixed;top:50%; left:50%; transform: translate(-50%, -50%); border:5px solid black"">","","","","","","","",""
"","4626","sequential-stimulus-presentation-old","84","460623","0.0-21.0-1.1","SS1619739812145","trial","","40","500","5126","images/stimuli/spore_stims/complex_14_A_b.gif","images/stimuli/spore_stims/complex_18_A_a.gif","forced_long","","6","complex_dissimilar","images/stimuli/spore_stims/complex_14_A_b.gif","","","","",""
"","null","html-keyboard-response","85","461921","0.0-21.0-0.2","SS1619739812145","","","null","","","","","","<p><img src= images/blank.png width =""600"" height = ""600"" style=""position:fixed;top:50%; left:50%; transform: translate(-50%, -50%); border:5px solid black"">","","","","","","","",""
"","1048","sequential-stimulus-presentation-old","86","463478","0.0-21.0-1.2","SS1619739812145","trial","","40","500","1548","images/stimuli/spore_stims/complex_14_A_b.gif","images/stimuli/spore_stims/complex_18_A_a.gif","forced_long","","6","complex_dissimilar","images/stimuli/spore_stims/complex_18_A_a.gif","","","","",""
"","null","html-keyboard-response","87","464756","0.0-21.0-0.3","SS1619739812145","","","null","","","","","","<p><img src= images/blank.png width =""600"" height = ""600"" style=""position:fixed;top:50%; left:50%; transform: translate(-50%, -50%); border:5px solid black"">","","","","","","","",""
"","1396","sequential-stimulus-presentation-old","88","466662","0.0-21.0-1.3","SS1619739812145","trial","","40","500","1896","images/stimuli/spore_stims/complex_14_A_b.gif","images/stimuli/spore_stims/complex_18_A_a.gif","forced_long","","6","complex_dissimilar","images/stimuli/spore_stims/complex_18_A_a.gif","","","","",""
"","null","html-keyboard-response","89","467638","0.0-21.0-0.4","SS1619739812145","","","null","","","","","","<p><img src= images/blank.png width =""600"" height = ""600"" style=""position:fixed;top:50%; left:50%; transform: translate(-50%, -50%); border:5px solid black"">","","","","","","","",""
"","1280","sequential-stimulus-presentation-old","90","469422","0.0-21.0-1.4","SS1619739812145","trial","","40","500","1780","images/stimuli/spore_stims/complex_14_A_b.gif","images/stimuli/spore_stims/complex_18_A_a.gif","forced_long","","6","complex_dissimilar","images/stimuli/spore_stims/complex_18_A_a.gif","","","","",""
"","2737","survey-multi-choice","91","472167","0.0-22.0","SS1619739812145","math_question","","","","","","","","","","","","{""Q0"":""13""}","[0]","13","",""
"","null","html-keyboard-response","92","473203","0.0-23.0-0.0","SS1619739812145","","","null","","","","","","<p><img src= images/blank.png width =""600"" height = ""600"" style=""position:fixed;top:50%; left:50%; transform: translate(-50%, -50%); border:5px solid black"">","","","","","","","",""
"","21911","sequential-stimulus-presentation-old","93","495623","0.0-23.0-1.0","SS1619739812145","trial","","40","500","22411","images/stimuli/spore_stims/complex_11_A_a.gif","images/stimuli/spore_stims/complex_10_A_b.gif","self_paced","","7","complex_dissimilar","images/stimuli/spore_stims/complex_10_A_b.gif","","","","",""
"","null","html-keyboard-response","94","496725","0.0-23.0-0.1","SS1619739812145","","","null","","","","","","<p><img src= images/blank.png width =""600"" height = ""600"" style=""position:fixed;top:50%; left:50%; transform: translate(-50%, -50%); border:5px solid black"">","","","","","","","",""
"","10814","sequential-stimulus-presentation-old","95","508047","0.0-23.0-1.1","SS1619739812145","trial","","40","500","11314","images/stimuli/spore_stims/complex_11_A_a.gif","images/stimuli/spore_stims/complex_10_A_b.gif","self_paced","","7","complex_dissimilar","images/stimuli/spore_stims/complex_10_A_b.gif","","","","",""
"","null","html-keyboard-response","96","509050","0.0-23.0-0.2","SS1619739812145","","","null","","","","","","<p><img src= images/blank.png width =""600"" height = ""600"" style=""position:fixed;top:50%; left:50%; transform: translate(-50%, -50%); border:5px solid black"">","","","","","","","",""
"","7465","sequential-stimulus-presentation-old","97","517023","0.0-23.0-1.2","SS1619739812145","trial","","40","500","7965","images/stimuli/spore_stims/complex_11_A_a.gif","images/stimuli/spore_stims/complex_10_A_b.gif","self_paced","","7","complex_dissimilar","images/stimuli/spore_stims/complex_10_A_b.gif","","","","",""
"","null","html-keyboard-response","98","518120","0.0-23.0-0.3","SS1619739812145","","","null","","","","","","<p><img src= images/blank.png width =""600"" height = ""600"" style=""position:fixed;top:50%; left:50%; transform: translate(-50%, -50%); border:5px solid black"">","","","","","","","",""
"","6728","sequential-stimulus-presentation-old","99","525359","0.0-23.0-1.3","SS1619739812145","trial","","40","500","7228","images/stimuli/spore_stims/complex_11_A_a.gif","images/stimuli/spore_stims/complex_10_A_b.gif","self_paced","","7","complex_dissimilar","images/stimuli/spore_stims/complex_10_A_b.gif","","","","",""
"","null","html-keyboard-response","100","526249","0.0-23.0-0.4","SS1619739812145","","","null","","","","","","<p><img src= images/blank.png width =""600"" height = ""600"" style=""position:fixed;top:50%; left:50%; transform: translate(-50%, -50%); border:5px solid black"">","","","","","","","",""
"","3789","sequential-stimulus-presentation-old","101","530550","0.0-23.0-1.4","SS1619739812145","trial","","40","500","4289","images/stimuli/spore_stims/complex_11_A_a.gif","images/stimuli/spore_stims/complex_10_A_b.gif","self_paced","","7","complex_dissimilar","images/stimuli/spore_stims/complex_11_A_a.gif","","","","",""
"","null","html-keyboard-response","102","531449","0.0-23.0-0.5","SS1619739812145","","","null","","","","","","<p><img src= images/blank.png width =""600"" height = ""600"" style=""position:fixed;top:50%; left:50%; transform: translate(-50%, -50%); border:5px solid black"">","","","","","","","",""
"","1793","sequential-stimulus-presentation-old","103","533750","0.0-23.0-1.5","SS1619739812145","trial","","40","500","2293","images/stimuli/spore_stims/complex_11_A_a.gif","images/stimuli/spore_stims/complex_10_A_b.gif","self_paced","","7","complex_dissimilar","images/stimuli/spore_stims/complex_11_A_a.gif","","","","",""
"","2927","survey-multi-choice","104","536686","0.0-24.0","SS1619739812145","math_question","","","","","","","","","","","","{""Q0"":""11""}","[0]","11","",""
"","null","html-keyboard-response","105","537701","0.0-25.0-0.0","SS1619739812145","","","null","","","","","","<p><img src= images/blank.png width =""600"" height = ""600"" style=""position:fixed;top:50%; left:50%; transform: translate(-50%, -50%); border:5px solid black"">","","","","","","","",""
"","1237","sequential-stimulus-presentation-old","106","539446","0.0-25.0-1.0","SS1619739812145","trial","","40","500","1737","images/stimuli/spore_stims/simple_12_A_a.gif","images/stimuli/spore_stims/simple_02_A_b.gif","forced_short","","8","simple_dissimilar","images/stimuli/spore_stims/simple_02_A_b.gif","","","","",""
"","null","html-keyboard-response","107","540459","0.0-25.0-0.1","SS1619739812145","","","null","","","","","","<p><img src= images/blank.png width =""600"" height = ""600"" style=""position:fixed;top:50%; left:50%; transform: translate(-50%, -50%); border:5px solid black"">","","","","","","","",""
"","2662","sequential-stimulus-presentation-old","108","543630","0.0-25.0-1.1","SS1619739812145","trial","","40","500","3162","images/stimuli/spore_stims/simple_12_A_a.gif","images/stimuli/spore_stims/simple_02_A_b.gif","forced_short","","8","simple_dissimilar","images/stimuli/spore_stims/simple_02_A_b.gif","","","","",""
"","null","html-keyboard-response","109","544522","0.0-25.0-0.2","SS1619739812145","","","null","","","","","","<p><img src= images/blank.png width =""600"" height = ""600"" style=""position:fixed;top:50%; left:50%; transform: translate(-50%, -50%); border:5px solid black"">","","","","","","","",""
"","6453","sequential-stimulus-presentation-old","110","551486","0.0-25.0-1.2","SS1619739812145","trial","","40","500","6953","images/stimuli/spore_stims/simple_12_A_a.gif","images/stimuli/spore_stims/simple_02_A_b.gif","forced_short","","8","simple_dissimilar","images/stimuli/spore_stims/simple_12_A_a.gif","","","","",""
"","null","html-keyboard-response","111","552777","0.0-25.0-0.3","SS1619739812145","","","null","","","","","","<p><img src= images/blank.png width =""600"" height = ""600"" style=""position:fixed;top:50%; left:50%; transform: translate(-50%, -50%); border:5px solid black"">","","","","","","","",""
"","2778","sequential-stimulus-presentation-old","112","556062","0.0-25.0-1.3","SS1619739812145","trial","","40","500","3278","images/stimuli/spore_stims/simple_12_A_a.gif","images/stimuli/spore_stims/simple_02_A_b.gif","forced_short","","8","simple_dissimilar","images/stimuli/spore_stims/simple_02_A_b.gif","","","","",""
"","null","html-keyboard-response","113","557094","0.0-25.0-0.4","SS1619739812145","","","null","","","","","","<p><img src= images/blank.png width =""600"" height = ""600"" style=""position:fixed;top:50%; left:50%; transform: translate(-50%, -50%); border:5px solid black"">","","","","","","","",""
"","1518","sequential-stimulus-presentation-old","114","559118","0.0-25.0-1.4","SS1619739812145","trial","","40","500","2018","images/stimuli/spore_stims/simple_12_A_a.gif","images/stimuli/spore_stims/simple_02_A_b.gif","forced_short","","8","simple_dissimilar","images/stimuli/spore_stims/simple_02_A_b.gif","","","","",""
"","null","html-keyboard-response","115","560058","0.0-25.0-0.5","SS1619739812145","","","null","","","","","","<p><img src= images/blank.png width =""600"" height = ""600"" style=""position:fixed;top:50%; left:50%; transform: translate(-50%, -50%); border:5px solid black"">","","","","","","","",""
"","2872","sequential-stimulus-presentation-old","116","563437","0.0-25.0-1.5","SS1619739812145","trial","","40","500","3372","images/stimuli/spore_stims/simple_12_A_a.gif","images/stimuli/spore_stims/simple_02_A_b.gif","forced_short","","8","simple_dissimilar","images/stimuli/spore_stims/simple_12_A_a.gif","","","","",""
"","4157","survey-multi-choice","117","567598","0.0-26.0","SS1619739812145","math_question","","","","","","","","","","","","{""Q0"":""9""}","[0]","9","",""
"","null","html-keyboard-response","118","568857","0.0-27.0-0.0","SS1619739812145","","","null","","","","","","<p><img src= images/blank.png width =""600"" height = ""600"" style=""position:fixed;top:50%; left:50%; transform: translate(-50%, -50%); border:5px solid black"">","","","","","","","",""
"","950","sequential-stimulus-presentation-old","119","584815","0.0-27.0-1.0","SS1619739812145","trial","","40","500","1450","images/stimuli/spore_stims/simple_05_A_a.gif","images/stimuli/spore_stims/simple_17_A_b.gif","forced_long","","9","simple_dissimilar","images/stimuli/spore_stims/simple_17_A_b.gif","","","","",""
"","null","html-keyboard-response","120","585675","0.0-27.0-0.1","SS1619739812145","","","null","","","","","","<p><img src= images/blank.png width =""600"" height = ""600"" style=""position:fixed;top:50%; left:50%; transform: translate(-50%, -50%); border:5px solid black"">","","","","","","","",""
"","3280","sequential-stimulus-presentation-old","121","589478","0.0-27.0-1.1","SS1619739812145","trial","","40","500","3780","images/stimuli/spore_stims/simple_05_A_a.gif","images/stimuli/spore_stims/simple_17_A_b.gif","forced_long","","9","simple_dissimilar","images/stimuli/spore_stims/simple_17_A_b.gif","","","","",""
"","null","html-keyboard-response","122","590611","0.0-27.0-0.2","SS1619739812145","","","null","","","","","","<p><img src= images/blank.png width =""600"" height = ""600"" style=""position:fixed;top:50%; left:50%; transform: translate(-50%, -50%); border:5px solid black"">","","","","","","","",""
"","3213","sequential-stimulus-presentation-old","123","594334","0.0-27.0-1.2","SS1619739812145","trial","","40","500","3713","images/stimuli/spore_stims/simple_05_A_a.gif","images/stimuli/spore_stims/simple_17_A_b.gif","forced_long","","9","simple_dissimilar","images/stimuli/spore_stims/simple_17_A_b.gif","","","","",""
"","null","html-keyboard-response","124","595211","0.0-27.0-0.3","SS1619739812145","","","null","","","","","","<p><img src= images/blank.png width =""600"" height = ""600"" style=""position:fixed;top:50%; left:50%; transform: translate(-50%, -50%); border:5px solid black"">","","","","","","","",""
"","3379","sequential-stimulus-presentation-old","125","599102","0.0-27.0-1.3","SS1619739812145","trial","","40","500","3879","images/stimuli/spore_stims/simple_05_A_a.gif","images/stimuli/spore_stims/simple_17_A_b.gif","forced_long","","9","simple_dissimilar","images/stimuli/spore_stims/simple_17_A_b.gif","","","","",""
"","2865","survey-multi-choice","126","601982","0.0-28.0","SS1619739812145","math_question","","","","","","","","","","","","{""Q0"":""13""}","[0]","13","",""
"","null","html-keyboard-response","127","603204","0.0-29.0-0.0","SS1619739812145","","","null","","","","","","<p><img src= images/blank.png width =""600"" height = ""600"" style=""position:fixed;top:50%; left:50%; transform: translate(-50%, -50%); border:5px solid black"">","","","","","","","",""
"","2033","sequential-stimulus-presentation-old","128","620247","0.0-29.0-1.0","SS1619739812145","trial","","40","500","2533","images/stimuli/spore_stims/simple_05_A_b.gif","images/stimuli/spore_stims/simple_16_A_a.gif","forced_long","","10","simple_dissimilar","images/stimuli/spore_stims/simple_16_A_a.gif","","","","",""
"","null","html-keyboard-response","129","621376","0.0-29.0-0.1","SS1619739812145","","","null","","","","","","<p><img src= images/blank.png width =""600"" height = ""600"" style=""position:fixed;top:50%; left:50%; transform: translate(-50%, -50%); border:5px solid black"">","","","","","","","",""
"","1432","sequential-stimulus-presentation-old","130","623318","0.0-29.0-1.1","SS1619739812145","trial","","40","500","1932","images/stimuli/spore_stims/simple_05_A_b.gif","images/stimuli/spore_stims/simple_16_A_a.gif","forced_long","","10","simple_dissimilar","images/stimuli/spore_stims/simple_16_A_a.gif","","","","",""
"","null","html-keyboard-response","131","624541","0.0-29.0-0.2","SS1619739812145","","","null","","","","","","<p><img src= images/blank.png width =""600"" height = ""600"" style=""position:fixed;top:50%; left:50%; transform: translate(-50%, -50%); border:5px solid black"">","","","","","","","",""
"","6423","sequential-stimulus-presentation-old","132","631478","0.0-29.0-1.2","SS1619739812145","trial","","40","500","6923","images/stimuli/spore_stims/simple_05_A_b.gif","images/stimuli/spore_stims/simple_16_A_a.gif","forced_long","","10","simple_dissimilar","images/stimuli/spore_stims/simple_05_A_b.gif","","","","",""
"","null","html-keyboard-response","133","632379","0.0-29.0-0.3","SS1619739812145","","","null","","","","","","<p><img src= images/blank.png width =""600"" height = ""600"" style=""position:fixed;top:50%; left:50%; transform: translate(-50%, -50%); border:5px solid black"">","","","","","","","",""
"","2088","sequential-stimulus-presentation-old","134","634974","0.0-29.0-1.3","SS1619739812145","trial","","40","500","2588","images/stimuli/spore_stims/simple_05_A_b.gif","images/stimuli/spore_stims/simple_16_A_a.gif","forced_long","","10","simple_dissimilar","images/stimuli/spore_stims/simple_16_A_a.gif","","","","",""
"","null","html-keyboard-response","135","636181","0.0-29.0-0.4","SS1619739812145","","","null","","","","","","<p><img src= images/blank.png width =""600"" height = ""600"" style=""position:fixed;top:50%; left:50%; transform: translate(-50%, -50%); border:5px solid black"">","","","","","","","",""
"","4788","sequential-stimulus-presentation-old","136","641477","0.0-29.0-1.4","SS1619739812145","trial","","40","500","5288","images/stimuli/spore_stims/simple_05_A_b.gif","images/stimuli/spore_stims/simple_16_A_a.gif","forced_long","","10","simple_dissimilar","images/stimuli/spore_stims/simple_05_A_b.gif","","","","",""
"","null","html-keyboard-response","137","642769","0.0-29.0-0.5","SS1619739812145","","","null","","","","","","<p><img src= images/blank.png width =""600"" height = ""600"" style=""position:fixed;top:50%; left:50%; transform: translate(-50%, -50%); border:5px solid black"">","","","","","","","",""
"","2655","sequential-stimulus-presentation-old","138","645934","0.0-29.0-1.5","SS1619739812145","trial","","40","500","3155","images/stimuli/spore_stims/simple_05_A_b.gif","images/stimuli/spore_stims/simple_16_A_a.gif","forced_long","","10","simple_dissimilar","images/stimuli/spore_stims/simple_16_A_a.gif","","","","",""
"","4499","survey-multi-choice","139","650455","0.0-30.0","SS1619739812145","math_question","","","","","","","","","","","","{""Q0"":""11""}","[0]","11","",""
"","null","html-keyboard-response","140","651390","0.0-31.0-0.0","SS1619739812145","","","null","","","","","","<p><img src= images/blank.png width =""600"" height = ""600"" style=""position:fixed;top:50%; left:50%; transform: translate(-50%, -50%); border:5px solid black"">","","","","","","","",""
"","6205","sequential-stimulus-presentation-old","141","658110","0.0-31.0-1.0","SS1619739812145","trial","","40","500","6705","images/stimuli/spore_stims/complex_14_A_a.gif","images/stimuli/spore_stims/complex_04_A_b.gif","self_paced","","11","complex_dissimilar","images/stimuli/spore_stims/complex_04_A_b.gif","","","","",""
"","null","html-keyboard-response","142","659019","0.0-31.0-0.1","SS1619739812145","","","null","","","","","","<p><img src= images/blank.png width =""600"" height = ""600"" style=""position:fixed;top:50%; left:50%; transform: translate(-50%, -50%); border:5px solid black"">","","","","","","","",""
"","7818","sequential-stimulus-presentation-old","143","667349","0.0-31.0-1.1","SS1619739812145","trial","","40","500","8318","images/stimuli/spore_stims/complex_14_A_a.gif","images/stimuli/spore_stims/complex_04_A_b.gif","self_paced","","11","complex_dissimilar","images/stimuli/spore_stims/complex_04_A_b.gif","","","","",""
"","null","html-keyboard-response","144","668376","0.0-31.0-0.2","SS1619739812145","","","null","","","","","","<p><img src= images/blank.png width =""600"" height = ""600"" style=""position:fixed;top:50%; left:50%; transform: translate(-50%, -50%); border:5px solid black"">","","","","","","","",""
"","9135","sequential-stimulus-presentation-old","145","678022","0.0-31.0-1.2","SS1619739812145","trial","","40","500","9635","images/stimuli/spore_stims/complex_14_A_a.gif","images/stimuli/spore_stims/complex_04_A_b.gif","self_paced","","11","complex_dissimilar","images/stimuli/spore_stims/complex_04_A_b.gif","","","","",""
"","null","html-keyboard-response","146","679082","0.0-31.0-0.3","SS1619739812145","","","null","","","","","","<p><img src= images/blank.png width =""600"" height = ""600"" style=""position:fixed;top:50%; left:50%; transform: translate(-50%, -50%); border:5px solid black"">","","","","","","","",""
"","6286","sequential-stimulus-presentation-old","147","685878","0.0-31.0-1.3","SS1619739812145","trial","","40","500","6786","images/stimuli/spore_stims/complex_14_A_a.gif","images/stimuli/spore_stims/complex_04_A_b.gif","self_paced","","11","complex_dissimilar","images/stimuli/spore_stims/complex_04_A_b.gif","","","","",""
"[{""page_index"":0,""viewing_time"":8272}]","8272","instructions","148","694157","0.0-32.0","SS1619739812145","instructions","","","","","","","","","","","","","","","",""
"","19470","survey-likert","149","713631","0.0-33.0","SS1619739812145","similarity_question","","","","","","","","","","","","{""Q0"":0}","[0]","","images/stimuli/spore_stims/complex_15_A_a.gif","images/stimuli/spore_stims/complex_03_A_b.gif"
"","17672","survey-likert","150","731311","0.0-34.0","SS1619739812145","similarity_question","","","","","","","","","","","","{""Q0"":2}","[0]","","images/stimuli/spore_stims/simple_16_A_a.gif","images/stimuli/spore_stims/simple_05_A_b.gif"
"","8679","survey-likert","151","739998","0.0-35.0","SS1619739812145","similarity_question","","","","","","","","","","","","{""Q0"":1}","[0]","","images/stimuli/spore_stims/simple_09_A_b.gif","images/stimuli/spore_stims/simple_07_A_a.gif"
"","5171","survey-likert","152","745174","0.0-36.0","SS1619739812145","similarity_question","","","","","","","","","","","","{""Q0"":2}","[0]","","images/stimuli/spore_stims/simple_12_A_a.gif","images/stimuli/spore_stims/simple_02_A_b.gif"
"","14395","survey-likert","153","759575","0.0-37.0","SS1619739812145","similarity_question","","","","","","","","","","","","{""Q0"":1}","[0]","","images/stimuli/spore_stims/complex_19_A_b.gif","images/stimuli/spore_stims/complex_09_A_a.gif"
"","12571","survey-likert","154","772150","0.0-38.0","SS1619739812145","similarity_question","","","","","","","","","","","","{""Q0"":3}","[0]","","images/stimuli/spore_stims/complex_18_A_a.gif","images/stimuli/spore_stims/complex_14_A_b.gif"
"","12907","survey-likert","155","785063","0.0-39.0","SS1619739812145","similarity_question","","","","","","","","","","","","{""Q0"":4}","[0]","","images/stimuli/spore_stims/simple_02_A_a.gif","images/stimuli/spore_stims/simple_01_A_b.gif"
"","7975","survey-likert","156","793047","0.0-40.0","SS1619739812145","similarity_question","","","","","","","","","","","","{""Q0"":0}","[0]","","images/stimuli/spore_stims/complex_13_A_b.gif","images/stimuli/spore_stims/complex_05_A_a.gif"
"","4074","survey-likert","157","797126","0.0-41.0","SS1619739812145","similarity_question","","","","","","","","","","","","{""Q0"":0}","[0]","","images/stimuli/spore_stims/complex_14_A_a.gif","images/stimuli/spore_stims/complex_04_A_b.gif"
"","6297","survey-likert","158","803438","0.0-42.0","SS1619739812145","similarity_question","","","","","","","","","","","","{""Q0"":2}","[0]","","images/stimuli/spore_stims/simple_05_A_a.gif","images/stimuli/spore_stims/simple_17_A_b.gif"
"","3259","survey-likert","159","806703","0.0-43.0","SS1619739812145","similarity_question","","","","","","","","","","","","{""Q0"":0}","[0]","","images/stimuli/spore_stims/complex_10_A_b.gif","images/stimuli/spore_stims/complex_11_A_a.gif"
"","4315","survey-likert","160","811022","0.0-44.0","SS1619739812145","similarity_question","","","","","","","","","","","","{""Q0"":4}","[0]","","images/stimuli/spore_stims/simple_13_A_a.gif","images/stimuli/spore_stims/simple_04_A_b.gif"
"[{""page_index"":0,""viewing_time"":3699}]","3700","instructions","161","814726","0.0-45.0","SS1619739812145","instructions","","","","","","","","","","","","","","","",""
"","7419","survey-likert","162","822166","0.0-46.0","SS1619739812145","","","","","","","","","images/stimuli/spore_stims/simple_02_A_a.gif","","","","{""Q0"":0}","[0]","","",""
"","8172","survey-likert","163","830342","0.0-47.0","SS1619739812145","","","","","","","","","images/stimuli/spore_stims/complex_11_A_a.gif","","","","{""Q0"":5}","[0]","","",""
"","2187","survey-likert","164","832534","0.0-48.0","SS1619739812145","","","","","","","","","images/stimuli/spore_stims/complex_09_A_a.gif","","","","{""Q0"":6}","[0]","","",""
"","3772","survey-likert","165","836310","0.0-49.0","SS1619739812145","","","","","","","","","images/stimuli/spore_stims/simple_12_A_a.gif","","","","{""Q0"":1}","[0]","","",""
"","1836","survey-likert","166","838150","0.0-50.0","SS1619739812145","","","","","","","","","images/stimuli/spore_stims/complex_15_A_a.gif","","","","{""Q0"":6}","[0]","","",""
"","3813","survey-likert","167","841967","0.0-51.0","SS1619739812145","","","","","","","","","images/stimuli/spore_stims/simple_09_A_b.gif","","","","{""Q0"":1}","[0]","","",""
"","6582","survey-likert","168","848558","0.0-52.0","SS1619739812145","","","","","","","","","images/stimuli/spore_stims/complex_14_A_b.gif","","","","{""Q0"":5}","[0]","","",""
"","2808","survey-likert","169","851374","0.0-53.0","SS1619739812145","","","","","","","","","images/stimuli/spore_stims/simple_05_A_b.gif","","","","{""Q0"":0}","[0]","","",""
"","2827","survey-likert","170","854206","0.0-54.0","SS1619739812145","","","","","","","","","images/stimuli/spore_stims/complex_04_A_b.gif","","","","{""Q0"":5}","[0]","","",""
"","3545","survey-likert","171","857758","0.0-55.0","SS1619739812145","","","","","","","","","images/stimuli/spore_stims/simple_17_A_b.gif","","","","{""Q0"":2}","[0]","","",""
"","10650","survey-likert","172","868414","0.0-56.0","SS1619739812145","","","","","","","","","images/stimuli/spore_stims/complex_13_A_b.gif","","","","{""Q0"":5}","[0]","","",""
"","2735","survey-likert","173","871166","0.0-57.0","SS1619739812145","","","","","","","","","images/stimuli/spore_stims/simple_13_A_a.gif","","","","{""Q0"":0}","[0]","","",""
"[{""page_index"":0,""viewing_time"":1666}]","1666","instructions","174","872837","0.0-58.0","SS1619739812145","instructions","","","","","","","","","","","","","","","",""
"","1951","demog-age","175","874830","0.0-59.0","SS1619739812145","","","","","","","","","","","","","{""age"":""22""}","","","",""
"","2046","demog-ethnic-US","176","876918","0.0-60.0","SS1619739812145","","","","","","","","","","","","","{""ethnicity"":[""White""]}","[0]","","",""
"","12318","demog-gender-and-education","177","889246","0.0-61.0","SS1619739812145","","","","","","","","","","","","","{""gender"":""Female"",""education"":""High school diploma""}","[0,1]","","",""
"","26051","survey-text","178","915313","0.0-62.0","SS1619739812145","feedback","","","","","","","","","","","","{""Q0"":""This was such a cute experiment! Thank you for the opportunity! I am not a baby but I found this super fun and adorable! :)""}","","","",""
"[{""page_index"":0,""viewing_time"":2078}]","2078","instructions","179","917398","0.0-63.0","SS1619739812145","instructions","","","","","","","","","","","","","","","",""
