"view_history","rt","trial_type","trial_index","time_elapsed","internal_node_id","subject","stimulus_type","trial_stimulus","key_press","minimum_viewing_duration","trial_looking_time","block_deviant","block_background","exposure_type","stimulus","block_number","block_type","stimulus_displayed","responses","question_order","math_correct_answer","stimulus_left","stimulus_right"
"[{""page_index"":0,""viewing_time"":5401.004999992438}]","5401.470000040717","instructions","0","5402","0.0-0.0","SS1619739299290","","","","","","","","","","","","","","","","",""
"[{""page_index"":0,""viewing_time"":12022.129999939352},{""page_index"":1,""viewing_time"":5544.300000066869}]","17566.585000022314","instructions","1","24970","0.0-1.0","SS1619739299290","instructions","","","","","","","","","","","","","","","",""
"","6570.560000021942","sequential-stimulus-presentation-old","2","32044","0.0-2.0","SS1619739299290","","","40","500","7070.560000021942","null","null","self_paced","","","","","","","","",""
"","3594.2700000014156","sequential-stimulus-presentation-old","3","36139","0.0-3.0","SS1619739299290","","","40","500","4094.2700000014156","null","null","self_paced","","","","","","","","",""
"[{""page_index"":0,""viewing_time"":12964.670000015758}]","12964.814999955706","instructions","4","49106","0.0-4.0","SS1619739299290","instructions","","","","","","","","","","","","","","","",""
"","53.76999999862164","sequential-stimulus-presentation-old","5","64163","0.0-5.0","SS1619739299290","","","40","500","553.7699999986216","null","null","forced_long","","","","","","","","",""
"","2792.509999941103","sequential-stimulus-presentation-old","6","67460","0.0-6.0","SS1619739299290","","","40","500","3292.509999941103","null","null","forced_long","","","","","","","","",""
"[{""page_index"":0,""viewing_time"":3660.479999962263}]","3660.6149999424815","instructions","7","71122","0.0-7.0","SS1619739299290","instructions","","","","","","","","","","","","","","","",""
"[{""page_index"":0,""viewing_time"":5015.24499990046},{""page_index"":1,""viewing_time"":10343.93000009004},{""page_index"":2,""viewing_time"":3992.035000002943},{""page_index"":3,""viewing_time"":1400.444999919273},{""page_index"":4,""viewing_time"":823.4400000656024}]","21575.239999918267","instructions","8","92698","0.0-8.0","SS1619739299290","instructions","","","","","","","","","","","","","","","",""
"","null","html-keyboard-response","9","93555","0.0-9.0-0.0","SS1619739299290","","","null","","","","","","<p><img src= images/blank.png width =""600"" height = ""600"" style=""position:fixed;top:50%; left:50%; transform: translate(-50%, -50%); border:5px solid black"">","","","","","","","",""
"","747.2700000507757","sequential-stimulus-presentation-old","10","109308","0.0-9.0-1.0","SS1619739299290","trial","","40","500","1247.2700000507757","images/stimuli/spore_stims/complex_17_A_b.gif","images/stimuli/spore_stims/complex_08_A_a.gif","forced_long","","0","complex_dissimilar","images/stimuli/spore_stims/complex_08_A_a.gif","","","","",""
"","null","html-keyboard-response","11","110257","0.0-9.0-0.1","SS1619739299290","","","null","","","","","","<p><img src= images/blank.png width =""600"" height = ""600"" style=""position:fixed;top:50%; left:50%; transform: translate(-50%, -50%); border:5px solid black"">","","","","","","","",""
"","189.6699999924749","sequential-stimulus-presentation-old","12","110956","0.0-9.0-1.1","SS1619739299290","trial","","40","500","689.6699999924749","images/stimuli/spore_stims/complex_17_A_b.gif","images/stimuli/spore_stims/complex_08_A_a.gif","forced_long","","0","complex_dissimilar","images/stimuli/spore_stims/complex_08_A_a.gif","","","","",""
"","null","html-keyboard-response","13","111812","0.0-9.0-0.2","SS1619739299290","","","null","","","","","","<p><img src= images/blank.png width =""600"" height = ""600"" style=""position:fixed;top:50%; left:50%; transform: translate(-50%, -50%); border:5px solid black"">","","","","","","","",""
"","4250.325000029989","sequential-stimulus-presentation-old","14","116572","0.0-9.0-1.2","SS1619739299290","trial","","40","500","4750.325000029989","images/stimuli/spore_stims/complex_17_A_b.gif","images/stimuli/spore_stims/complex_08_A_a.gif","forced_long","","0","complex_dissimilar","images/stimuli/spore_stims/complex_08_A_a.gif","","","","",""
"","null","html-keyboard-response","15","117858","0.0-9.0-0.3","SS1619739299290","","","null","","","","","","<p><img src= images/blank.png width =""600"" height = ""600"" style=""position:fixed;top:50%; left:50%; transform: translate(-50%, -50%); border:5px solid black"">","","","","","","","",""
"","3675.8799999952316","sequential-stimulus-presentation-old","16","122044","0.0-9.0-1.3","SS1619739299290","trial","","40","500","4175.879999995232","images/stimuli/spore_stims/complex_17_A_b.gif","images/stimuli/spore_stims/complex_08_A_a.gif","forced_long","","0","complex_dissimilar","images/stimuli/spore_stims/complex_17_A_b.gif","","","","",""
"","5108.240000088699","survey-multi-choice","17","127155","0.0-10.0","SS1619739299290","math_question","","","","","","","","","","","","{""Q0"":""4""}","[0]","4","",""
"","null","html-keyboard-response","18","128210","0.0-11.0-0.0","SS1619739299290","","","null","","","","","","<p><img src= images/blank.png width =""600"" height = ""600"" style=""position:fixed;top:50%; left:50%; transform: translate(-50%, -50%); border:5px solid black"">","","","","","","","",""
"","1934.9150001071393","sequential-stimulus-presentation-old","19","130653","0.0-11.0-1.0","SS1619739299290","trial","","40","500","2434.9150001071393","images/stimuli/spore_stims/complex_11_A_a.gif","images/stimuli/spore_stims/complex_01_A_b.gif","forced_short","","1","complex_dissimilar","images/stimuli/spore_stims/complex_01_A_b.gif","","","","",""
"","null","html-keyboard-response","20","131875","0.0-11.0-0.1","SS1619739299290","","","null","","","","","","<p><img src= images/blank.png width =""600"" height = ""600"" style=""position:fixed;top:50%; left:50%; transform: translate(-50%, -50%); border:5px solid black"">","","","","","","","",""
"","3564.7050000261515","sequential-stimulus-presentation-old","21","135948","0.0-11.0-1.1","SS1619739299290","trial","","40","500","4064.7050000261515","images/stimuli/spore_stims/complex_11_A_a.gif","images/stimuli/spore_stims/complex_01_A_b.gif","forced_short","","1","complex_dissimilar","images/stimuli/spore_stims/complex_01_A_b.gif","","","","",""
"","null","html-keyboard-response","22","136802","0.0-11.0-0.2","SS1619739299290","","","null","","","","","","<p><img src= images/blank.png width =""600"" height = ""600"" style=""position:fixed;top:50%; left:50%; transform: translate(-50%, -50%); border:5px solid black"">","","","","","","","",""
"","5321.3449999457225","sequential-stimulus-presentation-old","23","142628","0.0-11.0-1.2","SS1619739299290","trial","","40","500","5821.3449999457225","images/stimuli/spore_stims/complex_11_A_a.gif","images/stimuli/spore_stims/complex_01_A_b.gif","forced_short","","1","complex_dissimilar","images/stimuli/spore_stims/complex_01_A_b.gif","","","","",""
"","null","html-keyboard-response","24","143552","0.0-11.0-0.3","SS1619739299290","","","null","","","","","","<p><img src= images/blank.png width =""600"" height = ""600"" style=""position:fixed;top:50%; left:50%; transform: translate(-50%, -50%); border:5px solid black"">","","","","","","","",""
"","2550.6299999542534","sequential-stimulus-presentation-old","25","146612","0.0-11.0-1.3","SS1619739299290","trial","","40","500","3050.6299999542534","images/stimuli/spore_stims/complex_11_A_a.gif","images/stimuli/spore_stims/complex_01_A_b.gif","forced_short","","1","complex_dissimilar","images/stimuli/spore_stims/complex_11_A_a.gif","","","","",""
"","null","html-keyboard-response","26","147789","0.0-11.0-0.4","SS1619739299290","","","null","","","","","","<p><img src= images/blank.png width =""600"" height = ""600"" style=""position:fixed;top:50%; left:50%; transform: translate(-50%, -50%); border:5px solid black"">","","","","","","","",""
"","2408.990000025369","sequential-stimulus-presentation-old","27","150708","0.0-11.0-1.4","SS1619739299290","trial","","40","500","2908.990000025369","images/stimuli/spore_stims/complex_11_A_a.gif","images/stimuli/spore_stims/complex_01_A_b.gif","forced_short","","1","complex_dissimilar","images/stimuli/spore_stims/complex_01_A_b.gif","","","","",""
"","null","html-keyboard-response","28","151770","0.0-11.0-0.5","SS1619739299290","","","null","","","","","","<p><img src= images/blank.png width =""600"" height = ""600"" style=""position:fixed;top:50%; left:50%; transform: translate(-50%, -50%); border:5px solid black"">","","","","","","","",""
"","3097.2100000362843","sequential-stimulus-presentation-old","29","155373","0.0-11.0-1.5","SS1619739299290","trial","","40","500","3597.2100000362843","images/stimuli/spore_stims/complex_11_A_a.gif","images/stimuli/spore_stims/complex_01_A_b.gif","forced_short","","1","complex_dissimilar","images/stimuli/spore_stims/complex_11_A_a.gif","","","","",""
"","7500.34999998752","survey-multi-choice","30","162874","0.0-12.0","SS1619739299290","math_question","","","","","","","","","","","","{""Q0"":""5""}","[0]","5","",""
"","null","html-keyboard-response","31","164109","0.0-13.0-0.0","SS1619739299290","","","null","","","","","","<p><img src= images/blank.png width =""600"" height = ""600"" style=""position:fixed;top:50%; left:50%; transform: translate(-50%, -50%); border:5px solid black"">","","","","","","","",""
"","2224.6749999467283","sequential-stimulus-presentation-old","32","166836","0.0-13.0-1.0","SS1619739299290","trial","","40","500","2724.6749999467283","images/stimuli/spore_stims/simple_04_A_a.gif","images/stimuli/spore_stims/simple_20_A_b.gif","forced_short","","2","simple_dissimilar","images/stimuli/spore_stims/simple_20_A_b.gif","","","","",""
"","null","html-keyboard-response","33","167746","0.0-13.0-0.1","SS1619739299290","","","null","","","","","","<p><img src= images/blank.png width =""600"" height = ""600"" style=""position:fixed;top:50%; left:50%; transform: translate(-50%, -50%); border:5px solid black"">","","","","","","","",""
"","2885.9149999916553","sequential-stimulus-presentation-old","34","171138","0.0-13.0-1.1","SS1619739299290","trial","","40","500","3385.9149999916553","images/stimuli/spore_stims/simple_04_A_a.gif","images/stimuli/spore_stims/simple_20_A_b.gif","forced_short","","2","simple_dissimilar","images/stimuli/spore_stims/simple_20_A_b.gif","","","","",""
"","null","html-keyboard-response","35","172027","0.0-13.0-0.2","SS1619739299290","","","null","","","","","","<p><img src= images/blank.png width =""600"" height = ""600"" style=""position:fixed;top:50%; left:50%; transform: translate(-50%, -50%); border:5px solid black"">","","","","","","","",""
"","3306.555000017397","sequential-stimulus-presentation-old","36","175843","0.0-13.0-1.2","SS1619739299290","trial","","40","500","3806.555000017397","images/stimuli/spore_stims/simple_04_A_a.gif","images/stimuli/spore_stims/simple_20_A_b.gif","forced_short","","2","simple_dissimilar","images/stimuli/spore_stims/simple_20_A_b.gif","","","","",""
"","null","html-keyboard-response","37","176987","0.0-13.0-0.3","SS1619739299290","","","null","","","","","","<p><img src= images/blank.png width =""600"" height = ""600"" style=""position:fixed;top:50%; left:50%; transform: translate(-50%, -50%); border:5px solid black"">","","","","","","","",""
"","1400.7249999558553","sequential-stimulus-presentation-old","38","178898","0.0-13.0-1.3","SS1619739299290","trial","","40","500","1900.7249999558553","images/stimuli/spore_stims/simple_04_A_a.gif","images/stimuli/spore_stims/simple_20_A_b.gif","forced_short","","2","simple_dissimilar","images/stimuli/spore_stims/simple_20_A_b.gif","","","","",""
"","null","html-keyboard-response","39","179731","0.0-13.0-0.4","SS1619739299290","","","null","","","","","","<p><img src= images/blank.png width =""600"" height = ""600"" style=""position:fixed;top:50%; left:50%; transform: translate(-50%, -50%); border:5px solid black"">","","","","","","","",""
"","2275.7500000298023","sequential-stimulus-presentation-old","40","182515","0.0-13.0-1.4","SS1619739299290","trial","","40","500","2775.7500000298023","images/stimuli/spore_stims/simple_04_A_a.gif","images/stimuli/spore_stims/simple_20_A_b.gif","forced_short","","2","simple_dissimilar","images/stimuli/spore_stims/simple_20_A_b.gif","","","","",""
"","null","html-keyboard-response","41","183516","0.0-13.0-0.5","SS1619739299290","","","null","","","","","","<p><img src= images/blank.png width =""600"" height = ""600"" style=""position:fixed;top:50%; left:50%; transform: translate(-50%, -50%); border:5px solid black"">","","","","","","","",""
"","3088.0200000246987","sequential-stimulus-presentation-old","42","187116","0.0-13.0-1.5","SS1619739299290","trial","","40","500","3588.0200000246987","images/stimuli/spore_stims/simple_04_A_a.gif","images/stimuli/spore_stims/simple_20_A_b.gif","forced_short","","2","simple_dissimilar","images/stimuli/spore_stims/simple_04_A_a.gif","","","","",""
"","4147.92999997735","survey-multi-choice","43","191266","0.0-14.0","SS1619739299290","math_question","","","","","","","","","","","","{""Q0"":""8""}","[0]","8","",""
"","null","html-keyboard-response","44","192581","0.0-15.0-0.0","SS1619739299290","","","null","","","","","","<p><img src= images/blank.png width =""600"" height = ""600"" style=""position:fixed;top:50%; left:50%; transform: translate(-50%, -50%); border:5px solid black"">","","","","","","","",""
"","3171.775000053458","sequential-stimulus-presentation-old","45","196258","0.0-15.0-1.0","SS1619739299290","trial","","40","500","3671.775000053458","images/stimuli/spore_stims/simple_20_A_a.gif","images/stimuli/spore_stims/simple_15_A_b.gif","self_paced","","3","simple_dissimilar","images/stimuli/spore_stims/simple_15_A_b.gif","","","","",""
"","null","html-keyboard-response","46","197289","0.0-15.0-0.1","SS1619739299290","","","null","","","","","","<p><img src= images/blank.png width =""600"" height = ""600"" style=""position:fixed;top:50%; left:50%; transform: translate(-50%, -50%); border:5px solid black"">","","","","","","","",""
"","860.2449999889359","sequential-stimulus-presentation-old","47","198652","0.0-15.0-1.1","SS1619739299290","trial","","40","500","1360.244999988936","images/stimuli/spore_stims/simple_20_A_a.gif","images/stimuli/spore_stims/simple_15_A_b.gif","self_paced","","3","simple_dissimilar","images/stimuli/spore_stims/simple_15_A_b.gif","","","","",""
"","null","html-keyboard-response","48","199652","0.0-15.0-0.2","SS1619739299290","","","null","","","","","","<p><img src= images/blank.png width =""600"" height = ""600"" style=""position:fixed;top:50%; left:50%; transform: translate(-50%, -50%); border:5px solid black"">","","","","","","","",""
"","1791.3450000341982","sequential-stimulus-presentation-old","49","201948","0.0-15.0-1.2","SS1619739299290","trial","","40","500","2291.345000034198","images/stimuli/spore_stims/simple_20_A_a.gif","images/stimuli/spore_stims/simple_15_A_b.gif","self_paced","","3","simple_dissimilar","images/stimuli/spore_stims/simple_15_A_b.gif","","","","",""
"","null","html-keyboard-response","50","202768","0.0-15.0-0.3","SS1619739299290","","","null","","","","","","<p><img src= images/blank.png width =""600"" height = ""600"" style=""position:fixed;top:50%; left:50%; transform: translate(-50%, -50%); border:5px solid black"">","","","","","","","",""
"","2838.050000020303","sequential-stimulus-presentation-old","51","206108","0.0-15.0-1.3","SS1619739299290","trial","","40","500","3338.050000020303","images/stimuli/spore_stims/simple_20_A_a.gif","images/stimuli/spore_stims/simple_15_A_b.gif","self_paced","","3","simple_dissimilar","images/stimuli/spore_stims/simple_15_A_b.gif","","","","",""
"","null","html-keyboard-response","52","207318","0.0-15.0-0.4","SS1619739299290","","","null","","","","","","<p><img src= images/blank.png width =""600"" height = ""600"" style=""position:fixed;top:50%; left:50%; transform: translate(-50%, -50%); border:5px solid black"">","","","","","","","",""
"","2997.5749999284744","sequential-stimulus-presentation-old","53","210827","0.0-15.0-1.4","SS1619739299290","trial","","40","500","3497.5749999284744","images/stimuli/spore_stims/simple_20_A_a.gif","images/stimuli/spore_stims/simple_15_A_b.gif","self_paced","","3","simple_dissimilar","images/stimuli/spore_stims/simple_20_A_a.gif","","","","",""
"","4582.710000104271","survey-multi-choice","54","215411","0.0-16.0","SS1619739299290","math_question","","","","","","","","","","","","{""Q0"":""10""}","[0]","10","",""
"","null","html-keyboard-response","55","216537","0.0-17.0-0.0","SS1619739299290","","","null","","","","","","<p><img src= images/blank.png width =""600"" height = ""600"" style=""position:fixed;top:50%; left:50%; transform: translate(-50%, -50%); border:5px solid black"">","","","","","","","",""
"","2051.3300000457093","sequential-stimulus-presentation-old","56","233595","0.0-17.0-1.0","SS1619739299290","trial","","40","500","2551.3300000457093","images/stimuli/spore_stims/complex_08_A_b.gif","images/stimuli/spore_stims/complex_20_A_a.gif","forced_long","","4","complex_dissimilar","images/stimuli/spore_stims/complex_20_A_a.gif","","","","",""
"","null","html-keyboard-response","57","234468","0.0-17.0-0.1","SS1619739299290","","","null","","","","","","<p><img src= images/blank.png width =""600"" height = ""600"" style=""position:fixed;top:50%; left:50%; transform: translate(-50%, -50%); border:5px solid black"">","","","","","","","",""
"","2901.1650000466034","sequential-stimulus-presentation-old","58","237877","0.0-17.0-1.1","SS1619739299290","trial","","40","500","3401.1650000466034","images/stimuli/spore_stims/complex_08_A_b.gif","images/stimuli/spore_stims/complex_20_A_a.gif","forced_long","","4","complex_dissimilar","images/stimuli/spore_stims/complex_08_A_b.gif","","","","",""
"","null","html-keyboard-response","59","238717","0.0-17.0-0.2","SS1619739299290","","","null","","","","","","<p><img src= images/blank.png width =""600"" height = ""600"" style=""position:fixed;top:50%; left:50%; transform: translate(-50%, -50%); border:5px solid black"">","","","","","","","",""
"","3811.0950000118464","sequential-stimulus-presentation-old","60","243037","0.0-17.0-1.2","SS1619739299290","trial","","40","500","4311.095000011846","images/stimuli/spore_stims/complex_08_A_b.gif","images/stimuli/spore_stims/complex_20_A_a.gif","forced_long","","4","complex_dissimilar","images/stimuli/spore_stims/complex_20_A_a.gif","","","","",""
"","null","html-keyboard-response","61","243949","0.0-17.0-0.3","SS1619739299290","","","null","","","","","","<p><img src= images/blank.png width =""600"" height = ""600"" style=""position:fixed;top:50%; left:50%; transform: translate(-50%, -50%); border:5px solid black"">","","","","","","","",""
"","3435.300000011921","sequential-stimulus-presentation-old","62","247891","0.0-17.0-1.3","SS1619739299290","trial","","40","500","3935.300000011921","images/stimuli/spore_stims/complex_08_A_b.gif","images/stimuli/spore_stims/complex_20_A_a.gif","forced_long","","4","complex_dissimilar","images/stimuli/spore_stims/complex_08_A_b.gif","","","","",""
"","null","html-keyboard-response","63","249045","0.0-17.0-0.4","SS1619739299290","","","null","","","","","","<p><img src= images/blank.png width =""600"" height = ""600"" style=""position:fixed;top:50%; left:50%; transform: translate(-50%, -50%); border:5px solid black"">","","","","","","","",""
"","2966.0900000017136","sequential-stimulus-presentation-old","64","252517","0.0-17.0-1.4","SS1619739299290","trial","","40","500","3466.0900000017136","images/stimuli/spore_stims/complex_08_A_b.gif","images/stimuli/spore_stims/complex_20_A_a.gif","forced_long","","4","complex_dissimilar","images/stimuli/spore_stims/complex_20_A_a.gif","","","","",""
"","null","html-keyboard-response","65","253583","0.0-17.0-0.5","SS1619739299290","","","null","","","","","","<p><img src= images/blank.png width =""600"" height = ""600"" style=""position:fixed;top:50%; left:50%; transform: translate(-50%, -50%); border:5px solid black"">","","","","","","","",""
"","1784.7549999132752","sequential-stimulus-presentation-old","66","255876","0.0-17.0-1.5","SS1619739299290","trial","","40","500","2284.7549999132752","images/stimuli/spore_stims/complex_08_A_b.gif","images/stimuli/spore_stims/complex_20_A_a.gif","forced_long","","4","complex_dissimilar","images/stimuli/spore_stims/complex_20_A_a.gif","","","","",""
"","4341.899999999441","survey-multi-choice","67","260219","0.0-18.0","SS1619739299290","math_question","","","","","","","","","","","","{""Q0"":""10""}","[0]","10","",""
"","null","html-keyboard-response","68","261242","0.0-19.0-0.0","SS1619739299290","","","null","","","","","","<p><img src= images/blank.png width =""600"" height = ""600"" style=""position:fixed;top:50%; left:50%; transform: translate(-50%, -50%); border:5px solid black"">","","","","","","","",""
"","423.4999999171123","sequential-stimulus-presentation-old","69","276668","0.0-19.0-1.0","SS1619739299290","trial","","40","500","923.4999999171123","images/stimuli/spore_stims/simple_09_A_a.gif","images/stimuli/spore_stims/simple_05_A_b.gif","forced_long","","5","simple_dissimilar","images/stimuli/spore_stims/simple_05_A_b.gif","","","","",""
"","null","html-keyboard-response","70","277671","0.0-19.0-0.1","SS1619739299290","","","null","","","","","","<p><img src= images/blank.png width =""600"" height = ""600"" style=""position:fixed;top:50%; left:50%; transform: translate(-50%, -50%); border:5px solid black"">","","","","","","","",""
"","814.9849999463186","sequential-stimulus-presentation-old","71","278988","0.0-19.0-1.1","SS1619739299290","trial","","40","500","1314.9849999463186","images/stimuli/spore_stims/simple_09_A_a.gif","images/stimuli/spore_stims/simple_05_A_b.gif","forced_long","","5","simple_dissimilar","images/stimuli/spore_stims/simple_05_A_b.gif","","","","",""
"","null","html-keyboard-response","72","280177","0.0-19.0-0.2","SS1619739299290","","","null","","","","","","<p><img src= images/blank.png width =""600"" height = ""600"" style=""position:fixed;top:50%; left:50%; transform: translate(-50%, -50%); border:5px solid black"">","","","","","","","",""
"","2166.8399999616668","sequential-stimulus-presentation-old","73","282852","0.0-19.0-1.2","SS1619739299290","trial","","40","500","2666.8399999616668","images/stimuli/spore_stims/simple_09_A_a.gif","images/stimuli/spore_stims/simple_05_A_b.gif","forced_long","","5","simple_dissimilar","images/stimuli/spore_stims/simple_05_A_b.gif","","","","",""
"","null","html-keyboard-response","74","283773","0.0-19.0-0.3","SS1619739299290","","","null","","","","","","<p><img src= images/blank.png width =""600"" height = ""600"" style=""position:fixed;top:50%; left:50%; transform: translate(-50%, -50%); border:5px solid black"">","","","","","","","",""
"","1735.9299999661744","sequential-stimulus-presentation-old","75","286021","0.0-19.0-1.3","SS1619739299290","trial","","40","500","2235.9299999661744","images/stimuli/spore_stims/simple_09_A_a.gif","images/stimuli/spore_stims/simple_05_A_b.gif","forced_long","","5","simple_dissimilar","images/stimuli/spore_stims/simple_05_A_b.gif","","","","",""
"","4322.180000017397","survey-multi-choice","76","290347","0.0-20.0","SS1619739299290","math_question","","","","","","","","","","","","{""Q0"":""18""}","[0]","18","",""
"","null","html-keyboard-response","77","291181","0.0-21.0-0.0","SS1619739299290","","","null","","","","","","<p><img src= images/blank.png width =""600"" height = ""600"" style=""position:fixed;top:50%; left:50%; transform: translate(-50%, -50%); border:5px solid black"">","","","","","","","",""
"","2921.2700000498444","sequential-stimulus-presentation-old","78","294604","0.0-21.0-1.0","SS1619739299290","trial","","40","500","3421.2700000498444","images/stimuli/spore_stims/simple_01_A_a.gif","images/stimuli/spore_stims/simple_04_A_b.gif","self_paced","","6","simple_dissimilar","images/stimuli/spore_stims/simple_04_A_b.gif","","","","",""
"","null","html-keyboard-response","79","295905","0.0-21.0-0.1","SS1619739299290","","","null","","","","","","<p><img src= images/blank.png width =""600"" height = ""600"" style=""position:fixed;top:50%; left:50%; transform: translate(-50%, -50%); border:5px solid black"">","","","","","","","",""
"","2943.9450000645593","sequential-stimulus-presentation-old","80","299356","0.0-21.0-1.1","SS1619739299290","trial","","40","500","3443.9450000645593","images/stimuli/spore_stims/simple_01_A_a.gif","images/stimuli/spore_stims/simple_04_A_b.gif","self_paced","","6","simple_dissimilar","images/stimuli/spore_stims/simple_04_A_b.gif","","","","",""
"","null","html-keyboard-response","81","300252","0.0-21.0-0.2","SS1619739299290","","","null","","","","","","<p><img src= images/blank.png width =""600"" height = ""600"" style=""position:fixed;top:50%; left:50%; transform: translate(-50%, -50%); border:5px solid black"">","","","","","","","",""
"","638.4900000412017","sequential-stimulus-presentation-old","82","301396","0.0-21.0-1.2","SS1619739299290","trial","","40","500","1138.4900000412017","images/stimuli/spore_stims/simple_01_A_a.gif","images/stimuli/spore_stims/simple_04_A_b.gif","self_paced","","6","simple_dissimilar","images/stimuli/spore_stims/simple_04_A_b.gif","","","","",""
"","null","html-keyboard-response","83","302537","0.0-21.0-0.3","SS1619739299290","","","null","","","","","","<p><img src= images/blank.png width =""600"" height = ""600"" style=""position:fixed;top:50%; left:50%; transform: translate(-50%, -50%); border:5px solid black"">","","","","","","","",""
"","1427.3300000932068","sequential-stimulus-presentation-old","84","304477","0.0-21.0-1.3","SS1619739299290","trial","","40","500","1927.3300000932068","images/stimuli/spore_stims/simple_01_A_a.gif","images/stimuli/spore_stims/simple_04_A_b.gif","self_paced","","6","simple_dissimilar","images/stimuli/spore_stims/simple_04_A_b.gif","","","","",""
"","2620.6200000597164","survey-multi-choice","85","307099","0.0-22.0","SS1619739299290","math_question","","","","","","","","","","","","{""Q0"":""10""}","[0]","10","",""
"","null","html-keyboard-response","86","307961","0.0-23.0-0.0","SS1619739299290","","","null","","","","","","<p><img src= images/blank.png width =""600"" height = ""600"" style=""position:fixed;top:50%; left:50%; transform: translate(-50%, -50%); border:5px solid black"">","","","","","","","",""
"","2568.3699999935925","sequential-stimulus-presentation-old","87","311037","0.0-23.0-1.0","SS1619739299290","trial","","40","500","3068.3699999935925","images/stimuli/spore_stims/complex_07_A_b.gif","images/stimuli/spore_stims/complex_19_A_a.gif","self_paced","","7","complex_dissimilar","images/stimuli/spore_stims/complex_19_A_a.gif","","","","",""
"","null","html-keyboard-response","88","312224","0.0-23.0-0.1","SS1619739299290","","","null","","","","","","<p><img src= images/blank.png width =""600"" height = ""600"" style=""position:fixed;top:50%; left:50%; transform: translate(-50%, -50%); border:5px solid black"">","","","","","","","",""
"","2901.7199999652803","sequential-stimulus-presentation-old","89","315636","0.0-23.0-1.1","SS1619739299290","trial","","40","500","3401.7199999652803","images/stimuli/spore_stims/complex_07_A_b.gif","images/stimuli/spore_stims/complex_19_A_a.gif","self_paced","","7","complex_dissimilar","images/stimuli/spore_stims/complex_07_A_b.gif","","","","",""
"","null","html-keyboard-response","90","316638","0.0-23.0-0.2","SS1619739299290","","","null","","","","","","<p><img src= images/blank.png width =""600"" height = ""600"" style=""position:fixed;top:50%; left:50%; transform: translate(-50%, -50%); border:5px solid black"">","","","","","","","",""
"","2706.054999958724","sequential-stimulus-presentation-old","91","319852","0.0-23.0-1.2","SS1619739299290","trial","","40","500","3206.054999958724","images/stimuli/spore_stims/complex_07_A_b.gif","images/stimuli/spore_stims/complex_19_A_a.gif","self_paced","","7","complex_dissimilar","images/stimuli/spore_stims/complex_19_A_a.gif","","","","",""
"","null","html-keyboard-response","92","320705","0.0-23.0-0.3","SS1619739299290","","","null","","","","","","<p><img src= images/blank.png width =""600"" height = ""600"" style=""position:fixed;top:50%; left:50%; transform: translate(-50%, -50%); border:5px solid black"">","","","","","","","",""
"","2372.510000015609","sequential-stimulus-presentation-old","93","323580","0.0-23.0-1.3","SS1619739299290","trial","","40","500","2872.510000015609","images/stimuli/spore_stims/complex_07_A_b.gif","images/stimuli/spore_stims/complex_19_A_a.gif","self_paced","","7","complex_dissimilar","images/stimuli/spore_stims/complex_07_A_b.gif","","","","",""
"","3756.995000061579","survey-multi-choice","94","327339","0.0-24.0","SS1619739299290","math_question","","","","","","","","","","","","{""Q0"":""7""}","[0]","7","",""
"","null","html-keyboard-response","95","328544","0.0-25.0-0.0","SS1619739299290","","","null","","","","","","<p><img src= images/blank.png width =""600"" height = ""600"" style=""position:fixed;top:50%; left:50%; transform: translate(-50%, -50%); border:5px solid black"">","","","","","","","",""
"","5307.705000042915","sequential-stimulus-presentation-old","96","348860","0.0-25.0-1.0","SS1619739299290","trial","","40","500","5807.705000042915","images/stimuli/spore_stims/simple_13_A_a.gif","images/stimuli/spore_stims/simple_02_A_b.gif","forced_long","","8","simple_dissimilar","images/stimuli/spore_stims/simple_02_A_b.gif","","","","",""
"","null","html-keyboard-response","97","350142","0.0-25.0-0.1","SS1619739299290","","","null","","","","","","<p><img src= images/blank.png width =""600"" height = ""600"" style=""position:fixed;top:50%; left:50%; transform: translate(-50%, -50%); border:5px solid black"">","","","","","","","",""
"","411.96499997749925","sequential-stimulus-presentation-old","98","351060","0.0-25.0-1.1","SS1619739299290","trial","","40","500","911.9649999774992","images/stimuli/spore_stims/simple_13_A_a.gif","images/stimuli/spore_stims/simple_02_A_b.gif","forced_long","","8","simple_dissimilar","images/stimuli/spore_stims/simple_02_A_b.gif","","","","",""
"","null","html-keyboard-response","99","352198","0.0-25.0-0.2","SS1619739299290","","","null","","","","","","<p><img src= images/blank.png width =""600"" height = ""600"" style=""position:fixed;top:50%; left:50%; transform: translate(-50%, -50%); border:5px solid black"">","","","","","","","",""
"","451.7099999357015","sequential-stimulus-presentation-old","100","353156","0.0-25.0-1.2","SS1619739299290","trial","","40","500","951.7099999357015","images/stimuli/spore_stims/simple_13_A_a.gif","images/stimuli/spore_stims/simple_02_A_b.gif","forced_long","","8","simple_dissimilar","images/stimuli/spore_stims/simple_02_A_b.gif","","","","",""
"","null","html-keyboard-response","101","354327","0.0-25.0-0.3","SS1619739299290","","","null","","","","","","<p><img src= images/blank.png width =""600"" height = ""600"" style=""position:fixed;top:50%; left:50%; transform: translate(-50%, -50%); border:5px solid black"">","","","","","","","",""
"","742.8549999604002","sequential-stimulus-presentation-old","102","355573","0.0-25.0-1.3","SS1619739299290","trial","","40","500","1242.8549999604002","images/stimuli/spore_stims/simple_13_A_a.gif","images/stimuli/spore_stims/simple_02_A_b.gif","forced_long","","8","simple_dissimilar","images/stimuli/spore_stims/simple_02_A_b.gif","","","","",""
"","null","html-keyboard-response","103","356754","0.0-25.0-0.4","SS1619739299290","","","null","","","","","","<p><img src= images/blank.png width =""600"" height = ""600"" style=""position:fixed;top:50%; left:50%; transform: translate(-50%, -50%); border:5px solid black"">","","","","","","","",""
"","146.5200000675395","sequential-stimulus-presentation-old","104","357411","0.0-25.0-1.4","SS1619739299290","trial","","40","500","646.5200000675395","images/stimuli/spore_stims/simple_13_A_a.gif","images/stimuli/spore_stims/simple_02_A_b.gif","forced_long","","8","simple_dissimilar","images/stimuli/spore_stims/simple_02_A_b.gif","","","","",""
"","null","html-keyboard-response","105","358703","0.0-25.0-0.5","SS1619739299290","","","null","","","","","","<p><img src= images/blank.png width =""600"" height = ""600"" style=""position:fixed;top:50%; left:50%; transform: translate(-50%, -50%); border:5px solid black"">","","","","","","","",""
"","2716.9299999950454","sequential-stimulus-presentation-old","106","361931","0.0-25.0-1.5","SS1619739299290","trial","","40","500","3216.9299999950454","images/stimuli/spore_stims/simple_13_A_a.gif","images/stimuli/spore_stims/simple_02_A_b.gif","forced_long","","8","simple_dissimilar","images/stimuli/spore_stims/simple_13_A_a.gif","","","","",""
"","2822.4949999712408","survey-multi-choice","107","364755","0.0-26.0","SS1619739299290","math_question","","","","","","","","","","","","{""Q0"":""6""}","[0]","6","",""
"","null","html-keyboard-response","108","365975","0.0-27.0-0.0","SS1619739299290","","","null","","","","","","<p><img src= images/blank.png width =""600"" height = ""600"" style=""position:fixed;top:50%; left:50%; transform: translate(-50%, -50%); border:5px solid black"">","","","","","","","",""
"","1252.4249999551103","sequential-stimulus-presentation-old","109","367740","0.0-27.0-1.0","SS1619739299290","trial","","40","500","1752.4249999551103","images/stimuli/spore_stims/simple_19_A_b.gif","images/stimuli/spore_stims/simple_07_A_a.gif","forced_short","","9","simple_dissimilar","images/stimuli/spore_stims/simple_07_A_a.gif","","","","",""
"","null","html-keyboard-response","110","368741","0.0-27.0-0.1","SS1619739299290","","","null","","","","","","<p><img src= images/blank.png width =""600"" height = ""600"" style=""position:fixed;top:50%; left:50%; transform: translate(-50%, -50%); border:5px solid black"">","","","","","","","",""
"","3140.639999997802","sequential-stimulus-presentation-old","111","372388","0.0-27.0-1.1","SS1619739299290","trial","","40","500","3640.639999997802","images/stimuli/spore_stims/simple_19_A_b.gif","images/stimuli/spore_stims/simple_07_A_a.gif","forced_short","","9","simple_dissimilar","images/stimuli/spore_stims/simple_19_A_b.gif","","","","",""
"","null","html-keyboard-response","112","373551","0.0-27.0-0.2","SS1619739299290","","","null","","","","","","<p><img src= images/blank.png width =""600"" height = ""600"" style=""position:fixed;top:50%; left:50%; transform: translate(-50%, -50%); border:5px solid black"">","","","","","","","",""
"","2855.280000017956","sequential-stimulus-presentation-old","113","376916","0.0-27.0-1.2","SS1619739299290","trial","","40","500","3355.280000017956","images/stimuli/spore_stims/simple_19_A_b.gif","images/stimuli/spore_stims/simple_07_A_a.gif","forced_short","","9","simple_dissimilar","images/stimuli/spore_stims/simple_07_A_a.gif","","","","",""
"","null","html-keyboard-response","114","378157","0.0-27.0-0.3","SS1619739299290","","","null","","","","","","<p><img src= images/blank.png width =""600"" height = ""600"" style=""position:fixed;top:50%; left:50%; transform: translate(-50%, -50%); border:5px solid black"">","","","","","","","",""
"","1381.5049999393523","sequential-stimulus-presentation-old","115","380044","0.0-27.0-1.3","SS1619739299290","trial","","40","500","1881.5049999393523","images/stimuli/spore_stims/simple_19_A_b.gif","images/stimuli/spore_stims/simple_07_A_a.gif","forced_short","","9","simple_dissimilar","images/stimuli/spore_stims/simple_07_A_a.gif","","","","",""
"","null","html-keyboard-response","116","381185","0.0-27.0-0.4","SS1619739299290","","","null","","","","","","<p><img src= images/blank.png width =""600"" height = ""600"" style=""position:fixed;top:50%; left:50%; transform: translate(-50%, -50%); border:5px solid black"">","","","","","","","",""
"","2544.980000006035","sequential-stimulus-presentation-old","117","384237","0.0-27.0-1.4","SS1619739299290","trial","","40","500","3044.980000006035","images/stimuli/spore_stims/simple_19_A_b.gif","images/stimuli/spore_stims/simple_07_A_a.gif","forced_short","","9","simple_dissimilar","images/stimuli/spore_stims/simple_07_A_a.gif","","","","",""
"","null","html-keyboard-response","118","385496","0.0-27.0-0.5","SS1619739299290","","","null","","","","","","<p><img src= images/blank.png width =""600"" height = ""600"" style=""position:fixed;top:50%; left:50%; transform: translate(-50%, -50%); border:5px solid black"">","","","","","","","",""
"","1284.4500000355765","sequential-stimulus-presentation-old","119","387291","0.0-27.0-1.5","SS1619739299290","trial","","40","500","1784.4500000355765","images/stimuli/spore_stims/simple_19_A_b.gif","images/stimuli/spore_stims/simple_07_A_a.gif","forced_short","","9","simple_dissimilar","images/stimuli/spore_stims/simple_07_A_a.gif","","","","",""
"","8766.35500008706","survey-multi-choice","120","396059","0.0-28.0","SS1619739299290","math_question","","","","","","","","","","","","{""Q0"":""5""}","[0]","5","",""
"","null","html-keyboard-response","121","397362","0.0-29.0-0.0","SS1619739299290","","","null","","","","","","<p><img src= images/blank.png width =""600"" height = ""600"" style=""position:fixed;top:50%; left:50%; transform: translate(-50%, -50%); border:5px solid black"">","","","","","","","",""
"","1612.0149999624118","sequential-stimulus-presentation-old","122","399484","0.0-29.0-1.0","SS1619739299290","trial","","40","500","2112.014999962412","images/stimuli/spore_stims/complex_12_A_a.gif","images/stimuli/spore_stims/complex_11_A_b.gif","forced_short","","10","complex_dissimilar","images/stimuli/spore_stims/complex_11_A_b.gif","","","","",""
"","null","html-keyboard-response","123","400305","0.0-29.0-0.1","SS1619739299290","","","null","","","","","","<p><img src= images/blank.png width =""600"" height = ""600"" style=""position:fixed;top:50%; left:50%; transform: translate(-50%, -50%); border:5px solid black"">","","","","","","","",""
"","4865.185000002384","sequential-stimulus-presentation-old","124","405677","0.0-29.0-1.1","SS1619739299290","trial","","40","500","5365.185000002384","images/stimuli/spore_stims/complex_12_A_a.gif","images/stimuli/spore_stims/complex_11_A_b.gif","forced_short","","10","complex_dissimilar","images/stimuli/spore_stims/complex_11_A_b.gif","","","","",""
"","null","html-keyboard-response","125","406662","0.0-29.0-0.2","SS1619739299290","","","null","","","","","","<p><img src= images/blank.png width =""600"" height = ""600"" style=""position:fixed;top:50%; left:50%; transform: translate(-50%, -50%); border:5px solid black"">","","","","","","","",""
"","1362.8800000296906","sequential-stimulus-presentation-old","126","408532","0.0-29.0-1.2","SS1619739299290","trial","","40","500","1862.8800000296906","images/stimuli/spore_stims/complex_12_A_a.gif","images/stimuli/spore_stims/complex_11_A_b.gif","forced_short","","10","complex_dissimilar","images/stimuli/spore_stims/complex_11_A_b.gif","","","","",""
"","null","html-keyboard-response","127","409690","0.0-29.0-0.3","SS1619739299290","","","null","","","","","","<p><img src= images/blank.png width =""600"" height = ""600"" style=""position:fixed;top:50%; left:50%; transform: translate(-50%, -50%); border:5px solid black"">","","","","","","","",""
"","2263.0499999504536","sequential-stimulus-presentation-old","128","412460","0.0-29.0-1.3","SS1619739299290","trial","","40","500","2763.0499999504536","images/stimuli/spore_stims/complex_12_A_a.gif","images/stimuli/spore_stims/complex_11_A_b.gif","forced_short","","10","complex_dissimilar","images/stimuli/spore_stims/complex_11_A_b.gif","","","","",""
"","null","html-keyboard-response","129","413342","0.0-29.0-0.4","SS1619739299290","","","null","","","","","","<p><img src= images/blank.png width =""600"" height = ""600"" style=""position:fixed;top:50%; left:50%; transform: translate(-50%, -50%); border:5px solid black"">","","","","","","","",""
"","3711.394999991171","sequential-stimulus-presentation-old","130","417565","0.0-29.0-1.4","SS1619739299290","trial","","40","500","4211.394999991171","images/stimuli/spore_stims/complex_12_A_a.gif","images/stimuli/spore_stims/complex_11_A_b.gif","forced_short","","10","complex_dissimilar","images/stimuli/spore_stims/complex_12_A_a.gif","","","","",""
"","null","html-keyboard-response","131","418666","0.0-29.0-0.5","SS1619739299290","","","null","","","","","","<p><img src= images/blank.png width =""600"" height = ""600"" style=""position:fixed;top:50%; left:50%; transform: translate(-50%, -50%); border:5px solid black"">","","","","","","","",""
"","1719.9449999025092","sequential-stimulus-presentation-old","132","420892","0.0-29.0-1.5","SS1619739299290","trial","","40","500","2219.944999902509","images/stimuli/spore_stims/complex_12_A_a.gif","images/stimuli/spore_stims/complex_11_A_b.gif","forced_short","","10","complex_dissimilar","images/stimuli/spore_stims/complex_11_A_b.gif","","","","",""
"","2241.3500000257045","survey-multi-choice","133","423139","0.0-30.0","SS1619739299290","math_question","","","","","","","","","","","","{""Q0"":""5""}","[0]","5","",""
"","null","html-keyboard-response","134","424059","0.0-31.0-0.0","SS1619739299290","","","null","","","","","","<p><img src= images/blank.png width =""600"" height = ""600"" style=""position:fixed;top:50%; left:50%; transform: translate(-50%, -50%); border:5px solid black"">","","","","","","","",""
"","1917.4199999542907","sequential-stimulus-presentation-old","135","426483","0.0-31.0-1.0","SS1619739299290","trial","","40","500","2417.4199999542907","images/stimuli/spore_stims/complex_16_A_b.gif","images/stimuli/spore_stims/complex_06_A_a.gif","self_paced","","11","complex_dissimilar","images/stimuli/spore_stims/complex_06_A_a.gif","","","","",""
"","null","html-keyboard-response","136","427676","0.0-31.0-0.1","SS1619739299290","","","null","","","","","","<p><img src= images/blank.png width =""600"" height = ""600"" style=""position:fixed;top:50%; left:50%; transform: translate(-50%, -50%); border:5px solid black"">","","","","","","","",""
"","1610.8249999815598","sequential-stimulus-presentation-old","137","429795","0.0-31.0-1.1","SS1619739299290","trial","","40","500","2110.82499998156","images/stimuli/spore_stims/complex_16_A_b.gif","images/stimuli/spore_stims/complex_06_A_a.gif","self_paced","","11","complex_dissimilar","images/stimuli/spore_stims/complex_06_A_a.gif","","","","",""
"","null","html-keyboard-response","138","431099","0.0-31.0-0.2","SS1619739299290","","","null","","","","","","<p><img src= images/blank.png width =""600"" height = ""600"" style=""position:fixed;top:50%; left:50%; transform: translate(-50%, -50%); border:5px solid black"">","","","","","","","",""
"","1188.1299999076873","sequential-stimulus-presentation-old","139","432803","0.0-31.0-1.2","SS1619739299290","trial","","40","500","1688.1299999076873","images/stimuli/spore_stims/complex_16_A_b.gif","images/stimuli/spore_stims/complex_06_A_a.gif","self_paced","","11","complex_dissimilar","images/stimuli/spore_stims/complex_06_A_a.gif","","","","",""
"","null","html-keyboard-response","140","433923","0.0-31.0-0.3","SS1619739299290","","","null","","","","","","<p><img src= images/blank.png width =""600"" height = ""600"" style=""position:fixed;top:50%; left:50%; transform: translate(-50%, -50%); border:5px solid black"">","","","","","","","",""
"","1066.7750000720844","sequential-stimulus-presentation-old","141","435492","0.0-31.0-1.3","SS1619739299290","trial","","40","500","1566.7750000720844","images/stimuli/spore_stims/complex_16_A_b.gif","images/stimuli/spore_stims/complex_06_A_a.gif","self_paced","","11","complex_dissimilar","images/stimuli/spore_stims/complex_06_A_a.gif","","","","",""
"","null","html-keyboard-response","142","436505","0.0-31.0-0.4","SS1619739299290","","","null","","","","","","<p><img src= images/blank.png width =""600"" height = ""600"" style=""position:fixed;top:50%; left:50%; transform: translate(-50%, -50%); border:5px solid black"">","","","","","","","",""
"","577.6799999875948","sequential-stimulus-presentation-old","143","437588","0.0-31.0-1.4","SS1619739299290","trial","","40","500","1077.6799999875948","images/stimuli/spore_stims/complex_16_A_b.gif","images/stimuli/spore_stims/complex_06_A_a.gif","self_paced","","11","complex_dissimilar","images/stimuli/spore_stims/complex_06_A_a.gif","","","","",""
"","null","html-keyboard-response","144","438880","0.0-31.0-0.5","SS1619739299290","","","null","","","","","","<p><img src= images/blank.png width =""600"" height = ""600"" style=""position:fixed;top:50%; left:50%; transform: translate(-50%, -50%); border:5px solid black"">","","","","","","","",""
"","1418.6650000046939","sequential-stimulus-presentation-old","145","440813","0.0-31.0-1.5","SS1619739299290","trial","","40","500","1918.6650000046939","images/stimuli/spore_stims/complex_16_A_b.gif","images/stimuli/spore_stims/complex_06_A_a.gif","self_paced","","11","complex_dissimilar","images/stimuli/spore_stims/complex_06_A_a.gif","","","","",""
"[{""page_index"":0,""viewing_time"":3692.2649999614805}]","3692.4299999373034","instructions","146","444507","0.0-32.0","SS1619739299290","instructions","","","","","","","","","","","","","","","",""
"","5517.285000067204","survey-likert","147","450027","0.0-33.0","SS1619739299290","similarity_question","","","","","","","","","","","","{""Q0"":5}","[0]","","images/stimuli/spore_stims/simple_02_A_b.gif","images/stimuli/spore_stims/simple_13_A_a.gif"
"","3483.5149999707937","survey-likert","148","453515","0.0-34.0","SS1619739299290","similarity_question","","","","","","","","","","","","{""Q0"":2}","[0]","","images/stimuli/spore_stims/complex_12_A_a.gif","images/stimuli/spore_stims/complex_11_A_b.gif"
"","3731.529999990016","survey-likert","149","457251","0.0-35.0","SS1619739299290","similarity_question","","","","","","","","","","","","{""Q0"":5}","[0]","","images/stimuli/spore_stims/simple_20_A_a.gif","images/stimuli/spore_stims/simple_15_A_b.gif"
"","4066.865000058897","survey-likert","150","461323","0.0-36.0","SS1619739299290","similarity_question","","","","","","","","","","","","{""Q0"":4}","[0]","","images/stimuli/spore_stims/simple_09_A_a.gif","images/stimuli/spore_stims/simple_05_A_b.gif"
"","3746.9200000632554","survey-likert","151","465075","0.0-37.0","SS1619739299290","similarity_question","","","","","","","","","","","","{""Q0"":4}","[0]","","images/stimuli/spore_stims/complex_20_A_a.gif","images/stimuli/spore_stims/complex_08_A_b.gif"
"","5515.55000001099","survey-likert","152","470596","0.0-38.0","SS1619739299290","similarity_question","","","","","","","","","","","","{""Q0"":2}","[0]","","images/stimuli/spore_stims/complex_06_A_a.gif","images/stimuli/spore_stims/complex_16_A_b.gif"
"","2651.700000045821","survey-likert","153","473251","0.0-39.0","SS1619739299290","similarity_question","","","","","","","","","","","","{""Q0"":5}","[0]","","images/stimuli/spore_stims/simple_01_A_a.gif","images/stimuli/spore_stims/simple_04_A_b.gif"
"","4082.9299999168143","survey-likert","154","477339","0.0-40.0","SS1619739299290","similarity_question","","","","","","","","","","","","{""Q0"":1}","[0]","","images/stimuli/spore_stims/simple_19_A_b.gif","images/stimuli/spore_stims/simple_07_A_a.gif"
"","2747.6000000024214","survey-likert","155","480091","0.0-41.0","SS1619739299290","similarity_question","","","","","","","","","","","","{""Q0"":6}","[0]","","images/stimuli/spore_stims/simple_04_A_a.gif","images/stimuli/spore_stims/simple_20_A_b.gif"
"","3243.1150000775233","survey-likert","156","483339","0.0-42.0","SS1619739299290","similarity_question","","","","","","","","","","","","{""Q0"":0}","[0]","","images/stimuli/spore_stims/complex_07_A_b.gif","images/stimuli/spore_stims/complex_19_A_a.gif"
"","5594.994999933988","survey-likert","157","488939","0.0-43.0","SS1619739299290","similarity_question","","","","","","","","","","","","{""Q0"":0}","[0]","","images/stimuli/spore_stims/complex_11_A_a.gif","images/stimuli/spore_stims/complex_01_A_b.gif"
"","5122.745000058785","survey-likert","158","494067","0.0-44.0","SS1619739299290","similarity_question","","","","","","","","","","","","{""Q0"":2}","[0]","","images/stimuli/spore_stims/complex_17_A_b.gif","images/stimuli/spore_stims/complex_08_A_a.gif"
"[{""page_index"":0,""viewing_time"":3515.045000007376}]","3515.2000000234693","instructions","159","497586","0.0-45.0","SS1619739299290","instructions","","","","","","","","","","","","","","","",""
"","3805.874999961816","survey-likert","160","501395","0.0-46.0","SS1619739299290","","","","","","","","","images/stimuli/spore_stims/simple_02_A_b.gif","","","","{""Q0"":0}","[0]","","",""
"","2090.8250000793487","survey-likert","161","503491","0.0-47.0","SS1619739299290","","","","","","","","","images/stimuli/spore_stims/simple_07_A_a.gif","","","","{""Q0"":1}","[0]","","",""
"","2946.8150000320747","survey-likert","162","506443","0.0-48.0","SS1619739299290","","","","","","","","","images/stimuli/spore_stims/complex_08_A_a.gif","","","","{""Q0"":5}","[0]","","",""
"","3115.9750000806525","survey-likert","163","509563","0.0-49.0","SS1619739299290","","","","","","","","","images/stimuli/spore_stims/simple_01_A_a.gif","","","","{""Q0"":1}","[0]","","",""
"","2394.704999984242","survey-likert","164","511963","0.0-50.0","SS1619739299290","","","","","","","","","images/stimuli/spore_stims/complex_06_A_a.gif","","","","{""Q0"":6}","[0]","","",""
"","2210.8200000366196","survey-likert","165","514179","0.0-51.0","SS1619739299290","","","","","","","","","images/stimuli/spore_stims/simple_15_A_b.gif","","","","{""Q0"":0}","[0]","","",""
"","2898.9849999779835","survey-likert","166","517083","0.0-52.0","SS1619739299290","","","","","","","","","images/stimuli/spore_stims/complex_01_A_b.gif","","","","{""Q0"":4}","[0]","","",""
"","2498.9000000059605","survey-likert","167","519587","0.0-53.0","SS1619739299290","","","","","","","","","images/stimuli/spore_stims/simple_05_A_b.gif","","","","{""Q0"":0}","[0]","","",""
"","7115.555000025779","survey-likert","168","526707","0.0-54.0","SS1619739299290","","","","","","","","","images/stimuli/spore_stims/complex_08_A_b.gif","","","","{""Q0"":5}","[0]","","",""
"","3642.8499999456108","survey-likert","169","530355","0.0-55.0","SS1619739299290","","","","","","","","","images/stimuli/spore_stims/simple_20_A_b.gif","","","","{""Q0"":2}","[0]","","",""
"","3531.8399999523535","survey-likert","170","533891","0.0-56.0","SS1619739299290","","","","","","","","","images/stimuli/spore_stims/complex_12_A_a.gif","","","","{""Q0"":6}","[0]","","",""
"","2970.6249999580905","survey-likert","171","536867","0.0-57.0","SS1619739299290","","","","","","","","","images/stimuli/spore_stims/complex_19_A_a.gif","","","","{""Q0"":4}","[0]","","",""
"[{""page_index"":0,""viewing_time"":1842.860000091605}]","1843.0100000696257","instructions","172","538715","0.0-58.0","SS1619739299290","instructions","","","","","","","","","","","","","","","",""
"","2340.1649999432266","demog-age","173","541059","0.0-59.0","SS1619739299290","","","","","","","","","","","","","{""age"":""21""}","","","",""
"","6116.445000050589","demog-ethnic-US","174","547179","0.0-60.0","SS1619739299290","","","","","","","","","","","","","{""ethnicity"":[""White""]}","[0]","","",""
"","10722.479999996722","demog-gender-and-education","175","557907","0.0-61.0","SS1619739299290","","","","","","","","","","","","","{""gender"":""Female"",""education"":""High school diploma""}","[0,1]","","",""
"","21857.795000076294","survey-text","176","579771","0.0-62.0","SS1619739299290","feedback","","","","","","","","","","","","{""Q0"":""No issues and no lag.""}","","","",""
"[{""page_index"":0,""viewing_time"":2181.129999924451}]","2181.2749999808148","instructions","177","581955","0.0-63.0","SS1619739299290","instructions","","","","","","","","","","","","","","","",""
