"view_history","rt","trial_type","trial_index","time_elapsed","internal_node_id","subject","stimulus_type","trial_stimulus","key_press","minimum_viewing_duration","trial_looking_time","block_deviant","block_background","exposure_type","stimulus","block_number","block_type","stimulus_displayed","responses","question_order","math_correct_answer","stimulus_left","stimulus_right"
"[{""page_index"":0,""viewing_time"":14439.299999998184}]","14440.445000000182","instructions","0","14442","0.0-0.0","SS1619739861779","","","","","","","","","","","","","","","","",""
"[{""page_index"":0,""viewing_time"":23797.954999994545},{""page_index"":1,""viewing_time"":8848.805000001448}]","32647.454999998445","instructions","1","49092","0.0-1.0","SS1619739861779","instructions","","","","","","","","","","","","","","","",""
"","11270.904999997583","sequential-stimulus-presentation-old","2","60869","0.0-2.0","SS1619739861779","","","40","500","11770.904999997583","null","null","self_paced","","","","","","","","",""
"","36436.115000004065","sequential-stimulus-presentation-old","3","97806","0.0-3.0","SS1619739861779","","","40","500","36936.115000004065","null","null","self_paced","","","","","","","","",""
"[{""page_index"":0,""viewing_time"":23913.82000000158}]","23914.205000000948","instructions","4","121722","0.0-4.0","SS1619739861779","instructions","","","","","","","","","","","","","","","",""
"","3074.354999997013","sequential-stimulus-presentation-old","5","140531","0.0-5.0","SS1619739861779","","","40","500","3574.354999997013","null","null","forced_long","","","","","","","","",""
"","9100.32499999943","sequential-stimulus-presentation-old","6","150134","0.0-6.0","SS1619739861779","","","40","500","9600.32499999943","null","null","forced_long","","","","","","","","",""
"[{""page_index"":0,""viewing_time"":6608.190000006289}]","6608.675000003132","instructions","7","156744","0.0-7.0","SS1619739861779","instructions","","","","","","","","","","","","","","","",""
"[{""page_index"":0,""viewing_time"":10831.239999999525},{""page_index"":1,""viewing_time"":15130.250000001979},{""page_index"":2,""viewing_time"":17270.064999996976},{""page_index"":3,""viewing_time"":8244.149999998626},{""page_index"":4,""viewing_time"":7686.815000000934}]","59163.195000001","instructions","8","215909","0.0-8.0","SS1619739861779","instructions","","","","","","","","","","","","","","","",""
"","null","html-keyboard-response","9","217156","0.0-9.0-0.0","SS1619739861779","","","null","","","","","","<p><img src= images/blank.png width =""600"" height = ""600"" style=""position:fixed;top:50%; left:50%; transform: translate(-50%, -50%); border:5px solid black"">","","","","","","","",""
"","6980.925000003481","sequential-stimulus-presentation-old","10","224643","0.0-9.0-1.0","SS1619739861779","trial","","40","500","7480.925000003481","images/stimuli/spore_stims/complex_05_A_a.gif","images/stimuli/spore_stims/complex_03_A_b.gif","forced_short","","0","complex_dissimilar","images/stimuli/spore_stims/complex_03_A_b.gif","","","","",""
"","null","html-keyboard-response","11","225876","0.0-9.0-0.1","SS1619739861779","","","null","","","","","","<p><img src= images/blank.png width =""600"" height = ""600"" style=""position:fixed;top:50%; left:50%; transform: translate(-50%, -50%); border:5px solid black"">","","","","","","","",""
"","5675.600000002305","sequential-stimulus-presentation-old","12","232057","0.0-9.0-1.1","SS1619739861779","trial","","40","500","6175.600000002305","images/stimuli/spore_stims/complex_05_A_a.gif","images/stimuli/spore_stims/complex_03_A_b.gif","forced_short","","0","complex_dissimilar","images/stimuli/spore_stims/complex_03_A_b.gif","","","","",""
"","null","html-keyboard-response","13","233242","0.0-9.0-0.2","SS1619739861779","","","null","","","","","","<p><img src= images/blank.png width =""600"" height = ""600"" style=""position:fixed;top:50%; left:50%; transform: translate(-50%, -50%); border:5px solid black"">","","","","","","","",""
"","5683.344999997644","sequential-stimulus-presentation-old","14","239430","0.0-9.0-1.2","SS1619739861779","trial","","40","500","6183.344999997644","images/stimuli/spore_stims/complex_05_A_a.gif","images/stimuli/spore_stims/complex_03_A_b.gif","forced_short","","0","complex_dissimilar","images/stimuli/spore_stims/complex_03_A_b.gif","","","","",""
"","null","html-keyboard-response","15","240346","0.0-9.0-0.3","SS1619739861779","","","null","","","","","","<p><img src= images/blank.png width =""600"" height = ""600"" style=""position:fixed;top:50%; left:50%; transform: translate(-50%, -50%); border:5px solid black"">","","","","","","","",""
"","3602.180000001681","sequential-stimulus-presentation-old","16","244451","0.0-9.0-1.3","SS1619739861779","trial","","40","500","4102.180000001681","images/stimuli/spore_stims/complex_05_A_a.gif","images/stimuli/spore_stims/complex_03_A_b.gif","forced_short","","0","complex_dissimilar","images/stimuli/spore_stims/complex_03_A_b.gif","","","","",""
"","22400.1849999986","survey-multi-choice","17","266858","0.0-10.0","SS1619739861779","math_question","","","","","","","","","","","","{""Q0"":""17""}","[0]","17","",""
"","null","html-keyboard-response","18","268133","0.0-11.0-0.0","SS1619739861779","","","null","","","","","","<p><img src= images/blank.png width =""600"" height = ""600"" style=""position:fixed;top:50%; left:50%; transform: translate(-50%, -50%); border:5px solid black"">","","","","","","","",""
"","4379.345000001194","sequential-stimulus-presentation-old","19","287521","0.0-11.0-1.0","SS1619739861779","trial","","40","500","4879.345000001194","images/stimuli/spore_stims/simple_07_A_b.gif","images/stimuli/spore_stims/simple_10_A_a.gif","forced_long","","1","simple_dissimilar","images/stimuli/spore_stims/simple_10_A_a.gif","","","","",""
"","null","html-keyboard-response","20","288392","0.0-11.0-0.1","SS1619739861779","","","null","","","","","","<p><img src= images/blank.png width =""600"" height = ""600"" style=""position:fixed;top:50%; left:50%; transform: translate(-50%, -50%); border:5px solid black"">","","","","","","","",""
"","1158.7349999972503","sequential-stimulus-presentation-old","21","290056","0.0-11.0-1.1","SS1619739861779","trial","","40","500","1658.7349999972503","images/stimuli/spore_stims/simple_07_A_b.gif","images/stimuli/spore_stims/simple_10_A_a.gif","forced_long","","1","simple_dissimilar","images/stimuli/spore_stims/simple_10_A_a.gif","","","","",""
"","null","html-keyboard-response","22","290891","0.0-11.0-0.2","SS1619739861779","","","null","","","","","","<p><img src= images/blank.png width =""600"" height = ""600"" style=""position:fixed;top:50%; left:50%; transform: translate(-50%, -50%); border:5px solid black"">","","","","","","","",""
"","2580.275000000256","sequential-stimulus-presentation-old","23","293975","0.0-11.0-1.2","SS1619739861779","trial","","40","500","3080.275000000256","images/stimuli/spore_stims/simple_07_A_b.gif","images/stimuli/spore_stims/simple_10_A_a.gif","forced_long","","1","simple_dissimilar","images/stimuli/spore_stims/simple_07_A_b.gif","","","","",""
"","null","html-keyboard-response","24","294964","0.0-11.0-0.3","SS1619739861779","","","null","","","","","","<p><img src= images/blank.png width =""600"" height = ""600"" style=""position:fixed;top:50%; left:50%; transform: translate(-50%, -50%); border:5px solid black"">","","","","","","","",""
"","1021.2550000069314","sequential-stimulus-presentation-old","25","296490","0.0-11.0-1.3","SS1619739861779","trial","","40","500","1521.2550000069314","images/stimuli/spore_stims/simple_07_A_b.gif","images/stimuli/spore_stims/simple_10_A_a.gif","forced_long","","1","simple_dissimilar","images/stimuli/spore_stims/simple_07_A_b.gif","","","","",""
"","null","html-keyboard-response","26","297679","0.0-11.0-0.4","SS1619739861779","","","null","","","","","","<p><img src= images/blank.png width =""600"" height = ""600"" style=""position:fixed;top:50%; left:50%; transform: translate(-50%, -50%); border:5px solid black"">","","","","","","","",""
"","2335.2149999991525","sequential-stimulus-presentation-old","27","300517","0.0-11.0-1.4","SS1619739861779","trial","","40","500","2835.2149999991525","images/stimuli/spore_stims/simple_07_A_b.gif","images/stimuli/spore_stims/simple_10_A_a.gif","forced_long","","1","simple_dissimilar","images/stimuli/spore_stims/simple_10_A_a.gif","","","","",""
"","3808.660000002419","survey-multi-choice","28","304329","0.0-12.0","SS1619739861779","math_question","","","","","","","","","","","","{""Q0"":""9""}","[0]","9","",""
"","null","html-keyboard-response","29","305310","0.0-13.0-0.0","SS1619739861779","","","null","","","","","","<p><img src= images/blank.png width =""600"" height = ""600"" style=""position:fixed;top:50%; left:50%; transform: translate(-50%, -50%); border:5px solid black"">","","","","","","","",""
"","2845.4449999990175","sequential-stimulus-presentation-old","30","308659","0.0-13.0-1.0","SS1619739861779","trial","","40","500","3345.4449999990175","images/stimuli/spore_stims/complex_09_A_a.gif","images/stimuli/spore_stims/complex_07_A_b.gif","self_paced","","2","complex_dissimilar","images/stimuli/spore_stims/complex_07_A_b.gif","","","","",""
"","null","html-keyboard-response","31","309932","0.0-13.0-0.1","SS1619739861779","","","null","","","","","","<p><img src= images/blank.png width =""600"" height = ""600"" style=""position:fixed;top:50%; left:50%; transform: translate(-50%, -50%); border:5px solid black"">","","","","","","","",""
"","2958.5300000035204","sequential-stimulus-presentation-old","32","313397","0.0-13.0-1.1","SS1619739861779","trial","","40","500","3458.5300000035204","images/stimuli/spore_stims/complex_09_A_a.gif","images/stimuli/spore_stims/complex_07_A_b.gif","self_paced","","2","complex_dissimilar","images/stimuli/spore_stims/complex_09_A_a.gif","","","","",""
"","null","html-keyboard-response","33","314382","0.0-13.0-0.2","SS1619739861779","","","null","","","","","","<p><img src= images/blank.png width =""600"" height = ""600"" style=""position:fixed;top:50%; left:50%; transform: translate(-50%, -50%); border:5px solid black"">","","","","","","","",""
"","2908.790000001318","sequential-stimulus-presentation-old","34","317795","0.0-13.0-1.2","SS1619739861779","trial","","40","500","3408.790000001318","images/stimuli/spore_stims/complex_09_A_a.gif","images/stimuli/spore_stims/complex_07_A_b.gif","self_paced","","2","complex_dissimilar","images/stimuli/spore_stims/complex_07_A_b.gif","","","","",""
"","null","html-keyboard-response","35","318953","0.0-13.0-0.3","SS1619739861779","","","null","","","","","","<p><img src= images/blank.png width =""600"" height = ""600"" style=""position:fixed;top:50%; left:50%; transform: translate(-50%, -50%); border:5px solid black"">","","","","","","","",""
"","1197.0650000002934","sequential-stimulus-presentation-old","36","320656","0.0-13.0-1.3","SS1619739861779","trial","","40","500","1697.0650000002934","images/stimuli/spore_stims/complex_09_A_a.gif","images/stimuli/spore_stims/complex_07_A_b.gif","self_paced","","2","complex_dissimilar","images/stimuli/spore_stims/complex_07_A_b.gif","","","","",""
"","null","html-keyboard-response","37","321914","0.0-13.0-0.4","SS1619739861779","","","null","","","","","","<p><img src= images/blank.png width =""600"" height = ""600"" style=""position:fixed;top:50%; left:50%; transform: translate(-50%, -50%); border:5px solid black"">","","","","","","","",""
"","1428.555000005872","sequential-stimulus-presentation-old","38","323847","0.0-13.0-1.4","SS1619739861779","trial","","40","500","1928.555000005872","images/stimuli/spore_stims/complex_09_A_a.gif","images/stimuli/spore_stims/complex_07_A_b.gif","self_paced","","2","complex_dissimilar","images/stimuli/spore_stims/complex_07_A_b.gif","","","","",""
"","null","html-keyboard-response","39","324701","0.0-13.0-0.5","SS1619739861779","","","null","","","","","","<p><img src= images/blank.png width =""600"" height = ""600"" style=""position:fixed;top:50%; left:50%; transform: translate(-50%, -50%); border:5px solid black"">","","","","","","","",""
"","1242.210000003979","sequential-stimulus-presentation-old","40","326447","0.0-13.0-1.5","SS1619739861779","trial","","40","500","1742.210000003979","images/stimuli/spore_stims/complex_09_A_a.gif","images/stimuli/spore_stims/complex_07_A_b.gif","self_paced","","2","complex_dissimilar","images/stimuli/spore_stims/complex_09_A_a.gif","","","","",""
"","8709.069999997155","survey-multi-choice","41","335160","0.0-14.0","SS1619739861779","math_question","","","","","","","","","","","","{""Q0"":""16""}","[0]","16","",""
"","null","html-keyboard-response","42","336219","0.0-15.0-0.0","SS1619739861779","","","null","","","","","","<p><img src= images/blank.png width =""600"" height = ""600"" style=""position:fixed;top:50%; left:50%; transform: translate(-50%, -50%); border:5px solid black"">","","","","","","","",""
"","1517.56999999634","sequential-stimulus-presentation-old","43","338242","0.0-15.0-1.0","SS1619739861779","trial","","40","500","2017.56999999634","images/stimuli/spore_stims/simple_13_A_a.gif","images/stimuli/spore_stims/simple_10_A_b.gif","self_paced","","3","simple_dissimilar","images/stimuli/spore_stims/simple_10_A_b.gif","","","","",""
"","null","html-keyboard-response","44","339319","0.0-15.0-0.1","SS1619739861779","","","null","","","","","","<p><img src= images/blank.png width =""600"" height = ""600"" style=""position:fixed;top:50%; left:50%; transform: translate(-50%, -50%); border:5px solid black"">","","","","","","","",""
"","1410.9649999954854","sequential-stimulus-presentation-old","45","341235","0.0-15.0-1.1","SS1619739861779","trial","","40","500","1910.9649999954854","images/stimuli/spore_stims/simple_13_A_a.gif","images/stimuli/spore_stims/simple_10_A_b.gif","self_paced","","3","simple_dissimilar","images/stimuli/spore_stims/simple_10_A_b.gif","","","","",""
"","null","html-keyboard-response","46","342392","0.0-15.0-0.2","SS1619739861779","","","null","","","","","","<p><img src= images/blank.png width =""600"" height = ""600"" style=""position:fixed;top:50%; left:50%; transform: translate(-50%, -50%); border:5px solid black"">","","","","","","","",""
"","1284.2299999974784","sequential-stimulus-presentation-old","47","344181","0.0-15.0-1.2","SS1619739861779","trial","","40","500","1784.2299999974784","images/stimuli/spore_stims/simple_13_A_a.gif","images/stimuli/spore_stims/simple_10_A_b.gif","self_paced","","3","simple_dissimilar","images/stimuli/spore_stims/simple_13_A_a.gif","","","","",""
"","null","html-keyboard-response","48","345440","0.0-15.0-0.3","SS1619739861779","","","null","","","","","","<p><img src= images/blank.png width =""600"" height = ""600"" style=""position:fixed;top:50%; left:50%; transform: translate(-50%, -50%); border:5px solid black"">","","","","","","","",""
"","783.5400000039954","sequential-stimulus-presentation-old","49","346728","0.0-15.0-1.3","SS1619739861779","trial","","40","500","1283.5400000039954","images/stimuli/spore_stims/simple_13_A_a.gif","images/stimuli/spore_stims/simple_10_A_b.gif","self_paced","","3","simple_dissimilar","images/stimuli/spore_stims/simple_10_A_b.gif","","","","",""
"","null","html-keyboard-response","50","347836","0.0-15.0-0.4","SS1619739861779","","","null","","","","","","<p><img src= images/blank.png width =""600"" height = ""600"" style=""position:fixed;top:50%; left:50%; transform: translate(-50%, -50%); border:5px solid black"">","","","","","","","",""
"","1546.0100000054808","sequential-stimulus-presentation-old","51","349887","0.0-15.0-1.4","SS1619739861779","trial","","40","500","2046.0100000054808","images/stimuli/spore_stims/simple_13_A_a.gif","images/stimuli/spore_stims/simple_10_A_b.gif","self_paced","","3","simple_dissimilar","images/stimuli/spore_stims/simple_10_A_b.gif","","","","",""
"","null","html-keyboard-response","52","350832","0.0-15.0-0.5","SS1619739861779","","","null","","","","","","<p><img src= images/blank.png width =""600"" height = ""600"" style=""position:fixed;top:50%; left:50%; transform: translate(-50%, -50%); border:5px solid black"">","","","","","","","",""
"","1341.2849999949685","sequential-stimulus-presentation-old","53","352679","0.0-15.0-1.5","SS1619739861779","trial","","40","500","1841.2849999949685","images/stimuli/spore_stims/simple_13_A_a.gif","images/stimuli/spore_stims/simple_10_A_b.gif","self_paced","","3","simple_dissimilar","images/stimuli/spore_stims/simple_10_A_b.gif","","","","",""
"","3056.5199999982724","survey-multi-choice","54","355738","0.0-16.0","SS1619739861779","math_question","","","","","","","","","","","","{""Q0"":""7""}","[0]","7","",""
"","null","html-keyboard-response","55","356944","0.0-17.0-0.0","SS1619739861779","","","null","","","","","","<p><img src= images/blank.png width =""600"" height = ""600"" style=""position:fixed;top:50%; left:50%; transform: translate(-50%, -50%); border:5px solid black"">","","","","","","","",""
"","3013.95500000217","sequential-stimulus-presentation-old","56","360464","0.0-17.0-1.0","SS1619739861779","trial","","40","500","3513.95500000217","images/stimuli/spore_stims/complex_06_A_b.gif","images/stimuli/spore_stims/complex_04_A_a.gif","self_paced","","4","complex_dissimilar","images/stimuli/spore_stims/complex_04_A_a.gif","","","","",""
"","null","html-keyboard-response","57","361380","0.0-17.0-0.1","SS1619739861779","","","null","","","","","","<p><img src= images/blank.png width =""600"" height = ""600"" style=""position:fixed;top:50%; left:50%; transform: translate(-50%, -50%); border:5px solid black"">","","","","","","","",""
"","833.2750000045053","sequential-stimulus-presentation-old","58","362719","0.0-17.0-1.1","SS1619739861779","trial","","40","500","1333.2750000045053","images/stimuli/spore_stims/complex_06_A_b.gif","images/stimuli/spore_stims/complex_04_A_a.gif","self_paced","","4","complex_dissimilar","images/stimuli/spore_stims/complex_04_A_a.gif","","","","",""
"","null","html-keyboard-response","59","363942","0.0-17.0-0.2","SS1619739861779","","","null","","","","","","<p><img src= images/blank.png width =""600"" height = ""600"" style=""position:fixed;top:50%; left:50%; transform: translate(-50%, -50%); border:5px solid black"">","","","","","","","",""
"","1051.9150000036461","sequential-stimulus-presentation-old","60","365501","0.0-17.0-1.2","SS1619739861779","trial","","40","500","1551.9150000036461","images/stimuli/spore_stims/complex_06_A_b.gif","images/stimuli/spore_stims/complex_04_A_a.gif","self_paced","","4","complex_dissimilar","images/stimuli/spore_stims/complex_04_A_a.gif","","","","",""
"","null","html-keyboard-response","61","366409","0.0-17.0-0.3","SS1619739861779","","","null","","","","","","<p><img src= images/blank.png width =""600"" height = ""600"" style=""position:fixed;top:50%; left:50%; transform: translate(-50%, -50%); border:5px solid black"">","","","","","","","",""
"","1873.1499999994412","sequential-stimulus-presentation-old","62","368787","0.0-17.0-1.3","SS1619739861779","trial","","40","500","2373.149999999441","images/stimuli/spore_stims/complex_06_A_b.gif","images/stimuli/spore_stims/complex_04_A_a.gif","self_paced","","4","complex_dissimilar","images/stimuli/spore_stims/complex_04_A_a.gif","","","","",""
"","null","html-keyboard-response","63","369832","0.0-17.0-0.4","SS1619739861779","","","null","","","","","","<p><img src= images/blank.png width =""600"" height = ""600"" style=""position:fixed;top:50%; left:50%; transform: translate(-50%, -50%); border:5px solid black"">","","","","","","","",""
"","733.6450000002515","sequential-stimulus-presentation-old","64","371074","0.0-17.0-1.4","SS1619739861779","trial","","40","500","1233.6450000002515","images/stimuli/spore_stims/complex_06_A_b.gif","images/stimuli/spore_stims/complex_04_A_a.gif","self_paced","","4","complex_dissimilar","images/stimuli/spore_stims/complex_04_A_a.gif","","","","",""
"","null","html-keyboard-response","65","372028","0.0-17.0-0.5","SS1619739861779","","","null","","","","","","<p><img src= images/blank.png width =""600"" height = ""600"" style=""position:fixed;top:50%; left:50%; transform: translate(-50%, -50%); border:5px solid black"">","","","","","","","",""
"","1170.380000003206","sequential-stimulus-presentation-old","66","373706","0.0-17.0-1.5","SS1619739861779","trial","","40","500","1670.380000003206","images/stimuli/spore_stims/complex_06_A_b.gif","images/stimuli/spore_stims/complex_04_A_a.gif","self_paced","","4","complex_dissimilar","images/stimuli/spore_stims/complex_06_A_b.gif","","","","",""
"","2389.1199999998207","survey-multi-choice","67","376100","0.0-18.0","SS1619739861779","math_question","","","","","","","","","","","","{""Q0"":""7""}","[0]","7","",""
"","null","html-keyboard-response","68","376988","0.0-19.0-0.0","SS1619739861779","","","null","","","","","","<p><img src= images/blank.png width =""600"" height = ""600"" style=""position:fixed;top:50%; left:50%; transform: translate(-50%, -50%); border:5px solid black"">","","","","","","","",""
"","1230.2750000017113","sequential-stimulus-presentation-old","69","378725","0.0-19.0-1.0","SS1619739861779","trial","","40","500","1730.2750000017113","images/stimuli/spore_stims/simple_16_A_a.gif","images/stimuli/spore_stims/simple_14_A_b.gif","self_paced","","5","simple_dissimilar","images/stimuli/spore_stims/simple_14_A_b.gif","","","","",""
"","null","html-keyboard-response","70","380013","0.0-19.0-0.1","SS1619739861779","","","null","","","","","","<p><img src= images/blank.png width =""600"" height = ""600"" style=""position:fixed;top:50%; left:50%; transform: translate(-50%, -50%); border:5px solid black"">","","","","","","","",""
"","1084.3099999983679","sequential-stimulus-presentation-old","71","381604","0.0-19.0-1.1","SS1619739861779","trial","","40","500","1584.3099999983679","images/stimuli/spore_stims/simple_16_A_a.gif","images/stimuli/spore_stims/simple_14_A_b.gif","self_paced","","5","simple_dissimilar","images/stimuli/spore_stims/simple_14_A_b.gif","","","","",""
"","null","html-keyboard-response","72","382735","0.0-19.0-0.2","SS1619739861779","","","null","","","","","","<p><img src= images/blank.png width =""600"" height = ""600"" style=""position:fixed;top:50%; left:50%; transform: translate(-50%, -50%); border:5px solid black"">","","","","","","","",""
"","492.2200000000885","sequential-stimulus-presentation-old","73","383730","0.0-19.0-1.2","SS1619739861779","trial","","40","500","992.2200000000885","images/stimuli/spore_stims/simple_16_A_a.gif","images/stimuli/spore_stims/simple_14_A_b.gif","self_paced","","5","simple_dissimilar","images/stimuli/spore_stims/simple_14_A_b.gif","","","","",""
"","null","html-keyboard-response","74","384789","0.0-19.0-0.3","SS1619739861779","","","null","","","","","","<p><img src= images/blank.png width =""600"" height = ""600"" style=""position:fixed;top:50%; left:50%; transform: translate(-50%, -50%); border:5px solid black"">","","","","","","","",""
"","2761.944999998377","sequential-stimulus-presentation-old","75","388059","0.0-19.0-1.3","SS1619739861779","trial","","40","500","3261.944999998377","images/stimuli/spore_stims/simple_16_A_a.gif","images/stimuli/spore_stims/simple_14_A_b.gif","self_paced","","5","simple_dissimilar","images/stimuli/spore_stims/simple_16_A_a.gif","","","","",""
"","1810.089999999036","survey-multi-choice","76","389874","0.0-20.0","SS1619739861779","math_question","","","","","","","","","","","","{""Q0"":""7""}","[0]","7","",""
"","null","html-keyboard-response","77","391058","0.0-21.0-0.0","SS1619739861779","","","null","","","","","","<p><img src= images/blank.png width =""600"" height = ""600"" style=""position:fixed;top:50%; left:50%; transform: translate(-50%, -50%); border:5px solid black"">","","","","","","","",""
"","2879.8449999958393","sequential-stimulus-presentation-old","78","394446","0.0-21.0-1.0","SS1619739861779","trial","","40","500","3379.8449999958393","images/stimuli/spore_stims/simple_12_A_a.gif","images/stimuli/spore_stims/simple_08_A_b.gif","forced_short","","6","simple_dissimilar","images/stimuli/spore_stims/simple_08_A_b.gif","","","","",""
"","null","html-keyboard-response","79","395666","0.0-21.0-0.1","SS1619739861779","","","null","","","","","","<p><img src= images/blank.png width =""600"" height = ""600"" style=""position:fixed;top:50%; left:50%; transform: translate(-50%, -50%); border:5px solid black"">","","","","","","","",""
"","417.58500000287313","sequential-stimulus-presentation-old","80","396589","0.0-21.0-1.1","SS1619739861779","trial","","40","500","917.5850000028731","images/stimuli/spore_stims/simple_12_A_a.gif","images/stimuli/spore_stims/simple_08_A_b.gif","forced_short","","6","simple_dissimilar","images/stimuli/spore_stims/simple_08_A_b.gif","","","","",""
"","null","html-keyboard-response","81","397647","0.0-21.0-0.2","SS1619739861779","","","null","","","","","","<p><img src= images/blank.png width =""600"" height = ""600"" style=""position:fixed;top:50%; left:50%; transform: translate(-50%, -50%); border:5px solid black"">","","","","","","","",""
"","906.6749999983585","sequential-stimulus-presentation-old","82","399061","0.0-21.0-1.2","SS1619739861779","trial","","40","500","1406.6749999983585","images/stimuli/spore_stims/simple_12_A_a.gif","images/stimuli/spore_stims/simple_08_A_b.gif","forced_short","","6","simple_dissimilar","images/stimuli/spore_stims/simple_08_A_b.gif","","","","",""
"","null","html-keyboard-response","83","400083","0.0-21.0-0.3","SS1619739861779","","","null","","","","","","<p><img src= images/blank.png width =""600"" height = ""600"" style=""position:fixed;top:50%; left:50%; transform: translate(-50%, -50%); border:5px solid black"">","","","","","","","",""
"","892.824999995355","sequential-stimulus-presentation-old","84","401481","0.0-21.0-1.3","SS1619739861779","trial","","40","500","1392.824999995355","images/stimuli/spore_stims/simple_12_A_a.gif","images/stimuli/spore_stims/simple_08_A_b.gif","forced_short","","6","simple_dissimilar","images/stimuli/spore_stims/simple_08_A_b.gif","","","","",""
"","null","html-keyboard-response","85","402439","0.0-21.0-0.4","SS1619739861779","","","null","","","","","","<p><img src= images/blank.png width =""600"" height = ""600"" style=""position:fixed;top:50%; left:50%; transform: translate(-50%, -50%); border:5px solid black"">","","","","","","","",""
"","1251.9549999997253","sequential-stimulus-presentation-old","86","404198","0.0-21.0-1.4","SS1619739861779","trial","","40","500","1751.9549999997253","images/stimuli/spore_stims/simple_12_A_a.gif","images/stimuli/spore_stims/simple_08_A_b.gif","forced_short","","6","simple_dissimilar","images/stimuli/spore_stims/simple_12_A_a.gif","","","","",""
"","null","html-keyboard-response","87","405060","0.0-21.0-0.5","SS1619739861779","","","null","","","","","","<p><img src= images/blank.png width =""600"" height = ""600"" style=""position:fixed;top:50%; left:50%; transform: translate(-50%, -50%); border:5px solid black"">","","","","","","","",""
"","2466.4649999976973","sequential-stimulus-presentation-old","88","408032","0.0-21.0-1.5","SS1619739861779","trial","","40","500","2966.4649999976973","images/stimuli/spore_stims/simple_12_A_a.gif","images/stimuli/spore_stims/simple_08_A_b.gif","forced_short","","6","simple_dissimilar","images/stimuli/spore_stims/simple_12_A_a.gif","","","","",""
"","4045.07499999454","survey-multi-choice","89","412083","0.0-22.0","SS1619739861779","math_question","","","","","","","","","","","","{""Q0"":""15""}","[0]","15","",""
"","null","html-keyboard-response","90","413175","0.0-23.0-0.0","SS1619739861779","","","null","","","","","","<p><img src= images/blank.png width =""600"" height = ""600"" style=""position:fixed;top:50%; left:50%; transform: translate(-50%, -50%); border:5px solid black"">","","","","","","","",""
"","5950.645000004442","sequential-stimulus-presentation-old","91","434133","0.0-23.0-1.0","SS1619739861779","trial","","40","500","6450.645000004442","images/stimuli/spore_stims/complex_01_A_a.gif","images/stimuli/spore_stims/complex_15_A_b.gif","forced_long","","7","complex_dissimilar","images/stimuli/spore_stims/complex_15_A_b.gif","","","","",""
"","null","html-keyboard-response","92","435397","0.0-23.0-0.1","SS1619739861779","","","null","","","","","","<p><img src= images/blank.png width =""600"" height = ""600"" style=""position:fixed;top:50%; left:50%; transform: translate(-50%, -50%); border:5px solid black"">","","","","","","","",""
"","711.844999997993","sequential-stimulus-presentation-old","93","436616","0.0-23.0-1.1","SS1619739861779","trial","","40","500","1211.844999997993","images/stimuli/spore_stims/complex_01_A_a.gif","images/stimuli/spore_stims/complex_15_A_b.gif","forced_long","","7","complex_dissimilar","images/stimuli/spore_stims/complex_15_A_b.gif","","","","",""
"","null","html-keyboard-response","94","437743","0.0-23.0-0.2","SS1619739861779","","","null","","","","","","<p><img src= images/blank.png width =""600"" height = ""600"" style=""position:fixed;top:50%; left:50%; transform: translate(-50%, -50%); border:5px solid black"">","","","","","","","",""
"","795.1599999942118","sequential-stimulus-presentation-old","95","439041","0.0-23.0-1.2","SS1619739861779","trial","","40","500","1295.1599999942118","images/stimuli/spore_stims/complex_01_A_a.gif","images/stimuli/spore_stims/complex_15_A_b.gif","forced_long","","7","complex_dissimilar","images/stimuli/spore_stims/complex_15_A_b.gif","","","","",""
"","null","html-keyboard-response","96","440295","0.0-23.0-0.3","SS1619739861779","","","null","","","","","","<p><img src= images/blank.png width =""600"" height = ""600"" style=""position:fixed;top:50%; left:50%; transform: translate(-50%, -50%); border:5px solid black"">","","","","","","","",""
"","674.0500000014435","sequential-stimulus-presentation-old","97","441475","0.0-23.0-1.3","SS1619739861779","trial","","40","500","1174.0500000014435","images/stimuli/spore_stims/complex_01_A_a.gif","images/stimuli/spore_stims/complex_15_A_b.gif","forced_long","","7","complex_dissimilar","images/stimuli/spore_stims/complex_15_A_b.gif","","","","",""
"","null","html-keyboard-response","98","442325","0.0-23.0-0.4","SS1619739861779","","","null","","","","","","<p><img src= images/blank.png width =""600"" height = ""600"" style=""position:fixed;top:50%; left:50%; transform: translate(-50%, -50%); border:5px solid black"">","","","","","","","",""
"","1136.5900000018883","sequential-stimulus-presentation-old","99","443970","0.0-23.0-1.4","SS1619739861779","trial","","40","500","1636.5900000018883","images/stimuli/spore_stims/complex_01_A_a.gif","images/stimuli/spore_stims/complex_15_A_b.gif","forced_long","","7","complex_dissimilar","images/stimuli/spore_stims/complex_15_A_b.gif","","","","",""
"","null","html-keyboard-response","100","444928","0.0-23.0-0.5","SS1619739861779","","","null","","","","","","<p><img src= images/blank.png width =""600"" height = ""600"" style=""position:fixed;top:50%; left:50%; transform: translate(-50%, -50%); border:5px solid black"">","","","","","","","",""
"","1129.2099999991478","sequential-stimulus-presentation-old","101","446565","0.0-23.0-1.5","SS1619739861779","trial","","40","500","1629.2099999991478","images/stimuli/spore_stims/complex_01_A_a.gif","images/stimuli/spore_stims/complex_15_A_b.gif","forced_long","","7","complex_dissimilar","images/stimuli/spore_stims/complex_15_A_b.gif","","","","",""
"","3183.890000000247","survey-multi-choice","102","449753","0.0-24.0","SS1619739861779","math_question","","","","","","","","","","","","{""Q0"":""14""}","[0]","14","",""
"","null","html-keyboard-response","103","451014","0.0-25.0-0.0","SS1619739861779","","","null","","","","","","<p><img src= images/blank.png width =""600"" height = ""600"" style=""position:fixed;top:50%; left:50%; transform: translate(-50%, -50%); border:5px solid black"">","","","","","","","",""
"","7079.415000000154","sequential-stimulus-presentation-old","104","473102","0.0-25.0-1.0","SS1619739861779","trial","","40","500","7579.415000000154","images/stimuli/spore_stims/simple_04_A_a.gif","images/stimuli/spore_stims/simple_15_A_b.gif","forced_long","","8","simple_dissimilar","images/stimuli/spore_stims/simple_15_A_b.gif","","","","",""
"","null","html-keyboard-response","105","474308","0.0-25.0-0.1","SS1619739861779","","","null","","","","","","<p><img src= images/blank.png width =""600"" height = ""600"" style=""position:fixed;top:50%; left:50%; transform: translate(-50%, -50%); border:5px solid black"">","","","","","","","",""
"","974.2150000020047","sequential-stimulus-presentation-old","106","475787","0.0-25.0-1.1","SS1619739861779","trial","","40","500","1474.2150000020047","images/stimuli/spore_stims/simple_04_A_a.gif","images/stimuli/spore_stims/simple_15_A_b.gif","forced_long","","8","simple_dissimilar","images/stimuli/spore_stims/simple_15_A_b.gif","","","","",""
"","null","html-keyboard-response","107","476707","0.0-25.0-0.2","SS1619739861779","","","null","","","","","","<p><img src= images/blank.png width =""600"" height = ""600"" style=""position:fixed;top:50%; left:50%; transform: translate(-50%, -50%); border:5px solid black"">","","","","","","","",""
"","951.1600000041653","sequential-stimulus-presentation-old","108","478163","0.0-25.0-1.2","SS1619739861779","trial","","40","500","1451.1600000041653","images/stimuli/spore_stims/simple_04_A_a.gif","images/stimuli/spore_stims/simple_15_A_b.gif","forced_long","","8","simple_dissimilar","images/stimuli/spore_stims/simple_15_A_b.gif","","","","",""
"","null","html-keyboard-response","109","479106","0.0-25.0-0.3","SS1619739861779","","","null","","","","","","<p><img src= images/blank.png width =""600"" height = ""600"" style=""position:fixed;top:50%; left:50%; transform: translate(-50%, -50%); border:5px solid black"">","","","","","","","",""
"","809.1100000019651","sequential-stimulus-presentation-old","110","480423","0.0-25.0-1.3","SS1619739861779","trial","","40","500","1309.110000001965","images/stimuli/spore_stims/simple_04_A_a.gif","images/stimuli/spore_stims/simple_15_A_b.gif","forced_long","","8","simple_dissimilar","images/stimuli/spore_stims/simple_15_A_b.gif","","","","",""
"","null","html-keyboard-response","111","481461","0.0-25.0-0.4","SS1619739861779","","","null","","","","","","<p><img src= images/blank.png width =""600"" height = ""600"" style=""position:fixed;top:50%; left:50%; transform: translate(-50%, -50%); border:5px solid black"">","","","","","","","",""
"","1500.7350000014412","sequential-stimulus-presentation-old","112","483470","0.0-25.0-1.4","SS1619739861779","trial","","40","500","2000.7350000014412","images/stimuli/spore_stims/simple_04_A_a.gif","images/stimuli/spore_stims/simple_15_A_b.gif","forced_long","","8","simple_dissimilar","images/stimuli/spore_stims/simple_04_A_a.gif","","","","",""
"","2106.8100000047707","survey-multi-choice","113","485580","0.0-26.0","SS1619739861779","math_question","","","","","","","","","","","","{""Q0"":""4""}","[0]","4","",""
"","null","html-keyboard-response","114","486864","0.0-27.0-0.0","SS1619739861779","","","null","","","","","","<p><img src= images/blank.png width =""600"" height = ""600"" style=""position:fixed;top:50%; left:50%; transform: translate(-50%, -50%); border:5px solid black"">","","","","","","","",""
"","2312.689999998838","sequential-stimulus-presentation-old","115","489688","0.0-27.0-1.0","SS1619739861779","trial","","40","500","2812.689999998838","images/stimuli/spore_stims/simple_09_A_b.gif","images/stimuli/spore_stims/simple_19_A_a.gif","forced_short","","9","simple_dissimilar","images/stimuli/spore_stims/simple_19_A_a.gif","","","","",""
"","null","html-keyboard-response","116","490629","0.0-27.0-0.1","SS1619739861779","","","null","","","","","","<p><img src= images/blank.png width =""600"" height = ""600"" style=""position:fixed;top:50%; left:50%; transform: translate(-50%, -50%); border:5px solid black"">","","","","","","","",""
"","1325.9550000002491","sequential-stimulus-presentation-old","117","492463","0.0-27.0-1.1","SS1619739861779","trial","","40","500","1825.9550000002491","images/stimuli/spore_stims/simple_09_A_b.gif","images/stimuli/spore_stims/simple_19_A_a.gif","forced_short","","9","simple_dissimilar","images/stimuli/spore_stims/simple_09_A_b.gif","","","","",""
"","null","html-keyboard-response","118","493617","0.0-27.0-0.2","SS1619739861779","","","null","","","","","","<p><img src= images/blank.png width =""600"" height = ""600"" style=""position:fixed;top:50%; left:50%; transform: translate(-50%, -50%); border:5px solid black"">","","","","","","","",""
"","1865.6199999968521","sequential-stimulus-presentation-old","119","495990","0.0-27.0-1.2","SS1619739861779","trial","","40","500","2365.619999996852","images/stimuli/spore_stims/simple_09_A_b.gif","images/stimuli/spore_stims/simple_19_A_a.gif","forced_short","","9","simple_dissimilar","images/stimuli/spore_stims/simple_19_A_a.gif","","","","",""
"","null","html-keyboard-response","120","497127","0.0-27.0-0.3","SS1619739861779","","","null","","","","","","<p><img src= images/blank.png width =""600"" height = ""600"" style=""position:fixed;top:50%; left:50%; transform: translate(-50%, -50%); border:5px solid black"">","","","","","","","",""
"","1383.6850000006962","sequential-stimulus-presentation-old","121","499021","0.0-27.0-1.3","SS1619739861779","trial","","40","500","1883.6850000006962","images/stimuli/spore_stims/simple_09_A_b.gif","images/stimuli/spore_stims/simple_19_A_a.gif","forced_short","","9","simple_dissimilar","images/stimuli/spore_stims/simple_19_A_a.gif","","","","",""
"","null","html-keyboard-response","122","499882","0.0-27.0-0.4","SS1619739861779","","","null","","","","","","<p><img src= images/blank.png width =""600"" height = ""600"" style=""position:fixed;top:50%; left:50%; transform: translate(-50%, -50%); border:5px solid black"">","","","","","","","",""
"","683.2050000011805","sequential-stimulus-presentation-old","123","501074","0.0-27.0-1.4","SS1619739861779","trial","","40","500","1183.2050000011805","images/stimuli/spore_stims/simple_09_A_b.gif","images/stimuli/spore_stims/simple_19_A_a.gif","forced_short","","9","simple_dissimilar","images/stimuli/spore_stims/simple_19_A_a.gif","","","","",""
"","4944.3000000028405","survey-multi-choice","124","506025","0.0-28.0","SS1619739861779","math_question","","","","","","","","","","","","{""Q0"":""12""}","[0]","12","",""
"","null","html-keyboard-response","125","507302","0.0-29.0-0.0","SS1619739861779","","","null","","","","","","<p><img src= images/blank.png width =""600"" height = ""600"" style=""position:fixed;top:50%; left:50%; transform: translate(-50%, -50%); border:5px solid black"">","","","","","","","",""
"","1105.0099999993108","sequential-stimulus-presentation-old","126","508915","0.0-29.0-1.0","SS1619739861779","trial","","40","500","1605.0099999993108","images/stimuli/spore_stims/complex_17_A_b.gif","images/stimuli/spore_stims/complex_02_A_a.gif","forced_short","","10","complex_dissimilar","images/stimuli/spore_stims/complex_02_A_a.gif","","","","",""
"","null","html-keyboard-response","127","510012","0.0-29.0-0.1","SS1619739861779","","","null","","","","","","<p><img src= images/blank.png width =""600"" height = ""600"" style=""position:fixed;top:50%; left:50%; transform: translate(-50%, -50%); border:5px solid black"">","","","","","","","",""
"","484.1099999975995","sequential-stimulus-presentation-old","128","511006","0.0-29.0-1.1","SS1619739861779","trial","","40","500","984.1099999975995","images/stimuli/spore_stims/complex_17_A_b.gif","images/stimuli/spore_stims/complex_02_A_a.gif","forced_short","","10","complex_dissimilar","images/stimuli/spore_stims/complex_02_A_a.gif","","","","",""
"","null","html-keyboard-response","129","512013","0.0-29.0-0.2","SS1619739861779","","","null","","","","","","<p><img src= images/blank.png width =""600"" height = ""600"" style=""position:fixed;top:50%; left:50%; transform: translate(-50%, -50%); border:5px solid black"">","","","","","","","",""
"","539.5149999967543","sequential-stimulus-presentation-old","130","513060","0.0-29.0-1.2","SS1619739861779","trial","","40","500","1039.5149999967543","images/stimuli/spore_stims/complex_17_A_b.gif","images/stimuli/spore_stims/complex_02_A_a.gif","forced_short","","10","complex_dissimilar","images/stimuli/spore_stims/complex_02_A_a.gif","","","","",""
"","null","html-keyboard-response","131","514351","0.0-29.0-0.3","SS1619739861779","","","null","","","","","","<p><img src= images/blank.png width =""600"" height = ""600"" style=""position:fixed;top:50%; left:50%; transform: translate(-50%, -50%); border:5px solid black"">","","","","","","","",""
"","270.779999998922","sequential-stimulus-presentation-old","132","515129","0.0-29.0-1.3","SS1619739861779","trial","","40","500","770.779999998922","images/stimuli/spore_stims/complex_17_A_b.gif","images/stimuli/spore_stims/complex_02_A_a.gif","forced_short","","10","complex_dissimilar","images/stimuli/spore_stims/complex_02_A_a.gif","","","","",""
"","null","html-keyboard-response","133","516225","0.0-29.0-0.4","SS1619739861779","","","null","","","","","","<p><img src= images/blank.png width =""600"" height = ""600"" style=""position:fixed;top:50%; left:50%; transform: translate(-50%, -50%); border:5px solid black"">","","","","","","","",""
"","366.75000000104774","sequential-stimulus-presentation-old","134","517102","0.0-29.0-1.4","SS1619739861779","trial","","40","500","866.7500000010477","images/stimuli/spore_stims/complex_17_A_b.gif","images/stimuli/spore_stims/complex_02_A_a.gif","forced_short","","10","complex_dissimilar","images/stimuli/spore_stims/complex_02_A_a.gif","","","","",""
"","2617.4499999979744","survey-multi-choice","135","519725","0.0-30.0","SS1619739861779","math_question","","","","","","","","","","","","{""Q0"":""7""}","[0]","7","",""
"","null","html-keyboard-response","136","520739","0.0-31.0-0.0","SS1619739861779","","","null","","","","","","<p><img src= images/blank.png width =""600"" height = ""600"" style=""position:fixed;top:50%; left:50%; transform: translate(-50%, -50%); border:5px solid black"">","","","","","","","",""
"","17638.644999999087","sequential-stimulus-presentation-old","137","553385","0.0-31.0-1.0","SS1619739861779","trial","","40","500","18138.644999999087","images/stimuli/spore_stims/complex_11_A_a.gif","images/stimuli/spore_stims/complex_10_A_b.gif","forced_long","","11","complex_dissimilar","images/stimuli/spore_stims/complex_10_A_b.gif","","","","",""
"","null","html-keyboard-response","138","554278","0.0-31.0-0.1","SS1619739861779","","","null","","","","","","<p><img src= images/blank.png width =""600"" height = ""600"" style=""position:fixed;top:50%; left:50%; transform: translate(-50%, -50%); border:5px solid black"">","","","","","","","",""
"","333.47499999951106","sequential-stimulus-presentation-old","139","555123","0.0-31.0-1.1","SS1619739861779","trial","","40","500","833.474999999511","images/stimuli/spore_stims/complex_11_A_a.gif","images/stimuli/spore_stims/complex_10_A_b.gif","forced_long","","11","complex_dissimilar","images/stimuli/spore_stims/complex_10_A_b.gif","","","","",""
"","null","html-keyboard-response","140","555930","0.0-31.0-0.2","SS1619739861779","","","null","","","","","","<p><img src= images/blank.png width =""600"" height = ""600"" style=""position:fixed;top:50%; left:50%; transform: translate(-50%, -50%); border:5px solid black"">","","","","","","","",""
"","1141.9150000000373","sequential-stimulus-presentation-old","141","557580","0.0-31.0-1.2","SS1619739861779","trial","","40","500","1641.9150000000373","images/stimuli/spore_stims/complex_11_A_a.gif","images/stimuli/spore_stims/complex_10_A_b.gif","forced_long","","11","complex_dissimilar","images/stimuli/spore_stims/complex_11_A_a.gif","","","","",""
"","null","html-keyboard-response","142","558392","0.0-31.0-0.3","SS1619739861779","","","null","","","","","","<p><img src= images/blank.png width =""600"" height = ""600"" style=""position:fixed;top:50%; left:50%; transform: translate(-50%, -50%); border:5px solid black"">","","","","","","","",""
"","291.38999999850057","sequential-stimulus-presentation-old","143","559191","0.0-31.0-1.3","SS1619739861779","trial","","40","500","791.3899999985006","images/stimuli/spore_stims/complex_11_A_a.gif","images/stimuli/spore_stims/complex_10_A_b.gif","forced_long","","11","complex_dissimilar","images/stimuli/spore_stims/complex_10_A_b.gif","","","","",""
"[{""page_index"":0,""viewing_time"":7426.045000000158}]","7428.025000001071","instructions","144","566624","0.0-32.0","SS1619739861779","instructions","","","","","","","","","","","","","","","",""
"","9050.685000002035","survey-likert","145","575683","0.0-33.0","SS1619739861779","similarity_question","","","","","","","","","","","","{""Q0"":5}","[0]","","images/stimuli/spore_stims/simple_10_A_b.gif","images/stimuli/spore_stims/simple_13_A_a.gif"
"","3391.4099999966566","survey-likert","146","579082","0.0-34.0","SS1619739861779","similarity_question","","","","","","","","","","","","{""Q0"":5}","[0]","","images/stimuli/spore_stims/simple_16_A_a.gif","images/stimuli/spore_stims/simple_14_A_b.gif"
"","10659.030000002473","survey-likert","147","589749","0.0-35.0","SS1619739861779","similarity_question","","","","","","","","","","","","{""Q0"":1}","[0]","","images/stimuli/spore_stims/complex_15_A_b.gif","images/stimuli/spore_stims/complex_01_A_a.gif"
"","4800.779999997816","survey-likert","148","594557","0.0-36.0","SS1619739861779","similarity_question","","","","","","","","","","","","{""Q0"":1}","[0]","","images/stimuli/spore_stims/complex_07_A_b.gif","images/stimuli/spore_stims/complex_09_A_a.gif"
"","3196.1149999988265","survey-likert","149","597760","0.0-37.0","SS1619739861779","similarity_question","","","","","","","","","","","","{""Q0"":4}","[0]","","images/stimuli/spore_stims/simple_04_A_a.gif","images/stimuli/spore_stims/simple_15_A_b.gif"
"","4850.464999995893","survey-likert","150","602617","0.0-38.0","SS1619739861779","similarity_question","","","","","","","","","","","","{""Q0"":2}","[0]","","images/stimuli/spore_stims/complex_06_A_b.gif","images/stimuli/spore_stims/complex_04_A_a.gif"
"","3438.189999993425","survey-likert","151","606061","0.0-39.0","SS1619739861779","similarity_question","","","","","","","","","","","","{""Q0"":4}","[0]","","images/stimuli/spore_stims/simple_08_A_b.gif","images/stimuli/spore_stims/simple_12_A_a.gif"
"","4349.370000003604","survey-likert","152","610418","0.0-40.0","SS1619739861779","similarity_question","","","","","","","","","","","","{""Q0"":0}","[0]","","images/stimuli/spore_stims/complex_10_A_b.gif","images/stimuli/spore_stims/complex_11_A_a.gif"
"","2932.2700000047917","survey-likert","153","613357","0.0-41.0","SS1619739861779","similarity_question","","","","","","","","","","","","{""Q0"":4}","[0]","","images/stimuli/spore_stims/simple_09_A_b.gif","images/stimuli/spore_stims/simple_19_A_a.gif"
"","5359.629999998957","survey-likert","154","618726","0.0-42.0","SS1619739861779","similarity_question","","","","","","","","","","","","{""Q0"":2}","[0]","","images/stimuli/spore_stims/complex_02_A_a.gif","images/stimuli/spore_stims/complex_17_A_b.gif"
"","7373.33000000217","survey-likert","155","626106","0.0-43.0","SS1619739861779","similarity_question","","","","","","","","","","","","{""Q0"":3}","[0]","","images/stimuli/spore_stims/complex_05_A_a.gif","images/stimuli/spore_stims/complex_03_A_b.gif"
"","5196.804999999586","survey-likert","156","631313","0.0-44.0","SS1619739861779","similarity_question","","","","","","","","","","","","{""Q0"":2}","[0]","","images/stimuli/spore_stims/simple_10_A_a.gif","images/stimuli/spore_stims/simple_07_A_b.gif"
"[{""page_index"":0,""viewing_time"":5013.670000000158}]","5014.239999996731","instructions","157","636335","0.0-45.0","SS1619739861779","instructions","","","","","","","","","","","","","","","",""
"","6428.289999996196","survey-likert","158","642771","0.0-46.0","SS1619739861779","","","","","","","","","images/stimuli/spore_stims/simple_13_A_a.gif","","","","{""Q0"":0}","[0]","","",""
"","3350.5699999950593","survey-likert","159","646129","0.0-47.0","SS1619739861779","","","","","","","","","images/stimuli/spore_stims/simple_14_A_b.gif","","","","{""Q0"":0}","[0]","","",""
"","11304.199999998673","survey-likert","160","657439","0.0-48.0","SS1619739861779","","","","","","","","","images/stimuli/spore_stims/complex_11_A_a.gif","","","","{""Q0"":5}","[0]","","",""
"","2460.2650000015274","survey-likert","161","659905","0.0-49.0","SS1619739861779","","","","","","","","","images/stimuli/spore_stims/simple_08_A_b.gif","","","","{""Q0"":0}","[0]","","",""
"","9183.890000000247","survey-likert","162","669097","0.0-50.0","SS1619739861779","","","","","","","","","images/stimuli/spore_stims/complex_06_A_b.gif","","","","{""Q0"":5}","[0]","","",""
"","2133.8600000017323","survey-likert","163","671238","0.0-51.0","SS1619739861779","","","","","","","","","images/stimuli/spore_stims/complex_17_A_b.gif","","","","{""Q0"":5}","[0]","","",""
"","1830.4850000058068","survey-likert","164","673078","0.0-52.0","SS1619739861779","","","","","","","","","images/stimuli/spore_stims/simple_15_A_b.gif","","","","{""Q0"":0}","[0]","","",""
"","1977.975000001723","survey-likert","165","675064","0.0-53.0","SS1619739861779","","","","","","","","","images/stimuli/spore_stims/simple_07_A_b.gif","","","","{""Q0"":0}","[0]","","",""
"","2669.2650000040885","survey-likert","166","677742","0.0-54.0","SS1619739861779","","","","","","","","","images/stimuli/spore_stims/simple_19_A_a.gif","","","","{""Q0"":1}","[0]","","",""
"","2151.874999995809","survey-likert","167","679898","0.0-55.0","SS1619739861779","","","","","","","","","images/stimuli/spore_stims/complex_01_A_a.gif","","","","{""Q0"":5}","[0]","","",""
"","3440.30500000366","survey-likert","168","683348","0.0-56.0","SS1619739861779","","","","","","","","","images/stimuli/spore_stims/complex_07_A_b.gif","","","","{""Q0"":6}","[0]","","",""
"","2635.200000004261","survey-likert","169","685991","0.0-57.0","SS1619739861779","","","","","","","","","images/stimuli/spore_stims/complex_05_A_a.gif","","","","{""Q0"":5}","[0]","","",""
"[{""page_index"":0,""viewing_time"":2130.4600000004284}]","2130.989999997895","instructions","170","688130","0.0-58.0","SS1619739861779","instructions","","","","","","","","","","","","","","","",""
"","3581.6500000000233","demog-age","171","691721","0.0-59.0","SS1619739861779","","","","","","","","","","","","","{""age"":""18""}","","","",""
"","5720.804999997141","demog-ethnic-US","172","697454","0.0-60.0","SS1619739861779","","","","","","","","","","","","","{""ethnicity"":[""White""]}","[0]","","",""
"","5988.910000000033","demog-gender-and-education","173","703451","0.0-61.0","SS1619739861779","","","","","","","","","","","","","{""gender"":""Male"",""education"":""High school diploma""}","[0,1]","","",""
"","17863.215000004973","survey-text","174","721326","0.0-62.0","SS1619739861779","feedback","","","","","","","","","","","","{""Q0"":""No problems""}","","","",""
"[{""page_index"":0,""viewing_time"":2042.5899999972899}]","2043.274999996298","instructions","175","723377","0.0-63.0","SS1619739861779","instructions","","","","","","","","","","","","","","","",""
