"view_history","rt","trial_type","trial_index","time_elapsed","internal_node_id","subject","stimulus_type","trial_stimulus","key_press","minimum_viewing_duration","trial_looking_time","block_deviant","block_background","exposure_type","stimulus","block_number","block_type","stimulus_displayed","responses","question_order","math_correct_answer","stimulus_left","stimulus_right"
"[{""page_index"":0,""viewing_time"":8012.6600000076}]","8013.095000060275","instructions","0","8021","0.0-0.0","SS1619739341788","","","","","","","","","","","","","","","","",""
"[{""page_index"":0,""viewing_time"":8070.365000050515},{""page_index"":1,""viewing_time"":12870.149999973364}]","20940.64000004437","instructions","1","30972","0.0-1.0","SS1619739341788","instructions","","","","","","","","","","","","","","","",""
"","4470.364999957383","sequential-stimulus-presentation-old","2","35947","0.0-2.0","SS1619739341788","","","40","500","4970.364999957383","null","null","self_paced","","","","","","","","",""
"","3904.615000006743","sequential-stimulus-presentation-old","3","40359","0.0-3.0","SS1619739341788","","","40","500","4404.615000006743","null","null","self_paced","","","","","","","","",""
"[{""page_index"":0,""viewing_time"":14169.634999940172}]","14169.81999995187","instructions","4","54532","0.0-4.0","SS1619739341788","instructions","","","","","","","","","","","","","","","",""
"","1770.6499999621883","sequential-stimulus-presentation-old","5","71305","0.0-5.0","SS1619739341788","","","40","500","2270.6499999621883","null","null","forced_long","","","","","","","","",""
"","3293.820000020787","sequential-stimulus-presentation-old","6","75108","0.0-6.0","SS1619739341788","","","40","500","3793.820000020787","null","null","forced_long","","","","","","","","",""
"[{""page_index"":0,""viewing_time"":62117.37999995239}]","62117.865000036545","instructions","7","137230","0.0-7.0","SS1619739341788","instructions","","","","","","","","","","","","","","","",""
"[{""page_index"":0,""viewing_time"":6271.04500005953},{""page_index"":1,""viewing_time"":18174.035000032745},{""page_index"":2,""viewing_time"":3423.644999973476},{""page_index"":3,""viewing_time"":2901.8050000304356},{""page_index"":4,""viewing_time"":2411.449999897741}]","33182.630000053905","instructions","8","170415","0.0-8.0","SS1619739341788","instructions","","","","","","","","","","","","","","","",""
"","null","html-keyboard-response","9","171256","0.0-9.0-0.0","SS1619739341788","","","null","","","","","","<p><img src= images/blank.png width =""600"" height = ""600"" style=""position:fixed;top:50%; left:50%; transform: translate(-50%, -50%); border:5px solid black"">","","","","","","","",""
"","843.5499999905005","sequential-stimulus-presentation-old","10","172620","0.0-9.0-1.0","SS1619739341788","trial","","40","500","1343.5499999905005","images/stimuli/spore_stims/complex_06_A_a.gif","images/stimuli/spore_stims/complex_09_A_b.gif","forced_short","","0","complex_dissimilar","images/stimuli/spore_stims/complex_09_A_b.gif","","","","",""
"","null","html-keyboard-response","11","173689","0.0-9.0-0.1","SS1619739341788","","","null","","","","","","<p><img src= images/blank.png width =""600"" height = ""600"" style=""position:fixed;top:50%; left:50%; transform: translate(-50%, -50%); border:5px solid black"">","","","","","","","",""
"","51939.29999996908","sequential-stimulus-presentation-old","12","226134","0.0-9.0-1.1","SS1619739341788","trial","","40","500","52439.29999996908","images/stimuli/spore_stims/complex_06_A_a.gif","images/stimuli/spore_stims/complex_09_A_b.gif","forced_short","","0","complex_dissimilar","images/stimuli/spore_stims/complex_09_A_b.gif","","","","",""
"","null","html-keyboard-response","13","227222","0.0-9.0-0.2","SS1619739341788","","","null","","","","","","<p><img src= images/blank.png width =""600"" height = ""600"" style=""position:fixed;top:50%; left:50%; transform: translate(-50%, -50%); border:5px solid black"">","","","","","","","",""
"","11136.57999993302","sequential-stimulus-presentation-old","14","238887","0.0-9.0-1.2","SS1619739341788","trial","","40","500","11636.57999993302","images/stimuli/spore_stims/complex_06_A_a.gif","images/stimuli/spore_stims/complex_09_A_b.gif","forced_short","","0","complex_dissimilar","images/stimuli/spore_stims/complex_09_A_b.gif","","","","",""
"","null","html-keyboard-response","15","239857","0.0-9.0-0.3","SS1619739341788","","","null","","","","","","<p><img src= images/blank.png width =""600"" height = ""600"" style=""position:fixed;top:50%; left:50%; transform: translate(-50%, -50%); border:5px solid black"">","","","","","","","",""
"","4984.305000049062","sequential-stimulus-presentation-old","16","245364","0.0-9.0-1.3","SS1619739341788","trial","","40","500","5484.305000049062","images/stimuli/spore_stims/complex_06_A_a.gif","images/stimuli/spore_stims/complex_09_A_b.gif","forced_short","","0","complex_dissimilar","images/stimuli/spore_stims/complex_09_A_b.gif","","","","",""
"","null","html-keyboard-response","17","246545","0.0-9.0-0.4","SS1619739341788","","","null","","","","","","<p><img src= images/blank.png width =""600"" height = ""600"" style=""position:fixed;top:50%; left:50%; transform: translate(-50%, -50%); border:5px solid black"">","","","","","","","",""
"","5612.760000047274","sequential-stimulus-presentation-old","18","252677","0.0-9.0-1.4","SS1619739341788","trial","","40","500","6112.760000047274","images/stimuli/spore_stims/complex_06_A_a.gif","images/stimuli/spore_stims/complex_09_A_b.gif","forced_short","","0","complex_dissimilar","images/stimuli/spore_stims/complex_06_A_a.gif","","","","",""
"","3923.079999978654","survey-multi-choice","19","256616","0.0-10.0","SS1619739341788","math_question","","","","","","","","","","","","{""Q0"":""4""}","[0]","4","",""
"","null","html-keyboard-response","20","257815","0.0-11.0-0.0","SS1619739341788","","","null","","","","","","<p><img src= images/blank.png width =""600"" height = ""600"" style=""position:fixed;top:50%; left:50%; transform: translate(-50%, -50%); border:5px solid black"">","","","","","","","",""
"","1930.2300000563264","sequential-stimulus-presentation-old","21","260274","0.0-11.0-1.0","SS1619739341788","trial","","40","500","2430.2300000563264","images/stimuli/spore_stims/simple_11_A_a.gif","images/stimuli/spore_stims/simple_10_A_b.gif","forced_short","","1","simple_dissimilar","images/stimuli/spore_stims/simple_10_A_b.gif","","","","",""
"","null","html-keyboard-response","22","261108","0.0-11.0-0.1","SS1619739341788","","","null","","","","","","<p><img src= images/blank.png width =""600"" height = ""600"" style=""position:fixed;top:50%; left:50%; transform: translate(-50%, -50%); border:5px solid black"">","","","","","","","",""
"","7727.655000053346","sequential-stimulus-presentation-old","23","269356","0.0-11.0-1.1","SS1619739341788","trial","","40","500","8227.655000053346","images/stimuli/spore_stims/simple_11_A_a.gif","images/stimuli/spore_stims/simple_10_A_b.gif","forced_short","","1","simple_dissimilar","images/stimuli/spore_stims/simple_10_A_b.gif","","","","",""
"","null","html-keyboard-response","24","270301","0.0-11.0-0.2","SS1619739341788","","","null","","","","","","<p><img src= images/blank.png width =""600"" height = ""600"" style=""position:fixed;top:50%; left:50%; transform: translate(-50%, -50%); border:5px solid black"">","","","","","","","",""
"","5450.705000082962","sequential-stimulus-presentation-old","25","276265","0.0-11.0-1.2","SS1619739341788","trial","","40","500","5950.705000082962","images/stimuli/spore_stims/simple_11_A_a.gif","images/stimuli/spore_stims/simple_10_A_b.gif","forced_short","","1","simple_dissimilar","images/stimuli/spore_stims/simple_10_A_b.gif","","","","",""
"","null","html-keyboard-response","26","277262","0.0-11.0-0.3","SS1619739341788","","","null","","","","","","<p><img src= images/blank.png width =""600"" height = ""600"" style=""position:fixed;top:50%; left:50%; transform: translate(-50%, -50%); border:5px solid black"">","","","","","","","",""
"","6390.379999997094","sequential-stimulus-presentation-old","27","284169","0.0-11.0-1.3","SS1619739341788","trial","","40","500","6890.379999997094","images/stimuli/spore_stims/simple_11_A_a.gif","images/stimuli/spore_stims/simple_10_A_b.gif","forced_short","","1","simple_dissimilar","images/stimuli/spore_stims/simple_10_A_b.gif","","","","",""
"","null","html-keyboard-response","28","285286","0.0-11.0-0.4","SS1619739341788","","","null","","","","","","<p><img src= images/blank.png width =""600"" height = ""600"" style=""position:fixed;top:50%; left:50%; transform: translate(-50%, -50%); border:5px solid black"">","","","","","","","",""
"","5112.760000047274","sequential-stimulus-presentation-old","29","290919","0.0-11.0-1.4","SS1619739341788","trial","","40","500","5612.760000047274","images/stimuli/spore_stims/simple_11_A_a.gif","images/stimuli/spore_stims/simple_10_A_b.gif","forced_short","","1","simple_dissimilar","images/stimuli/spore_stims/simple_10_A_b.gif","","","","",""
"","5119.199999957345","survey-multi-choice","30","296044","0.0-12.0","SS1619739341788","math_question","","","","","","","","","","","","{""Q0"":""12""}","[0]","12","",""
"","null","html-keyboard-response","31","297086","0.0-13.0-0.0","SS1619739341788","","","null","","","","","","<p><img src= images/blank.png width =""600"" height = ""600"" style=""position:fixed;top:50%; left:50%; transform: translate(-50%, -50%); border:5px solid black"">","","","","","","","",""
"","4252.734999987297","sequential-stimulus-presentation-old","32","301848","0.0-13.0-1.0","SS1619739341788","trial","","40","500","4752.734999987297","images/stimuli/spore_stims/complex_16_A_a.gif","images/stimuli/spore_stims/complex_10_A_b.gif","self_paced","","2","complex_dissimilar","images/stimuli/spore_stims/complex_10_A_b.gif","","","","",""
"","null","html-keyboard-response","33","302932","0.0-13.0-0.1","SS1619739341788","","","null","","","","","","<p><img src= images/blank.png width =""600"" height = ""600"" style=""position:fixed;top:50%; left:50%; transform: translate(-50%, -50%); border:5px solid black"">","","","","","","","",""
"","4008.795000030659","sequential-stimulus-presentation-old","34","307448","0.0-13.0-1.1","SS1619739341788","trial","","40","500","4508.795000030659","images/stimuli/spore_stims/complex_16_A_a.gif","images/stimuli/spore_stims/complex_10_A_b.gif","self_paced","","2","complex_dissimilar","images/stimuli/spore_stims/complex_10_A_b.gif","","","","",""
"","null","html-keyboard-response","35","308429","0.0-13.0-0.2","SS1619739341788","","","null","","","","","","<p><img src= images/blank.png width =""600"" height = ""600"" style=""position:fixed;top:50%; left:50%; transform: translate(-50%, -50%); border:5px solid black"">","","","","","","","",""
"","3962.4649999896064","sequential-stimulus-presentation-old","36","312916","0.0-13.0-1.2","SS1619739341788","trial","","40","500","4462.464999989606","images/stimuli/spore_stims/complex_16_A_a.gif","images/stimuli/spore_stims/complex_10_A_b.gif","self_paced","","2","complex_dissimilar","images/stimuli/spore_stims/complex_10_A_b.gif","","","","",""
"","null","html-keyboard-response","37","314034","0.0-13.0-0.3","SS1619739341788","","","null","","","","","","<p><img src= images/blank.png width =""600"" height = ""600"" style=""position:fixed;top:50%; left:50%; transform: translate(-50%, -50%); border:5px solid black"">","","","","","","","",""
"","4999.7749999165535","sequential-stimulus-presentation-old","38","319549","0.0-13.0-1.3","SS1619739341788","trial","","40","500","5499.7749999165535","images/stimuli/spore_stims/complex_16_A_a.gif","images/stimuli/spore_stims/complex_10_A_b.gif","self_paced","","2","complex_dissimilar","images/stimuli/spore_stims/complex_10_A_b.gif","","","","",""
"","null","html-keyboard-response","39","320844","0.0-13.0-0.4","SS1619739341788","","","null","","","","","","<p><img src= images/blank.png width =""600"" height = ""600"" style=""position:fixed;top:50%; left:50%; transform: translate(-50%, -50%); border:5px solid black"">","","","","","","","",""
"","4497.190000023693","sequential-stimulus-presentation-old","40","325853","0.0-13.0-1.4","SS1619739341788","trial","","40","500","4997.190000023693","images/stimuli/spore_stims/complex_16_A_a.gif","images/stimuli/spore_stims/complex_10_A_b.gif","self_paced","","2","complex_dissimilar","images/stimuli/spore_stims/complex_10_A_b.gif","","","","",""
"","4214.395000017248","survey-multi-choice","41","330081","0.0-14.0","SS1619739341788","math_question","","","","","","","","","","","","{""Q0"":""5""}","[0]","5","",""
"","null","html-keyboard-response","42","331199","0.0-15.0-0.0","SS1619739341788","","","null","","","","","","<p><img src= images/blank.png width =""600"" height = ""600"" style=""position:fixed;top:50%; left:50%; transform: translate(-50%, -50%); border:5px solid black"">","","","","","","","",""
"","1815.779999946244","sequential-stimulus-presentation-old","43","348038","0.0-15.0-1.0","SS1619739341788","trial","","40","500","2315.779999946244","images/stimuli/spore_stims/simple_07_A_a.gif","images/stimuli/spore_stims/simple_03_A_b.gif","forced_long","","3","simple_dissimilar","images/stimuli/spore_stims/simple_03_A_b.gif","","","","",""
"","null","html-keyboard-response","44","349101","0.0-15.0-0.1","SS1619739341788","","","null","","","","","","<p><img src= images/blank.png width =""600"" height = ""600"" style=""position:fixed;top:50%; left:50%; transform: translate(-50%, -50%); border:5px solid black"">","","","","","","","",""
"","6573.574999929406","sequential-stimulus-presentation-old","45","356188","0.0-15.0-1.1","SS1619739341788","trial","","40","500","7073.574999929406","images/stimuli/spore_stims/simple_07_A_a.gif","images/stimuli/spore_stims/simple_03_A_b.gif","forced_long","","3","simple_dissimilar","images/stimuli/spore_stims/simple_03_A_b.gif","","","","",""
"","null","html-keyboard-response","46","357182","0.0-15.0-0.2","SS1619739341788","","","null","","","","","","<p><img src= images/blank.png width =""600"" height = ""600"" style=""position:fixed;top:50%; left:50%; transform: translate(-50%, -50%); border:5px solid black"">","","","","","","","",""
"","4774.990000063553","sequential-stimulus-presentation-old","47","362488","0.0-15.0-1.2","SS1619739341788","trial","","40","500","5274.990000063553","images/stimuli/spore_stims/simple_07_A_a.gif","images/stimuli/spore_stims/simple_03_A_b.gif","forced_long","","3","simple_dissimilar","images/stimuli/spore_stims/simple_03_A_b.gif","","","","",""
"","null","html-keyboard-response","48","363731","0.0-15.0-0.3","SS1619739341788","","","null","","","","","","<p><img src= images/blank.png width =""600"" height = ""600"" style=""position:fixed;top:50%; left:50%; transform: translate(-50%, -50%); border:5px solid black"">","","","","","","","",""
"","4338.845000020228","sequential-stimulus-presentation-old","49","368584","0.0-15.0-1.3","SS1619739341788","trial","","40","500","4838.845000020228","images/stimuli/spore_stims/simple_07_A_a.gif","images/stimuli/spore_stims/simple_03_A_b.gif","forced_long","","3","simple_dissimilar","images/stimuli/spore_stims/simple_03_A_b.gif","","","","",""
"","null","html-keyboard-response","50","369756","0.0-15.0-0.4","SS1619739341788","","","null","","","","","","<p><img src= images/blank.png width =""600"" height = ""600"" style=""position:fixed;top:50%; left:50%; transform: translate(-50%, -50%); border:5px solid black"">","","","","","","","",""
"","5178.970000008121","sequential-stimulus-presentation-old","51","375452","0.0-15.0-1.4","SS1619739341788","trial","","40","500","5678.970000008121","images/stimuli/spore_stims/simple_07_A_a.gif","images/stimuli/spore_stims/simple_03_A_b.gif","forced_long","","3","simple_dissimilar","images/stimuli/spore_stims/simple_03_A_b.gif","","","","",""
"","null","html-keyboard-response","52","376445","0.0-15.0-0.5","SS1619739341788","","","null","","","","","","<p><img src= images/blank.png width =""600"" height = ""600"" style=""position:fixed;top:50%; left:50%; transform: translate(-50%, -50%); border:5px solid black"">","","","","","","","",""
"","3846.2750000180677","sequential-stimulus-presentation-old","53","380807","0.0-15.0-1.5","SS1619739341788","trial","","40","500","4346.275000018068","images/stimuli/spore_stims/simple_07_A_a.gif","images/stimuli/spore_stims/simple_03_A_b.gif","forced_long","","3","simple_dissimilar","images/stimuli/spore_stims/simple_03_A_b.gif","","","","",""
"","4040.3149999910966","survey-multi-choice","54","384853","0.0-16.0","SS1619739341788","math_question","","","","","","","","","","","","{""Q0"":""7""}","[0]","7","",""
"","null","html-keyboard-response","55","385930","0.0-17.0-0.0","SS1619739341788","","","null","","","","","","<p><img src= images/blank.png width =""600"" height = ""600"" style=""position:fixed;top:50%; left:50%; transform: translate(-50%, -50%); border:5px solid black"">","","","","","","","",""
"","2613.435000064783","sequential-stimulus-presentation-old","56","403561","0.0-17.0-1.0","SS1619739341788","trial","","40","500","3113.435000064783","images/stimuli/spore_stims/complex_20_A_b.gif","images/stimuli/spore_stims/complex_05_A_a.gif","forced_long","","4","complex_dissimilar","images/stimuli/spore_stims/complex_05_A_a.gif","","","","",""
"","null","html-keyboard-response","57","404610","0.0-17.0-0.1","SS1619739341788","","","null","","","","","","<p><img src= images/blank.png width =""600"" height = ""600"" style=""position:fixed;top:50%; left:50%; transform: translate(-50%, -50%); border:5px solid black"">","","","","","","","",""
"","4762.420000042766","sequential-stimulus-presentation-old","58","409888","0.0-17.0-1.1","SS1619739341788","trial","","40","500","5262.420000042766","images/stimuli/spore_stims/complex_20_A_b.gif","images/stimuli/spore_stims/complex_05_A_a.gif","forced_long","","4","complex_dissimilar","images/stimuli/spore_stims/complex_05_A_a.gif","","","","",""
"","null","html-keyboard-response","59","410953","0.0-17.0-0.2","SS1619739341788","","","null","","","","","","<p><img src= images/blank.png width =""600"" height = ""600"" style=""position:fixed;top:50%; left:50%; transform: translate(-50%, -50%); border:5px solid black"">","","","","","","","",""
"","3746.0900000296533","sequential-stimulus-presentation-old","60","415215","0.0-17.0-1.2","SS1619739341788","trial","","40","500","4246.090000029653","images/stimuli/spore_stims/complex_20_A_b.gif","images/stimuli/spore_stims/complex_05_A_a.gif","forced_long","","4","complex_dissimilar","images/stimuli/spore_stims/complex_05_A_a.gif","","","","",""
"","null","html-keyboard-response","61","416439","0.0-17.0-0.3","SS1619739341788","","","null","","","","","","<p><img src= images/blank.png width =""600"" height = ""600"" style=""position:fixed;top:50%; left:50%; transform: translate(-50%, -50%); border:5px solid black"">","","","","","","","",""
"","5404.074999969453","sequential-stimulus-presentation-old","62","422376","0.0-17.0-1.3","SS1619739341788","trial","","40","500","5904.074999969453","images/stimuli/spore_stims/complex_20_A_b.gif","images/stimuli/spore_stims/complex_05_A_a.gif","forced_long","","4","complex_dissimilar","images/stimuli/spore_stims/complex_20_A_b.gif","","","","",""
"","null","html-keyboard-response","63","423417","0.0-17.0-0.4","SS1619739341788","","","null","","","","","","<p><img src= images/blank.png width =""600"" height = ""600"" style=""position:fixed;top:50%; left:50%; transform: translate(-50%, -50%); border:5px solid black"">","","","","","","","",""
"","4343.425000086427","sequential-stimulus-presentation-old","64","428272","0.0-17.0-1.4","SS1619739341788","trial","","40","500","4843.425000086427","images/stimuli/spore_stims/complex_20_A_b.gif","images/stimuli/spore_stims/complex_05_A_a.gif","forced_long","","4","complex_dissimilar","images/stimuli/spore_stims/complex_05_A_a.gif","","","","",""
"","null","html-keyboard-response","65","429310","0.0-17.0-0.5","SS1619739341788","","","null","","","","","","<p><img src= images/blank.png width =""600"" height = ""600"" style=""position:fixed;top:50%; left:50%; transform: translate(-50%, -50%); border:5px solid black"">","","","","","","","",""
"","2596.4149999199435","sequential-stimulus-presentation-old","66","432439","0.0-17.0-1.5","SS1619739341788","trial","","40","500","3096.4149999199435","images/stimuli/spore_stims/complex_20_A_b.gif","images/stimuli/spore_stims/complex_05_A_a.gif","forced_long","","4","complex_dissimilar","images/stimuli/spore_stims/complex_05_A_a.gif","","","","",""
"","5627.684999955818","survey-multi-choice","67","438074","0.0-18.0","SS1619739341788","math_question","","","","","","","","","","","","{""Q0"":""17""}","[0]","17","",""
"","null","html-keyboard-response","68","439079","0.0-19.0-0.0","SS1619739341788","","","null","","","","","","<p><img src= images/blank.png width =""600"" height = ""600"" style=""position:fixed;top:50%; left:50%; transform: translate(-50%, -50%); border:5px solid black"">","","","","","","","",""
"","1126.0750000365078","sequential-stimulus-presentation-old","69","440721","0.0-19.0-1.0","SS1619739341788","trial","","40","500","1626.0750000365078","images/stimuli/spore_stims/complex_13_A_a.gif","images/stimuli/spore_stims/complex_18_A_b.gif","forced_short","","5","complex_dissimilar","images/stimuli/spore_stims/complex_18_A_b.gif","","","","",""
"","null","html-keyboard-response","70","441658","0.0-19.0-0.1","SS1619739341788","","","null","","","","","","<p><img src= images/blank.png width =""600"" height = ""600"" style=""position:fixed;top:50%; left:50%; transform: translate(-50%, -50%); border:5px solid black"">","","","","","","","",""
"","4207.545000012033","sequential-stimulus-presentation-old","71","446379","0.0-19.0-1.1","SS1619739341788","trial","","40","500","4707.545000012033","images/stimuli/spore_stims/complex_13_A_a.gif","images/stimuli/spore_stims/complex_18_A_b.gif","forced_short","","5","complex_dissimilar","images/stimuli/spore_stims/complex_13_A_a.gif","","","","",""
"","null","html-keyboard-response","72","447338","0.0-19.0-0.2","SS1619739341788","","","null","","","","","","<p><img src= images/blank.png width =""600"" height = ""600"" style=""position:fixed;top:50%; left:50%; transform: translate(-50%, -50%); border:5px solid black"">","","","","","","","",""
"","2510.3349999990314","sequential-stimulus-presentation-old","73","450364","0.0-19.0-1.2","SS1619739341788","trial","","40","500","3010.3349999990314","images/stimuli/spore_stims/complex_13_A_a.gif","images/stimuli/spore_stims/complex_18_A_b.gif","forced_short","","5","complex_dissimilar","images/stimuli/spore_stims/complex_13_A_a.gif","","","","",""
"","null","html-keyboard-response","74","451420","0.0-19.0-0.3","SS1619739341788","","","null","","","","","","<p><img src= images/blank.png width =""600"" height = ""600"" style=""position:fixed;top:50%; left:50%; transform: translate(-50%, -50%); border:5px solid black"">","","","","","","","",""
"","2806.555000017397","sequential-stimulus-presentation-old","75","454746","0.0-19.0-1.3","SS1619739341788","trial","","40","500","3306.555000017397","images/stimuli/spore_stims/complex_13_A_a.gif","images/stimuli/spore_stims/complex_18_A_b.gif","forced_short","","5","complex_dissimilar","images/stimuli/spore_stims/complex_18_A_b.gif","","","","",""
"","null","html-keyboard-response","76","455681","0.0-19.0-0.4","SS1619739341788","","","null","","","","","","<p><img src= images/blank.png width =""600"" height = ""600"" style=""position:fixed;top:50%; left:50%; transform: translate(-50%, -50%); border:5px solid black"">","","","","","","","",""
"","2381.9799999473616","sequential-stimulus-presentation-old","77","458582","0.0-19.0-1.4","SS1619739341788","trial","","40","500","2881.9799999473616","images/stimuli/spore_stims/complex_13_A_a.gif","images/stimuli/spore_stims/complex_18_A_b.gif","forced_short","","5","complex_dissimilar","images/stimuli/spore_stims/complex_18_A_b.gif","","","","",""
"","null","html-keyboard-response","78","459868","0.0-19.0-0.5","SS1619739341788","","","null","","","","","","<p><img src= images/blank.png width =""600"" height = ""600"" style=""position:fixed;top:50%; left:50%; transform: translate(-50%, -50%); border:5px solid black"">","","","","","","","",""
"","2176.29999993369","sequential-stimulus-presentation-old","79","462564","0.0-19.0-1.5","SS1619739341788","trial","","40","500","2676.29999993369","images/stimuli/spore_stims/complex_13_A_a.gif","images/stimuli/spore_stims/complex_18_A_b.gif","forced_short","","5","complex_dissimilar","images/stimuli/spore_stims/complex_18_A_b.gif","","","","",""
"","4142.850000062026","survey-multi-choice","80","466719","0.0-20.0","SS1619739341788","math_question","","","","","","","","","","","","{""Q0"":""10""}","[0]","10","",""
"","null","html-keyboard-response","81","467594","0.0-21.0-0.0","SS1619739341788","","","null","","","","","","<p><img src= images/blank.png width =""600"" height = ""600"" style=""position:fixed;top:50%; left:50%; transform: translate(-50%, -50%); border:5px solid black"">","","","","","","","",""
"","766.9849999947473","sequential-stimulus-presentation-old","82","483378","0.0-21.0-1.0","SS1619739341788","trial","","40","500","1266.9849999947473","images/stimuli/spore_stims/complex_01_A_a.gif","images/stimuli/spore_stims/complex_06_A_b.gif","forced_long","","6","complex_dissimilar","images/stimuli/spore_stims/complex_06_A_b.gif","","","","",""
"","null","html-keyboard-response","83","484355","0.0-21.0-0.1","SS1619739341788","","","null","","","","","","<p><img src= images/blank.png width =""600"" height = ""600"" style=""position:fixed;top:50%; left:50%; transform: translate(-50%, -50%); border:5px solid black"">","","","","","","","",""
"","3703.9199999999255","sequential-stimulus-presentation-old","84","488565","0.0-21.0-1.1","SS1619739341788","trial","","40","500","4203.9199999999255","images/stimuli/spore_stims/complex_01_A_a.gif","images/stimuli/spore_stims/complex_06_A_b.gif","forced_long","","6","complex_dissimilar","images/stimuli/spore_stims/complex_06_A_b.gif","","","","",""
"","null","html-keyboard-response","85","489576","0.0-21.0-0.2","SS1619739341788","","","null","","","","","","<p><img src= images/blank.png width =""600"" height = ""600"" style=""position:fixed;top:50%; left:50%; transform: translate(-50%, -50%); border:5px solid black"">","","","","","","","",""
"","3948.685000068508","sequential-stimulus-presentation-old","86","494048","0.0-21.0-1.2","SS1619739341788","trial","","40","500","4448.685000068508","images/stimuli/spore_stims/complex_01_A_a.gif","images/stimuli/spore_stims/complex_06_A_b.gif","forced_long","","6","complex_dissimilar","images/stimuli/spore_stims/complex_01_A_a.gif","","","","",""
"","null","html-keyboard-response","87","494949","0.0-21.0-0.3","SS1619739341788","","","null","","","","","","<p><img src= images/blank.png width =""600"" height = ""600"" style=""position:fixed;top:50%; left:50%; transform: translate(-50%, -50%); border:5px solid black"">","","","","","","","",""
"","3473.8999999826774","sequential-stimulus-presentation-old","88","498936","0.0-21.0-1.3","SS1619739341788","trial","","40","500","3973.8999999826774","images/stimuli/spore_stims/complex_01_A_a.gif","images/stimuli/spore_stims/complex_06_A_b.gif","forced_long","","6","complex_dissimilar","images/stimuli/spore_stims/complex_06_A_b.gif","","","","",""
"","null","html-keyboard-response","89","499807","0.0-21.0-0.4","SS1619739341788","","","null","","","","","","<p><img src= images/blank.png width =""600"" height = ""600"" style=""position:fixed;top:50%; left:50%; transform: translate(-50%, -50%); border:5px solid black"">","","","","","","","",""
"","2912.584999925457","sequential-stimulus-presentation-old","90","503239","0.0-21.0-1.4","SS1619739341788","trial","","40","500","3412.584999925457","images/stimuli/spore_stims/complex_01_A_a.gif","images/stimuli/spore_stims/complex_06_A_b.gif","forced_long","","6","complex_dissimilar","images/stimuli/spore_stims/complex_01_A_a.gif","","","","",""
"","4368.495000060648","survey-multi-choice","91","507618","0.0-22.0","SS1619739341788","math_question","","","","","","","","","","","","{""Q0"":""13""}","[0]","13","",""
"","null","html-keyboard-response","92","508844","0.0-23.0-0.0","SS1619739341788","","","null","","","","","","<p><img src= images/blank.png width =""600"" height = ""600"" style=""position:fixed;top:50%; left:50%; transform: translate(-50%, -50%); border:5px solid black"">","","","","","","","",""
"","2144.8949999175966","sequential-stimulus-presentation-old","93","511505","0.0-23.0-1.0","SS1619739341788","trial","","40","500","2644.8949999175966","images/stimuli/spore_stims/simple_17_A_a.gif","images/stimuli/spore_stims/simple_02_A_b.gif","self_paced","","7","simple_dissimilar","images/stimuli/spore_stims/simple_02_A_b.gif","","","","",""
"","null","html-keyboard-response","94","512440","0.0-23.0-0.1","SS1619739341788","","","null","","","","","","<p><img src= images/blank.png width =""600"" height = ""600"" style=""position:fixed;top:50%; left:50%; transform: translate(-50%, -50%); border:5px solid black"">","","","","","","","",""
"","2815.2950000949204","sequential-stimulus-presentation-old","95","515788","0.0-23.0-1.1","SS1619739341788","trial","","40","500","3315.2950000949204","images/stimuli/spore_stims/simple_17_A_a.gif","images/stimuli/spore_stims/simple_02_A_b.gif","self_paced","","7","simple_dissimilar","images/stimuli/spore_stims/simple_02_A_b.gif","","","","",""
"","null","html-keyboard-response","96","516653","0.0-23.0-0.2","SS1619739341788","","","null","","","","","","<p><img src= images/blank.png width =""600"" height = ""600"" style=""position:fixed;top:50%; left:50%; transform: translate(-50%, -50%); border:5px solid black"">","","","","","","","",""
"","2938.6049999156967","sequential-stimulus-presentation-old","97","520108","0.0-23.0-1.2","SS1619739341788","trial","","40","500","3438.6049999156967","images/stimuli/spore_stims/simple_17_A_a.gif","images/stimuli/spore_stims/simple_02_A_b.gif","self_paced","","7","simple_dissimilar","images/stimuli/spore_stims/simple_02_A_b.gif","","","","",""
"","null","html-keyboard-response","98","521311","0.0-23.0-0.3","SS1619739341788","","","null","","","","","","<p><img src= images/blank.png width =""600"" height = ""600"" style=""position:fixed;top:50%; left:50%; transform: translate(-50%, -50%); border:5px solid black"">","","","","","","","",""
"","1849.4750000536442","sequential-stimulus-presentation-old","99","523679","0.0-23.0-1.3","SS1619739341788","trial","","40","500","2349.475000053644","images/stimuli/spore_stims/simple_17_A_a.gif","images/stimuli/spore_stims/simple_02_A_b.gif","self_paced","","7","simple_dissimilar","images/stimuli/spore_stims/simple_02_A_b.gif","","","","",""
"","null","html-keyboard-response","100","524824","0.0-23.0-0.4","SS1619739341788","","","null","","","","","","<p><img src= images/blank.png width =""600"" height = ""600"" style=""position:fixed;top:50%; left:50%; transform: translate(-50%, -50%); border:5px solid black"">","","","","","","","",""
"","3688.67499998305","sequential-stimulus-presentation-old","101","529032","0.0-23.0-1.4","SS1619739341788","trial","","40","500","4188.67499998305","images/stimuli/spore_stims/simple_17_A_a.gif","images/stimuli/spore_stims/simple_02_A_b.gif","self_paced","","7","simple_dissimilar","images/stimuli/spore_stims/simple_17_A_a.gif","","","","",""
"","null","html-keyboard-response","102","530018","0.0-23.0-0.5","SS1619739341788","","","null","","","","","","<p><img src= images/blank.png width =""600"" height = ""600"" style=""position:fixed;top:50%; left:50%; transform: translate(-50%, -50%); border:5px solid black"">","","","","","","","",""
"","3461.8049999698997","sequential-stimulus-presentation-old","103","534005","0.0-23.0-1.5","SS1619739341788","trial","","40","500","3961.8049999698997","images/stimuli/spore_stims/simple_17_A_a.gif","images/stimuli/spore_stims/simple_02_A_b.gif","self_paced","","7","simple_dissimilar","images/stimuli/spore_stims/simple_17_A_a.gif","","","","",""
"","3814.750000019558","survey-multi-choice","104","537832","0.0-24.0","SS1619739341788","math_question","","","","","","","","","","","","{""Q0"":""4""}","[0]","4","",""
"","null","html-keyboard-response","105","539152","0.0-25.0-0.0","SS1619739341788","","","null","","","","","","<p><img src= images/blank.png width =""600"" height = ""600"" style=""position:fixed;top:50%; left:50%; transform: translate(-50%, -50%); border:5px solid black"">","","","","","","","",""
"","3071.3250000262633","sequential-stimulus-presentation-old","106","542732","0.0-25.0-1.0","SS1619739341788","trial","","40","500","3571.3250000262633","images/stimuli/spore_stims/complex_01_A_b.gif","images/stimuli/spore_stims/complex_02_A_a.gif","self_paced","","8","complex_dissimilar","images/stimuli/spore_stims/complex_02_A_a.gif","","","","",""
"","null","html-keyboard-response","107","543631","0.0-25.0-0.1","SS1619739341788","","","null","","","","","","<p><img src= images/blank.png width =""600"" height = ""600"" style=""position:fixed;top:50%; left:50%; transform: translate(-50%, -50%); border:5px solid black"">","","","","","","","",""
"","3555.7199999457225","sequential-stimulus-presentation-old","108","547719","0.0-25.0-1.1","SS1619739341788","trial","","40","500","4055.7199999457225","images/stimuli/spore_stims/complex_01_A_b.gif","images/stimuli/spore_stims/complex_02_A_a.gif","self_paced","","8","complex_dissimilar","images/stimuli/spore_stims/complex_02_A_a.gif","","","","",""
"","null","html-keyboard-response","109","548601","0.0-25.0-0.2","SS1619739341788","","","null","","","","","","<p><img src= images/blank.png width =""600"" height = ""600"" style=""position:fixed;top:50%; left:50%; transform: translate(-50%, -50%); border:5px solid black"">","","","","","","","",""
"","3659.4950000289828","sequential-stimulus-presentation-old","110","552790","0.0-25.0-1.2","SS1619739341788","trial","","40","500","4159.495000028983","images/stimuli/spore_stims/complex_01_A_b.gif","images/stimuli/spore_stims/complex_02_A_a.gif","self_paced","","8","complex_dissimilar","images/stimuli/spore_stims/complex_02_A_a.gif","","","","",""
"","null","html-keyboard-response","111","554020","0.0-25.0-0.3","SS1619739341788","","","null","","","","","","<p><img src= images/blank.png width =""600"" height = ""600"" style=""position:fixed;top:50%; left:50%; transform: translate(-50%, -50%); border:5px solid black"">","","","","","","","",""
"","4199.434999958612","sequential-stimulus-presentation-old","112","558755","0.0-25.0-1.3","SS1619739341788","trial","","40","500","4699.434999958612","images/stimuli/spore_stims/complex_01_A_b.gif","images/stimuli/spore_stims/complex_02_A_a.gif","self_paced","","8","complex_dissimilar","images/stimuli/spore_stims/complex_02_A_a.gif","","","","",""
"","null","html-keyboard-response","113","559604","0.0-25.0-0.4","SS1619739341788","","","null","","","","","","<p><img src= images/blank.png width =""600"" height = ""600"" style=""position:fixed;top:50%; left:50%; transform: translate(-50%, -50%); border:5px solid black"">","","","","","","","",""
"","2710.8500000322238","sequential-stimulus-presentation-old","114","562836","0.0-25.0-1.4","SS1619739341788","trial","","40","500","3210.8500000322238","images/stimuli/spore_stims/complex_01_A_b.gif","images/stimuli/spore_stims/complex_02_A_a.gif","self_paced","","8","complex_dissimilar","images/stimuli/spore_stims/complex_02_A_a.gif","","","","",""
"","3372.1000000368804","survey-multi-choice","115","566221","0.0-26.0","SS1619739341788","math_question","","","","","","","","","","","","{""Q0"":""7""}","[0]","7","",""
"","null","html-keyboard-response","116","567404","0.0-27.0-0.0","SS1619739341788","","","null","","","","","","<p><img src= images/blank.png width =""600"" height = ""600"" style=""position:fixed;top:50%; left:50%; transform: translate(-50%, -50%); border:5px solid black"">","","","","","","","",""
"","2251.3099999632686","sequential-stimulus-presentation-old","117","570176","0.0-27.0-1.0","SS1619739341788","trial","","40","500","2751.3099999632686","images/stimuli/spore_stims/simple_16_A_b.gif","images/stimuli/spore_stims/simple_20_A_a.gif","self_paced","","9","simple_dissimilar","images/stimuli/spore_stims/simple_20_A_a.gif","","","","",""
"","null","html-keyboard-response","118","571054","0.0-27.0-0.1","SS1619739341788","","","null","","","","","","<p><img src= images/blank.png width =""600"" height = ""600"" style=""position:fixed;top:50%; left:50%; transform: translate(-50%, -50%); border:5px solid black"">","","","","","","","",""
"","3874.3049999466166","sequential-stimulus-presentation-old","119","575444","0.0-27.0-1.1","SS1619739341788","trial","","40","500","4374.304999946617","images/stimuli/spore_stims/simple_16_A_b.gif","images/stimuli/spore_stims/simple_20_A_a.gif","self_paced","","9","simple_dissimilar","images/stimuli/spore_stims/simple_20_A_a.gif","","","","",""
"","null","html-keyboard-response","120","576370","0.0-27.0-0.2","SS1619739341788","","","null","","","","","","<p><img src= images/blank.png width =""600"" height = ""600"" style=""position:fixed;top:50%; left:50%; transform: translate(-50%, -50%); border:5px solid black"">","","","","","","","",""
"","2746.4950000867248","sequential-stimulus-presentation-old","121","579635","0.0-27.0-1.2","SS1619739341788","trial","","40","500","3246.4950000867248","images/stimuli/spore_stims/simple_16_A_b.gif","images/stimuli/spore_stims/simple_20_A_a.gif","self_paced","","9","simple_dissimilar","images/stimuli/spore_stims/simple_20_A_a.gif","","","","",""
"","null","html-keyboard-response","122","580660","0.0-27.0-0.3","SS1619739341788","","","null","","","","","","<p><img src= images/blank.png width =""600"" height = ""600"" style=""position:fixed;top:50%; left:50%; transform: translate(-50%, -50%); border:5px solid black"">","","","","","","","",""
"","2878.400000045076","sequential-stimulus-presentation-old","123","584052","0.0-27.0-1.3","SS1619739341788","trial","","40","500","3378.400000045076","images/stimuli/spore_stims/simple_16_A_b.gif","images/stimuli/spore_stims/simple_20_A_a.gif","self_paced","","9","simple_dissimilar","images/stimuli/spore_stims/simple_16_A_b.gif","","","","",""
"","null","html-keyboard-response","124","585251","0.0-27.0-0.4","SS1619739341788","","","null","","","","","","<p><img src= images/blank.png width =""600"" height = ""600"" style=""position:fixed;top:50%; left:50%; transform: translate(-50%, -50%); border:5px solid black"">","","","","","","","",""
"","2519.9700000230223","sequential-stimulus-presentation-old","125","588288","0.0-27.0-1.4","SS1619739341788","trial","","40","500","3019.9700000230223","images/stimuli/spore_stims/simple_16_A_b.gif","images/stimuli/spore_stims/simple_20_A_a.gif","self_paced","","9","simple_dissimilar","images/stimuli/spore_stims/simple_16_A_b.gif","","","","",""
"","null","html-keyboard-response","126","589143","0.0-27.0-0.5","SS1619739341788","","","null","","","","","","<p><img src= images/blank.png width =""600"" height = ""600"" style=""position:fixed;top:50%; left:50%; transform: translate(-50%, -50%); border:5px solid black"">","","","","","","","",""
"","3086.5500000072643","sequential-stimulus-presentation-old","127","592757","0.0-27.0-1.5","SS1619739341788","trial","","40","500","3586.5500000072643","images/stimuli/spore_stims/simple_16_A_b.gif","images/stimuli/spore_stims/simple_20_A_a.gif","self_paced","","9","simple_dissimilar","images/stimuli/spore_stims/simple_20_A_a.gif","","","","",""
"","5119.754999992438","survey-multi-choice","128","597889","0.0-28.0","SS1619739341788","math_question","","","","","","","","","","","","{""Q0"":""11""}","[0]","11","",""
"","null","html-keyboard-response","129","599000","0.0-29.0-0.0","SS1619739341788","","","null","","","","","","<p><img src= images/blank.png width =""600"" height = ""600"" style=""position:fixed;top:50%; left:50%; transform: translate(-50%, -50%); border:5px solid black"">","","","","","","","",""
"","1148.6550000263378","sequential-stimulus-presentation-old","130","600663","0.0-29.0-1.0","SS1619739341788","trial","","40","500","1648.6550000263378","images/stimuli/spore_stims/simple_13_A_b.gif","images/stimuli/spore_stims/simple_16_A_a.gif","forced_short","","10","simple_dissimilar","images/stimuli/spore_stims/simple_16_A_a.gif","","","","",""
"","null","html-keyboard-response","131","601780","0.0-29.0-0.1","SS1619739341788","","","null","","","","","","<p><img src= images/blank.png width =""600"" height = ""600"" style=""position:fixed;top:50%; left:50%; transform: translate(-50%, -50%); border:5px solid black"">","","","","","","","",""
"","1516.5450000204146","sequential-stimulus-presentation-old","132","603840","0.0-29.0-1.1","SS1619739341788","trial","","40","500","2016.5450000204146","images/stimuli/spore_stims/simple_13_A_b.gif","images/stimuli/spore_stims/simple_16_A_a.gif","forced_short","","10","simple_dissimilar","images/stimuli/spore_stims/simple_16_A_a.gif","","","","",""
"","null","html-keyboard-response","133","605068","0.0-29.0-0.2","SS1619739341788","","","null","","","","","","<p><img src= images/blank.png width =""600"" height = ""600"" style=""position:fixed;top:50%; left:50%; transform: translate(-50%, -50%); border:5px solid black"">","","","","","","","",""
"","1895.604999968782","sequential-stimulus-presentation-old","134","607491","0.0-29.0-1.2","SS1619739341788","trial","","40","500","2395.604999968782","images/stimuli/spore_stims/simple_13_A_b.gif","images/stimuli/spore_stims/simple_16_A_a.gif","forced_short","","10","simple_dissimilar","images/stimuli/spore_stims/simple_13_A_b.gif","","","","",""
"","null","html-keyboard-response","135","608514","0.0-29.0-0.3","SS1619739341788","","","null","","","","","","<p><img src= images/blank.png width =""600"" height = ""600"" style=""position:fixed;top:50%; left:50%; transform: translate(-50%, -50%); border:5px solid black"">","","","","","","","",""
"","1592.685000039637","sequential-stimulus-presentation-old","136","610627","0.0-29.0-1.3","SS1619739341788","trial","","40","500","2092.685000039637","images/stimuli/spore_stims/simple_13_A_b.gif","images/stimuli/spore_stims/simple_16_A_a.gif","forced_short","","10","simple_dissimilar","images/stimuli/spore_stims/simple_16_A_a.gif","","","","",""
"","null","html-keyboard-response","137","611454","0.0-29.0-0.4","SS1619739341788","","","null","","","","","","<p><img src= images/blank.png width =""600"" height = ""600"" style=""position:fixed;top:50%; left:50%; transform: translate(-50%, -50%); border:5px solid black"">","","","","","","","",""
"","2112.0949999894947","sequential-stimulus-presentation-old","138","614081","0.0-29.0-1.4","SS1619739341788","trial","","40","500","2612.0949999894947","images/stimuli/spore_stims/simple_13_A_b.gif","images/stimuli/spore_stims/simple_16_A_a.gif","forced_short","","10","simple_dissimilar","images/stimuli/spore_stims/simple_13_A_b.gif","","","","",""
"","null","html-keyboard-response","139","615325","0.0-29.0-0.5","SS1619739341788","","","null","","","","","","<p><img src= images/blank.png width =""600"" height = ""600"" style=""position:fixed;top:50%; left:50%; transform: translate(-50%, -50%); border:5px solid black"">","","","","","","","",""
"","682.1950000012293","sequential-stimulus-presentation-old","140","616525","0.0-29.0-1.5","SS1619739341788","trial","","40","500","1182.1950000012293","images/stimuli/spore_stims/simple_13_A_b.gif","images/stimuli/spore_stims/simple_16_A_a.gif","forced_short","","10","simple_dissimilar","images/stimuli/spore_stims/simple_16_A_a.gif","","","","",""
"","3999.2349999956787","survey-multi-choice","141","620543","0.0-30.0","SS1619739341788","math_question","","","","","","","","","","","","{""Q0"":""9""}","[0]","9","",""
"","null","html-keyboard-response","142","621829","0.0-31.0-0.0","SS1619739341788","","","null","","","","","","<p><img src= images/blank.png width =""600"" height = ""600"" style=""position:fixed;top:50%; left:50%; transform: translate(-50%, -50%); border:5px solid black"">","","","","","","","",""
"","677.5300001027063","sequential-stimulus-presentation-old","143","637548","0.0-31.0-1.0","SS1619739341788","trial","","40","500","1177.5300001027063","images/stimuli/spore_stims/simple_07_A_b.gif","images/stimuli/spore_stims/simple_05_A_a.gif","forced_long","","11","simple_dissimilar","images/stimuli/spore_stims/simple_05_A_a.gif","","","","",""
"","null","html-keyboard-response","144","638854","0.0-31.0-0.1","SS1619739341788","","","null","","","","","","<p><img src= images/blank.png width =""600"" height = ""600"" style=""position:fixed;top:50%; left:50%; transform: translate(-50%, -50%); border:5px solid black"">","","","","","","","",""
"","1505.654999986291","sequential-stimulus-presentation-old","145","640884","0.0-31.0-1.1","SS1619739341788","trial","","40","500","2005.654999986291","images/stimuli/spore_stims/simple_07_A_b.gif","images/stimuli/spore_stims/simple_05_A_a.gif","forced_long","","11","simple_dissimilar","images/stimuli/spore_stims/simple_05_A_a.gif","","","","",""
"","null","html-keyboard-response","146","641952","0.0-31.0-0.2","SS1619739341788","","","null","","","","","","<p><img src= images/blank.png width =""600"" height = ""600"" style=""position:fixed;top:50%; left:50%; transform: translate(-50%, -50%); border:5px solid black"">","","","","","","","",""
"","2866.069999989122","sequential-stimulus-presentation-old","147","645338","0.0-31.0-1.2","SS1619739341788","trial","","40","500","3366.069999989122","images/stimuli/spore_stims/simple_07_A_b.gif","images/stimuli/spore_stims/simple_05_A_a.gif","forced_long","","11","simple_dissimilar","images/stimuli/spore_stims/simple_05_A_a.gif","","","","",""
"","null","html-keyboard-response","148","646252","0.0-31.0-0.3","SS1619739341788","","","null","","","","","","<p><img src= images/blank.png width =""600"" height = ""600"" style=""position:fixed;top:50%; left:50%; transform: translate(-50%, -50%); border:5px solid black"">","","","","","","","",""
"","1463.8700000941753","sequential-stimulus-presentation-old","149","648241","0.0-31.0-1.3","SS1619739341788","trial","","40","500","1963.8700000941753","images/stimuli/spore_stims/simple_07_A_b.gif","images/stimuli/spore_stims/simple_05_A_a.gif","forced_long","","11","simple_dissimilar","images/stimuli/spore_stims/simple_05_A_a.gif","","","","",""
"","null","html-keyboard-response","150","649333","0.0-31.0-0.4","SS1619739341788","","","null","","","","","","<p><img src= images/blank.png width =""600"" height = ""600"" style=""position:fixed;top:50%; left:50%; transform: translate(-50%, -50%); border:5px solid black"">","","","","","","","",""
"","1392.6750000100583","sequential-stimulus-presentation-old","151","651245","0.0-31.0-1.4","SS1619739341788","trial","","40","500","1892.6750000100583","images/stimuli/spore_stims/simple_07_A_b.gif","images/stimuli/spore_stims/simple_05_A_a.gif","forced_long","","11","simple_dissimilar","images/stimuli/spore_stims/simple_05_A_a.gif","","","","",""
"[{""page_index"":0,""viewing_time"":4335.97999997437}]","4336.669999989681","instructions","152","655596","0.0-32.0","SS1619739341788","instructions","","","","","","","","","","","","","","","",""
"","14673.33499994129","survey-likert","153","670293","0.0-33.0","SS1619739341788","similarity_question","","","","","","","","","","","","{""Q0"":1}","[0]","","images/stimuli/spore_stims/complex_05_A_a.gif","images/stimuli/spore_stims/complex_20_A_b.gif"
"","5134.735000086948","survey-likert","154","675469","0.0-34.0","SS1619739341788","similarity_question","","","","","","","","","","","","{""Q0"":4}","[0]","","images/stimuli/spore_stims/simple_07_A_a.gif","images/stimuli/spore_stims/simple_03_A_b.gif"
"","6550.259999930859","survey-likert","155","682062","0.0-35.0","SS1619739341788","similarity_question","","","","","","","","","","","","{""Q0"":2}","[0]","","images/stimuli/spore_stims/complex_16_A_a.gif","images/stimuli/spore_stims/complex_10_A_b.gif"
"","6851.150000002235","survey-likert","156","688958","0.0-36.0","SS1619739341788","similarity_question","","","","","","","","","","","","{""Q0"":5}","[0]","","images/stimuli/spore_stims/simple_02_A_b.gif","images/stimuli/spore_stims/simple_17_A_a.gif"
"","5470.424999948591","survey-likert","157","694470","0.0-37.0","SS1619739341788","similarity_question","","","","","","","","","","","","{""Q0"":1}","[0]","","images/stimuli/spore_stims/complex_18_A_b.gif","images/stimuli/spore_stims/complex_13_A_a.gif"
"","8229.425000026822","survey-likert","158","702743","0.0-38.0","SS1619739341788","similarity_question","","","","","","","","","","","","{""Q0"":3}","[0]","","images/stimuli/spore_stims/simple_10_A_b.gif","images/stimuli/spore_stims/simple_11_A_a.gif"
"","8790.464999969117","survey-likert","159","711567","0.0-39.0","SS1619739341788","similarity_question","","","","","","","","","","","","{""Q0"":4}","[0]","","images/stimuli/spore_stims/complex_01_A_a.gif","images/stimuli/spore_stims/complex_06_A_b.gif"
"","4201.5400000382215","survey-likert","160","715805","0.0-40.0","SS1619739341788","similarity_question","","","","","","","","","","","","{""Q0"":3}","[0]","","images/stimuli/spore_stims/simple_13_A_b.gif","images/stimuli/spore_stims/simple_16_A_a.gif"
"","8659.594999975525","survey-likert","161","724474","0.0-41.0","SS1619739341788","similarity_question","","","","","","","","","","","","{""Q0"":4}","[0]","","images/stimuli/spore_stims/complex_09_A_b.gif","images/stimuli/spore_stims/complex_06_A_a.gif"
"","6824.170000036247","survey-likert","162","731310","0.0-42.0","SS1619739341788","similarity_question","","","","","","","","","","","","{""Q0"":3}","[0]","","images/stimuli/spore_stims/simple_20_A_a.gif","images/stimuli/spore_stims/simple_16_A_b.gif"
"","5528.300000005402","survey-likert","163","736860","0.0-43.0","SS1619739341788","similarity_question","","","","","","","","","","","","{""Q0"":1}","[0]","","images/stimuli/spore_stims/complex_02_A_a.gif","images/stimuli/spore_stims/complex_01_A_b.gif"
"","6509.094999986701","survey-likert","164","743405","0.0-44.0","SS1619739341788","similarity_question","","","","","","","","","","","","{""Q0"":3}","[0]","","images/stimuli/spore_stims/simple_07_A_b.gif","images/stimuli/spore_stims/simple_05_A_a.gif"
"[{""page_index"":0,""viewing_time"":3089.105000020936}]","3091.355000040494","instructions","165","746506","0.0-45.0","SS1619739341788","instructions","","","","","","","","","","","","","","","",""
"","5532.345000072382","survey-likert","166","752057","0.0-46.0","SS1619739341788","","","","","","","","","images/stimuli/spore_stims/simple_02_A_b.gif","","","","{""Q0"":1}","[0]","","",""
"","3853.289999999106","survey-likert","167","755919","0.0-47.0","SS1619739341788","","","","","","","","","images/stimuli/spore_stims/complex_02_A_a.gif","","","","{""Q0"":5}","[0]","","",""
"","3694.245000020601","survey-likert","168","759650","0.0-48.0","SS1619739341788","","","","","","","","","images/stimuli/spore_stims/simple_16_A_b.gif","","","","{""Q0"":1}","[0]","","",""
"","4848.509999923408","survey-likert","169","764537","0.0-49.0","SS1619739341788","","","","","","","","","images/stimuli/spore_stims/simple_13_A_b.gif","","","","{""Q0"":1}","[0]","","",""
"","3554.6249999897555","survey-likert","170","768137","0.0-50.0","SS1619739341788","","","","","","","","","images/stimuli/spore_stims/simple_05_A_a.gif","","","","{""Q0"":1}","[0]","","",""
"","4133.184999926016","survey-likert","171","772307","0.0-51.0","SS1619739341788","","","","","","","","","images/stimuli/spore_stims/complex_06_A_b.gif","","","","{""Q0"":5}","[0]","","",""
"","3441.270000068471","survey-likert","172","775789","0.0-52.0","SS1619739341788","","","","","","","","","images/stimuli/spore_stims/complex_16_A_a.gif","","","","{""Q0"":5}","[0]","","",""
"","3469.7399999713525","survey-likert","173","779299","0.0-53.0","SS1619739341788","","","","","","","","","images/stimuli/spore_stims/complex_18_A_b.gif","","","","{""Q0"":5}","[0]","","",""
"","3418.6350000090897","survey-likert","174","782761","0.0-54.0","SS1619739341788","","","","","","","","","images/stimuli/spore_stims/simple_03_A_b.gif","","","","{""Q0"":1}","[0]","","",""
"","5021.775000030175","survey-likert","175","787832","0.0-55.0","SS1619739341788","","","","","","","","","images/stimuli/spore_stims/complex_05_A_a.gif","","","","{""Q0"":5}","[0]","","",""
"","4155.664999969304","survey-likert","176","792032","0.0-56.0","SS1619739341788","","","","","","","","","images/stimuli/spore_stims/complex_06_A_a.gif","","","","{""Q0"":6}","[0]","","",""
"","3561.170000000857","survey-likert","177","795631","0.0-57.0","SS1619739341788","","","","","","","","","images/stimuli/spore_stims/simple_11_A_a.gif","","","","{""Q0"":0}","[0]","","",""
"[{""page_index"":0,""viewing_time"":2060.3650000412017}]","2060.9150000382215","instructions","178","797731","0.0-58.0","SS1619739341788","instructions","","","","","","","","","","","","","","","",""
"","4262.665000045672","demog-age","179","802028","0.0-59.0","SS1619739341788","","","","","","","","","","","","","{""age"":""22""}","","","",""
"","8414.02999998536","demog-ethnic-US","180","810458","0.0-60.0","SS1619739341788","","","","","","","","","","","","","{""ethnicity"":[""Hispanic or Latino"",""White""]}","[0]","","",""
"","12465.380000066943","demog-gender-and-education","181","822973","0.0-61.0","SS1619739341788","","","","","","","","","","","","","{""gender"":""Female"",""education"":""High school diploma""}","[0,1]","","",""
"","26003.075000015087","survey-text","182","848996","0.0-62.0","SS1619739341788","feedback","","","","","","","","","","","","{""Q0"":""no problem, very curious about the purpose of the experiment""}","","","",""
"[{""page_index"":0,""viewing_time"":1851.369999931194}]","1852.2649999940768","instructions","183","850867","0.0-63.0","SS1619739341788","instructions","","","","","","","","","","","","","","","",""
