"view_history","rt","trial_type","trial_index","time_elapsed","internal_node_id","subject","stimulus_type","trial_stimulus","key_press","minimum_viewing_duration","trial_looking_time","block_deviant","block_background","exposure_type","stimulus","block_number","block_type","stimulus_displayed","responses","question_order","math_correct_answer","stimulus_left","stimulus_right"
"[{""page_index"":0,""viewing_time"":10221}]","10221","instructions","0","10221","0.0-0.0","SS1619739236312","","","","","","","","","","","","","","","","",""
"[{""page_index"":0,""viewing_time"":21499},{""page_index"":1,""viewing_time"":11562}]","33061","instructions","1","45285","0.0-1.0","SS1619739236312","instructions","","","","","","","","","","","","","","","",""
"","22903","sequential-stimulus-presentation-old","2","68693","0.0-2.0","SS1619739236312","","","40","500","23403","null","null","self_paced","","","","","","","","",""
"","20435","sequential-stimulus-presentation-old","3","89642","0.0-3.0","SS1619739236312","","","40","500","20935","null","null","self_paced","","","","","","","","",""
"[{""page_index"":0,""viewing_time"":24248}]","24248","instructions","4","113892","0.0-4.0","SS1619739236312","instructions","","","","","","","","","","","","","","","",""
"","5798","sequential-stimulus-presentation-old","5","134697","0.0-5.0","SS1619739236312","","","40","500","6298","null","null","forced_long","","","","","","","","",""
"","10124","sequential-stimulus-presentation-old","6","145335","0.0-6.0","SS1619739236312","","","40","500","10624","null","null","forced_long","","","","","","","","",""
"[{""page_index"":0,""viewing_time"":6173}]","6173","instructions","7","151510","0.0-7.0","SS1619739236312","instructions","","","","","","","","","","","","","","","",""
"[{""page_index"":0,""viewing_time"":10139},{""page_index"":1,""viewing_time"":29330},{""page_index"":2,""viewing_time"":11887},{""page_index"":3,""viewing_time"":3570},{""page_index"":4,""viewing_time"":2442}]","57368","instructions","8","208880","0.0-8.0","SS1619739236312","instructions","","","","","","","","","","","","","","","",""
"","null","html-keyboard-response","9","209796","0.0-9.0-0.0","SS1619739236312","","","null","","","","","","<p><img src= images/blank.png width =""600"" height = ""600"" style=""position:fixed;top:50%; left:50%; transform: translate(-50%, -50%); border:5px solid black"">","","","","","","","",""
"","34288","sequential-stimulus-presentation-old","10","244590","0.0-9.0-1.0","SS1619739236312","trial","","40","500","34788","images/stimuli/spore_stims/complex_08_A_b.gif","images/stimuli/spore_stims/complex_14_A_a.gif","self_paced","","0","complex_dissimilar","images/stimuli/spore_stims/complex_14_A_a.gif","","","","",""
"","null","html-keyboard-response","11","245871","0.0-9.0-0.1","SS1619739236312","","","null","","","","","","<p><img src= images/blank.png width =""600"" height = ""600"" style=""position:fixed;top:50%; left:50%; transform: translate(-50%, -50%); border:5px solid black"">","","","","","","","",""
"","22943","sequential-stimulus-presentation-old","12","269319","0.0-9.0-1.1","SS1619739236312","trial","","40","500","23443","images/stimuli/spore_stims/complex_08_A_b.gif","images/stimuli/spore_stims/complex_14_A_a.gif","self_paced","","0","complex_dissimilar","images/stimuli/spore_stims/complex_08_A_b.gif","","","","",""
"","null","html-keyboard-response","13","270601","0.0-9.0-0.2","SS1619739236312","","","null","","","","","","<p><img src= images/blank.png width =""600"" height = ""600"" style=""position:fixed;top:50%; left:50%; transform: translate(-50%, -50%); border:5px solid black"">","","","","","","","",""
"","8876","sequential-stimulus-presentation-old","14","279985","0.0-9.0-1.2","SS1619739236312","trial","","40","500","9376","images/stimuli/spore_stims/complex_08_A_b.gif","images/stimuli/spore_stims/complex_14_A_a.gif","self_paced","","0","complex_dissimilar","images/stimuli/spore_stims/complex_14_A_a.gif","","","","",""
"","null","html-keyboard-response","15","281227","0.0-9.0-0.3","SS1619739236312","","","null","","","","","","<p><img src= images/blank.png width =""600"" height = ""600"" style=""position:fixed;top:50%; left:50%; transform: translate(-50%, -50%); border:5px solid black"">","","","","","","","",""
"","6312","sequential-stimulus-presentation-old","16","288044","0.0-9.0-1.3","SS1619739236312","trial","","40","500","6812","images/stimuli/spore_stims/complex_08_A_b.gif","images/stimuli/spore_stims/complex_14_A_a.gif","self_paced","","0","complex_dissimilar","images/stimuli/spore_stims/complex_08_A_b.gif","","","","",""
"","null","html-keyboard-response","17","288997","0.0-9.0-0.4","SS1619739236312","","","null","","","","","","<p><img src= images/blank.png width =""600"" height = ""600"" style=""position:fixed;top:50%; left:50%; transform: translate(-50%, -50%); border:5px solid black"">","","","","","","","",""
"","7156","sequential-stimulus-presentation-old","18","296660","0.0-9.0-1.4","SS1619739236312","trial","","40","500","7656","images/stimuli/spore_stims/complex_08_A_b.gif","images/stimuli/spore_stims/complex_14_A_a.gif","self_paced","","0","complex_dissimilar","images/stimuli/spore_stims/complex_14_A_a.gif","","","","",""
"","null","html-keyboard-response","19","297525","0.0-9.0-0.5","SS1619739236312","","","null","","","","","","<p><img src= images/blank.png width =""600"" height = ""600"" style=""position:fixed;top:50%; left:50%; transform: translate(-50%, -50%); border:5px solid black"">","","","","","","","",""
"","14600","sequential-stimulus-presentation-old","20","312632","0.0-9.0-1.5","SS1619739236312","trial","","40","500","15100","images/stimuli/spore_stims/complex_08_A_b.gif","images/stimuli/spore_stims/complex_14_A_a.gif","self_paced","","0","complex_dissimilar","images/stimuli/spore_stims/complex_14_A_a.gif","","","","",""
"","7548","survey-multi-choice","21","320182","0.0-10.0","SS1619739236312","math_question","","","","","","","","","","","","{""Q0"":""13""}","[0]","13","",""
"","null","html-keyboard-response","22","321451","0.0-11.0-0.0","SS1619739236312","","","null","","","","","","<p><img src= images/blank.png width =""600"" height = ""600"" style=""position:fixed;top:50%; left:50%; transform: translate(-50%, -50%); border:5px solid black"">","","","","","","","",""
"","2965","sequential-stimulus-presentation-old","23","339421","0.0-11.0-1.0","SS1619739236312","trial","","40","500","3465","images/stimuli/spore_stims/simple_20_A_a.gif","images/stimuli/spore_stims/simple_07_A_b.gif","forced_long","","1","simple_dissimilar","images/stimuli/spore_stims/simple_07_A_b.gif","","","","",""
"","null","html-keyboard-response","24","340228","0.0-11.0-0.1","SS1619739236312","","","null","","","","","","<p><img src= images/blank.png width =""600"" height = ""600"" style=""position:fixed;top:50%; left:50%; transform: translate(-50%, -50%); border:5px solid black"">","","","","","","","",""
"","17719","sequential-stimulus-presentation-old","25","358455","0.0-11.0-1.1","SS1619739236312","trial","","40","500","18219","images/stimuli/spore_stims/simple_20_A_a.gif","images/stimuli/spore_stims/simple_07_A_b.gif","forced_long","","1","simple_dissimilar","images/stimuli/spore_stims/simple_20_A_a.gif","","","","",""
"","null","html-keyboard-response","26","359676","0.0-11.0-0.2","SS1619739236312","","","null","","","","","","<p><img src= images/blank.png width =""600"" height = ""600"" style=""position:fixed;top:50%; left:50%; transform: translate(-50%, -50%); border:5px solid black"">","","","","","","","",""
"","7040","sequential-stimulus-presentation-old","27","367222","0.0-11.0-1.2","SS1619739236312","trial","","40","500","7540","images/stimuli/spore_stims/simple_20_A_a.gif","images/stimuli/spore_stims/simple_07_A_b.gif","forced_long","","1","simple_dissimilar","images/stimuli/spore_stims/simple_20_A_a.gif","","","","",""
"","null","html-keyboard-response","28","368132","0.0-11.0-0.3","SS1619739236312","","","null","","","","","","<p><img src= images/blank.png width =""600"" height = ""600"" style=""position:fixed;top:50%; left:50%; transform: translate(-50%, -50%); border:5px solid black"">","","","","","","","",""
"","7065","sequential-stimulus-presentation-old","29","375700","0.0-11.0-1.3","SS1619739236312","trial","","40","500","7565","images/stimuli/spore_stims/simple_20_A_a.gif","images/stimuli/spore_stims/simple_07_A_b.gif","forced_long","","1","simple_dissimilar","images/stimuli/spore_stims/simple_07_A_b.gif","","","","",""
"","8855","survey-multi-choice","30","384557","0.0-12.0","SS1619739236312","math_question","","","","","","","","","","","","{""Q0"":""13""}","[0]","13","",""
"","null","html-keyboard-response","31","385362","0.0-13.0-0.0","SS1619739236312","","","null","","","","","","<p><img src= images/blank.png width =""600"" height = ""600"" style=""position:fixed;top:50%; left:50%; transform: translate(-50%, -50%); border:5px solid black"">","","","","","","","",""
"","2920","sequential-stimulus-presentation-old","32","403282","0.0-13.0-1.0","SS1619739236312","trial","","40","500","3420","images/stimuli/spore_stims/simple_20_A_b.gif","images/stimuli/spore_stims/simple_18_A_a.gif","forced_long","","2","simple_dissimilar","images/stimuli/spore_stims/simple_18_A_a.gif","","","","",""
"","null","html-keyboard-response","33","404263","0.0-13.0-0.1","SS1619739236312","","","null","","","","","","<p><img src= images/blank.png width =""600"" height = ""600"" style=""position:fixed;top:50%; left:50%; transform: translate(-50%, -50%); border:5px solid black"">","","","","","","","",""
"","9481","sequential-stimulus-presentation-old","34","414249","0.0-13.0-1.1","SS1619739236312","trial","","40","500","9981","images/stimuli/spore_stims/simple_20_A_b.gif","images/stimuli/spore_stims/simple_18_A_a.gif","forced_long","","2","simple_dissimilar","images/stimuli/spore_stims/simple_18_A_a.gif","","","","",""
"","null","html-keyboard-response","35","415112","0.0-13.0-0.2","SS1619739236312","","","null","","","","","","<p><img src= images/blank.png width =""600"" height = ""600"" style=""position:fixed;top:50%; left:50%; transform: translate(-50%, -50%); border:5px solid black"">","","","","","","","",""
"","6382","sequential-stimulus-presentation-old","36","421997","0.0-13.0-1.2","SS1619739236312","trial","","40","500","6882","images/stimuli/spore_stims/simple_20_A_b.gif","images/stimuli/spore_stims/simple_18_A_a.gif","forced_long","","2","simple_dissimilar","images/stimuli/spore_stims/simple_18_A_a.gif","","","","",""
"","null","html-keyboard-response","37","423007","0.0-13.0-0.3","SS1619739236312","","","null","","","","","","<p><img src= images/blank.png width =""600"" height = ""600"" style=""position:fixed;top:50%; left:50%; transform: translate(-50%, -50%); border:5px solid black"">","","","","","","","",""
"","6937","sequential-stimulus-presentation-old","38","430452","0.0-13.0-1.3","SS1619739236312","trial","","40","500","7437","images/stimuli/spore_stims/simple_20_A_b.gif","images/stimuli/spore_stims/simple_18_A_a.gif","forced_long","","2","simple_dissimilar","images/stimuli/spore_stims/simple_18_A_a.gif","","","","",""
"","7331","survey-multi-choice","39","437784","0.0-14.0","SS1619739236312","math_question","","","","","","","","","","","","{""Q0"":""7""}","[0]","7","",""
"","null","html-keyboard-response","40","438894","0.0-15.0-0.0","SS1619739236312","","","null","","","","","","<p><img src= images/blank.png width =""600"" height = ""600"" style=""position:fixed;top:50%; left:50%; transform: translate(-50%, -50%); border:5px solid black"">","","","","","","","",""
"","2358","sequential-stimulus-presentation-old","41","441755","0.0-15.0-1.0","SS1619739236312","trial","","40","500","2858","images/stimuli/spore_stims/simple_19_A_a.gif","images/stimuli/spore_stims/simple_02_A_b.gif","forced_short","","3","simple_dissimilar","images/stimuli/spore_stims/simple_02_A_b.gif","","","","",""
"","null","html-keyboard-response","42","442838","0.0-15.0-0.1","SS1619739236312","","","null","","","","","","<p><img src= images/blank.png width =""600"" height = ""600"" style=""position:fixed;top:50%; left:50%; transform: translate(-50%, -50%); border:5px solid black"">","","","","","","","",""
"","7225","sequential-stimulus-presentation-old","43","450571","0.0-15.0-1.1","SS1619739236312","trial","","40","500","7725","images/stimuli/spore_stims/simple_19_A_a.gif","images/stimuli/spore_stims/simple_02_A_b.gif","forced_short","","3","simple_dissimilar","images/stimuli/spore_stims/simple_02_A_b.gif","","","","",""
"","null","html-keyboard-response","44","451842","0.0-15.0-0.2","SS1619739236312","","","null","","","","","","<p><img src= images/blank.png width =""600"" height = ""600"" style=""position:fixed;top:50%; left:50%; transform: translate(-50%, -50%); border:5px solid black"">","","","","","","","",""
"","10234","sequential-stimulus-presentation-old","45","462581","0.0-15.0-1.2","SS1619739236312","trial","","40","500","10734","images/stimuli/spore_stims/simple_19_A_a.gif","images/stimuli/spore_stims/simple_02_A_b.gif","forced_short","","3","simple_dissimilar","images/stimuli/spore_stims/simple_19_A_a.gif","","","","",""
"","null","html-keyboard-response","46","463559","0.0-15.0-0.3","SS1619739236312","","","null","","","","","","<p><img src= images/blank.png width =""600"" height = ""600"" style=""position:fixed;top:50%; left:50%; transform: translate(-50%, -50%); border:5px solid black"">","","","","","","","",""
"","9119","sequential-stimulus-presentation-old","47","473184","0.0-15.0-1.3","SS1619739236312","trial","","40","500","9619","images/stimuli/spore_stims/simple_19_A_a.gif","images/stimuli/spore_stims/simple_02_A_b.gif","forced_short","","3","simple_dissimilar","images/stimuli/spore_stims/simple_19_A_a.gif","","","","",""
"","9193","survey-multi-choice","48","482378","0.0-16.0","SS1619739236312","math_question","","","","","","","","","","","","{""Q0"":""16""}","[0]","16","",""
"","null","html-keyboard-response","49","483216","0.0-17.0-0.0","SS1619739236312","","","null","","","","","","<p><img src= images/blank.png width =""600"" height = ""600"" style=""position:fixed;top:50%; left:50%; transform: translate(-50%, -50%); border:5px solid black"">","","","","","","","",""
"","1901","sequential-stimulus-presentation-old","50","485623","0.0-17.0-1.0","SS1619739236312","trial","","40","500","2401","images/stimuli/spore_stims/simple_09_A_a.gif","images/stimuli/spore_stims/simple_08_A_b.gif","forced_short","","4","simple_dissimilar","images/stimuli/spore_stims/simple_08_A_b.gif","","","","",""
"","null","html-keyboard-response","51","486508","0.0-17.0-0.1","SS1619739236312","","","null","","","","","","<p><img src= images/blank.png width =""600"" height = ""600"" style=""position:fixed;top:50%; left:50%; transform: translate(-50%, -50%); border:5px solid black"">","","","","","","","",""
"","7334","sequential-stimulus-presentation-old","52","494348","0.0-17.0-1.1","SS1619739236312","trial","","40","500","7834","images/stimuli/spore_stims/simple_09_A_a.gif","images/stimuli/spore_stims/simple_08_A_b.gif","forced_short","","4","simple_dissimilar","images/stimuli/spore_stims/simple_08_A_b.gif","","","","",""
"","null","html-keyboard-response","53","495282","0.0-17.0-0.2","SS1619739236312","","","null","","","","","","<p><img src= images/blank.png width =""600"" height = ""600"" style=""position:fixed;top:50%; left:50%; transform: translate(-50%, -50%); border:5px solid black"">","","","","","","","",""
"","8727","sequential-stimulus-presentation-old","54","504513","0.0-17.0-1.2","SS1619739236312","trial","","40","500","9227","images/stimuli/spore_stims/simple_09_A_a.gif","images/stimuli/spore_stims/simple_08_A_b.gif","forced_short","","4","simple_dissimilar","images/stimuli/spore_stims/simple_08_A_b.gif","","","","",""
"","null","html-keyboard-response","55","505597","0.0-17.0-0.3","SS1619739236312","","","null","","","","","","<p><img src= images/blank.png width =""600"" height = ""600"" style=""position:fixed;top:50%; left:50%; transform: translate(-50%, -50%); border:5px solid black"">","","","","","","","",""
"","3512","sequential-stimulus-presentation-old","56","509613","0.0-17.0-1.3","SS1619739236312","trial","","40","500","4012","images/stimuli/spore_stims/simple_09_A_a.gif","images/stimuli/spore_stims/simple_08_A_b.gif","forced_short","","4","simple_dissimilar","images/stimuli/spore_stims/simple_08_A_b.gif","","","","",""
"","5256","survey-multi-choice","57","514871","0.0-18.0","SS1619739236312","math_question","","","","","","","","","","","","{""Q0"":""11""}","[0]","11","",""
"","null","html-keyboard-response","58","515969","0.0-19.0-0.0","SS1619739236312","","","null","","","","","","<p><img src= images/blank.png width =""600"" height = ""600"" style=""position:fixed;top:50%; left:50%; transform: translate(-50%, -50%); border:5px solid black"">","","","","","","","",""
"","1991","sequential-stimulus-presentation-old","59","518465","0.0-19.0-1.0","SS1619739236312","trial","","40","500","2491","images/stimuli/spore_stims/complex_02_A_b.gif","images/stimuli/spore_stims/complex_11_A_a.gif","forced_short","","5","complex_dissimilar","images/stimuli/spore_stims/complex_11_A_a.gif","","","","",""
"","null","html-keyboard-response","60","519272","0.0-19.0-0.1","SS1619739236312","","","null","","","","","","<p><img src= images/blank.png width =""600"" height = ""600"" style=""position:fixed;top:50%; left:50%; transform: translate(-50%, -50%); border:5px solid black"">","","","","","","","",""
"","18371","sequential-stimulus-presentation-old","61","538149","0.0-19.0-1.1","SS1619739236312","trial","","40","500","18871","images/stimuli/spore_stims/complex_02_A_b.gif","images/stimuli/spore_stims/complex_11_A_a.gif","forced_short","","5","complex_dissimilar","images/stimuli/spore_stims/complex_11_A_a.gif","","","","",""
"","null","html-keyboard-response","62","539013","0.0-19.0-0.2","SS1619739236312","","","null","","","","","","<p><img src= images/blank.png width =""600"" height = ""600"" style=""position:fixed;top:50%; left:50%; transform: translate(-50%, -50%); border:5px solid black"">","","","","","","","",""
"","12296","sequential-stimulus-presentation-old","63","551816","0.0-19.0-1.2","SS1619739236312","trial","","40","500","12796","images/stimuli/spore_stims/complex_02_A_b.gif","images/stimuli/spore_stims/complex_11_A_a.gif","forced_short","","5","complex_dissimilar","images/stimuli/spore_stims/complex_11_A_a.gif","","","","",""
"","null","html-keyboard-response","64","552625","0.0-19.0-0.3","SS1619739236312","","","null","","","","","","<p><img src= images/blank.png width =""600"" height = ""600"" style=""position:fixed;top:50%; left:50%; transform: translate(-50%, -50%); border:5px solid black"">","","","","","","","",""
"","11910","sequential-stimulus-presentation-old","65","565041","0.0-19.0-1.3","SS1619739236312","trial","","40","500","12410","images/stimuli/spore_stims/complex_02_A_b.gif","images/stimuli/spore_stims/complex_11_A_a.gif","forced_short","","5","complex_dissimilar","images/stimuli/spore_stims/complex_11_A_a.gif","","","","",""
"","null","html-keyboard-response","66","566209","0.0-19.0-0.4","SS1619739236312","","","null","","","","","","<p><img src= images/blank.png width =""600"" height = ""600"" style=""position:fixed;top:50%; left:50%; transform: translate(-50%, -50%); border:5px solid black"">","","","","","","","",""
"","5008","sequential-stimulus-presentation-old","67","571721","0.0-19.0-1.4","SS1619739236312","trial","","40","500","5508","images/stimuli/spore_stims/complex_02_A_b.gif","images/stimuli/spore_stims/complex_11_A_a.gif","forced_short","","5","complex_dissimilar","images/stimuli/spore_stims/complex_11_A_a.gif","","","","",""
"","null","html-keyboard-response","68","572765","0.0-19.0-0.5","SS1619739236312","","","null","","","","","","<p><img src= images/blank.png width =""600"" height = ""600"" style=""position:fixed;top:50%; left:50%; transform: translate(-50%, -50%); border:5px solid black"">","","","","","","","",""
"","21319","sequential-stimulus-presentation-old","69","594590","0.0-19.0-1.5","SS1619739236312","trial","","40","500","21819","images/stimuli/spore_stims/complex_02_A_b.gif","images/stimuli/spore_stims/complex_11_A_a.gif","forced_short","","5","complex_dissimilar","images/stimuli/spore_stims/complex_02_A_b.gif","","","","",""
"","4682","survey-multi-choice","70","599275","0.0-20.0","SS1619739236312","math_question","","","","","","","","","","","","{""Q0"":""11""}","[0]","11","",""
"","null","html-keyboard-response","71","600351","0.0-21.0-0.0","SS1619739236312","","","null","","","","","","<p><img src= images/blank.png width =""600"" height = ""600"" style=""position:fixed;top:50%; left:50%; transform: translate(-50%, -50%); border:5px solid black"">","","","","","","","",""
"","1594","sequential-stimulus-presentation-old","72","616949","0.0-21.0-1.0","SS1619739236312","trial","","40","500","2094","images/stimuli/spore_stims/complex_11_A_b.gif","images/stimuli/spore_stims/complex_19_A_a.gif","forced_long","","6","complex_dissimilar","images/stimuli/spore_stims/complex_19_A_a.gif","","","","",""
"","null","html-keyboard-response","73","617760","0.0-21.0-0.1","SS1619739236312","","","null","","","","","","<p><img src= images/blank.png width =""600"" height = ""600"" style=""position:fixed;top:50%; left:50%; transform: translate(-50%, -50%); border:5px solid black"">","","","","","","","",""
"","35846","sequential-stimulus-presentation-old","74","654113","0.0-21.0-1.1","SS1619739236312","trial","","40","500","36346","images/stimuli/spore_stims/complex_11_A_b.gif","images/stimuli/spore_stims/complex_19_A_a.gif","forced_long","","6","complex_dissimilar","images/stimuli/spore_stims/complex_19_A_a.gif","","","","",""
"","null","html-keyboard-response","75","655090","0.0-21.0-0.2","SS1619739236312","","","null","","","","","","<p><img src= images/blank.png width =""600"" height = ""600"" style=""position:fixed;top:50%; left:50%; transform: translate(-50%, -50%); border:5px solid black"">","","","","","","","",""
"","19311","sequential-stimulus-presentation-old","76","674907","0.0-21.0-1.2","SS1619739236312","trial","","40","500","19811","images/stimuli/spore_stims/complex_11_A_b.gif","images/stimuli/spore_stims/complex_19_A_a.gif","forced_long","","6","complex_dissimilar","images/stimuli/spore_stims/complex_19_A_a.gif","","","","",""
"","null","html-keyboard-response","77","675762","0.0-21.0-0.3","SS1619739236312","","","null","","","","","","<p><img src= images/blank.png width =""600"" height = ""600"" style=""position:fixed;top:50%; left:50%; transform: translate(-50%, -50%); border:5px solid black"">","","","","","","","",""
"","11760","sequential-stimulus-presentation-old","78","688026","0.0-21.0-1.3","SS1619739236312","trial","","40","500","12260","images/stimuli/spore_stims/complex_11_A_b.gif","images/stimuli/spore_stims/complex_19_A_a.gif","forced_long","","6","complex_dissimilar","images/stimuli/spore_stims/complex_19_A_a.gif","","","","",""
"","null","html-keyboard-response","79","689328","0.0-21.0-0.4","SS1619739236312","","","null","","","","","","<p><img src= images/blank.png width =""600"" height = ""600"" style=""position:fixed;top:50%; left:50%; transform: translate(-50%, -50%); border:5px solid black"">","","","","","","","",""
"","22829","sequential-stimulus-presentation-old","80","712659","0.0-21.0-1.4","SS1619739236312","trial","","40","500","23329","images/stimuli/spore_stims/complex_11_A_b.gif","images/stimuli/spore_stims/complex_19_A_a.gif","forced_long","","6","complex_dissimilar","images/stimuli/spore_stims/complex_11_A_b.gif","","","","",""
"","7691","survey-multi-choice","81","720352","0.0-22.0","SS1619739236312","math_question","","","","","","","","","","","","{""Q0"":""7""}","[0]","7","",""
"","null","html-keyboard-response","82","721399","0.0-23.0-0.0","SS1619739236312","","","null","","","","","","<p><img src= images/blank.png width =""600"" height = ""600"" style=""position:fixed;top:50%; left:50%; transform: translate(-50%, -50%); border:5px solid black"">","","","","","","","",""
"","14297","sequential-stimulus-presentation-old","83","736201","0.0-23.0-1.0","SS1619739236312","trial","","40","500","14797","images/stimuli/spore_stims/simple_15_A_a.gif","images/stimuli/spore_stims/simple_09_A_b.gif","self_paced","","7","simple_dissimilar","images/stimuli/spore_stims/simple_09_A_b.gif","","","","",""
"","null","html-keyboard-response","84","737258","0.0-23.0-0.1","SS1619739236312","","","null","","","","","","<p><img src= images/blank.png width =""600"" height = ""600"" style=""position:fixed;top:50%; left:50%; transform: translate(-50%, -50%); border:5px solid black"">","","","","","","","",""
"","8233","sequential-stimulus-presentation-old","85","745994","0.0-23.0-1.1","SS1619739236312","trial","","40","500","8733","images/stimuli/spore_stims/simple_15_A_a.gif","images/stimuli/spore_stims/simple_09_A_b.gif","self_paced","","7","simple_dissimilar","images/stimuli/spore_stims/simple_09_A_b.gif","","","","",""
"","null","html-keyboard-response","86","747227","0.0-23.0-0.2","SS1619739236312","","","null","","","","","","<p><img src= images/blank.png width =""600"" height = ""600"" style=""position:fixed;top:50%; left:50%; transform: translate(-50%, -50%); border:5px solid black"">","","","","","","","",""
"","9877","sequential-stimulus-presentation-old","87","757606","0.0-23.0-1.2","SS1619739236312","trial","","40","500","10377","images/stimuli/spore_stims/simple_15_A_a.gif","images/stimuli/spore_stims/simple_09_A_b.gif","self_paced","","7","simple_dissimilar","images/stimuli/spore_stims/simple_09_A_b.gif","","","","",""
"","null","html-keyboard-response","88","758743","0.0-23.0-0.3","SS1619739236312","","","null","","","","","","<p><img src= images/blank.png width =""600"" height = ""600"" style=""position:fixed;top:50%; left:50%; transform: translate(-50%, -50%); border:5px solid black"">","","","","","","","",""
"","7213","sequential-stimulus-presentation-old","89","766460","0.0-23.0-1.3","SS1619739236312","trial","","40","500","7713","images/stimuli/spore_stims/simple_15_A_a.gif","images/stimuli/spore_stims/simple_09_A_b.gif","self_paced","","7","simple_dissimilar","images/stimuli/spore_stims/simple_09_A_b.gif","","","","",""
"","null","html-keyboard-response","90","767657","0.0-23.0-0.4","SS1619739236312","","","null","","","","","","<p><img src= images/blank.png width =""600"" height = ""600"" style=""position:fixed;top:50%; left:50%; transform: translate(-50%, -50%); border:5px solid black"">","","","","","","","",""
"","8181","sequential-stimulus-presentation-old","91","776343","0.0-23.0-1.4","SS1619739236312","trial","","40","500","8681","images/stimuli/spore_stims/simple_15_A_a.gif","images/stimuli/spore_stims/simple_09_A_b.gif","self_paced","","7","simple_dissimilar","images/stimuli/spore_stims/simple_09_A_b.gif","","","","",""
"","null","html-keyboard-response","92","777305","0.0-23.0-0.5","SS1619739236312","","","null","","","","","","<p><img src= images/blank.png width =""600"" height = ""600"" style=""position:fixed;top:50%; left:50%; transform: translate(-50%, -50%); border:5px solid black"">","","","","","","","",""
"","21133","sequential-stimulus-presentation-old","93","798945","0.0-23.0-1.5","SS1619739236312","trial","","40","500","21633","images/stimuli/spore_stims/simple_15_A_a.gif","images/stimuli/spore_stims/simple_09_A_b.gif","self_paced","","7","simple_dissimilar","images/stimuli/spore_stims/simple_15_A_a.gif","","","","",""
"","6362","survey-multi-choice","94","805309","0.0-24.0","SS1619739236312","math_question","","","","","","","","","","","","{""Q0"":""13""}","[0]","13","",""
"","null","html-keyboard-response","95","806388","0.0-25.0-0.0","SS1619739236312","","","null","","","","","","<p><img src= images/blank.png width =""600"" height = ""600"" style=""position:fixed;top:50%; left:50%; transform: translate(-50%, -50%); border:5px solid black"">","","","","","","","",""
"","12238","sequential-stimulus-presentation-old","96","819131","0.0-25.0-1.0","SS1619739236312","trial","","40","500","12738","images/stimuli/spore_stims/complex_18_A_b.gif","images/stimuli/spore_stims/complex_02_A_a.gif","self_paced","","8","complex_dissimilar","images/stimuli/spore_stims/complex_02_A_a.gif","","","","",""
"","null","html-keyboard-response","97","820294","0.0-25.0-0.1","SS1619739236312","","","null","","","","","","<p><img src= images/blank.png width =""600"" height = ""600"" style=""position:fixed;top:50%; left:50%; transform: translate(-50%, -50%); border:5px solid black"">","","","","","","","",""
"","6862","sequential-stimulus-presentation-old","98","827662","0.0-25.0-1.1","SS1619739236312","trial","","40","500","7362","images/stimuli/spore_stims/complex_18_A_b.gif","images/stimuli/spore_stims/complex_02_A_a.gif","self_paced","","8","complex_dissimilar","images/stimuli/spore_stims/complex_02_A_a.gif","","","","",""
"","null","html-keyboard-response","99","828544","0.0-25.0-0.2","SS1619739236312","","","null","","","","","","<p><img src= images/blank.png width =""600"" height = ""600"" style=""position:fixed;top:50%; left:50%; transform: translate(-50%, -50%); border:5px solid black"">","","","","","","","",""
"","18739","sequential-stimulus-presentation-old","100","847789","0.0-25.0-1.2","SS1619739236312","trial","","40","500","19239","images/stimuli/spore_stims/complex_18_A_b.gif","images/stimuli/spore_stims/complex_02_A_a.gif","self_paced","","8","complex_dissimilar","images/stimuli/spore_stims/complex_18_A_b.gif","","","","",""
"","null","html-keyboard-response","101","848628","0.0-25.0-0.3","SS1619739236312","","","null","","","","","","<p><img src= images/blank.png width =""600"" height = ""600"" style=""position:fixed;top:50%; left:50%; transform: translate(-50%, -50%); border:5px solid black"">","","","","","","","",""
"","7670","sequential-stimulus-presentation-old","102","856799","0.0-25.0-1.3","SS1619739236312","trial","","40","500","8170","images/stimuli/spore_stims/complex_18_A_b.gif","images/stimuli/spore_stims/complex_02_A_a.gif","self_paced","","8","complex_dissimilar","images/stimuli/spore_stims/complex_02_A_a.gif","","","","",""
"","null","html-keyboard-response","103","857910","0.0-25.0-0.4","SS1619739236312","","","null","","","","","","<p><img src= images/blank.png width =""600"" height = ""600"" style=""position:fixed;top:50%; left:50%; transform: translate(-50%, -50%); border:5px solid black"">","","","","","","","",""
"","8715","sequential-stimulus-presentation-old","104","867131","0.0-25.0-1.4","SS1619739236312","trial","","40","500","9215","images/stimuli/spore_stims/complex_18_A_b.gif","images/stimuli/spore_stims/complex_02_A_a.gif","self_paced","","8","complex_dissimilar","images/stimuli/spore_stims/complex_18_A_b.gif","","","","",""
"","8432","survey-multi-choice","105","875565","0.0-26.0","SS1619739236312","math_question","","","","","","","","","","","","{""Q0"":""10""}","[0]","10","",""
"","null","html-keyboard-response","106","876800","0.0-27.0-0.0","SS1619739236312","","","null","","","","","","<p><img src= images/blank.png width =""600"" height = ""600"" style=""position:fixed;top:50%; left:50%; transform: translate(-50%, -50%); border:5px solid black"">","","","","","","","",""
"","1997","sequential-stimulus-presentation-old","107","893808","0.0-27.0-1.0","SS1619739236312","trial","","40","500","2497","images/stimuli/spore_stims/complex_15_A_b.gif","images/stimuli/spore_stims/complex_05_A_a.gif","forced_long","","9","complex_dissimilar","images/stimuli/spore_stims/complex_05_A_a.gif","","","","",""
"","null","html-keyboard-response","108","894972","0.0-27.0-0.1","SS1619739236312","","","null","","","","","","<p><img src= images/blank.png width =""600"" height = ""600"" style=""position:fixed;top:50%; left:50%; transform: translate(-50%, -50%); border:5px solid black"">","","","","","","","",""
"","16558","sequential-stimulus-presentation-old","109","912031","0.0-27.0-1.1","SS1619739236312","trial","","40","500","17058","images/stimuli/spore_stims/complex_15_A_b.gif","images/stimuli/spore_stims/complex_05_A_a.gif","forced_long","","9","complex_dissimilar","images/stimuli/spore_stims/complex_05_A_a.gif","","","","",""
"","null","html-keyboard-response","110","913162","0.0-27.0-0.2","SS1619739236312","","","null","","","","","","<p><img src= images/blank.png width =""600"" height = ""600"" style=""position:fixed;top:50%; left:50%; transform: translate(-50%, -50%); border:5px solid black"">","","","","","","","",""
"","8501","sequential-stimulus-presentation-old","111","922168","0.0-27.0-1.2","SS1619739236312","trial","","40","500","9001","images/stimuli/spore_stims/complex_15_A_b.gif","images/stimuli/spore_stims/complex_05_A_a.gif","forced_long","","9","complex_dissimilar","images/stimuli/spore_stims/complex_05_A_a.gif","","","","",""
"","null","html-keyboard-response","112","923035","0.0-27.0-0.3","SS1619739236312","","","null","","","","","","<p><img src= images/blank.png width =""600"" height = ""600"" style=""position:fixed;top:50%; left:50%; transform: translate(-50%, -50%); border:5px solid black"">","","","","","","","",""
"","15414","sequential-stimulus-presentation-old","113","938955","0.0-27.0-1.3","SS1619739236312","trial","","40","500","15914","images/stimuli/spore_stims/complex_15_A_b.gif","images/stimuli/spore_stims/complex_05_A_a.gif","forced_long","","9","complex_dissimilar","images/stimuli/spore_stims/complex_15_A_b.gif","","","","",""
"","6814","survey-multi-choice","114","945771","0.0-28.0","SS1619739236312","math_question","","","","","","","","","","","","{""Q0"":""12""}","[0]","12","",""
"","null","html-keyboard-response","115","946782","0.0-29.0-0.0","SS1619739236312","","","null","","","","","","<p><img src= images/blank.png width =""600"" height = ""600"" style=""position:fixed;top:50%; left:50%; transform: translate(-50%, -50%); border:5px solid black"">","","","","","","","",""
"","14026","sequential-stimulus-presentation-old","116","961314","0.0-29.0-1.0","SS1619739236312","trial","","40","500","14526","images/stimuli/spore_stims/simple_02_A_a.gif","images/stimuli/spore_stims/simple_01_A_b.gif","self_paced","","10","simple_dissimilar","images/stimuli/spore_stims/simple_01_A_b.gif","","","","",""
"","null","html-keyboard-response","117","962574","0.0-29.0-0.1","SS1619739236312","","","null","","","","","","<p><img src= images/blank.png width =""600"" height = ""600"" style=""position:fixed;top:50%; left:50%; transform: translate(-50%, -50%); border:5px solid black"">","","","","","","","",""
"","4260","sequential-stimulus-presentation-old","118","967338","0.0-29.0-1.1","SS1619739236312","trial","","40","500","4760","images/stimuli/spore_stims/simple_02_A_a.gif","images/stimuli/spore_stims/simple_01_A_b.gif","self_paced","","10","simple_dissimilar","images/stimuli/spore_stims/simple_01_A_b.gif","","","","",""
"","null","html-keyboard-response","119","968219","0.0-29.0-0.2","SS1619739236312","","","null","","","","","","<p><img src= images/blank.png width =""600"" height = ""600"" style=""position:fixed;top:50%; left:50%; transform: translate(-50%, -50%); border:5px solid black"">","","","","","","","",""
"","13781","sequential-stimulus-presentation-old","120","982506","0.0-29.0-1.2","SS1619739236312","trial","","40","500","14281","images/stimuli/spore_stims/simple_02_A_a.gif","images/stimuli/spore_stims/simple_01_A_b.gif","self_paced","","10","simple_dissimilar","images/stimuli/spore_stims/simple_01_A_b.gif","","","","",""
"","null","html-keyboard-response","121","983620","0.0-29.0-0.3","SS1619739236312","","","null","","","","","","<p><img src= images/blank.png width =""600"" height = ""600"" style=""position:fixed;top:50%; left:50%; transform: translate(-50%, -50%); border:5px solid black"">","","","","","","","",""
"","9569","sequential-stimulus-presentation-old","122","993695","0.0-29.0-1.3","SS1619739236312","trial","","40","500","10069","images/stimuli/spore_stims/simple_02_A_a.gif","images/stimuli/spore_stims/simple_01_A_b.gif","self_paced","","10","simple_dissimilar","images/stimuli/spore_stims/simple_01_A_b.gif","","","","",""
"","null","html-keyboard-response","123","994713","0.0-29.0-0.4","SS1619739236312","","","null","","","","","","<p><img src= images/blank.png width =""600"" height = ""600"" style=""position:fixed;top:50%; left:50%; transform: translate(-50%, -50%); border:5px solid black"">","","","","","","","",""
"","5190","sequential-stimulus-presentation-old","124","1000405","0.0-29.0-1.4","SS1619739236312","trial","","40","500","5690","images/stimuli/spore_stims/simple_02_A_a.gif","images/stimuli/spore_stims/simple_01_A_b.gif","self_paced","","10","simple_dissimilar","images/stimuli/spore_stims/simple_01_A_b.gif","","","","",""
"","6429","survey-multi-choice","125","1006837","0.0-30.0","SS1619739236312","math_question","","","","","","","","","","","","{""Q0"":""7""}","[0]","7","",""
"","null","html-keyboard-response","126","1007990","0.0-31.0-0.0","SS1619739236312","","","null","","","","","","<p><img src= images/blank.png width =""600"" height = ""600"" style=""position:fixed;top:50%; left:50%; transform: translate(-50%, -50%); border:5px solid black"">","","","","","","","",""
"","1456","sequential-stimulus-presentation-old","127","1009952","0.0-31.0-1.0","SS1619739236312","trial","","40","500","1956","images/stimuli/spore_stims/complex_09_A_a.gif","images/stimuli/spore_stims/complex_20_A_b.gif","forced_short","","11","complex_dissimilar","images/stimuli/spore_stims/complex_20_A_b.gif","","","","",""
"","null","html-keyboard-response","128","1010948","0.0-31.0-0.1","SS1619739236312","","","null","","","","","","<p><img src= images/blank.png width =""600"" height = ""600"" style=""position:fixed;top:50%; left:50%; transform: translate(-50%, -50%); border:5px solid black"">","","","","","","","",""
"","24415","sequential-stimulus-presentation-old","129","1035868","0.0-31.0-1.1","SS1619739236312","trial","","40","500","24915","images/stimuli/spore_stims/complex_09_A_a.gif","images/stimuli/spore_stims/complex_20_A_b.gif","forced_short","","11","complex_dissimilar","images/stimuli/spore_stims/complex_20_A_b.gif","","","","",""
"","null","html-keyboard-response","130","1036798","0.0-31.0-0.2","SS1619739236312","","","null","","","","","","<p><img src= images/blank.png width =""600"" height = ""600"" style=""position:fixed;top:50%; left:50%; transform: translate(-50%, -50%); border:5px solid black"">","","","","","","","",""
"","39602","sequential-stimulus-presentation-old","131","1076907","0.0-31.0-1.2","SS1619739236312","trial","","40","500","40102","images/stimuli/spore_stims/complex_09_A_a.gif","images/stimuli/spore_stims/complex_20_A_b.gif","forced_short","","11","complex_dissimilar","images/stimuli/spore_stims/complex_09_A_a.gif","","","","",""
"","null","html-keyboard-response","132","1077768","0.0-31.0-0.3","SS1619739236312","","","null","","","","","","<p><img src= images/blank.png width =""600"" height = ""600"" style=""position:fixed;top:50%; left:50%; transform: translate(-50%, -50%); border:5px solid black"">","","","","","","","",""
"","10737","sequential-stimulus-presentation-old","133","1089010","0.0-31.0-1.3","SS1619739236312","trial","","40","500","11237","images/stimuli/spore_stims/complex_09_A_a.gif","images/stimuli/spore_stims/complex_20_A_b.gif","forced_short","","11","complex_dissimilar","images/stimuli/spore_stims/complex_09_A_a.gif","","","","",""
"","null","html-keyboard-response","134","1090098","0.0-31.0-0.4","SS1619739236312","","","null","","","","","","<p><img src= images/blank.png width =""600"" height = ""600"" style=""position:fixed;top:50%; left:50%; transform: translate(-50%, -50%); border:5px solid black"">","","","","","","","",""
"","8266","sequential-stimulus-presentation-old","135","1098867","0.0-31.0-1.4","SS1619739236312","trial","","40","500","8766","images/stimuli/spore_stims/complex_09_A_a.gif","images/stimuli/spore_stims/complex_20_A_b.gif","forced_short","","11","complex_dissimilar","images/stimuli/spore_stims/complex_20_A_b.gif","","","","",""
"[{""page_index"":0,""viewing_time"":7085}]","7085","instructions","136","1105955","0.0-32.0","SS1619739236312","instructions","","","","","","","","","","","","","","","",""
"","37805","survey-likert","137","1143762","0.0-33.0","SS1619739236312","similarity_question","","","","","","","","","","","","{""Q0"":1}","[0]","","images/stimuli/spore_stims/complex_18_A_b.gif","images/stimuli/spore_stims/complex_02_A_a.gif"
"","15836","survey-likert","138","1159601","0.0-34.0","SS1619739236312","similarity_question","","","","","","","","","","","","{""Q0"":0}","[0]","","images/stimuli/spore_stims/complex_11_A_a.gif","images/stimuli/spore_stims/complex_02_A_b.gif"
"","15495","survey-likert","139","1175099","0.0-35.0","SS1619739236312","similarity_question","","","","","","","","","","","","{""Q0"":0}","[0]","","images/stimuli/spore_stims/complex_14_A_a.gif","images/stimuli/spore_stims/complex_08_A_b.gif"
"","10767","survey-likert","140","1185868","0.0-36.0","SS1619739236312","similarity_question","","","","","","","","","","","","{""Q0"":5}","[0]","","images/stimuli/spore_stims/simple_02_A_a.gif","images/stimuli/spore_stims/simple_01_A_b.gif"
"","13445","survey-likert","141","1199315","0.0-37.0","SS1619739236312","similarity_question","","","","","","","","","","","","{""Q0"":3}","[0]","","images/stimuli/spore_stims/complex_05_A_a.gif","images/stimuli/spore_stims/complex_15_A_b.gif"
"","9223","survey-likert","142","1208541","0.0-38.0","SS1619739236312","similarity_question","","","","","","","","","","","","{""Q0"":2}","[0]","","images/stimuli/spore_stims/complex_20_A_b.gif","images/stimuli/spore_stims/complex_09_A_a.gif"
"","10790","survey-likert","143","1219334","0.0-39.0","SS1619739236312","similarity_question","","","","","","","","","","","","{""Q0"":4}","[0]","","images/stimuli/spore_stims/simple_19_A_a.gif","images/stimuli/spore_stims/simple_02_A_b.gif"
"","9316","survey-likert","144","1228653","0.0-40.0","SS1619739236312","similarity_question","","","","","","","","","","","","{""Q0"":6}","[0]","","images/stimuli/spore_stims/simple_09_A_a.gif","images/stimuli/spore_stims/simple_08_A_b.gif"
"","10485","survey-likert","145","1239141","0.0-41.0","SS1619739236312","similarity_question","","","","","","","","","","","","{""Q0"":4}","[0]","","images/stimuli/spore_stims/simple_20_A_b.gif","images/stimuli/spore_stims/simple_18_A_a.gif"
"","9793","survey-likert","146","1248937","0.0-42.0","SS1619739236312","similarity_question","","","","","","","","","","","","{""Q0"":4}","[0]","","images/stimuli/spore_stims/simple_20_A_a.gif","images/stimuli/spore_stims/simple_07_A_b.gif"
"","3877","survey-likert","147","1252817","0.0-43.0","SS1619739236312","similarity_question","","","","","","","","","","","","{""Q0"":6}","[0]","","images/stimuli/spore_stims/simple_09_A_b.gif","images/stimuli/spore_stims/simple_15_A_a.gif"
"","18646","survey-likert","148","1271466","0.0-44.0","SS1619739236312","similarity_question","","","","","","","","","","","","{""Q0"":0}","[0]","","images/stimuli/spore_stims/complex_19_A_a.gif","images/stimuli/spore_stims/complex_11_A_b.gif"
"[{""page_index"":0,""viewing_time"":5708}]","5708","instructions","149","1277178","0.0-45.0","SS1619739236312","instructions","","","","","","","","","","","","","","","",""
"","21747","survey-likert","150","1298927","0.0-46.0","SS1619739236312","","","","","","","","","images/stimuli/spore_stims/complex_14_A_a.gif","","","","{""Q0"":6}","[0]","","",""
"","5213","survey-likert","151","1304143","0.0-47.0","SS1619739236312","","","","","","","","","images/stimuli/spore_stims/simple_02_A_b.gif","","","","{""Q0"":0}","[0]","","",""
"","8635","survey-likert","152","1312780","0.0-48.0","SS1619739236312","","","","","","","","","images/stimuli/spore_stims/complex_11_A_a.gif","","","","{""Q0"":5}","[0]","","",""
"","12200","survey-likert","153","1324983","0.0-49.0","SS1619739236312","","","","","","","","","images/stimuli/spore_stims/complex_09_A_a.gif","","","","{""Q0"":5}","[0]","","",""
"","4642","survey-likert","154","1329627","0.0-50.0","SS1619739236312","","","","","","","","","images/stimuli/spore_stims/simple_15_A_a.gif","","","","{""Q0"":0}","[0]","","",""
"","5853","survey-likert","155","1335482","0.0-51.0","SS1619739236312","","","","","","","","","images/stimuli/spore_stims/simple_07_A_b.gif","","","","{""Q0"":1}","[0]","","",""
"","4413","survey-likert","156","1339898","0.0-52.0","SS1619739236312","","","","","","","","","images/stimuli/spore_stims/simple_09_A_a.gif","","","","{""Q0"":0}","[0]","","",""
"","8403","survey-likert","157","1348304","0.0-53.0","SS1619739236312","","","","","","","","","images/stimuli/spore_stims/complex_15_A_b.gif","","","","{""Q0"":6}","[0]","","",""
"","8568","survey-likert","158","1356875","0.0-54.0","SS1619739236312","","","","","","","","","images/stimuli/spore_stims/complex_18_A_b.gif","","","","{""Q0"":5}","[0]","","",""
"","5322","survey-likert","159","1362199","0.0-55.0","SS1619739236312","","","","","","","","","images/stimuli/spore_stims/simple_01_A_b.gif","","","","{""Q0"":0}","[0]","","",""
"","11747","survey-likert","160","1373949","0.0-56.0","SS1619739236312","","","","","","","","","images/stimuli/spore_stims/complex_11_A_b.gif","","","","{""Q0"":5}","[0]","","",""
"","4282","survey-likert","161","1378233","0.0-57.0","SS1619739236312","","","","","","","","","images/stimuli/spore_stims/simple_18_A_a.gif","","","","{""Q0"":1}","[0]","","",""
"[{""page_index"":0,""viewing_time"":2476}]","2476","instructions","162","1380712","0.0-58.0","SS1619739236312","instructions","","","","","","","","","","","","","","","",""
"","4097","demog-age","163","1384814","0.0-59.0","SS1619739236312","","","","","","","","","","","","","{""age"":""28""}","","","",""
"","7659","demog-ethnic-US","164","1392477","0.0-60.0","SS1619739236312","","","","","","","","","","","","","{""ethnicity"":[""Asian""]}","[0]","","",""
"","9033","demog-gender-and-education","165","1401514","0.0-61.0","SS1619739236312","","","","","","","","","","","","","{""gender"":""Male"",""education"":""Master's Degree""}","[0,1]","","",""
"","92549","survey-text","166","1494067","0.0-62.0","SS1619739236312","feedback","","","","","","","","","","","","{""Q0"":""Some animations look rather grotesque/senseless for babies, probably on purpose but still!""}","","","",""
"[{""page_index"":0,""viewing_time"":2896}]","2896","instructions","167","1496966","0.0-63.0","SS1619739236312","instructions","","","","","","","","","","","","","","","",""
