"view_history","rt","trial_type","trial_index","time_elapsed","internal_node_id","subject","stimulus_type","trial_stimulus","key_press","minimum_viewing_duration","trial_looking_time","block_deviant","block_background","exposure_type","stimulus","block_number","block_type","stimulus_displayed","responses","question_order","math_correct_answer","stimulus_left","stimulus_right"
"[{""page_index"":0,""viewing_time"":16911.454999999478}]","16911.889999999403","instructions","0","16922","0.0-0.0","SS1619739552633","","","","","","","","","","","","","","","","",""
"[{""page_index"":0,""viewing_time"":24686.550000000352},{""page_index"":1,""viewing_time"":11207.800000000134}]","35894.68500000112","instructions","1","54819","0.0-1.0","SS1619739552633","instructions","","","","","","","","","","","","","","","",""
"","38185.13499999972","sequential-stimulus-presentation-old","2","93511","0.0-2.0","SS1619739552633","","","40","500","38685.13499999972","null","null","self_paced","","","","","","","","",""
"","5576.010000000679","sequential-stimulus-presentation-old","3","99593","0.0-3.0","SS1619739552633","","","40","500","6076.010000000679","null","null","self_paced","","","","","","","","",""
"[{""page_index"":0,""viewing_time"":22647.91999999943}]","22648.274999999558","instructions","4","122243","0.0-4.0","SS1619739552633","instructions","","","","","","","","","","","","","","","",""
"","1153.1500000001106","sequential-stimulus-presentation-old","5","138400","0.0-5.0","SS1619739552633","","","40","500","1653.1500000001106","null","null","forced_long","","","","","","","","",""
"","1668.3150000008172","sequential-stimulus-presentation-old","6","140571","0.0-6.0","SS1619739552633","","","40","500","2168.3150000008172","null","null","forced_long","","","","","","","","",""
"[{""page_index"":0,""viewing_time"":5445.260000000417}]","5445.555000000226","instructions","7","146019","0.0-7.0","SS1619739552633","instructions","","","","","","","","","","","","","","","",""
"[{""page_index"":0,""viewing_time"":12284.335000000283},{""page_index"":1,""viewing_time"":46399.83500000017},{""page_index"":2,""viewing_time"":11387.854999999021},{""page_index"":3,""viewing_time"":2924.020000000397},{""page_index"":4,""viewing_time"":1878.244999999879}]","74874.6149999988","instructions","8","220895","0.0-8.0","SS1619739552633","instructions","","","","","","","","","","","","","","","",""
"","null","html-keyboard-response","9","221876","0.0-9.0-0.0","SS1619739552633","","","null","","","","","","<p><img src= images/blank.png width =""600"" height = ""600"" style=""position:fixed;top:50%; left:50%; transform: translate(-50%, -50%); border:5px solid black"">","","","","","","","",""
"","1405.7400000001653","sequential-stimulus-presentation-old","10","238287","0.0-9.0-1.0","SS1619739552633","trial","","40","500","1905.7400000001653","images/stimuli/spore_stims/simple_20_A_a.gif","images/stimuli/spore_stims/simple_16_A_b.gif","forced_long","","0","simple_dissimilar","images/stimuli/spore_stims/simple_16_A_b.gif","","","","",""
"","null","html-keyboard-response","11","239289","0.0-9.0-0.1","SS1619739552633","","","null","","","","","","<p><img src= images/blank.png width =""600"" height = ""600"" style=""position:fixed;top:50%; left:50%; transform: translate(-50%, -50%); border:5px solid black"">","","","","","","","",""
"","8209.29999999862","sequential-stimulus-presentation-old","12","248005","0.0-9.0-1.1","SS1619739552633","trial","","40","500","8709.29999999862","images/stimuli/spore_stims/simple_20_A_a.gif","images/stimuli/spore_stims/simple_16_A_b.gif","forced_long","","0","simple_dissimilar","images/stimuli/spore_stims/simple_20_A_a.gif","","","","",""
"","null","html-keyboard-response","13","249296","0.0-9.0-0.2","SS1619739552633","","","null","","","","","","<p><img src= images/blank.png width =""600"" height = ""600"" style=""position:fixed;top:50%; left:50%; transform: translate(-50%, -50%); border:5px solid black"">","","","","","","","",""
"","4066.464999999909","sequential-stimulus-presentation-old","14","253870","0.0-9.0-1.2","SS1619739552633","trial","","40","500","4566.464999999909","images/stimuli/spore_stims/simple_20_A_a.gif","images/stimuli/spore_stims/simple_16_A_b.gif","forced_long","","0","simple_dissimilar","images/stimuli/spore_stims/simple_16_A_b.gif","","","","",""
"","null","html-keyboard-response","15","255024","0.0-9.0-0.3","SS1619739552633","","","null","","","","","","<p><img src= images/blank.png width =""600"" height = ""600"" style=""position:fixed;top:50%; left:50%; transform: translate(-50%, -50%); border:5px solid black"">","","","","","","","",""
"","3426.9899999999325","sequential-stimulus-presentation-old","16","258959","0.0-9.0-1.3","SS1619739552633","trial","","40","500","3926.9899999999325","images/stimuli/spore_stims/simple_20_A_a.gif","images/stimuli/spore_stims/simple_16_A_b.gif","forced_long","","0","simple_dissimilar","images/stimuli/spore_stims/simple_16_A_b.gif","","","","",""
"","6218.815000000177","survey-multi-choice","17","265184","0.0-10.0","SS1619739552633","math_question","","","","","","","","","","","","{""Q0"":""9""}","[0]","9","",""
"","null","html-keyboard-response","18","266282","0.0-11.0-0.0","SS1619739552633","","","null","","","","","","<p><img src= images/blank.png width =""600"" height = ""600"" style=""position:fixed;top:50%; left:50%; transform: translate(-50%, -50%); border:5px solid black"">","","","","","","","",""
"","972.4650000007241","sequential-stimulus-presentation-old","19","282268","0.0-11.0-1.0","SS1619739552633","trial","","40","500","1472.465000000724","images/stimuli/spore_stims/complex_19_A_b.gif","images/stimuli/spore_stims/complex_04_A_a.gif","forced_long","","1","complex_dissimilar","images/stimuli/spore_stims/complex_04_A_a.gif","","","","",""
"","null","html-keyboard-response","20","283242","0.0-11.0-0.1","SS1619739552633","","","null","","","","","","<p><img src= images/blank.png width =""600"" height = ""600"" style=""position:fixed;top:50%; left:50%; transform: translate(-50%, -50%); border:5px solid black"">","","","","","","","",""
"","29709.290000000678","sequential-stimulus-presentation-old","21","313457","0.0-11.0-1.1","SS1619739552633","trial","","40","500","30209.290000000678","images/stimuli/spore_stims/complex_19_A_b.gif","images/stimuli/spore_stims/complex_04_A_a.gif","forced_long","","1","complex_dissimilar","images/stimuli/spore_stims/complex_04_A_a.gif","","","","",""
"","null","html-keyboard-response","22","314365","0.0-11.0-0.2","SS1619739552633","","","null","","","","","","<p><img src= images/blank.png width =""600"" height = ""600"" style=""position:fixed;top:50%; left:50%; transform: translate(-50%, -50%); border:5px solid black"">","","","","","","","",""
"","1382.5900000010733","sequential-stimulus-presentation-old","23","316255","0.0-11.0-1.2","SS1619739552633","trial","","40","500","1882.5900000010733","images/stimuli/spore_stims/complex_19_A_b.gif","images/stimuli/spore_stims/complex_04_A_a.gif","forced_long","","1","complex_dissimilar","images/stimuli/spore_stims/complex_04_A_a.gif","","","","",""
"","null","html-keyboard-response","24","317411","0.0-11.0-0.3","SS1619739552633","","","null","","","","","","<p><img src= images/blank.png width =""600"" height = ""600"" style=""position:fixed;top:50%; left:50%; transform: translate(-50%, -50%); border:5px solid black"">","","","","","","","",""
"","665.8449999995646","sequential-stimulus-presentation-old","25","318585","0.0-11.0-1.3","SS1619739552633","trial","","40","500","1165.8449999995646","images/stimuli/spore_stims/complex_19_A_b.gif","images/stimuli/spore_stims/complex_04_A_a.gif","forced_long","","1","complex_dissimilar","images/stimuli/spore_stims/complex_04_A_a.gif","","","","",""
"","null","html-keyboard-response","26","319755","0.0-11.0-0.4","SS1619739552633","","","null","","","","","","<p><img src= images/blank.png width =""600"" height = ""600"" style=""position:fixed;top:50%; left:50%; transform: translate(-50%, -50%); border:5px solid black"">","","","","","","","",""
"","1087.8649999994668","sequential-stimulus-presentation-old","27","321353","0.0-11.0-1.4","SS1619739552633","trial","","40","500","1587.8649999994668","images/stimuli/spore_stims/complex_19_A_b.gif","images/stimuli/spore_stims/complex_04_A_a.gif","forced_long","","1","complex_dissimilar","images/stimuli/spore_stims/complex_04_A_a.gif","","","","",""
"","null","html-keyboard-response","28","322178","0.0-11.0-0.5","SS1619739552633","","","null","","","","","","<p><img src= images/blank.png width =""600"" height = ""600"" style=""position:fixed;top:50%; left:50%; transform: translate(-50%, -50%); border:5px solid black"">","","","","","","","",""
"","1519.2200000001467","sequential-stimulus-presentation-old","29","324201","0.0-11.0-1.5","SS1619739552633","trial","","40","500","2019.2200000001467","images/stimuli/spore_stims/complex_19_A_b.gif","images/stimuli/spore_stims/complex_04_A_a.gif","forced_long","","1","complex_dissimilar","images/stimuli/spore_stims/complex_04_A_a.gif","","","","",""
"","3874.675000000978","survey-multi-choice","30","328081","0.0-12.0","SS1619739552633","math_question","","","","","","","","","","","","{""Q0"":""6""}","[0]","6","",""
"","null","html-keyboard-response","31","329129","0.0-13.0-0.0","SS1619739552633","","","null","","","","","","<p><img src= images/blank.png width =""600"" height = ""600"" style=""position:fixed;top:50%; left:50%; transform: translate(-50%, -50%); border:5px solid black"">","","","","","","","",""
"","5455.82499999908","sequential-stimulus-presentation-old","32","335090","0.0-13.0-1.0","SS1619739552633","trial","","40","500","5955.82499999908","images/stimuli/spore_stims/complex_16_A_a.gif","images/stimuli/spore_stims/complex_02_A_b.gif","self_paced","","2","complex_dissimilar","images/stimuli/spore_stims/complex_02_A_b.gif","","","","",""
"","null","html-keyboard-response","33","336120","0.0-13.0-0.1","SS1619739552633","","","null","","","","","","<p><img src= images/blank.png width =""600"" height = ""600"" style=""position:fixed;top:50%; left:50%; transform: translate(-50%, -50%); border:5px solid black"">","","","","","","","",""
"","4332.604999999574","sequential-stimulus-presentation-old","34","340960","0.0-13.0-1.1","SS1619739552633","trial","","40","500","4832.604999999574","images/stimuli/spore_stims/complex_16_A_a.gif","images/stimuli/spore_stims/complex_02_A_b.gif","self_paced","","2","complex_dissimilar","images/stimuli/spore_stims/complex_02_A_b.gif","","","","",""
"","null","html-keyboard-response","35","342170","0.0-13.0-0.2","SS1619739552633","","","null","","","","","","<p><img src= images/blank.png width =""600"" height = ""600"" style=""position:fixed;top:50%; left:50%; transform: translate(-50%, -50%); border:5px solid black"">","","","","","","","",""
"","5656.045000001555","sequential-stimulus-presentation-old","36","348335","0.0-13.0-1.2","SS1619739552633","trial","","40","500","6156.045000001555","images/stimuli/spore_stims/complex_16_A_a.gif","images/stimuli/spore_stims/complex_02_A_b.gif","self_paced","","2","complex_dissimilar","images/stimuli/spore_stims/complex_02_A_b.gif","","","","",""
"","null","html-keyboard-response","37","349221","0.0-13.0-0.3","SS1619739552633","","","null","","","","","","<p><img src= images/blank.png width =""600"" height = ""600"" style=""position:fixed;top:50%; left:50%; transform: translate(-50%, -50%); border:5px solid black"">","","","","","","","",""
"","4802.835000000428","sequential-stimulus-presentation-old","38","354532","0.0-13.0-1.3","SS1619739552633","trial","","40","500","5302.835000000428","images/stimuli/spore_stims/complex_16_A_a.gif","images/stimuli/spore_stims/complex_02_A_b.gif","self_paced","","2","complex_dissimilar","images/stimuli/spore_stims/complex_16_A_a.gif","","","","",""
"","null","html-keyboard-response","39","355673","0.0-13.0-0.4","SS1619739552633","","","null","","","","","","<p><img src= images/blank.png width =""600"" height = ""600"" style=""position:fixed;top:50%; left:50%; transform: translate(-50%, -50%); border:5px solid black"">","","","","","","","",""
"","5053.1149999988265","sequential-stimulus-presentation-old","40","361231","0.0-13.0-1.4","SS1619739552633","trial","","40","500","5553.1149999988265","images/stimuli/spore_stims/complex_16_A_a.gif","images/stimuli/spore_stims/complex_02_A_b.gif","self_paced","","2","complex_dissimilar","images/stimuli/spore_stims/complex_02_A_b.gif","","","","",""
"","null","html-keyboard-response","41","362294","0.0-13.0-0.5","SS1619739552633","","","null","","","","","","<p><img src= images/blank.png width =""600"" height = ""600"" style=""position:fixed;top:50%; left:50%; transform: translate(-50%, -50%); border:5px solid black"">","","","","","","","",""
"","5945.050000000221","sequential-stimulus-presentation-old","42","368747","0.0-13.0-1.5","SS1619739552633","trial","","40","500","6445.050000000221","images/stimuli/spore_stims/complex_16_A_a.gif","images/stimuli/spore_stims/complex_02_A_b.gif","self_paced","","2","complex_dissimilar","images/stimuli/spore_stims/complex_16_A_a.gif","","","","",""
"","4570.100000000792","survey-multi-choice","43","373321","0.0-14.0","SS1619739552633","math_question","","","","","","","","","","","","{""Q0"":""4""}","[0]","4","",""
"","null","html-keyboard-response","44","374511","0.0-15.0-0.0","SS1619739552633","","","null","","","","","","<p><img src= images/blank.png width =""600"" height = ""600"" style=""position:fixed;top:50%; left:50%; transform: translate(-50%, -50%); border:5px solid black"">","","","","","","","",""
"","4346.625000000175","sequential-stimulus-presentation-old","45","379364","0.0-15.0-1.0","SS1619739552633","trial","","40","500","4846.625000000175","images/stimuli/spore_stims/simple_19_A_a.gif","images/stimuli/spore_stims/simple_17_A_b.gif","self_paced","","3","simple_dissimilar","images/stimuli/spore_stims/simple_17_A_b.gif","","","","",""
"","null","html-keyboard-response","46","380402","0.0-15.0-0.1","SS1619739552633","","","null","","","","","","<p><img src= images/blank.png width =""600"" height = ""600"" style=""position:fixed;top:50%; left:50%; transform: translate(-50%, -50%); border:5px solid black"">","","","","","","","",""
"","3350.060000000638","sequential-stimulus-presentation-old","47","384260","0.0-15.0-1.1","SS1619739552633","trial","","40","500","3850.060000000638","images/stimuli/spore_stims/simple_19_A_a.gif","images/stimuli/spore_stims/simple_17_A_b.gif","self_paced","","3","simple_dissimilar","images/stimuli/spore_stims/simple_17_A_b.gif","","","","",""
"","null","html-keyboard-response","48","385325","0.0-15.0-0.2","SS1619739552633","","","null","","","","","","<p><img src= images/blank.png width =""600"" height = ""600"" style=""position:fixed;top:50%; left:50%; transform: translate(-50%, -50%); border:5px solid black"">","","","","","","","",""
"","3091.2799999987474","sequential-stimulus-presentation-old","49","388924","0.0-15.0-1.2","SS1619739552633","trial","","40","500","3591.2799999987474","images/stimuli/spore_stims/simple_19_A_a.gif","images/stimuli/spore_stims/simple_17_A_b.gif","self_paced","","3","simple_dissimilar","images/stimuli/spore_stims/simple_17_A_b.gif","","","","",""
"","null","html-keyboard-response","50","390007","0.0-15.0-0.3","SS1619739552633","","","null","","","","","","<p><img src= images/blank.png width =""600"" height = ""600"" style=""position:fixed;top:50%; left:50%; transform: translate(-50%, -50%); border:5px solid black"">","","","","","","","",""
"","2471.0749999994878","sequential-stimulus-presentation-old","51","392984","0.0-15.0-1.3","SS1619739552633","trial","","40","500","2971.0749999994878","images/stimuli/spore_stims/simple_19_A_a.gif","images/stimuli/spore_stims/simple_17_A_b.gif","self_paced","","3","simple_dissimilar","images/stimuli/spore_stims/simple_17_A_b.gif","","","","",""
"","4150.775000000023","survey-multi-choice","52","397137","0.0-16.0","SS1619739552633","math_question","","","","","","","","","","","","{""Q0"":""5""}","[0]","5","",""
"","null","html-keyboard-response","53","398000","0.0-17.0-0.0","SS1619739552633","","","null","","","","","","<p><img src= images/blank.png width =""600"" height = ""600"" style=""position:fixed;top:50%; left:50%; transform: translate(-50%, -50%); border:5px solid black"">","","","","","","","",""
"","532.9999999994761","sequential-stimulus-presentation-old","54","413542","0.0-17.0-1.0","SS1619739552633","trial","","40","500","1032.9999999994761","images/stimuli/spore_stims/complex_08_A_a.gif","images/stimuli/spore_stims/complex_09_A_b.gif","forced_long","","4","complex_dissimilar","images/stimuli/spore_stims/complex_09_A_b.gif","","","","",""
"","null","html-keyboard-response","55","414809","0.0-17.0-0.1","SS1619739552633","","","null","","","","","","<p><img src= images/blank.png width =""600"" height = ""600"" style=""position:fixed;top:50%; left:50%; transform: translate(-50%, -50%); border:5px solid black"">","","","","","","","",""
"","1142.3149999991874","sequential-stimulus-presentation-old","56","416456","0.0-17.0-1.1","SS1619739552633","trial","","40","500","1642.3149999991874","images/stimuli/spore_stims/complex_08_A_a.gif","images/stimuli/spore_stims/complex_09_A_b.gif","forced_long","","4","complex_dissimilar","images/stimuli/spore_stims/complex_09_A_b.gif","","","","",""
"","null","html-keyboard-response","57","417460","0.0-17.0-0.2","SS1619739552633","","","null","","","","","","<p><img src= images/blank.png width =""600"" height = ""600"" style=""position:fixed;top:50%; left:50%; transform: translate(-50%, -50%); border:5px solid black"">","","","","","","","",""
"","3002.610000001383","sequential-stimulus-presentation-old","58","420967","0.0-17.0-1.2","SS1619739552633","trial","","40","500","3502.610000001383","images/stimuli/spore_stims/complex_08_A_a.gif","images/stimuli/spore_stims/complex_09_A_b.gif","forced_long","","4","complex_dissimilar","images/stimuli/spore_stims/complex_08_A_a.gif","","","","",""
"","null","html-keyboard-response","59","422244","0.0-17.0-0.3","SS1619739552633","","","null","","","","","","<p><img src= images/blank.png width =""600"" height = ""600"" style=""position:fixed;top:50%; left:50%; transform: translate(-50%, -50%); border:5px solid black"">","","","","","","","",""
"","1813.8099999996484","sequential-stimulus-presentation-old","60","424562","0.0-17.0-1.3","SS1619739552633","trial","","40","500","2313.8099999996484","images/stimuli/spore_stims/complex_08_A_a.gif","images/stimuli/spore_stims/complex_09_A_b.gif","forced_long","","4","complex_dissimilar","images/stimuli/spore_stims/complex_09_A_b.gif","","","","",""
"","3356.010000001348","survey-multi-choice","61","427921","0.0-18.0","SS1619739552633","math_question","","","","","","","","","","","","{""Q0"":""4""}","[0]","4","",""
"","null","html-keyboard-response","62","428972","0.0-19.0-0.0","SS1619739552633","","","null","","","","","","<p><img src= images/blank.png width =""600"" height = ""600"" style=""position:fixed;top:50%; left:50%; transform: translate(-50%, -50%); border:5px solid black"">","","","","","","","",""
"","2310.3599999995204","sequential-stimulus-presentation-old","63","431792","0.0-19.0-1.0","SS1619739552633","trial","","40","500","2810.3599999995204","images/stimuli/spore_stims/complex_09_A_a.gif","images/stimuli/spore_stims/complex_05_A_b.gif","forced_short","","5","complex_dissimilar","images/stimuli/spore_stims/complex_05_A_b.gif","","","","",""
"","null","html-keyboard-response","64","433082","0.0-19.0-0.1","SS1619739552633","","","null","","","","","","<p><img src= images/blank.png width =""600"" height = ""600"" style=""position:fixed;top:50%; left:50%; transform: translate(-50%, -50%); border:5px solid black"">","","","","","","","",""
"","4205.664999999513","sequential-stimulus-presentation-old","65","437798","0.0-19.0-1.1","SS1619739552633","trial","","40","500","4705.664999999513","images/stimuli/spore_stims/complex_09_A_a.gif","images/stimuli/spore_stims/complex_05_A_b.gif","forced_short","","5","complex_dissimilar","images/stimuli/spore_stims/complex_05_A_b.gif","","","","",""
"","null","html-keyboard-response","66","439039","0.0-19.0-0.2","SS1619739552633","","","null","","","","","","<p><img src= images/blank.png width =""600"" height = ""600"" style=""position:fixed;top:50%; left:50%; transform: translate(-50%, -50%); border:5px solid black"">","","","","","","","",""
"","5488.48499999987","sequential-stimulus-presentation-old","67","445037","0.0-19.0-1.2","SS1619739552633","trial","","40","500","5988.48499999987","images/stimuli/spore_stims/complex_09_A_a.gif","images/stimuli/spore_stims/complex_05_A_b.gif","forced_short","","5","complex_dissimilar","images/stimuli/spore_stims/complex_09_A_a.gif","","","","",""
"","null","html-keyboard-response","68","445998","0.0-19.0-0.3","SS1619739552633","","","null","","","","","","<p><img src= images/blank.png width =""600"" height = ""600"" style=""position:fixed;top:50%; left:50%; transform: translate(-50%, -50%); border:5px solid black"">","","","","","","","",""
"","7883.975000000617","sequential-stimulus-presentation-old","69","454389","0.0-19.0-1.3","SS1619739552633","trial","","40","500","8383.975000000617","images/stimuli/spore_stims/complex_09_A_a.gif","images/stimuli/spore_stims/complex_05_A_b.gif","forced_short","","5","complex_dissimilar","images/stimuli/spore_stims/complex_05_A_b.gif","","","","",""
"","null","html-keyboard-response","70","455330","0.0-19.0-0.4","SS1619739552633","","","null","","","","","","<p><img src= images/blank.png width =""600"" height = ""600"" style=""position:fixed;top:50%; left:50%; transform: translate(-50%, -50%); border:5px solid black"">","","","","","","","",""
"","3578.224999999278","sequential-stimulus-presentation-old","71","459416","0.0-19.0-1.4","SS1619739552633","trial","","40","500","4078.224999999278","images/stimuli/spore_stims/complex_09_A_a.gif","images/stimuli/spore_stims/complex_05_A_b.gif","forced_short","","5","complex_dissimilar","images/stimuli/spore_stims/complex_05_A_b.gif","","","","",""
"","null","html-keyboard-response","72","460410","0.0-19.0-0.5","SS1619739552633","","","null","","","","","","<p><img src= images/blank.png width =""600"" height = ""600"" style=""position:fixed;top:50%; left:50%; transform: translate(-50%, -50%); border:5px solid black"">","","","","","","","",""
"","8354.350000001374","sequential-stimulus-presentation-old","73","469274","0.0-19.0-1.5","SS1619739552633","trial","","40","500","8854.350000001374","images/stimuli/spore_stims/complex_09_A_a.gif","images/stimuli/spore_stims/complex_05_A_b.gif","forced_short","","5","complex_dissimilar","images/stimuli/spore_stims/complex_09_A_a.gif","","","","",""
"","7075.655000000552","survey-multi-choice","74","476355","0.0-20.0","SS1619739552633","math_question","","","","","","","","","","","","{""Q0"":""13""}","[0]","13","",""
"","null","html-keyboard-response","75","477390","0.0-21.0-0.0","SS1619739552633","","","null","","","","","","<p><img src= images/blank.png width =""600"" height = ""600"" style=""position:fixed;top:50%; left:50%; transform: translate(-50%, -50%); border:5px solid black"">","","","","","","","",""
"","1772.769999999553","sequential-stimulus-presentation-old","76","479671","0.0-21.0-1.0","SS1619739552633","trial","","40","500","2272.769999999553","images/stimuli/spore_stims/simple_04_A_b.gif","images/stimuli/spore_stims/simple_07_A_a.gif","forced_short","","6","simple_dissimilar","images/stimuli/spore_stims/simple_07_A_a.gif","","","","",""
"","null","html-keyboard-response","77","480553","0.0-21.0-0.1","SS1619739552633","","","null","","","","","","<p><img src= images/blank.png width =""600"" height = ""600"" style=""position:fixed;top:50%; left:50%; transform: translate(-50%, -50%); border:5px solid black"">","","","","","","","",""
"","3163.484999999113","sequential-stimulus-presentation-old","78","484221","0.0-21.0-1.1","SS1619739552633","trial","","40","500","3663.484999999113","images/stimuli/spore_stims/simple_04_A_b.gif","images/stimuli/spore_stims/simple_07_A_a.gif","forced_short","","6","simple_dissimilar","images/stimuli/spore_stims/simple_07_A_a.gif","","","","",""
"","null","html-keyboard-response","79","485367","0.0-21.0-0.2","SS1619739552633","","","null","","","","","","<p><img src= images/blank.png width =""600"" height = ""600"" style=""position:fixed;top:50%; left:50%; transform: translate(-50%, -50%); border:5px solid black"">","","","","","","","",""
"","4075.3600000007427","sequential-stimulus-presentation-old","80","489952","0.0-21.0-1.2","SS1619739552633","trial","","40","500","4575.360000000743","images/stimuli/spore_stims/simple_04_A_b.gif","images/stimuli/spore_stims/simple_07_A_a.gif","forced_short","","6","simple_dissimilar","images/stimuli/spore_stims/simple_04_A_b.gif","","","","",""
"","null","html-keyboard-response","81","491053","0.0-21.0-0.3","SS1619739552633","","","null","","","","","","<p><img src= images/blank.png width =""600"" height = ""600"" style=""position:fixed;top:50%; left:50%; transform: translate(-50%, -50%); border:5px solid black"">","","","","","","","",""
"","4145.570000000589","sequential-stimulus-presentation-old","82","495706","0.0-21.0-1.3","SS1619739552633","trial","","40","500","4645.570000000589","images/stimuli/spore_stims/simple_04_A_b.gif","images/stimuli/spore_stims/simple_07_A_a.gif","forced_short","","6","simple_dissimilar","images/stimuli/spore_stims/simple_07_A_a.gif","","","","",""
"","null","html-keyboard-response","83","496679","0.0-21.0-0.4","SS1619739552633","","","null","","","","","","<p><img src= images/blank.png width =""600"" height = ""600"" style=""position:fixed;top:50%; left:50%; transform: translate(-50%, -50%); border:5px solid black"">","","","","","","","",""
"","4602.624999999534","sequential-stimulus-presentation-old","84","501787","0.0-21.0-1.4","SS1619739552633","trial","","40","500","5102.624999999534","images/stimuli/spore_stims/simple_04_A_b.gif","images/stimuli/spore_stims/simple_07_A_a.gif","forced_short","","6","simple_dissimilar","images/stimuli/spore_stims/simple_04_A_b.gif","","","","",""
"","4933.2599999997765","survey-multi-choice","85","506729","0.0-22.0","SS1619739552633","math_question","","","","","","","","","","","","{""Q0"":""9""}","[0]","9","",""
"","null","html-keyboard-response","86","507982","0.0-23.0-0.0","SS1619739552633","","","null","","","","","","<p><img src= images/blank.png width =""600"" height = ""600"" style=""position:fixed;top:50%; left:50%; transform: translate(-50%, -50%); border:5px solid black"">","","","","","","","",""
"","1935.550000000163","sequential-stimulus-presentation-old","87","524925","0.0-23.0-1.0","SS1619739552633","trial","","40","500","2435.550000000163","images/stimuli/spore_stims/simple_03_A_b.gif","images/stimuli/spore_stims/simple_18_A_a.gif","forced_long","","7","simple_dissimilar","images/stimuli/spore_stims/simple_18_A_a.gif","","","","",""
"","null","html-keyboard-response","88","526045","0.0-23.0-0.1","SS1619739552633","","","null","","","","","","<p><img src= images/blank.png width =""600"" height = ""600"" style=""position:fixed;top:50%; left:50%; transform: translate(-50%, -50%); border:5px solid black"">","","","","","","","",""
"","10113.67499999865","sequential-stimulus-presentation-old","89","536668","0.0-23.0-1.1","SS1619739552633","trial","","40","500","10613.67499999865","images/stimuli/spore_stims/simple_03_A_b.gif","images/stimuli/spore_stims/simple_18_A_a.gif","forced_long","","7","simple_dissimilar","images/stimuli/spore_stims/simple_18_A_a.gif","","","","",""
"","null","html-keyboard-response","90","537607","0.0-23.0-0.2","SS1619739552633","","","null","","","","","","<p><img src= images/blank.png width =""600"" height = ""600"" style=""position:fixed;top:50%; left:50%; transform: translate(-50%, -50%); border:5px solid black"">","","","","","","","",""
"","3256.9049999982817","sequential-stimulus-presentation-old","91","541376","0.0-23.0-1.2","SS1619739552633","trial","","40","500","3756.9049999982817","images/stimuli/spore_stims/simple_03_A_b.gif","images/stimuli/spore_stims/simple_18_A_a.gif","forced_long","","7","simple_dissimilar","images/stimuli/spore_stims/simple_18_A_a.gif","","","","",""
"","null","html-keyboard-response","92","542500","0.0-23.0-0.3","SS1619739552633","","","null","","","","","","<p><img src= images/blank.png width =""600"" height = ""600"" style=""position:fixed;top:50%; left:50%; transform: translate(-50%, -50%); border:5px solid black"">","","","","","","","",""
"","5101.180000001448","sequential-stimulus-presentation-old","93","548107","0.0-23.0-1.3","SS1619739552633","trial","","40","500","5601.180000001448","images/stimuli/spore_stims/simple_03_A_b.gif","images/stimuli/spore_stims/simple_18_A_a.gif","forced_long","","7","simple_dissimilar","images/stimuli/spore_stims/simple_18_A_a.gif","","","","",""
"","3706.8349999990314","survey-multi-choice","94","551823","0.0-24.0","SS1619739552633","math_question","","","","","","","","","","","","{""Q0"":""11""}","[0]","11","",""
"","null","html-keyboard-response","95","552685","0.0-25.0-0.0","SS1619739552633","","","null","","","","","","<p><img src= images/blank.png width =""600"" height = ""600"" style=""position:fixed;top:50%; left:50%; transform: translate(-50%, -50%); border:5px solid black"">","","","","","","","",""
"","8302.315000000875","sequential-stimulus-presentation-old","96","561497","0.0-25.0-1.0","SS1619739552633","trial","","40","500","8802.315000000875","images/stimuli/spore_stims/simple_05_A_b.gif","images/stimuli/spore_stims/simple_12_A_a.gif","forced_short","","8","simple_dissimilar","images/stimuli/spore_stims/simple_12_A_a.gif","","","","",""
"","null","html-keyboard-response","97","562519","0.0-25.0-0.1","SS1619739552633","","","null","","","","","","<p><img src= images/blank.png width =""600"" height = ""600"" style=""position:fixed;top:50%; left:50%; transform: translate(-50%, -50%); border:5px solid black"">","","","","","","","",""
"","3127.7200000003213","sequential-stimulus-presentation-old","98","566151","0.0-25.0-1.1","SS1619739552633","trial","","40","500","3627.7200000003213","images/stimuli/spore_stims/simple_05_A_b.gif","images/stimuli/spore_stims/simple_12_A_a.gif","forced_short","","8","simple_dissimilar","images/stimuli/spore_stims/simple_12_A_a.gif","","","","",""
"","null","html-keyboard-response","99","567244","0.0-25.0-0.2","SS1619739552633","","","null","","","","","","<p><img src= images/blank.png width =""600"" height = ""600"" style=""position:fixed;top:50%; left:50%; transform: translate(-50%, -50%); border:5px solid black"">","","","","","","","",""
"","3631.045000000042","sequential-stimulus-presentation-old","100","571381","0.0-25.0-1.2","SS1619739552633","trial","","40","500","4131.045000000042","images/stimuli/spore_stims/simple_05_A_b.gif","images/stimuli/spore_stims/simple_12_A_a.gif","forced_short","","8","simple_dissimilar","images/stimuli/spore_stims/simple_12_A_a.gif","","","","",""
"","null","html-keyboard-response","101","572275","0.0-25.0-0.3","SS1619739552633","","","null","","","","","","<p><img src= images/blank.png width =""600"" height = ""600"" style=""position:fixed;top:50%; left:50%; transform: translate(-50%, -50%); border:5px solid black"">","","","","","","","",""
"","3239.5650000016904","sequential-stimulus-presentation-old","102","576030","0.0-25.0-1.3","SS1619739552633","trial","","40","500","3739.5650000016904","images/stimuli/spore_stims/simple_05_A_b.gif","images/stimuli/spore_stims/simple_12_A_a.gif","forced_short","","8","simple_dissimilar","images/stimuli/spore_stims/simple_12_A_a.gif","","","","",""
"","null","html-keyboard-response","103","577286","0.0-25.0-0.4","SS1619739552633","","","null","","","","","","<p><img src= images/blank.png width =""600"" height = ""600"" style=""position:fixed;top:50%; left:50%; transform: translate(-50%, -50%); border:5px solid black"">","","","","","","","",""
"","1920.919999998645","sequential-stimulus-presentation-old","104","579712","0.0-25.0-1.4","SS1619739552633","trial","","40","500","2420.919999998645","images/stimuli/spore_stims/simple_05_A_b.gif","images/stimuli/spore_stims/simple_12_A_a.gif","forced_short","","8","simple_dissimilar","images/stimuli/spore_stims/simple_12_A_a.gif","","","","",""
"","null","html-keyboard-response","105","580653","0.0-25.0-0.5","SS1619739552633","","","null","","","","","","<p><img src= images/blank.png width =""600"" height = ""600"" style=""position:fixed;top:50%; left:50%; transform: translate(-50%, -50%); border:5px solid black"">","","","","","","","",""
"","2694.330000000191","sequential-stimulus-presentation-old","106","583854","0.0-25.0-1.5","SS1619739552633","trial","","40","500","3194.330000000191","images/stimuli/spore_stims/simple_05_A_b.gif","images/stimuli/spore_stims/simple_12_A_a.gif","forced_short","","8","simple_dissimilar","images/stimuli/spore_stims/simple_12_A_a.gif","","","","",""
"","5197.985000000801","survey-multi-choice","107","589054","0.0-26.0","SS1619739552633","math_question","","","","","","","","","","","","{""Q0"":""5""}","[0]","5","",""
"","null","html-keyboard-response","108","590129","0.0-27.0-0.0","SS1619739552633","","","null","","","","","","<p><img src= images/blank.png width =""600"" height = ""600"" style=""position:fixed;top:50%; left:50%; transform: translate(-50%, -50%); border:5px solid black"">","","","","","","","",""
"","4494.825000001583","sequential-stimulus-presentation-old","109","595135","0.0-27.0-1.0","SS1619739552633","trial","","40","500","4994.825000001583","images/stimuli/spore_stims/complex_15_A_a.gif","images/stimuli/spore_stims/complex_01_A_b.gif","self_paced","","9","complex_dissimilar","images/stimuli/spore_stims/complex_01_A_b.gif","","","","",""
"","null","html-keyboard-response","110","596378","0.0-27.0-0.1","SS1619739552633","","","null","","","","","","<p><img src= images/blank.png width =""600"" height = ""600"" style=""position:fixed;top:50%; left:50%; transform: translate(-50%, -50%); border:5px solid black"">","","","","","","","",""
"","4268.389999999199","sequential-stimulus-presentation-old","111","601158","0.0-27.0-1.1","SS1619739552633","trial","","40","500","4768.389999999199","images/stimuli/spore_stims/complex_15_A_a.gif","images/stimuli/spore_stims/complex_01_A_b.gif","self_paced","","9","complex_dissimilar","images/stimuli/spore_stims/complex_01_A_b.gif","","","","",""
"","null","html-keyboard-response","112","602455","0.0-27.0-0.2","SS1619739552633","","","null","","","","","","<p><img src= images/blank.png width =""600"" height = ""600"" style=""position:fixed;top:50%; left:50%; transform: translate(-50%, -50%); border:5px solid black"">","","","","","","","",""
"","4837.500000001397","sequential-stimulus-presentation-old","113","607799","0.0-27.0-1.2","SS1619739552633","trial","","40","500","5337.500000001397","images/stimuli/spore_stims/complex_15_A_a.gif","images/stimuli/spore_stims/complex_01_A_b.gif","self_paced","","9","complex_dissimilar","images/stimuli/spore_stims/complex_15_A_a.gif","","","","",""
"","null","html-keyboard-response","114","609071","0.0-27.0-0.3","SS1619739552633","","","null","","","","","","<p><img src= images/blank.png width =""600"" height = ""600"" style=""position:fixed;top:50%; left:50%; transform: translate(-50%, -50%); border:5px solid black"">","","","","","","","",""
"","6553.044999998761","sequential-stimulus-presentation-old","115","616135","0.0-27.0-1.3","SS1619739552633","trial","","40","500","7053.044999998761","images/stimuli/spore_stims/complex_15_A_a.gif","images/stimuli/spore_stims/complex_01_A_b.gif","self_paced","","9","complex_dissimilar","images/stimuli/spore_stims/complex_01_A_b.gif","","","","",""
"","null","html-keyboard-response","116","617424","0.0-27.0-0.4","SS1619739552633","","","null","","","","","","<p><img src= images/blank.png width =""600"" height = ""600"" style=""position:fixed;top:50%; left:50%; transform: translate(-50%, -50%); border:5px solid black"">","","","","","","","",""
"","5593.85499999905","sequential-stimulus-presentation-old","117","623528","0.0-27.0-1.4","SS1619739552633","trial","","40","500","6093.85499999905","images/stimuli/spore_stims/complex_15_A_a.gif","images/stimuli/spore_stims/complex_01_A_b.gif","self_paced","","9","complex_dissimilar","images/stimuli/spore_stims/complex_01_A_b.gif","","","","",""
"","null","html-keyboard-response","118","624505","0.0-27.0-0.5","SS1619739552633","","","null","","","","","","<p><img src= images/blank.png width =""600"" height = ""600"" style=""position:fixed;top:50%; left:50%; transform: translate(-50%, -50%); border:5px solid black"">","","","","","","","",""
"","2239.1200000001118","sequential-stimulus-presentation-old","119","627252","0.0-27.0-1.5","SS1619739552633","trial","","40","500","2739.1200000001118","images/stimuli/spore_stims/complex_15_A_a.gif","images/stimuli/spore_stims/complex_01_A_b.gif","self_paced","","9","complex_dissimilar","images/stimuli/spore_stims/complex_15_A_a.gif","","","","",""
"","3529.714999998687","survey-multi-choice","120","630785","0.0-28.0","SS1619739552633","math_question","","","","","","","","","","","","{""Q0"":""11""}","[0]","11","",""
"","null","html-keyboard-response","121","631790","0.0-29.0-0.0","SS1619739552633","","","null","","","","","","<p><img src= images/blank.png width =""600"" height = ""600"" style=""position:fixed;top:50%; left:50%; transform: translate(-50%, -50%); border:5px solid black"">","","","","","","","",""
"","6631.234999998938","sequential-stimulus-presentation-old","122","638927","0.0-29.0-1.0","SS1619739552633","trial","","40","500","7131.234999998938","images/stimuli/spore_stims/simple_04_A_a.gif","images/stimuli/spore_stims/simple_08_A_b.gif","self_paced","","10","simple_dissimilar","images/stimuli/spore_stims/simple_08_A_b.gif","","","","",""
"","null","html-keyboard-response","123","639826","0.0-29.0-0.1","SS1619739552633","","","null","","","","","","<p><img src= images/blank.png width =""600"" height = ""600"" style=""position:fixed;top:50%; left:50%; transform: translate(-50%, -50%); border:5px solid black"">","","","","","","","",""
"","3526.710000000079","sequential-stimulus-presentation-old","124","643858","0.0-29.0-1.1","SS1619739552633","trial","","40","500","4026.710000000079","images/stimuli/spore_stims/simple_04_A_a.gif","images/stimuli/spore_stims/simple_08_A_b.gif","self_paced","","10","simple_dissimilar","images/stimuli/spore_stims/simple_08_A_b.gif","","","","",""
"","null","html-keyboard-response","125","645023","0.0-29.0-0.2","SS1619739552633","","","null","","","","","","<p><img src= images/blank.png width =""600"" height = ""600"" style=""position:fixed;top:50%; left:50%; transform: translate(-50%, -50%); border:5px solid black"">","","","","","","","",""
"","1342.834999999497","sequential-stimulus-presentation-old","126","646875","0.0-29.0-1.2","SS1619739552633","trial","","40","500","1842.834999999497","images/stimuli/spore_stims/simple_04_A_a.gif","images/stimuli/spore_stims/simple_08_A_b.gif","self_paced","","10","simple_dissimilar","images/stimuli/spore_stims/simple_08_A_b.gif","","","","",""
"","null","html-keyboard-response","127","648157","0.0-29.0-0.3","SS1619739552633","","","null","","","","","","<p><img src= images/blank.png width =""600"" height = ""600"" style=""position:fixed;top:50%; left:50%; transform: translate(-50%, -50%); border:5px solid black"">","","","","","","","",""
"","843.484999999404","sequential-stimulus-presentation-old","128","649512","0.0-29.0-1.3","SS1619739552633","trial","","40","500","1343.484999999404","images/stimuli/spore_stims/simple_04_A_a.gif","images/stimuli/spore_stims/simple_08_A_b.gif","self_paced","","10","simple_dissimilar","images/stimuli/spore_stims/simple_04_A_a.gif","","","","",""
"","null","html-keyboard-response","129","650437","0.0-29.0-0.4","SS1619739552633","","","null","","","","","","<p><img src= images/blank.png width =""600"" height = ""600"" style=""position:fixed;top:50%; left:50%; transform: translate(-50%, -50%); border:5px solid black"">","","","","","","","",""
"","978.6550000008428","sequential-stimulus-presentation-old","130","651920","0.0-29.0-1.4","SS1619739552633","trial","","40","500","1478.6550000008428","images/stimuli/spore_stims/simple_04_A_a.gif","images/stimuli/spore_stims/simple_08_A_b.gif","self_paced","","10","simple_dissimilar","images/stimuli/spore_stims/simple_04_A_a.gif","","","","",""
"","4842.369999998482","survey-multi-choice","131","656770","0.0-30.0","SS1619739552633","math_question","","","","","","","","","","","","{""Q0"":""8""}","[0]","8","",""
"","null","html-keyboard-response","132","657616","0.0-31.0-0.0","SS1619739552633","","","null","","","","","","<p><img src= images/blank.png width =""600"" height = ""600"" style=""position:fixed;top:50%; left:50%; transform: translate(-50%, -50%); border:5px solid black"">","","","","","","","",""
"","3557.860000000801","sequential-stimulus-presentation-old","133","661684","0.0-31.0-1.0","SS1619739552633","trial","","40","500","4057.860000000801","images/stimuli/spore_stims/complex_12_A_b.gif","images/stimuli/spore_stims/complex_05_A_a.gif","forced_short","","11","complex_dissimilar","images/stimuli/spore_stims/complex_05_A_a.gif","","","","",""
"","null","html-keyboard-response","134","662976","0.0-31.0-0.1","SS1619739552633","","","null","","","","","","<p><img src= images/blank.png width =""600"" height = ""600"" style=""position:fixed;top:50%; left:50%; transform: translate(-50%, -50%); border:5px solid black"">","","","","","","","",""
"","2827.4849999998696","sequential-stimulus-presentation-old","135","666312","0.0-31.0-1.1","SS1619739552633","trial","","40","500","3327.4849999998696","images/stimuli/spore_stims/complex_12_A_b.gif","images/stimuli/spore_stims/complex_05_A_a.gif","forced_short","","11","complex_dissimilar","images/stimuli/spore_stims/complex_05_A_a.gif","","","","",""
"","null","html-keyboard-response","136","667275","0.0-31.0-0.2","SS1619739552633","","","null","","","","","","<p><img src= images/blank.png width =""600"" height = ""600"" style=""position:fixed;top:50%; left:50%; transform: translate(-50%, -50%); border:5px solid black"">","","","","","","","",""
"","2849.3349999990314","sequential-stimulus-presentation-old","137","670629","0.0-31.0-1.2","SS1619739552633","trial","","40","500","3349.3349999990314","images/stimuli/spore_stims/complex_12_A_b.gif","images/stimuli/spore_stims/complex_05_A_a.gif","forced_short","","11","complex_dissimilar","images/stimuli/spore_stims/complex_12_A_b.gif","","","","",""
"","null","html-keyboard-response","138","671620","0.0-31.0-0.3","SS1619739552633","","","null","","","","","","<p><img src= images/blank.png width =""600"" height = ""600"" style=""position:fixed;top:50%; left:50%; transform: translate(-50%, -50%); border:5px solid black"">","","","","","","","",""
"","2090.80999999959","sequential-stimulus-presentation-old","139","674218","0.0-31.0-1.3","SS1619739552633","trial","","40","500","2590.80999999959","images/stimuli/spore_stims/complex_12_A_b.gif","images/stimuli/spore_stims/complex_05_A_a.gif","forced_short","","11","complex_dissimilar","images/stimuli/spore_stims/complex_05_A_a.gif","","","","",""
"","null","html-keyboard-response","140","675398","0.0-31.0-0.4","SS1619739552633","","","null","","","","","","<p><img src= images/blank.png width =""600"" height = ""600"" style=""position:fixed;top:50%; left:50%; transform: translate(-50%, -50%); border:5px solid black"">","","","","","","","",""
"","2135.814999999595","sequential-stimulus-presentation-old","141","678047","0.0-31.0-1.4","SS1619739552633","trial","","40","500","2635.814999999595","images/stimuli/spore_stims/complex_12_A_b.gif","images/stimuli/spore_stims/complex_05_A_a.gif","forced_short","","11","complex_dissimilar","images/stimuli/spore_stims/complex_05_A_a.gif","","","","",""
"[{""page_index"":0,""viewing_time"":14093.039999999688}]","14093.37500000035","instructions","142","692144","0.0-32.0","SS1619739552633","instructions","","","","","","","","","","","","","","","",""
"","19538.730000000214","survey-likert","143","711689","0.0-33.0","SS1619739552633","similarity_question","","","","","","","","","","","","{""Q0"":4}","[0]","","images/stimuli/spore_stims/complex_01_A_b.gif","images/stimuli/spore_stims/complex_15_A_a.gif"
"","6128.314999999944","survey-likert","144","717828","0.0-34.0","SS1619739552633","similarity_question","","","","","","","","","","","","{""Q0"":6}","[0]","","images/stimuli/spore_stims/complex_04_A_a.gif","images/stimuli/spore_stims/complex_19_A_b.gif"
"","2947.6150000010384","survey-likert","145","720788","0.0-35.0","SS1619739552633","similarity_question","","","","","","","","","","","","{""Q0"":6}","[0]","","images/stimuli/spore_stims/simple_04_A_b.gif","images/stimuli/spore_stims/simple_07_A_a.gif"
"","6752.894999999553","survey-likert","146","727550","0.0-36.0","SS1619739552633","similarity_question","","","","","","","","","","","","{""Q0"":5}","[0]","","images/stimuli/spore_stims/complex_05_A_a.gif","images/stimuli/spore_stims/complex_12_A_b.gif"
"","4878.265000001178","survey-likert","147","732438","0.0-37.0","SS1619739552633","similarity_question","","","","","","","","","","","","{""Q0"":6}","[0]","","images/stimuli/spore_stims/simple_19_A_a.gif","images/stimuli/spore_stims/simple_17_A_b.gif"
"","6395.02499999979","survey-likert","148","738842","0.0-38.0","SS1619739552633","similarity_question","","","","","","","","","","","","{""Q0"":5}","[0]","","images/stimuli/spore_stims/complex_05_A_b.gif","images/stimuli/spore_stims/complex_09_A_a.gif"
"","4782.030000000261","survey-likert","149","743636","0.0-39.0","SS1619739552633","similarity_question","","","","","","","","","","","","{""Q0"":5}","[0]","","images/stimuli/spore_stims/complex_08_A_a.gif","images/stimuli/spore_stims/complex_09_A_b.gif"
"","2522.7599999997765","survey-likert","150","746170","0.0-40.0","SS1619739552633","similarity_question","","","","","","","","","","","","{""Q0"":6}","[0]","","images/stimuli/spore_stims/simple_05_A_b.gif","images/stimuli/spore_stims/simple_12_A_a.gif"
"","9814.97500000114","survey-likert","151","755995","0.0-41.0","SS1619739552633","similarity_question","","","","","","","","","","","","{""Q0"":6}","[0]","","images/stimuli/spore_stims/simple_16_A_b.gif","images/stimuli/spore_stims/simple_20_A_a.gif"
"","7168.950000001118","survey-likert","152","763174","0.0-42.0","SS1619739552633","similarity_question","","","","","","","","","","","","{""Q0"":2}","[0]","","images/stimuli/spore_stims/complex_16_A_a.gif","images/stimuli/spore_stims/complex_02_A_b.gif"
"","2375.7549999990733","survey-likert","153","765560","0.0-43.0","SS1619739552633","similarity_question","","","","","","","","","","","","{""Q0"":6}","[0]","","images/stimuli/spore_stims/simple_04_A_a.gif","images/stimuli/spore_stims/simple_08_A_b.gif"
"","2132.5900000011316","survey-likert","154","767700","0.0-44.0","SS1619739552633","similarity_question","","","","","","","","","","","","{""Q0"":6}","[0]","","images/stimuli/spore_stims/simple_03_A_b.gif","images/stimuli/spore_stims/simple_18_A_a.gif"
"[{""page_index"":0,""viewing_time"":11869.860000000685}]","11870.21499999892","instructions","155","779578","0.0-45.0","SS1619739552633","instructions","","","","","","","","","","","","","","","",""
"","24653.469999999274","survey-likert","156","804236","0.0-46.0","SS1619739552633","","","","","","","","","images/stimuli/spore_stims/complex_02_A_b.gif","","","","{""Q0"":5}","[0]","","",""
"","4879.715000001015","survey-likert","157","809124","0.0-47.0","SS1619739552633","","","","","","","","","images/stimuli/spore_stims/simple_12_A_a.gif","","","","{""Q0"":0}","[0]","","",""
"","3769.175000001327","survey-likert","158","812902","0.0-48.0","SS1619739552633","","","","","","","","","images/stimuli/spore_stims/complex_12_A_b.gif","","","","{""Q0"":5}","[0]","","",""
"","2265.739999998943","survey-likert","159","815178","0.0-49.0","SS1619739552633","","","","","","","","","images/stimuli/spore_stims/complex_01_A_b.gif","","","","{""Q0"":5}","[0]","","",""
"","5243.850000000792","survey-likert","160","820432","0.0-50.0","SS1619739552633","","","","","","","","","images/stimuli/spore_stims/complex_09_A_b.gif","","","","{""Q0"":5}","[0]","","",""
"","6195.970000000671","survey-likert","161","826638","0.0-51.0","SS1619739552633","","","","","","","","","images/stimuli/spore_stims/simple_04_A_a.gif","","","","{""Q0"":1}","[0]","","",""
"","2329.265000000363","survey-likert","162","828976","0.0-52.0","SS1619739552633","","","","","","","","","images/stimuli/spore_stims/complex_04_A_a.gif","","","","{""Q0"":5}","[0]","","",""
"","2131.5150000009453","survey-likert","163","831118","0.0-53.0","SS1619739552633","","","","","","","","","images/stimuli/spore_stims/complex_09_A_a.gif","","","","{""Q0"":4}","[0]","","",""
"","2267.2400000010384","survey-likert","164","833395","0.0-54.0","SS1619739552633","","","","","","","","","images/stimuli/spore_stims/simple_18_A_a.gif","","","","{""Q0"":1}","[0]","","",""
"","2475.835000001127","survey-likert","165","835880","0.0-55.0","SS1619739552633","","","","","","","","","images/stimuli/spore_stims/simple_07_A_a.gif","","","","{""Q0"":1}","[0]","","",""
"","2003.0250000000233","survey-likert","166","837894","0.0-56.0","SS1619739552633","","","","","","","","","images/stimuli/spore_stims/simple_19_A_a.gif","","","","{""Q0"":1}","[0]","","",""
"","1641.315000000759","survey-likert","167","839547","0.0-57.0","SS1619739552633","","","","","","","","","images/stimuli/spore_stims/simple_20_A_a.gif","","","","{""Q0"":1}","[0]","","",""
"[{""page_index"":0,""viewing_time"":4770.7649999993155}]","4771.080000000424","instructions","168","844328","0.0-58.0","SS1619739552633","instructions","","","","","","","","","","","","","","","",""
"","5516.649999999558","demog-age","169","849852","0.0-59.0","SS1619739552633","","","","","","","","","","","","","{""age"":""24""}","","","",""
"","5649.669999998878","demog-ethnic-US","170","855510","0.0-60.0","SS1619739552633","","","","","","","","","","","","","{""ethnicity"":[""Hispanic or Latino""]}","[0]","","",""
"","16813.000000000116","demog-gender-and-education","171","872334","0.0-61.0","SS1619739552633","","","","","","","","","","","","","{""gender"":""Male"",""education"":""Bachelor's Degree""}","[0,1]","","",""
"","36534.665000001085","survey-text","172","908880","0.0-62.0","SS1619739552633","feedback","","","","","","","","","","","","{""Q0"":""no""}","","","",""
"[{""page_index"":0,""viewing_time"":3042.885000000708}]","3043.170000000857","instructions","173","911927","0.0-63.0","SS1619739552633","instructions","","","","","","","","","","","","","","","",""
