"view_history","rt","trial_type","trial_index","time_elapsed","internal_node_id","subject","stimulus_type","trial_stimulus","key_press","minimum_viewing_duration","trial_looking_time","block_deviant","block_background","exposure_type","stimulus","block_number","block_type","stimulus_displayed","responses","question_order","math_correct_answer","stimulus_left","stimulus_right"
"[{""page_index"":0,""viewing_time"":12891}]","12891","instructions","0","12895","0.0-0.0","SS1619739620491","","","","","","","","","","","","","","","","",""
"[{""page_index"":0,""viewing_time"":17867},{""page_index"":1,""viewing_time"":6527}]","24395","instructions","1","39314","0.0-1.0","SS1619739620491","instructions","","","","","","","","","","","","","","","",""
"","11377","sequential-stimulus-presentation-old","2","51215","0.0-2.0","SS1619739620491","","","40","500","11877","null","null","self_paced","","","","","","","","",""
"","9496","sequential-stimulus-presentation-old","3","61223","0.0-3.0","SS1619739620491","","","40","500","9996","null","null","self_paced","","","","","","","","",""
"[{""page_index"":0,""viewing_time"":41222}]","41222","instructions","4","102448","0.0-4.0","SS1619739620491","instructions","","","","","","","","","","","","","","","",""
"","1988","sequential-stimulus-presentation-old","5","119459","0.0-5.0","SS1619739620491","","","40","500","2488","null","null","forced_long","","","","","","","","",""
"","1416","sequential-stimulus-presentation-old","6","121388","0.0-6.0","SS1619739620491","","","40","500","1916","null","null","forced_long","","","","","","","","",""
"[{""page_index"":0,""viewing_time"":7184}]","7184","instructions","7","128572","0.0-7.0","SS1619739620491","instructions","","","","","","","","","","","","","","","",""
"[{""page_index"":0,""viewing_time"":9109},{""page_index"":1,""viewing_time"":34690},{""page_index"":2,""viewing_time"":6096},{""page_index"":3,""viewing_time"":2384},{""page_index"":4,""viewing_time"":1811}]","54090","instructions","8","182665","0.0-8.0","SS1619739620491","instructions","","","","","","","","","","","","","","","",""
"","null","html-keyboard-response","9","183827","0.0-9.0-0.0","SS1619739620491","","","null","","","","","","<p><img src= images/blank.png width =""600"" height = ""600"" style=""position:fixed;top:50%; left:50%; transform: translate(-50%, -50%); border:5px solid black"">","","","","","","","",""
"","562","sequential-stimulus-presentation-old","10","184894","0.0-9.0-1.0","SS1619739620491","trial","","40","500","1062","images/stimuli/spore_stims/complex_13_A_b.gif","images/stimuli/spore_stims/complex_06_A_a.gif","forced_short","","0","complex_dissimilar","images/stimuli/spore_stims/complex_06_A_a.gif","","","","",""
"","null","html-keyboard-response","11","185968","0.0-9.0-0.1","SS1619739620491","","","null","","","","","","<p><img src= images/blank.png width =""600"" height = ""600"" style=""position:fixed;top:50%; left:50%; transform: translate(-50%, -50%); border:5px solid black"">","","","","","","","",""
"","245","sequential-stimulus-presentation-old","12","186729","0.0-9.0-1.1","SS1619739620491","trial","","40","500","745","images/stimuli/spore_stims/complex_13_A_b.gif","images/stimuli/spore_stims/complex_06_A_a.gif","forced_short","","0","complex_dissimilar","images/stimuli/spore_stims/complex_13_A_b.gif","","","","",""
"","null","html-keyboard-response","13","187559","0.0-9.0-0.2","SS1619739620491","","","null","","","","","","<p><img src= images/blank.png width =""600"" height = ""600"" style=""position:fixed;top:50%; left:50%; transform: translate(-50%, -50%); border:5px solid black"">","","","","","","","",""
"","473","sequential-stimulus-presentation-old","14","188553","0.0-9.0-1.2","SS1619739620491","trial","","40","500","973","images/stimuli/spore_stims/complex_13_A_b.gif","images/stimuli/spore_stims/complex_06_A_a.gif","forced_short","","0","complex_dissimilar","images/stimuli/spore_stims/complex_13_A_b.gif","","","","",""
"","null","html-keyboard-response","15","189440","0.0-9.0-0.3","SS1619739620491","","","null","","","","","","<p><img src= images/blank.png width =""600"" height = ""600"" style=""position:fixed;top:50%; left:50%; transform: translate(-50%, -50%); border:5px solid black"">","","","","","","","",""
"","20768","sequential-stimulus-presentation-old","16","210728","0.0-9.0-1.3","SS1619739620491","trial","","40","500","21268","images/stimuli/spore_stims/complex_13_A_b.gif","images/stimuli/spore_stims/complex_06_A_a.gif","forced_short","","0","complex_dissimilar","images/stimuli/spore_stims/complex_06_A_a.gif","","","","",""
"","8089","survey-multi-choice","17","218821","0.0-10.0","SS1619739620491","math_question","","","","","","","","","","","","{""Q0"":""14""}","[0]","14","",""
"","null","html-keyboard-response","18","219920","0.0-11.0-0.0","SS1619739620491","","","null","","","","","","<p><img src= images/blank.png width =""600"" height = ""600"" style=""position:fixed;top:50%; left:50%; transform: translate(-50%, -50%); border:5px solid black"">","","","","","","","",""
"","16016","sequential-stimulus-presentation-old","19","236447","0.0-11.0-1.0","SS1619739620491","trial","","40","500","16516","images/stimuli/spore_stims/complex_14_A_a.gif","images/stimuli/spore_stims/complex_19_A_b.gif","self_paced","","1","complex_dissimilar","images/stimuli/spore_stims/complex_19_A_b.gif","","","","",""
"","null","html-keyboard-response","20","237461","0.0-11.0-0.1","SS1619739620491","","","null","","","","","","<p><img src= images/blank.png width =""600"" height = ""600"" style=""position:fixed;top:50%; left:50%; transform: translate(-50%, -50%); border:5px solid black"">","","","","","","","",""
"","15251","sequential-stimulus-presentation-old","21","253230","0.0-11.0-1.1","SS1619739620491","trial","","40","500","15751","images/stimuli/spore_stims/complex_14_A_a.gif","images/stimuli/spore_stims/complex_19_A_b.gif","self_paced","","1","complex_dissimilar","images/stimuli/spore_stims/complex_19_A_b.gif","","","","",""
"","null","html-keyboard-response","22","254080","0.0-11.0-0.2","SS1619739620491","","","null","","","","","","<p><img src= images/blank.png width =""600"" height = ""600"" style=""position:fixed;top:50%; left:50%; transform: translate(-50%, -50%); border:5px solid black"">","","","","","","","",""
"","12092","sequential-stimulus-presentation-old","23","266692","0.0-11.0-1.2","SS1619739620491","trial","","40","500","12592","images/stimuli/spore_stims/complex_14_A_a.gif","images/stimuli/spore_stims/complex_19_A_b.gif","self_paced","","1","complex_dissimilar","images/stimuli/spore_stims/complex_14_A_a.gif","","","","",""
"","null","html-keyboard-response","24","267680","0.0-11.0-0.3","SS1619739620491","","","null","","","","","","<p><img src= images/blank.png width =""600"" height = ""600"" style=""position:fixed;top:50%; left:50%; transform: translate(-50%, -50%); border:5px solid black"">","","","","","","","",""
"","14371","sequential-stimulus-presentation-old","25","282572","0.0-11.0-1.3","SS1619739620491","trial","","40","500","14871","images/stimuli/spore_stims/complex_14_A_a.gif","images/stimuli/spore_stims/complex_19_A_b.gif","self_paced","","1","complex_dissimilar","images/stimuli/spore_stims/complex_14_A_a.gif","","","","",""
"","null","html-keyboard-response","26","283650","0.0-11.0-0.4","SS1619739620491","","","null","","","","","","<p><img src= images/blank.png width =""600"" height = ""600"" style=""position:fixed;top:50%; left:50%; transform: translate(-50%, -50%); border:5px solid black"">","","","","","","","",""
"","14695","sequential-stimulus-presentation-old","27","298865","0.0-11.0-1.4","SS1619739620491","trial","","40","500","15195","images/stimuli/spore_stims/complex_14_A_a.gif","images/stimuli/spore_stims/complex_19_A_b.gif","self_paced","","1","complex_dissimilar","images/stimuli/spore_stims/complex_19_A_b.gif","","","","",""
"","null","html-keyboard-response","28","300009","0.0-11.0-0.5","SS1619739620491","","","null","","","","","","<p><img src= images/blank.png width =""600"" height = ""600"" style=""position:fixed;top:50%; left:50%; transform: translate(-50%, -50%); border:5px solid black"">","","","","","","","",""
"","8152","sequential-stimulus-presentation-old","29","308681","0.0-11.0-1.5","SS1619739620491","trial","","40","500","8652","images/stimuli/spore_stims/complex_14_A_a.gif","images/stimuli/spore_stims/complex_19_A_b.gif","self_paced","","1","complex_dissimilar","images/stimuli/spore_stims/complex_19_A_b.gif","","","","",""
"","3990","survey-multi-choice","30","312673","0.0-12.0","SS1619739620491","math_question","","","","","","","","","","","","{""Q0"":""4""}","[0]","4","",""
"","null","html-keyboard-response","31","313540","0.0-13.0-0.0","SS1619739620491","","","null","","","","","","<p><img src= images/blank.png width =""600"" height = ""600"" style=""position:fixed;top:50%; left:50%; transform: translate(-50%, -50%); border:5px solid black"">","","","","","","","",""
"","13993","sequential-stimulus-presentation-old","32","342554","0.0-13.0-1.0","SS1619739620491","trial","","40","500","14493","images/stimuli/spore_stims/complex_19_A_a.gif","images/stimuli/spore_stims/complex_06_A_b.gif","forced_long","","2","complex_dissimilar","images/stimuli/spore_stims/complex_06_A_b.gif","","","","",""
"","null","html-keyboard-response","33","343757","0.0-13.0-0.1","SS1619739620491","","","null","","","","","","<p><img src= images/blank.png width =""600"" height = ""600"" style=""position:fixed;top:50%; left:50%; transform: translate(-50%, -50%); border:5px solid black"">","","","","","","","",""
"","14628","sequential-stimulus-presentation-old","34","358904","0.0-13.0-1.1","SS1619739620491","trial","","40","500","15128","images/stimuli/spore_stims/complex_19_A_a.gif","images/stimuli/spore_stims/complex_06_A_b.gif","forced_long","","2","complex_dissimilar","images/stimuli/spore_stims/complex_06_A_b.gif","","","","",""
"","null","html-keyboard-response","35","359757","0.0-13.0-0.2","SS1619739620491","","","null","","","","","","<p><img src= images/blank.png width =""600"" height = ""600"" style=""position:fixed;top:50%; left:50%; transform: translate(-50%, -50%); border:5px solid black"">","","","","","","","",""
"","7135","sequential-stimulus-presentation-old","36","367411","0.0-13.0-1.2","SS1619739620491","trial","","40","500","7635","images/stimuli/spore_stims/complex_19_A_a.gif","images/stimuli/spore_stims/complex_06_A_b.gif","forced_long","","2","complex_dissimilar","images/stimuli/spore_stims/complex_06_A_b.gif","","","","",""
"","null","html-keyboard-response","37","368347","0.0-13.0-0.3","SS1619739620491","","","null","","","","","","<p><img src= images/blank.png width =""600"" height = ""600"" style=""position:fixed;top:50%; left:50%; transform: translate(-50%, -50%); border:5px solid black"">","","","","","","","",""
"","5962","sequential-stimulus-presentation-old","38","374829","0.0-13.0-1.3","SS1619739620491","trial","","40","500","6462","images/stimuli/spore_stims/complex_19_A_a.gif","images/stimuli/spore_stims/complex_06_A_b.gif","forced_long","","2","complex_dissimilar","images/stimuli/spore_stims/complex_06_A_b.gif","","","","",""
"","null","html-keyboard-response","39","375727","0.0-13.0-0.4","SS1619739620491","","","null","","","","","","<p><img src= images/blank.png width =""600"" height = ""600"" style=""position:fixed;top:50%; left:50%; transform: translate(-50%, -50%); border:5px solid black"">","","","","","","","",""
"","7337","sequential-stimulus-presentation-old","40","383575","0.0-13.0-1.4","SS1619739620491","trial","","40","500","7837","images/stimuli/spore_stims/complex_19_A_a.gif","images/stimuli/spore_stims/complex_06_A_b.gif","forced_long","","2","complex_dissimilar","images/stimuli/spore_stims/complex_06_A_b.gif","","","","",""
"","null","html-keyboard-response","41","384647","0.0-13.0-0.5","SS1619739620491","","","null","","","","","","<p><img src= images/blank.png width =""600"" height = ""600"" style=""position:fixed;top:50%; left:50%; transform: translate(-50%, -50%); border:5px solid black"">","","","","","","","",""
"","7448","sequential-stimulus-presentation-old","42","392614","0.0-13.0-1.5","SS1619739620491","trial","","40","500","7948","images/stimuli/spore_stims/complex_19_A_a.gif","images/stimuli/spore_stims/complex_06_A_b.gif","forced_long","","2","complex_dissimilar","images/stimuli/spore_stims/complex_06_A_b.gif","","","","",""
"","2314","survey-multi-choice","43","394930","0.0-14.0","SS1619739620491","math_question","","","","","","","","","","","","{""Q0"":""3""}","[0]","3","",""
"","null","html-keyboard-response","44","396097","0.0-15.0-0.0","SS1619739620491","","","null","","","","","","<p><img src= images/blank.png width =""600"" height = ""600"" style=""position:fixed;top:50%; left:50%; transform: translate(-50%, -50%); border:5px solid black"">","","","","","","","",""
"","6068","sequential-stimulus-presentation-old","45","417169","0.0-15.0-1.0","SS1619739620491","trial","","40","500","6568","images/stimuli/spore_stims/simple_18_A_a.gif","images/stimuli/spore_stims/simple_01_A_b.gif","forced_long","","3","simple_dissimilar","images/stimuli/spore_stims/simple_01_A_b.gif","","","","",""
"","null","html-keyboard-response","46","418137","0.0-15.0-0.1","SS1619739620491","","","null","","","","","","<p><img src= images/blank.png width =""600"" height = ""600"" style=""position:fixed;top:50%; left:50%; transform: translate(-50%, -50%); border:5px solid black"">","","","","","","","",""
"","5328","sequential-stimulus-presentation-old","47","423986","0.0-15.0-1.1","SS1619739620491","trial","","40","500","5828","images/stimuli/spore_stims/simple_18_A_a.gif","images/stimuli/spore_stims/simple_01_A_b.gif","forced_long","","3","simple_dissimilar","images/stimuli/spore_stims/simple_01_A_b.gif","","","","",""
"","null","html-keyboard-response","48","425087","0.0-15.0-0.2","SS1619739620491","","","null","","","","","","<p><img src= images/blank.png width =""600"" height = ""600"" style=""position:fixed;top:50%; left:50%; transform: translate(-50%, -50%); border:5px solid black"">","","","","","","","",""
"","3414","sequential-stimulus-presentation-old","49","429021","0.0-15.0-1.2","SS1619739620491","trial","","40","500","3914","images/stimuli/spore_stims/simple_18_A_a.gif","images/stimuli/spore_stims/simple_01_A_b.gif","forced_long","","3","simple_dissimilar","images/stimuli/spore_stims/simple_01_A_b.gif","","","","",""
"","null","html-keyboard-response","50","430078","0.0-15.0-0.3","SS1619739620491","","","null","","","","","","<p><img src= images/blank.png width =""600"" height = ""600"" style=""position:fixed;top:50%; left:50%; transform: translate(-50%, -50%); border:5px solid black"">","","","","","","","",""
"","2813","sequential-stimulus-presentation-old","51","433410","0.0-15.0-1.3","SS1619739620491","trial","","40","500","3313","images/stimuli/spore_stims/simple_18_A_a.gif","images/stimuli/spore_stims/simple_01_A_b.gif","forced_long","","3","simple_dissimilar","images/stimuli/spore_stims/simple_18_A_a.gif","","","","",""
"","null","html-keyboard-response","52","434717","0.0-15.0-0.4","SS1619739620491","","","null","","","","","","<p><img src= images/blank.png width =""600"" height = ""600"" style=""position:fixed;top:50%; left:50%; transform: translate(-50%, -50%); border:5px solid black"">","","","","","","","",""
"","1038","sequential-stimulus-presentation-old","53","436276","0.0-15.0-1.4","SS1619739620491","trial","","40","500","1538","images/stimuli/spore_stims/simple_18_A_a.gif","images/stimuli/spore_stims/simple_01_A_b.gif","forced_long","","3","simple_dissimilar","images/stimuli/spore_stims/simple_01_A_b.gif","","","","",""
"","3373","survey-multi-choice","54","439653","0.0-16.0","SS1619739620491","math_question","","","","","","","","","","","","{""Q0"":""9""}","[0]","9","",""
"","null","html-keyboard-response","55","440631","0.0-17.0-0.0","SS1619739620491","","","null","","","","","","<p><img src= images/blank.png width =""600"" height = ""600"" style=""position:fixed;top:50%; left:50%; transform: translate(-50%, -50%); border:5px solid black"">","","","","","","","",""
"","3937","sequential-stimulus-presentation-old","56","445085","0.0-17.0-1.0","SS1619739620491","trial","","40","500","4437","images/stimuli/spore_stims/complex_10_A_b.gif","images/stimuli/spore_stims/complex_03_A_a.gif","self_paced","","4","complex_dissimilar","images/stimuli/spore_stims/complex_03_A_a.gif","","","","",""
"","null","html-keyboard-response","57","446187","0.0-17.0-0.1","SS1619739620491","","","null","","","","","","<p><img src= images/blank.png width =""600"" height = ""600"" style=""position:fixed;top:50%; left:50%; transform: translate(-50%, -50%); border:5px solid black"">","","","","","","","",""
"","2454","sequential-stimulus-presentation-old","58","449161","0.0-17.0-1.1","SS1619739620491","trial","","40","500","2954","images/stimuli/spore_stims/complex_10_A_b.gif","images/stimuli/spore_stims/complex_03_A_a.gif","self_paced","","4","complex_dissimilar","images/stimuli/spore_stims/complex_03_A_a.gif","","","","",""
"","null","html-keyboard-response","59","449977","0.0-17.0-0.2","SS1619739620491","","","null","","","","","","<p><img src= images/blank.png width =""600"" height = ""600"" style=""position:fixed;top:50%; left:50%; transform: translate(-50%, -50%); border:5px solid black"">","","","","","","","",""
"","3792","sequential-stimulus-presentation-old","60","454290","0.0-17.0-1.2","SS1619739620491","trial","","40","500","4292","images/stimuli/spore_stims/complex_10_A_b.gif","images/stimuli/spore_stims/complex_03_A_a.gif","self_paced","","4","complex_dissimilar","images/stimuli/spore_stims/complex_03_A_a.gif","","","","",""
"","null","html-keyboard-response","61","455267","0.0-17.0-0.3","SS1619739620491","","","null","","","","","","<p><img src= images/blank.png width =""600"" height = ""600"" style=""position:fixed;top:50%; left:50%; transform: translate(-50%, -50%); border:5px solid black"">","","","","","","","",""
"","3342","sequential-stimulus-presentation-old","62","459128","0.0-17.0-1.3","SS1619739620491","trial","","40","500","3842","images/stimuli/spore_stims/complex_10_A_b.gif","images/stimuli/spore_stims/complex_03_A_a.gif","self_paced","","4","complex_dissimilar","images/stimuli/spore_stims/complex_03_A_a.gif","","","","",""
"","null","html-keyboard-response","63","459987","0.0-17.0-0.4","SS1619739620491","","","null","","","","","","<p><img src= images/blank.png width =""600"" height = ""600"" style=""position:fixed;top:50%; left:50%; transform: translate(-50%, -50%); border:5px solid black"">","","","","","","","",""
"","1140","sequential-stimulus-presentation-old","64","461647","0.0-17.0-1.4","SS1619739620491","trial","","40","500","1640","images/stimuli/spore_stims/complex_10_A_b.gif","images/stimuli/spore_stims/complex_03_A_a.gif","self_paced","","4","complex_dissimilar","images/stimuli/spore_stims/complex_03_A_a.gif","","","","",""
"","3654","survey-multi-choice","65","465304","0.0-18.0","SS1619739620491","math_question","","","","","","","","","","","","{""Q0"":""10""}","[0]","10","",""
"","null","html-keyboard-response","66","466597","0.0-19.0-0.0","SS1619739620491","","","null","","","","","","<p><img src= images/blank.png width =""600"" height = ""600"" style=""position:fixed;top:50%; left:50%; transform: translate(-50%, -50%); border:5px solid black"">","","","","","","","",""
"","3728","sequential-stimulus-presentation-old","67","470834","0.0-19.0-1.0","SS1619739620491","trial","","40","500","4228","images/stimuli/spore_stims/simple_12_A_b.gif","images/stimuli/spore_stims/simple_14_A_a.gif","self_paced","","5","simple_dissimilar","images/stimuli/spore_stims/simple_14_A_a.gif","","","","",""
"","null","html-keyboard-response","68","471807","0.0-19.0-0.1","SS1619739620491","","","null","","","","","","<p><img src= images/blank.png width =""600"" height = ""600"" style=""position:fixed;top:50%; left:50%; transform: translate(-50%, -50%); border:5px solid black"">","","","","","","","",""
"","2755","sequential-stimulus-presentation-old","69","475083","0.0-19.0-1.1","SS1619739620491","trial","","40","500","3255","images/stimuli/spore_stims/simple_12_A_b.gif","images/stimuli/spore_stims/simple_14_A_a.gif","self_paced","","5","simple_dissimilar","images/stimuli/spore_stims/simple_14_A_a.gif","","","","",""
"","null","html-keyboard-response","70","476047","0.0-19.0-0.2","SS1619739620491","","","null","","","","","","<p><img src= images/blank.png width =""600"" height = ""600"" style=""position:fixed;top:50%; left:50%; transform: translate(-50%, -50%); border:5px solid black"">","","","","","","","",""
"","3792","sequential-stimulus-presentation-old","71","480359","0.0-19.0-1.2","SS1619739620491","trial","","40","500","4292","images/stimuli/spore_stims/simple_12_A_b.gif","images/stimuli/spore_stims/simple_14_A_a.gif","self_paced","","5","simple_dissimilar","images/stimuli/spore_stims/simple_14_A_a.gif","","","","",""
"","null","html-keyboard-response","72","481557","0.0-19.0-0.3","SS1619739620491","","","null","","","","","","<p><img src= images/blank.png width =""600"" height = ""600"" style=""position:fixed;top:50%; left:50%; transform: translate(-50%, -50%); border:5px solid black"">","","","","","","","",""
"","1059","sequential-stimulus-presentation-old","73","483135","0.0-19.0-1.3","SS1619739620491","trial","","40","500","1559","images/stimuli/spore_stims/simple_12_A_b.gif","images/stimuli/spore_stims/simple_14_A_a.gif","self_paced","","5","simple_dissimilar","images/stimuli/spore_stims/simple_14_A_a.gif","","","","",""
"","null","html-keyboard-response","74","484300","0.0-19.0-0.4","SS1619739620491","","","null","","","","","","<p><img src= images/blank.png width =""600"" height = ""600"" style=""position:fixed;top:50%; left:50%; transform: translate(-50%, -50%); border:5px solid black"">","","","","","","","",""
"","3304","sequential-stimulus-presentation-old","75","488121","0.0-19.0-1.4","SS1619739620491","trial","","40","500","3804","images/stimuli/spore_stims/simple_12_A_b.gif","images/stimuli/spore_stims/simple_14_A_a.gif","self_paced","","5","simple_dissimilar","images/stimuli/spore_stims/simple_14_A_a.gif","","","","",""
"","null","html-keyboard-response","76","489347","0.0-19.0-0.5","SS1619739620491","","","null","","","","","","<p><img src= images/blank.png width =""600"" height = ""600"" style=""position:fixed;top:50%; left:50%; transform: translate(-50%, -50%); border:5px solid black"">","","","","","","","",""
"","3824","sequential-stimulus-presentation-old","77","493691","0.0-19.0-1.5","SS1619739620491","trial","","40","500","4324","images/stimuli/spore_stims/simple_12_A_b.gif","images/stimuli/spore_stims/simple_14_A_a.gif","self_paced","","5","simple_dissimilar","images/stimuli/spore_stims/simple_14_A_a.gif","","","","",""
"","14129","survey-multi-choice","78","507823","0.0-20.0","SS1619739620491","math_question","","","","","","","","","","","","{""Q0"":""12""}","[0]","12","",""
"","null","html-keyboard-response","79","508727","0.0-21.0-0.0","SS1619739620491","","","null","","","","","","<p><img src= images/blank.png width =""600"" height = ""600"" style=""position:fixed;top:50%; left:50%; transform: translate(-50%, -50%); border:5px solid black"">","","","","","","","",""
"","522","sequential-stimulus-presentation-old","80","509769","0.0-21.0-1.0","SS1619739620491","trial","","40","500","1022","images/stimuli/spore_stims/complex_15_A_a.gif","images/stimuli/spore_stims/complex_20_A_b.gif","forced_short","","6","complex_dissimilar","images/stimuli/spore_stims/complex_20_A_b.gif","","","","",""
"","null","html-keyboard-response","81","510747","0.0-21.0-0.1","SS1619739620491","","","null","","","","","","<p><img src= images/blank.png width =""600"" height = ""600"" style=""position:fixed;top:50%; left:50%; transform: translate(-50%, -50%); border:5px solid black"">","","","","","","","",""
"","2415","sequential-stimulus-presentation-old","82","513683","0.0-21.0-1.1","SS1619739620491","trial","","40","500","2915","images/stimuli/spore_stims/complex_15_A_a.gif","images/stimuli/spore_stims/complex_20_A_b.gif","forced_short","","6","complex_dissimilar","images/stimuli/spore_stims/complex_20_A_b.gif","","","","",""
"","null","html-keyboard-response","83","514837","0.0-21.0-0.2","SS1619739620491","","","null","","","","","","<p><img src= images/blank.png width =""600"" height = ""600"" style=""position:fixed;top:50%; left:50%; transform: translate(-50%, -50%); border:5px solid black"">","","","","","","","",""
"","3154","sequential-stimulus-presentation-old","84","518510","0.0-21.0-1.2","SS1619739620491","trial","","40","500","3654","images/stimuli/spore_stims/complex_15_A_a.gif","images/stimuli/spore_stims/complex_20_A_b.gif","forced_short","","6","complex_dissimilar","images/stimuli/spore_stims/complex_20_A_b.gif","","","","",""
"","null","html-keyboard-response","85","519717","0.0-21.0-0.3","SS1619739620491","","","null","","","","","","<p><img src= images/blank.png width =""600"" height = ""600"" style=""position:fixed;top:50%; left:50%; transform: translate(-50%, -50%); border:5px solid black"">","","","","","","","",""
"","3163","sequential-stimulus-presentation-old","86","523394","0.0-21.0-1.3","SS1619739620491","trial","","40","500","3663","images/stimuli/spore_stims/complex_15_A_a.gif","images/stimuli/spore_stims/complex_20_A_b.gif","forced_short","","6","complex_dissimilar","images/stimuli/spore_stims/complex_20_A_b.gif","","","","",""
"","null","html-keyboard-response","87","524287","0.0-21.0-0.4","SS1619739620491","","","null","","","","","","<p><img src= images/blank.png width =""600"" height = ""600"" style=""position:fixed;top:50%; left:50%; transform: translate(-50%, -50%); border:5px solid black"">","","","","","","","",""
"","5340","sequential-stimulus-presentation-old","88","530146","0.0-21.0-1.4","SS1619739620491","trial","","40","500","5840","images/stimuli/spore_stims/complex_15_A_a.gif","images/stimuli/spore_stims/complex_20_A_b.gif","forced_short","","6","complex_dissimilar","images/stimuli/spore_stims/complex_15_A_a.gif","","","","",""
"","2947","survey-multi-choice","89","533096","0.0-22.0","SS1619739620491","math_question","","","","","","","","","","","","{""Q0"":""7""}","[0]","7","",""
"","null","html-keyboard-response","90","534277","0.0-23.0-0.0","SS1619739620491","","","null","","","","","","<p><img src= images/blank.png width =""600"" height = ""600"" style=""position:fixed;top:50%; left:50%; transform: translate(-50%, -50%); border:5px solid black"">","","","","","","","",""
"","8353","sequential-stimulus-presentation-old","91","557650","0.0-23.0-1.0","SS1619739620491","trial","","40","500","8853","images/stimuli/spore_stims/complex_05_A_b.gif","images/stimuli/spore_stims/complex_12_A_a.gif","forced_long","","7","complex_dissimilar","images/stimuli/spore_stims/complex_12_A_a.gif","","","","",""
"","null","html-keyboard-response","92","558907","0.0-23.0-0.1","SS1619739620491","","","null","","","","","","<p><img src= images/blank.png width =""600"" height = ""600"" style=""position:fixed;top:50%; left:50%; transform: translate(-50%, -50%); border:5px solid black"">","","","","","","","",""
"","2908","sequential-stimulus-presentation-old","93","562334","0.0-23.0-1.1","SS1619739620491","trial","","40","500","3408","images/stimuli/spore_stims/complex_05_A_b.gif","images/stimuli/spore_stims/complex_12_A_a.gif","forced_long","","7","complex_dissimilar","images/stimuli/spore_stims/complex_12_A_a.gif","","","","",""
"","null","html-keyboard-response","94","563208","0.0-23.0-0.2","SS1619739620491","","","null","","","","","","<p><img src= images/blank.png width =""600"" height = ""600"" style=""position:fixed;top:50%; left:50%; transform: translate(-50%, -50%); border:5px solid black"">","","","","","","","",""
"","3032","sequential-stimulus-presentation-old","95","566761","0.0-23.0-1.2","SS1619739620491","trial","","40","500","3532","images/stimuli/spore_stims/complex_05_A_b.gif","images/stimuli/spore_stims/complex_12_A_a.gif","forced_long","","7","complex_dissimilar","images/stimuli/spore_stims/complex_05_A_b.gif","","","","",""
"","null","html-keyboard-response","96","567977","0.0-23.0-0.3","SS1619739620491","","","null","","","","","","<p><img src= images/blank.png width =""600"" height = ""600"" style=""position:fixed;top:50%; left:50%; transform: translate(-50%, -50%); border:5px solid black"">","","","","","","","",""
"","1546","sequential-stimulus-presentation-old","97","570043","0.0-23.0-1.3","SS1619739620491","trial","","40","500","2046","images/stimuli/spore_stims/complex_05_A_b.gif","images/stimuli/spore_stims/complex_12_A_a.gif","forced_long","","7","complex_dissimilar","images/stimuli/spore_stims/complex_12_A_a.gif","","","","",""
"","null","html-keyboard-response","98","571257","0.0-23.0-0.4","SS1619739620491","","","null","","","","","","<p><img src= images/blank.png width =""600"" height = ""600"" style=""position:fixed;top:50%; left:50%; transform: translate(-50%, -50%); border:5px solid black"">","","","","","","","",""
"","876","sequential-stimulus-presentation-old","99","572653","0.0-23.0-1.4","SS1619739620491","trial","","40","500","1376","images/stimuli/spore_stims/complex_05_A_b.gif","images/stimuli/spore_stims/complex_12_A_a.gif","forced_long","","7","complex_dissimilar","images/stimuli/spore_stims/complex_12_A_a.gif","","","","",""
"","null","html-keyboard-response","100","573517","0.0-23.0-0.5","SS1619739620491","","","null","","","","","","<p><img src= images/blank.png width =""600"" height = ""600"" style=""position:fixed;top:50%; left:50%; transform: translate(-50%, -50%); border:5px solid black"">","","","","","","","",""
"","3229","sequential-stimulus-presentation-old","101","577266","0.0-23.0-1.5","SS1619739620491","trial","","40","500","3729","images/stimuli/spore_stims/complex_05_A_b.gif","images/stimuli/spore_stims/complex_12_A_a.gif","forced_long","","7","complex_dissimilar","images/stimuli/spore_stims/complex_12_A_a.gif","","","","",""
"","3435","survey-multi-choice","102","580705","0.0-24.0","SS1619739620491","math_question","","","","","","","","","","","","{""Q0"":""7""}","[0]","7","",""
"","null","html-keyboard-response","103","581827","0.0-25.0-0.0","SS1619739620491","","","null","","","","","","<p><img src= images/blank.png width =""600"" height = ""600"" style=""position:fixed;top:50%; left:50%; transform: translate(-50%, -50%); border:5px solid black"">","","","","","","","",""
"","696","sequential-stimulus-presentation-old","104","583043","0.0-25.0-1.0","SS1619739620491","trial","","40","500","1196","images/stimuli/spore_stims/simple_15_A_a.gif","images/stimuli/spore_stims/simple_03_A_b.gif","forced_short","","8","simple_dissimilar","images/stimuli/spore_stims/simple_03_A_b.gif","","","","",""
"","null","html-keyboard-response","105","584007","0.0-25.0-0.1","SS1619739620491","","","null","","","","","","<p><img src= images/blank.png width =""600"" height = ""600"" style=""position:fixed;top:50%; left:50%; transform: translate(-50%, -50%); border:5px solid black"">","","","","","","","",""
"","2817","sequential-stimulus-presentation-old","106","587336","0.0-25.0-1.1","SS1619739620491","trial","","40","500","3317","images/stimuli/spore_stims/simple_15_A_a.gif","images/stimuli/spore_stims/simple_03_A_b.gif","forced_short","","8","simple_dissimilar","images/stimuli/spore_stims/simple_15_A_a.gif","","","","",""
"","null","html-keyboard-response","107","588337","0.0-25.0-0.2","SS1619739620491","","","null","","","","","","<p><img src= images/blank.png width =""600"" height = ""600"" style=""position:fixed;top:50%; left:50%; transform: translate(-50%, -50%); border:5px solid black"">","","","","","","","",""
"","1666","sequential-stimulus-presentation-old","108","590522","0.0-25.0-1.2","SS1619739620491","trial","","40","500","2166","images/stimuli/spore_stims/simple_15_A_a.gif","images/stimuli/spore_stims/simple_03_A_b.gif","forced_short","","8","simple_dissimilar","images/stimuli/spore_stims/simple_03_A_b.gif","","","","",""
"","null","html-keyboard-response","109","591357","0.0-25.0-0.3","SS1619739620491","","","null","","","","","","<p><img src= images/blank.png width =""600"" height = ""600"" style=""position:fixed;top:50%; left:50%; transform: translate(-50%, -50%); border:5px solid black"">","","","","","","","",""
"","1283","sequential-stimulus-presentation-old","110","593161","0.0-25.0-1.3","SS1619739620491","trial","","40","500","1783","images/stimuli/spore_stims/simple_15_A_a.gif","images/stimuli/spore_stims/simple_03_A_b.gif","forced_short","","8","simple_dissimilar","images/stimuli/spore_stims/simple_03_A_b.gif","","","","",""
"","null","html-keyboard-response","111","594347","0.0-25.0-0.4","SS1619739620491","","","null","","","","","","<p><img src= images/blank.png width =""600"" height = ""600"" style=""position:fixed;top:50%; left:50%; transform: translate(-50%, -50%); border:5px solid black"">","","","","","","","",""
"","1062","sequential-stimulus-presentation-old","112","595928","0.0-25.0-1.4","SS1619739620491","trial","","40","500","1562","images/stimuli/spore_stims/simple_15_A_a.gif","images/stimuli/spore_stims/simple_03_A_b.gif","forced_short","","8","simple_dissimilar","images/stimuli/spore_stims/simple_15_A_a.gif","","","","",""
"","6476","survey-multi-choice","113","602409","0.0-26.0","SS1619739620491","math_question","","","","","","","","","","","","{""Q0"":""12""}","[0]","12","",""
"","null","html-keyboard-response","114","603717","0.0-27.0-0.0","SS1619739620491","","","null","","","","","","<p><img src= images/blank.png width =""600"" height = ""600"" style=""position:fixed;top:50%; left:50%; transform: translate(-50%, -50%); border:5px solid black"">","","","","","","","",""
"","2863","sequential-stimulus-presentation-old","115","607100","0.0-27.0-1.0","SS1619739620491","trial","","40","500","3363","images/stimuli/spore_stims/simple_02_A_a.gif","images/stimuli/spore_stims/simple_20_A_b.gif","self_paced","","9","simple_dissimilar","images/stimuli/spore_stims/simple_20_A_b.gif","","","","",""
"","null","html-keyboard-response","116","608177","0.0-27.0-0.1","SS1619739620491","","","null","","","","","","<p><img src= images/blank.png width =""600"" height = ""600"" style=""position:fixed;top:50%; left:50%; transform: translate(-50%, -50%); border:5px solid black"">","","","","","","","",""
"","1159","sequential-stimulus-presentation-old","117","609847","0.0-27.0-1.1","SS1619739620491","trial","","40","500","1659","images/stimuli/spore_stims/simple_02_A_a.gif","images/stimuli/spore_stims/simple_20_A_b.gif","self_paced","","9","simple_dissimilar","images/stimuli/spore_stims/simple_20_A_b.gif","","","","",""
"","null","html-keyboard-response","118","610807","0.0-27.0-0.2","SS1619739620491","","","null","","","","","","<p><img src= images/blank.png width =""600"" height = ""600"" style=""position:fixed;top:50%; left:50%; transform: translate(-50%, -50%); border:5px solid black"">","","","","","","","",""
"","1711","sequential-stimulus-presentation-old","119","613038","0.0-27.0-1.2","SS1619739620491","trial","","40","500","2211","images/stimuli/spore_stims/simple_02_A_a.gif","images/stimuli/spore_stims/simple_20_A_b.gif","self_paced","","9","simple_dissimilar","images/stimuli/spore_stims/simple_20_A_b.gif","","","","",""
"","null","html-keyboard-response","120","614127","0.0-27.0-0.3","SS1619739620491","","","null","","","","","","<p><img src= images/blank.png width =""600"" height = ""600"" style=""position:fixed;top:50%; left:50%; transform: translate(-50%, -50%); border:5px solid black"">","","","","","","","",""
"","1373","sequential-stimulus-presentation-old","121","616020","0.0-27.0-1.3","SS1619739620491","trial","","40","500","1873","images/stimuli/spore_stims/simple_02_A_a.gif","images/stimuli/spore_stims/simple_20_A_b.gif","self_paced","","9","simple_dissimilar","images/stimuli/spore_stims/simple_20_A_b.gif","","","","",""
"","null","html-keyboard-response","122","616847","0.0-27.0-0.4","SS1619739620491","","","null","","","","","","<p><img src= images/blank.png width =""600"" height = ""600"" style=""position:fixed;top:50%; left:50%; transform: translate(-50%, -50%); border:5px solid black"">","","","","","","","",""
"","2215","sequential-stimulus-presentation-old","123","619583","0.0-27.0-1.4","SS1619739620491","trial","","40","500","2715","images/stimuli/spore_stims/simple_02_A_a.gif","images/stimuli/spore_stims/simple_20_A_b.gif","self_paced","","9","simple_dissimilar","images/stimuli/spore_stims/simple_02_A_a.gif","","","","",""
"","null","html-keyboard-response","124","620817","0.0-27.0-0.5","SS1619739620491","","","null","","","","","","<p><img src= images/blank.png width =""600"" height = ""600"" style=""position:fixed;top:50%; left:50%; transform: translate(-50%, -50%); border:5px solid black"">","","","","","","","",""
"","2288","sequential-stimulus-presentation-old","125","623624","0.0-27.0-1.5","SS1619739620491","trial","","40","500","2788","images/stimuli/spore_stims/simple_02_A_a.gif","images/stimuli/spore_stims/simple_20_A_b.gif","self_paced","","9","simple_dissimilar","images/stimuli/spore_stims/simple_02_A_a.gif","","","","",""
"","2664","survey-multi-choice","126","626293","0.0-28.0","SS1619739620491","math_question","","","","","","","","","","","","{""Q0"":""14""}","[0]","14","",""
"","null","html-keyboard-response","127","627507","0.0-29.0-0.0","SS1619739620491","","","null","","","","","","<p><img src= images/blank.png width =""600"" height = ""600"" style=""position:fixed;top:50%; left:50%; transform: translate(-50%, -50%); border:5px solid black"">","","","","","","","",""
"","177","sequential-stimulus-presentation-old","128","642694","0.0-29.0-1.0","SS1619739620491","trial","","40","500","677","images/stimuli/spore_stims/simple_19_A_a.gif","images/stimuli/spore_stims/simple_17_A_b.gif","forced_long","","10","simple_dissimilar","images/stimuli/spore_stims/simple_17_A_b.gif","","","","",""
"","null","html-keyboard-response","129","643997","0.0-29.0-0.1","SS1619739620491","","","null","","","","","","<p><img src= images/blank.png width =""600"" height = ""600"" style=""position:fixed;top:50%; left:50%; transform: translate(-50%, -50%); border:5px solid black"">","","","","","","","",""
"","507","sequential-stimulus-presentation-old","130","645014","0.0-29.0-1.1","SS1619739620491","trial","","40","500","1007","images/stimuli/spore_stims/simple_19_A_a.gif","images/stimuli/spore_stims/simple_17_A_b.gif","forced_long","","10","simple_dissimilar","images/stimuli/spore_stims/simple_17_A_b.gif","","","","",""
"","null","html-keyboard-response","131","646327","0.0-29.0-0.2","SS1619739620491","","","null","","","","","","<p><img src= images/blank.png width =""600"" height = ""600"" style=""position:fixed;top:50%; left:50%; transform: translate(-50%, -50%); border:5px solid black"">","","","","","","","",""
"","2918","sequential-stimulus-presentation-old","132","649756","0.0-29.0-1.2","SS1619739620491","trial","","40","500","3418","images/stimuli/spore_stims/simple_19_A_a.gif","images/stimuli/spore_stims/simple_17_A_b.gif","forced_long","","10","simple_dissimilar","images/stimuli/spore_stims/simple_17_A_b.gif","","","","",""
"","null","html-keyboard-response","133","650787","0.0-29.0-0.3","SS1619739620491","","","null","","","","","","<p><img src= images/blank.png width =""600"" height = ""600"" style=""position:fixed;top:50%; left:50%; transform: translate(-50%, -50%); border:5px solid black"">","","","","","","","",""
"","2686","sequential-stimulus-presentation-old","134","653993","0.0-29.0-1.3","SS1619739620491","trial","","40","500","3186","images/stimuli/spore_stims/simple_19_A_a.gif","images/stimuli/spore_stims/simple_17_A_b.gif","forced_long","","10","simple_dissimilar","images/stimuli/spore_stims/simple_19_A_a.gif","","","","",""
"","null","html-keyboard-response","135","654987","0.0-29.0-0.4","SS1619739620491","","","null","","","","","","<p><img src= images/blank.png width =""600"" height = ""600"" style=""position:fixed;top:50%; left:50%; transform: translate(-50%, -50%); border:5px solid black"">","","","","","","","",""
"","4664","sequential-stimulus-presentation-old","136","660171","0.0-29.0-1.4","SS1619739620491","trial","","40","500","5164","images/stimuli/spore_stims/simple_19_A_a.gif","images/stimuli/spore_stims/simple_17_A_b.gif","forced_long","","10","simple_dissimilar","images/stimuli/spore_stims/simple_17_A_b.gif","","","","",""
"","null","html-keyboard-response","137","661437","0.0-29.0-0.5","SS1619739620491","","","null","","","","","","<p><img src= images/blank.png width =""600"" height = ""600"" style=""position:fixed;top:50%; left:50%; transform: translate(-50%, -50%); border:5px solid black"">","","","","","","","",""
"","4223","sequential-stimulus-presentation-old","138","666180","0.0-29.0-1.5","SS1619739620491","trial","","40","500","4723","images/stimuli/spore_stims/simple_19_A_a.gif","images/stimuli/spore_stims/simple_17_A_b.gif","forced_long","","10","simple_dissimilar","images/stimuli/spore_stims/simple_19_A_a.gif","","","","",""
"","2456","survey-multi-choice","139","668640","0.0-30.0","SS1619739620491","math_question","","","","","","","","","","","","{""Q0"":""8""}","[0]","8","",""
"","null","html-keyboard-response","140","669577","0.0-31.0-0.0","SS1619739620491","","","null","","","","","","<p><img src= images/blank.png width =""600"" height = ""600"" style=""position:fixed;top:50%; left:50%; transform: translate(-50%, -50%); border:5px solid black"">","","","","","","","",""
"","702","sequential-stimulus-presentation-old","141","670790","0.0-31.0-1.0","SS1619739620491","trial","","40","500","1202","images/stimuli/spore_stims/simple_07_A_b.gif","images/stimuli/spore_stims/simple_05_A_a.gif","forced_short","","11","simple_dissimilar","images/stimuli/spore_stims/simple_05_A_a.gif","","","","",""
"","null","html-keyboard-response","142","671967","0.0-31.0-0.1","SS1619739620491","","","null","","","","","","<p><img src= images/blank.png width =""600"" height = ""600"" style=""position:fixed;top:50%; left:50%; transform: translate(-50%, -50%); border:5px solid black"">","","","","","","","",""
"","4788","sequential-stimulus-presentation-old","143","677274","0.0-31.0-1.1","SS1619739620491","trial","","40","500","5288","images/stimuli/spore_stims/simple_07_A_b.gif","images/stimuli/spore_stims/simple_05_A_a.gif","forced_short","","11","simple_dissimilar","images/stimuli/spore_stims/simple_05_A_a.gif","","","","",""
"","null","html-keyboard-response","144","678127","0.0-31.0-0.2","SS1619739620491","","","null","","","","","","<p><img src= images/blank.png width =""600"" height = ""600"" style=""position:fixed;top:50%; left:50%; transform: translate(-50%, -50%); border:5px solid black"">","","","","","","","",""
"","2732","sequential-stimulus-presentation-old","145","681379","0.0-31.0-1.2","SS1619739620491","trial","","40","500","3232","images/stimuli/spore_stims/simple_07_A_b.gif","images/stimuli/spore_stims/simple_05_A_a.gif","forced_short","","11","simple_dissimilar","images/stimuli/spore_stims/simple_07_A_b.gif","","","","",""
"","null","html-keyboard-response","146","682637","0.0-31.0-0.3","SS1619739620491","","","null","","","","","","<p><img src= images/blank.png width =""600"" height = ""600"" style=""position:fixed;top:50%; left:50%; transform: translate(-50%, -50%); border:5px solid black"">","","","","","","","",""
"","4208","sequential-stimulus-presentation-old","147","687365","0.0-31.0-1.3","SS1619739620491","trial","","40","500","4708","images/stimuli/spore_stims/simple_07_A_b.gif","images/stimuli/spore_stims/simple_05_A_a.gif","forced_short","","11","simple_dissimilar","images/stimuli/spore_stims/simple_05_A_a.gif","","","","",""
"","null","html-keyboard-response","148","688297","0.0-31.0-0.4","SS1619739620491","","","null","","","","","","<p><img src= images/blank.png width =""600"" height = ""600"" style=""position:fixed;top:50%; left:50%; transform: translate(-50%, -50%); border:5px solid black"">","","","","","","","",""
"","4035","sequential-stimulus-presentation-old","149","692843","0.0-31.0-1.4","SS1619739620491","trial","","40","500","4535","images/stimuli/spore_stims/simple_07_A_b.gif","images/stimuli/spore_stims/simple_05_A_a.gif","forced_short","","11","simple_dissimilar","images/stimuli/spore_stims/simple_05_A_a.gif","","","","",""
"","null","html-keyboard-response","150","693813","0.0-31.0-0.5","SS1619739620491","","","null","","","","","","<p><img src= images/blank.png width =""600"" height = ""600"" style=""position:fixed;top:50%; left:50%; transform: translate(-50%, -50%); border:5px solid black"">","","","","","","","",""
"","3067","sequential-stimulus-presentation-old","151","697400","0.0-31.0-1.5","SS1619739620491","trial","","40","500","3567","images/stimuli/spore_stims/simple_07_A_b.gif","images/stimuli/spore_stims/simple_05_A_a.gif","forced_short","","11","simple_dissimilar","images/stimuli/spore_stims/simple_05_A_a.gif","","","","",""
"[{""page_index"":0,""viewing_time"":6900}]","6900","instructions","152","704303","0.0-32.0","SS1619739620491","instructions","","","","","","","","","","","","","","","",""
"","12247","survey-likert","153","716557","0.0-33.0","SS1619739620491","similarity_question","","","","","","","","","","","","{""Q0"":0}","[0]","","images/stimuli/spore_stims/complex_06_A_b.gif","images/stimuli/spore_stims/complex_19_A_a.gif"
"","8599","survey-likert","154","725163","0.0-34.0","SS1619739620491","similarity_question","","","","","","","","","","","","{""Q0"":1}","[0]","","images/stimuli/spore_stims/simple_12_A_b.gif","images/stimuli/spore_stims/simple_14_A_a.gif"
"","3893","survey-likert","155","729062","0.0-35.0","SS1619739620491","similarity_question","","","","","","","","","","","","{""Q0"":0}","[0]","","images/stimuli/spore_stims/simple_20_A_b.gif","images/stimuli/spore_stims/simple_02_A_a.gif"
"","4524","survey-likert","156","733592","0.0-36.0","SS1619739620491","similarity_question","","","","","","","","","","","","{""Q0"":0}","[0]","","images/stimuli/spore_stims/simple_18_A_a.gif","images/stimuli/spore_stims/simple_01_A_b.gif"
"","3586","survey-likert","157","737187","0.0-37.0","SS1619739620491","similarity_question","","","","","","","","","","","","{""Q0"":0}","[0]","","images/stimuli/spore_stims/complex_10_A_b.gif","images/stimuli/spore_stims/complex_03_A_a.gif"
"","6654","survey-likert","158","743846","0.0-38.0","SS1619739620491","similarity_question","","","","","","","","","","","","{""Q0"":2}","[0]","","images/stimuli/spore_stims/complex_05_A_b.gif","images/stimuli/spore_stims/complex_12_A_a.gif"
"","5325","survey-likert","159","749179","0.0-39.0","SS1619739620491","similarity_question","","","","","","","","","","","","{""Q0"":0}","[0]","","images/stimuli/spore_stims/complex_13_A_b.gif","images/stimuli/spore_stims/complex_06_A_a.gif"
"","6914","survey-likert","160","756100","0.0-40.0","SS1619739620491","similarity_question","","","","","","","","","","","","{""Q0"":2}","[0]","","images/stimuli/spore_stims/complex_19_A_b.gif","images/stimuli/spore_stims/complex_14_A_a.gif"
"","6787","survey-likert","161","762895","0.0-41.0","SS1619739620491","similarity_question","","","","","","","","","","","","{""Q0"":4}","[0]","","images/stimuli/spore_stims/simple_15_A_a.gif","images/stimuli/spore_stims/simple_03_A_b.gif"
"","4300","survey-likert","162","767200","0.0-42.0","SS1619739620491","similarity_question","","","","","","","","","","","","{""Q0"":1}","[0]","","images/stimuli/spore_stims/complex_15_A_a.gif","images/stimuli/spore_stims/complex_20_A_b.gif"
"","3479","survey-likert","163","770687","0.0-43.0","SS1619739620491","similarity_question","","","","","","","","","","","","{""Q0"":0}","[0]","","images/stimuli/spore_stims/simple_07_A_b.gif","images/stimuli/spore_stims/simple_05_A_a.gif"
"","3764","survey-likert","164","774458","0.0-44.0","SS1619739620491","similarity_question","","","","","","","","","","","","{""Q0"":1}","[0]","","images/stimuli/spore_stims/simple_17_A_b.gif","images/stimuli/spore_stims/simple_19_A_a.gif"
"[{""page_index"":0,""viewing_time"":5969}]","5969","instructions","165","780432","0.0-45.0","SS1619739620491","instructions","","","","","","","","","","","","","","","",""
"","5227","survey-likert","166","785666","0.0-46.0","SS1619739620491","","","","","","","","","images/stimuli/spore_stims/complex_03_A_a.gif","","","","{""Q0"":4}","[0]","","",""
"","4000","survey-likert","167","789675","0.0-47.0","SS1619739620491","","","","","","","","","images/stimuli/spore_stims/simple_12_A_b.gif","","","","{""Q0"":1}","[0]","","",""
"","4219","survey-likert","168","793901","0.0-48.0","SS1619739620491","","","","","","","","","images/stimuli/spore_stims/complex_12_A_a.gif","","","","{""Q0"":6}","[0]","","",""
"","2824","survey-likert","169","796733","0.0-49.0","SS1619739620491","","","","","","","","","images/stimuli/spore_stims/simple_17_A_b.gif","","","","{""Q0"":1}","[0]","","",""
"","2928","survey-likert","170","799668","0.0-50.0","SS1619739620491","","","","","","","","","images/stimuli/spore_stims/simple_07_A_b.gif","","","","{""Q0"":0}","[0]","","",""
"","6133","survey-likert","171","805808","0.0-51.0","SS1619739620491","","","","","","","","","images/stimuli/spore_stims/complex_13_A_b.gif","","","","{""Q0"":5}","[0]","","",""
"","5667","survey-likert","172","811482","0.0-52.0","SS1619739620491","","","","","","","","","images/stimuli/spore_stims/simple_01_A_b.gif","","","","{""Q0"":1}","[0]","","",""
"","3368","survey-likert","173","814857","0.0-53.0","SS1619739620491","","","","","","","","","images/stimuli/spore_stims/simple_20_A_b.gif","","","","{""Q0"":1}","[0]","","",""
"","3140","survey-likert","174","818006","0.0-54.0","SS1619739620491","","","","","","","","","images/stimuli/spore_stims/complex_20_A_b.gif","","","","{""Q0"":5}","[0]","","",""
"","5116","survey-likert","175","823128","0.0-55.0","SS1619739620491","","","","","","","","","images/stimuli/spore_stims/complex_19_A_a.gif","","","","{""Q0"":6}","[0]","","",""
"","3457","survey-likert","176","826591","0.0-56.0","SS1619739620491","","","","","","","","","images/stimuli/spore_stims/simple_03_A_b.gif","","","","{""Q0"":1}","[0]","","",""
"","3921","survey-likert","177","830517","0.0-57.0","SS1619739620491","","","","","","","","","images/stimuli/spore_stims/complex_14_A_a.gif","","","","{""Q0"":5}","[0]","","",""
"[{""page_index"":0,""viewing_time"":3254}]","3254","instructions","178","833776","0.0-58.0","SS1619739620491","instructions","","","","","","","","","","","","","","","",""
"","3107","demog-age","179","836897","0.0-59.0","SS1619739620491","","","","","","","","","","","","","{""age"":""24""}","","","",""
"","17315","demog-ethnic-US","180","854221","0.0-60.0","SS1619739620491","","","","","","","","","","","","","{""ethnicity"":[""White""]}","[0]","","",""
"","14065","demog-gender-and-education","181","868292","0.0-61.0","SS1619739620491","","","","","","","","","","","","","{""gender"":""Female"",""education"":""Master's Degree""}","[0,1]","","",""
"","12289","survey-text","182","880591","0.0-62.0","SS1619739620491","feedback","","","","","","","","","","","","{""Q0"":""Oh, this was just amazing!!""}","","","",""
"[{""page_index"":0,""viewing_time"":2189}]","2189","instructions","183","882787","0.0-63.0","SS1619739620491","instructions","","","","","","","","","","","","","","","",""
