"view_history","rt","trial_type","trial_index","time_elapsed","internal_node_id","subject","stimulus_type","trial_stimulus","key_press","minimum_viewing_duration","trial_looking_time","block_deviant","block_background","exposure_type","stimulus","block_number","block_type","stimulus_displayed","responses","question_order","math_correct_answer","stimulus_left","stimulus_right"
"[{""page_index"":0,""viewing_time"":2865.0299999999334}]","2866.2249999997584","instructions","0","2868","0.0-0.0","SS1619739623165","","","","","","","","","","","","","","","","",""
"[{""page_index"":0,""viewing_time"":24427.03999999958},{""page_index"":1,""viewing_time"":10919.53999999987}]","35347.004999999626","instructions","1","40219","0.0-1.0","SS1619739623165","instructions","","","","","","","","","","","","","","","",""
"","11952.860000000328","sequential-stimulus-presentation-old","2","52677","0.0-2.0","SS1619739623165","","","40","500","12452.860000000328","null","null","self_paced","","","","","","","","",""
"","8759.565000000293","sequential-stimulus-presentation-old","3","61939","0.0-3.0","SS1619739623165","","","40","500","9259.565000000293","null","null","self_paced","","","","","","","","",""
"[{""page_index"":0,""viewing_time"":30358.285000000236}]","30358.49999999936","instructions","4","92300","0.0-4.0","SS1619739623165","instructions","","","","","","","","","","","","","","","",""
"","3412.444999999934","sequential-stimulus-presentation-old","5","110716","0.0-5.0","SS1619739623165","","","40","500","3912.444999999934","null","null","forced_long","","","","","","","","",""
"","2748.955000000031","sequential-stimulus-presentation-old","6","113968","0.0-6.0","SS1619739623165","","","40","500","3248.955000000031","null","null","forced_long","","","","","","","","",""
"[{""page_index"":0,""viewing_time"":6778.594999999768}]","6778.769999999888","instructions","7","120748","0.0-7.0","SS1619739623165","instructions","","","","","","","","","","","","","","","",""
"[{""page_index"":0,""viewing_time"":14022.365000000718},{""page_index"":1,""viewing_time"":20767.544999999693},{""page_index"":2,""viewing_time"":12031.694999999687},{""page_index"":3,""viewing_time"":2755.6350000004168},{""page_index"":4,""viewing_time"":1564.0050000001793}]","51141.44500000021","instructions","8","171890","0.0-8.0","SS1619739623165","instructions","","","","","","","","","","","","","","","",""
"","null","html-keyboard-response","9","172852","0.0-9.0-0.0","SS1619739623165","","","null","","","","","","<p><img src= images/blank.png width =""600"" height = ""600"" style=""position:fixed;top:50%; left:50%; transform: translate(-50%, -50%); border:5px solid black"">","","","","","","","",""
"","812.8349999997299","sequential-stimulus-presentation-old","10","188670","0.0-9.0-1.0","SS1619739623165","trial","","40","500","1312.83499999973","images/stimuli/spore_stims/complex_12_A_a.gif","images/stimuli/spore_stims/complex_05_A_b.gif","forced_long","","0","complex_dissimilar","images/stimuli/spore_stims/complex_05_A_b.gif","","","","",""
"","null","html-keyboard-response","11","189811","0.0-9.0-0.1","SS1619739623165","","","null","","","","","","<p><img src= images/blank.png width =""600"" height = ""600"" style=""position:fixed;top:50%; left:50%; transform: translate(-50%, -50%); border:5px solid black"">","","","","","","","",""
"","52267.20999999999","sequential-stimulus-presentation-old","12","242583","0.0-9.0-1.1","SS1619739623165","trial","","40","500","52767.20999999999","images/stimuli/spore_stims/complex_12_A_a.gif","images/stimuli/spore_stims/complex_05_A_b.gif","forced_long","","0","complex_dissimilar","images/stimuli/spore_stims/complex_05_A_b.gif","","","","",""
"","null","html-keyboard-response","13","243493","0.0-9.0-0.2","SS1619739623165","","","null","","","","","","<p><img src= images/blank.png width =""600"" height = ""600"" style=""position:fixed;top:50%; left:50%; transform: translate(-50%, -50%); border:5px solid black"">","","","","","","","",""
"","125578.9850000001","sequential-stimulus-presentation-old","14","369577","0.0-9.0-1.2","SS1619739623165","trial","","40","500","126078.9850000001","images/stimuli/spore_stims/complex_12_A_a.gif","images/stimuli/spore_stims/complex_05_A_b.gif","forced_long","","0","complex_dissimilar","images/stimuli/spore_stims/complex_05_A_b.gif","","","","",""
"","null","html-keyboard-response","15","370641","0.0-9.0-0.3","SS1619739623165","","","null","","","","","","<p><img src= images/blank.png width =""600"" height = ""600"" style=""position:fixed;top:50%; left:50%; transform: translate(-50%, -50%); border:5px solid black"">","","","","","","","",""
"","54098.325000000885","sequential-stimulus-presentation-old","16","425245","0.0-9.0-1.3","SS1619739623165","trial","","40","500","54598.325000000885","images/stimuli/spore_stims/complex_12_A_a.gif","images/stimuli/spore_stims/complex_05_A_b.gif","forced_long","","0","complex_dissimilar","images/stimuli/spore_stims/complex_05_A_b.gif","","","","",""
"","null","html-keyboard-response","17","426486","0.0-9.0-0.4","SS1619739623165","","","null","","","","","","<p><img src= images/blank.png width =""600"" height = ""600"" style=""position:fixed;top:50%; left:50%; transform: translate(-50%, -50%); border:5px solid black"">","","","","","","","",""
"","86321.07","sequential-stimulus-presentation-old","18","513312","0.0-9.0-1.4","SS1619739623165","trial","","40","500","86821.07","images/stimuli/spore_stims/complex_12_A_a.gif","images/stimuli/spore_stims/complex_05_A_b.gif","forced_long","","0","complex_dissimilar","images/stimuli/spore_stims/complex_05_A_b.gif","","","","",""
"","null","html-keyboard-response","19","514548","0.0-9.0-0.5","SS1619739623165","","","null","","","","","","<p><img src= images/blank.png width =""600"" height = ""600"" style=""position:fixed;top:50%; left:50%; transform: translate(-50%, -50%); border:5px solid black"">","","","","","","","",""
"","38323.39500000031","sequential-stimulus-presentation-old","20","553376","0.0-9.0-1.5","SS1619739623165","trial","","40","500","38823.39500000031","images/stimuli/spore_stims/complex_12_A_a.gif","images/stimuli/spore_stims/complex_05_A_b.gif","forced_long","","0","complex_dissimilar","images/stimuli/spore_stims/complex_05_A_b.gif","","","","",""
"","3115.1350000000093","survey-multi-choice","21","556496","0.0-10.0","SS1619739623165","math_question","","","","","","","","","","","","{""Q0"":""4""}","[0]","4","",""
"","null","html-keyboard-response","22","557743","0.0-11.0-0.0","SS1619739623165","","","null","","","","","","<p><img src= images/blank.png width =""600"" height = ""600"" style=""position:fixed;top:50%; left:50%; transform: translate(-50%, -50%); border:5px solid black"">","","","","","","","",""
"","103293.21000000066","sequential-stimulus-presentation-old","23","676287","0.0-11.0-1.0","SS1619739623165","trial","","40","500","103793.21000000066","images/stimuli/spore_stims/complex_09_A_b.gif","images/stimuli/spore_stims/complex_05_A_a.gif","forced_long","","1","complex_dissimilar","images/stimuli/spore_stims/complex_05_A_a.gif","","","","",""
"","null","html-keyboard-response","24","677293","0.0-11.0-0.1","SS1619739623165","","","null","","","","","","<p><img src= images/blank.png width =""600"" height = ""600"" style=""position:fixed;top:50%; left:50%; transform: translate(-50%, -50%); border:5px solid black"">","","","","","","","",""
"","79736.06999999995","sequential-stimulus-presentation-old","25","757535","0.0-11.0-1.1","SS1619739623165","trial","","40","500","80236.06999999995","images/stimuli/spore_stims/complex_09_A_b.gif","images/stimuli/spore_stims/complex_05_A_a.gif","forced_long","","1","complex_dissimilar","images/stimuli/spore_stims/complex_05_A_a.gif","","","","",""
"","null","html-keyboard-response","26","758468","0.0-11.0-0.2","SS1619739623165","","","null","","","","","","<p><img src= images/blank.png width =""600"" height = ""600"" style=""position:fixed;top:50%; left:50%; transform: translate(-50%, -50%); border:5px solid black"">","","","","","","","",""
"","126203.97000000044","sequential-stimulus-presentation-old","27","885178","0.0-11.0-1.2","SS1619739623165","trial","","40","500","126703.97000000044","images/stimuli/spore_stims/complex_09_A_b.gif","images/stimuli/spore_stims/complex_05_A_a.gif","forced_long","","1","complex_dissimilar","images/stimuli/spore_stims/complex_09_A_b.gif","","","","",""
"","null","html-keyboard-response","28","886433","0.0-11.0-0.3","SS1619739623165","","","null","","","","","","<p><img src= images/blank.png width =""600"" height = ""600"" style=""position:fixed;top:50%; left:50%; transform: translate(-50%, -50%); border:5px solid black"">","","","","","","","",""
"","58487.03999999992","sequential-stimulus-presentation-old","29","945425","0.0-11.0-1.3","SS1619739623165","trial","","40","500","58987.03999999992","images/stimuli/spore_stims/complex_09_A_b.gif","images/stimuli/spore_stims/complex_05_A_a.gif","forced_long","","1","complex_dissimilar","images/stimuli/spore_stims/complex_09_A_b.gif","","","","",""
"","3528.4449999998324","survey-multi-choice","30","948956","0.0-12.0","SS1619739623165","math_question","","","","","","","","","","","","{""Q0"":""12""}","[0]","12","",""
"","null","html-keyboard-response","31","949781","0.0-13.0-0.0","SS1619739623165","","","null","","","","","","<p><img src= images/blank.png width =""600"" height = ""600"" style=""position:fixed;top:50%; left:50%; transform: translate(-50%, -50%); border:5px solid black"">","","","","","","","",""
"","170992.92000000074","sequential-stimulus-presentation-old","32","1135993","0.0-13.0-1.0","SS1619739623165","trial","","40","500","171492.92000000074","images/stimuli/spore_stims/simple_10_A_a.gif","images/stimuli/spore_stims/simple_02_A_b.gif","forced_long","","2","simple_dissimilar","images/stimuli/spore_stims/simple_02_A_b.gif","","","","",""
"","null","html-keyboard-response","33","1137058","0.0-13.0-0.1","SS1619739623165","","","null","","","","","","<p><img src= images/blank.png width =""600"" height = ""600"" style=""position:fixed;top:50%; left:50%; transform: translate(-50%, -50%); border:5px solid black"">","","","","","","","",""
"","390786.7499999993","sequential-stimulus-presentation-old","34","1528353","0.0-13.0-1.1","SS1619739623165","trial","","40","500","391286.7499999993","images/stimuli/spore_stims/simple_10_A_a.gif","images/stimuli/spore_stims/simple_02_A_b.gif","forced_long","","2","simple_dissimilar","images/stimuli/spore_stims/simple_02_A_b.gif","","","","",""
"","null","html-keyboard-response","35","1529586","0.0-13.0-0.2","SS1619739623165","","","null","","","","","","<p><img src= images/blank.png width =""600"" height = ""600"" style=""position:fixed;top:50%; left:50%; transform: translate(-50%, -50%); border:5px solid black"">","","","","","","","",""
"","415297.65500000026","sequential-stimulus-presentation-old","36","1945393","0.0-13.0-1.2","SS1619739623165","trial","","40","500","415797.65500000026","images/stimuli/spore_stims/simple_10_A_a.gif","images/stimuli/spore_stims/simple_02_A_b.gif","forced_long","","2","simple_dissimilar","images/stimuli/spore_stims/simple_10_A_a.gif","","","","",""
"","null","html-keyboard-response","37","1946323","0.0-13.0-0.3","SS1619739623165","","","null","","","","","","<p><img src= images/blank.png width =""600"" height = ""600"" style=""position:fixed;top:50%; left:50%; transform: translate(-50%, -50%); border:5px solid black"">","","","","","","","",""
"","10294.769999998622","sequential-stimulus-presentation-old","38","1957121","0.0-13.0-1.3","SS1619739623165","trial","","40","500","10794.769999998622","images/stimuli/spore_stims/simple_10_A_a.gif","images/stimuli/spore_stims/simple_02_A_b.gif","forced_long","","2","simple_dissimilar","images/stimuli/spore_stims/simple_02_A_b.gif","","","","",""
"","null","html-keyboard-response","39","1958242","0.0-13.0-0.4","SS1619739623165","","","null","","","","","","<p><img src= images/blank.png width =""600"" height = ""600"" style=""position:fixed;top:50%; left:50%; transform: translate(-50%, -50%); border:5px solid black"">","","","","","","","",""
"","215635.2450000015","sequential-stimulus-presentation-old","40","2174385","0.0-13.0-1.4","SS1619739623165","trial","","40","500","216135.2450000015","images/stimuli/spore_stims/simple_10_A_a.gif","images/stimuli/spore_stims/simple_02_A_b.gif","forced_long","","2","simple_dissimilar","images/stimuli/spore_stims/simple_02_A_b.gif","","","","",""
"","5718.470000001602","survey-multi-choice","41","2180108","0.0-14.0","SS1619739623165","math_question","","","","","","","","","","","","{""Q0"":""15""}","[0]","15","",""
"","null","html-keyboard-response","42","2181299","0.0-15.0-0.0","SS1619739623165","","","null","","","","","","<p><img src= images/blank.png width =""600"" height = ""600"" style=""position:fixed;top:50%; left:50%; transform: translate(-50%, -50%); border:5px solid black"">","","","","","","","",""
"","1535.630000000354","sequential-stimulus-presentation-old","43","2183340","0.0-15.0-1.0","SS1619739623165","trial","","40","500","2035.630000000354","images/stimuli/spore_stims/simple_17_A_b.gif","images/stimuli/spore_stims/simple_19_A_a.gif","forced_short","","3","simple_dissimilar","images/stimuli/spore_stims/simple_19_A_a.gif","","","","",""
"","null","html-keyboard-response","44","2184431","0.0-15.0-0.1","SS1619739623165","","","null","","","","","","<p><img src= images/blank.png width =""600"" height = ""600"" style=""position:fixed;top:50%; left:50%; transform: translate(-50%, -50%); border:5px solid black"">","","","","","","","",""
"","22545.379999999423","sequential-stimulus-presentation-old","45","2207480","0.0-15.0-1.1","SS1619739623165","trial","","40","500","23045.379999999423","images/stimuli/spore_stims/simple_17_A_b.gif","images/stimuli/spore_stims/simple_19_A_a.gif","forced_short","","3","simple_dissimilar","images/stimuli/spore_stims/simple_19_A_a.gif","","","","",""
"","null","html-keyboard-response","46","2208483","0.0-15.0-0.2","SS1619739623165","","","null","","","","","","<p><img src= images/blank.png width =""600"" height = ""600"" style=""position:fixed;top:50%; left:50%; transform: translate(-50%, -50%); border:5px solid black"">","","","","","","","",""
"","97614.11000000034","sequential-stimulus-presentation-old","47","2306603","0.0-15.0-1.2","SS1619739623165","trial","","40","500","98114.11000000034","images/stimuli/spore_stims/simple_17_A_b.gif","images/stimuli/spore_stims/simple_19_A_a.gif","forced_short","","3","simple_dissimilar","images/stimuli/spore_stims/simple_19_A_a.gif","","","","",""
"","null","html-keyboard-response","48","2307822","0.0-15.0-0.3","SS1619739623165","","","null","","","","","","<p><img src= images/blank.png width =""600"" height = ""600"" style=""position:fixed;top:50%; left:50%; transform: translate(-50%, -50%); border:5px solid black"">","","","","","","","",""
"","14196.519999999553","sequential-stimulus-presentation-old","49","2322523","0.0-15.0-1.3","SS1619739623165","trial","","40","500","14696.519999999553","images/stimuli/spore_stims/simple_17_A_b.gif","images/stimuli/spore_stims/simple_19_A_a.gif","forced_short","","3","simple_dissimilar","images/stimuli/spore_stims/simple_19_A_a.gif","","","","",""
"","null","html-keyboard-response","50","2323420","0.0-15.0-0.4","SS1619739623165","","","null","","","","","","<p><img src= images/blank.png width =""600"" height = ""600"" style=""position:fixed;top:50%; left:50%; transform: translate(-50%, -50%); border:5px solid black"">","","","","","","","",""
"","521.7850000010803","sequential-stimulus-presentation-old","51","2324447","0.0-15.0-1.4","SS1619739623165","trial","","40","500","1021.7850000010803","images/stimuli/spore_stims/simple_17_A_b.gif","images/stimuli/spore_stims/simple_19_A_a.gif","forced_short","","3","simple_dissimilar","images/stimuli/spore_stims/simple_19_A_a.gif","","","","",""
"","null","html-keyboard-response","52","2325416","0.0-15.0-0.5","SS1619739623165","","","null","","","","","","<p><img src= images/blank.png width =""600"" height = ""600"" style=""position:fixed;top:50%; left:50%; transform: translate(-50%, -50%); border:5px solid black"">","","","","","","","",""
"","7194.975000000093","sequential-stimulus-presentation-old","53","2333115","0.0-15.0-1.5","SS1619739623165","trial","","40","500","7694.975000000093","images/stimuli/spore_stims/simple_17_A_b.gif","images/stimuli/spore_stims/simple_19_A_a.gif","forced_short","","3","simple_dissimilar","images/stimuli/spore_stims/simple_19_A_a.gif","","","","",""
"","2964.299999999348","survey-multi-choice","54","2336083","0.0-16.0","SS1619739623165","math_question","","","","","","","","","","","","{""Q0"":""6""}","[0]","6","",""
"","null","html-keyboard-response","55","2337372","0.0-17.0-0.0","SS1619739623165","","","null","","","","","","<p><img src= images/blank.png width =""600"" height = ""600"" style=""position:fixed;top:50%; left:50%; transform: translate(-50%, -50%); border:5px solid black"">","","","","","","","",""
"","4601.8849999997765","sequential-stimulus-presentation-old","56","2342479","0.0-17.0-1.0","SS1619739623165","trial","","40","500","5101.8849999997765","images/stimuli/spore_stims/simple_13_A_b.gif","images/stimuli/spore_stims/simple_09_A_a.gif","self_paced","","4","simple_dissimilar","images/stimuli/spore_stims/simple_09_A_a.gif","","","","",""
"","null","html-keyboard-response","57","2343292","0.0-17.0-0.1","SS1619739623165","","","null","","","","","","<p><img src= images/blank.png width =""600"" height = ""600"" style=""position:fixed;top:50%; left:50%; transform: translate(-50%, -50%); border:5px solid black"">","","","","","","","",""
"","4354.479999999981","sequential-stimulus-presentation-old","58","2348151","0.0-17.0-1.1","SS1619739623165","trial","","40","500","4854.479999999981","images/stimuli/spore_stims/simple_13_A_b.gif","images/stimuli/spore_stims/simple_09_A_a.gif","self_paced","","4","simple_dissimilar","images/stimuli/spore_stims/simple_09_A_a.gif","","","","",""
"","null","html-keyboard-response","59","2349270","0.0-17.0-0.2","SS1619739623165","","","null","","","","","","<p><img src= images/blank.png width =""600"" height = ""600"" style=""position:fixed;top:50%; left:50%; transform: translate(-50%, -50%); border:5px solid black"">","","","","","","","",""
"","699.1550000002608","sequential-stimulus-presentation-old","60","2350475","0.0-17.0-1.2","SS1619739623165","trial","","40","500","1199.1550000002608","images/stimuli/spore_stims/simple_13_A_b.gif","images/stimuli/spore_stims/simple_09_A_a.gif","self_paced","","4","simple_dissimilar","images/stimuli/spore_stims/simple_09_A_a.gif","","","","",""
"","null","html-keyboard-response","61","2351535","0.0-17.0-0.3","SS1619739623165","","","null","","","","","","<p><img src= images/blank.png width =""600"" height = ""600"" style=""position:fixed;top:50%; left:50%; transform: translate(-50%, -50%); border:5px solid black"">","","","","","","","",""
"","168.03000000072643","sequential-stimulus-presentation-old","62","2352207","0.0-17.0-1.3","SS1619739623165","trial","","40","500","668.0300000007264","images/stimuli/spore_stims/simple_13_A_b.gif","images/stimuli/spore_stims/simple_09_A_a.gif","self_paced","","4","simple_dissimilar","images/stimuli/spore_stims/simple_09_A_a.gif","","","","",""
"","null","html-keyboard-response","63","2353441","0.0-17.0-0.4","SS1619739623165","","","null","","","","","","<p><img src= images/blank.png width =""600"" height = ""600"" style=""position:fixed;top:50%; left:50%; transform: translate(-50%, -50%); border:5px solid black"">","","","","","","","",""
"","244.79999999841675","sequential-stimulus-presentation-old","64","2354191","0.0-17.0-1.4","SS1619739623165","trial","","40","500","744.7999999984168","images/stimuli/spore_stims/simple_13_A_b.gif","images/stimuli/spore_stims/simple_09_A_a.gif","self_paced","","4","simple_dissimilar","images/stimuli/spore_stims/simple_09_A_a.gif","","","","",""
"","3104.220000001136","survey-multi-choice","65","2357298","0.0-18.0","SS1619739623165","math_question","","","","","","","","","","","","{""Q0"":""11""}","[0]","11","",""
"","null","html-keyboard-response","66","2358459","0.0-19.0-0.0","SS1619739623165","","","null","","","","","","<p><img src= images/blank.png width =""600"" height = ""600"" style=""position:fixed;top:50%; left:50%; transform: translate(-50%, -50%); border:5px solid black"">","","","","","","","",""
"","2926.6000000010245","sequential-stimulus-presentation-old","67","2361891","0.0-19.0-1.0","SS1619739623165","trial","","40","500","3426.6000000010245","images/stimuli/spore_stims/complex_06_A_a.gif","images/stimuli/spore_stims/complex_19_A_b.gif","forced_short","","5","complex_dissimilar","images/stimuli/spore_stims/complex_19_A_b.gif","","","","",""
"","null","html-keyboard-response","68","2362880","0.0-19.0-0.1","SS1619739623165","","","null","","","","","","<p><img src= images/blank.png width =""600"" height = ""600"" style=""position:fixed;top:50%; left:50%; transform: translate(-50%, -50%); border:5px solid black"">","","","","","","","",""
"","5249.315000000875","sequential-stimulus-presentation-old","69","2368635","0.0-19.0-1.1","SS1619739623165","trial","","40","500","5749.315000000875","images/stimuli/spore_stims/complex_06_A_a.gif","images/stimuli/spore_stims/complex_19_A_b.gif","forced_short","","5","complex_dissimilar","images/stimuli/spore_stims/complex_19_A_b.gif","","","","",""
"","null","html-keyboard-response","70","2369600","0.0-19.0-0.2","SS1619739623165","","","null","","","","","","<p><img src= images/blank.png width =""600"" height = ""600"" style=""position:fixed;top:50%; left:50%; transform: translate(-50%, -50%); border:5px solid black"">","","","","","","","",""
"","1553.8650000016205","sequential-stimulus-presentation-old","71","2371659","0.0-19.0-1.2","SS1619739623165","trial","","40","500","2053.8650000016205","images/stimuli/spore_stims/complex_06_A_a.gif","images/stimuli/spore_stims/complex_19_A_b.gif","forced_short","","5","complex_dissimilar","images/stimuli/spore_stims/complex_06_A_a.gif","","","","",""
"","null","html-keyboard-response","72","2372562","0.0-19.0-0.3","SS1619739623165","","","null","","","","","","<p><img src= images/blank.png width =""600"" height = ""600"" style=""position:fixed;top:50%; left:50%; transform: translate(-50%, -50%); border:5px solid black"">","","","","","","","",""
"","10771.805000000168","sequential-stimulus-presentation-old","73","2383839","0.0-19.0-1.3","SS1619739623165","trial","","40","500","11271.805000000168","images/stimuli/spore_stims/complex_06_A_a.gif","images/stimuli/spore_stims/complex_19_A_b.gif","forced_short","","5","complex_dissimilar","images/stimuli/spore_stims/complex_06_A_a.gif","","","","",""
"","2671.589999999851","survey-multi-choice","74","2386515","0.0-20.0","SS1619739623165","math_question","","","","","","","","","","","","{""Q0"":""3""}","[0]","3","",""
"","null","html-keyboard-response","75","2387396","0.0-21.0-0.0","SS1619739623165","","","null","","","","","","<p><img src= images/blank.png width =""600"" height = ""600"" style=""position:fixed;top:50%; left:50%; transform: translate(-50%, -50%); border:5px solid black"">","","","","","","","",""
"","2553.8199999993667","sequential-stimulus-presentation-old","76","2390455","0.0-21.0-1.0","SS1619739623165","trial","","40","500","3053.8199999993667","images/stimuli/spore_stims/complex_13_A_a.gif","images/stimuli/spore_stims/complex_07_A_b.gif","self_paced","","6","complex_dissimilar","images/stimuli/spore_stims/complex_07_A_b.gif","","","","",""
"","null","html-keyboard-response","77","2391738","0.0-21.0-0.1","SS1619739623165","","","null","","","","","","<p><img src= images/blank.png width =""600"" height = ""600"" style=""position:fixed;top:50%; left:50%; transform: translate(-50%, -50%); border:5px solid black"">","","","","","","","",""
"","2109.6749999998137","sequential-stimulus-presentation-old","78","2394351","0.0-21.0-1.1","SS1619739623165","trial","","40","500","2609.6749999998137","images/stimuli/spore_stims/complex_13_A_a.gif","images/stimuli/spore_stims/complex_07_A_b.gif","self_paced","","6","complex_dissimilar","images/stimuli/spore_stims/complex_07_A_b.gif","","","","",""
"","null","html-keyboard-response","79","2395261","0.0-21.0-0.2","SS1619739623165","","","null","","","","","","<p><img src= images/blank.png width =""600"" height = ""600"" style=""position:fixed;top:50%; left:50%; transform: translate(-50%, -50%); border:5px solid black"">","","","","","","","",""
"","328.2550000003539","sequential-stimulus-presentation-old","80","2396095","0.0-21.0-1.2","SS1619739623165","trial","","40","500","828.2550000003539","images/stimuli/spore_stims/complex_13_A_a.gif","images/stimuli/spore_stims/complex_07_A_b.gif","self_paced","","6","complex_dissimilar","images/stimuli/spore_stims/complex_07_A_b.gif","","","","",""
"","null","html-keyboard-response","81","2397337","0.0-21.0-0.3","SS1619739623165","","","null","","","","","","<p><img src= images/blank.png width =""600"" height = ""600"" style=""position:fixed;top:50%; left:50%; transform: translate(-50%, -50%); border:5px solid black"">","","","","","","","",""
"","297.1000000014901","sequential-stimulus-presentation-old","82","2398139","0.0-21.0-1.3","SS1619739623165","trial","","40","500","797.1000000014901","images/stimuli/spore_stims/complex_13_A_a.gif","images/stimuli/spore_stims/complex_07_A_b.gif","self_paced","","6","complex_dissimilar","images/stimuli/spore_stims/complex_07_A_b.gif","","","","",""
"","null","html-keyboard-response","83","2399349","0.0-21.0-0.4","SS1619739623165","","","null","","","","","","<p><img src= images/blank.png width =""600"" height = ""600"" style=""position:fixed;top:50%; left:50%; transform: translate(-50%, -50%); border:5px solid black"">","","","","","","","",""
"","1149.0099999993108","sequential-stimulus-presentation-old","84","2401003","0.0-21.0-1.4","SS1619739623165","trial","","40","500","1649.0099999993108","images/stimuli/spore_stims/complex_13_A_a.gif","images/stimuli/spore_stims/complex_07_A_b.gif","self_paced","","6","complex_dissimilar","images/stimuli/spore_stims/complex_07_A_b.gif","","","","",""
"","null","html-keyboard-response","85","2402286","0.0-21.0-0.5","SS1619739623165","","","null","","","","","","<p><img src= images/blank.png width =""600"" height = ""600"" style=""position:fixed;top:50%; left:50%; transform: translate(-50%, -50%); border:5px solid black"">","","","","","","","",""
"","529.7099999990314","sequential-stimulus-presentation-old","86","2403318","0.0-21.0-1.5","SS1619739623165","trial","","40","500","1029.7099999990314","images/stimuli/spore_stims/complex_13_A_a.gif","images/stimuli/spore_stims/complex_07_A_b.gif","self_paced","","6","complex_dissimilar","images/stimuli/spore_stims/complex_07_A_b.gif","","","","",""
"","3064.3349999990314","survey-multi-choice","87","2406386","0.0-22.0","SS1619739623165","math_question","","","","","","","","","","","","{""Q0"":""10""}","[0]","10","",""
"","null","html-keyboard-response","88","2407338","0.0-23.0-0.0","SS1619739623165","","","null","","","","","","<p><img src= images/blank.png width =""600"" height = ""600"" style=""position:fixed;top:50%; left:50%; transform: translate(-50%, -50%); border:5px solid black"">","","","","","","","",""
"","310.47500000009313","sequential-stimulus-presentation-old","89","2408154","0.0-23.0-1.0","SS1619739623165","trial","","40","500","810.4750000000931","images/stimuli/spore_stims/simple_14_A_b.gif","images/stimuli/spore_stims/simple_07_A_a.gif","self_paced","","7","simple_dissimilar","images/stimuli/spore_stims/simple_07_A_a.gif","","","","",""
"","null","html-keyboard-response","90","2409258","0.0-23.0-0.1","SS1619739623165","","","null","","","","","","<p><img src= images/blank.png width =""600"" height = ""600"" style=""position:fixed;top:50%; left:50%; transform: translate(-50%, -50%); border:5px solid black"">","","","","","","","",""
"","2044.305000001099","sequential-stimulus-presentation-old","91","2411806","0.0-23.0-1.1","SS1619739623165","trial","","40","500","2544.305000001099","images/stimuli/spore_stims/simple_14_A_b.gif","images/stimuli/spore_stims/simple_07_A_a.gif","self_paced","","7","simple_dissimilar","images/stimuli/spore_stims/simple_07_A_a.gif","","","","",""
"","null","html-keyboard-response","92","2412726","0.0-23.0-0.2","SS1619739623165","","","null","","","","","","<p><img src= images/blank.png width =""600"" height = ""600"" style=""position:fixed;top:50%; left:50%; transform: translate(-50%, -50%); border:5px solid black"">","","","","","","","",""
"","431.02999999932945","sequential-stimulus-presentation-old","93","2413662","0.0-23.0-1.2","SS1619739623165","trial","","40","500","931.0299999993294","images/stimuli/spore_stims/simple_14_A_b.gif","images/stimuli/spore_stims/simple_07_A_a.gif","self_paced","","7","simple_dissimilar","images/stimuli/spore_stims/simple_07_A_a.gif","","","","",""
"","null","html-keyboard-response","94","2414909","0.0-23.0-0.3","SS1619739623165","","","null","","","","","","<p><img src= images/blank.png width =""600"" height = ""600"" style=""position:fixed;top:50%; left:50%; transform: translate(-50%, -50%); border:5px solid black"">","","","","","","","",""
"","116.17499999888241","sequential-stimulus-presentation-old","95","2415530","0.0-23.0-1.3","SS1619739623165","trial","","40","500","616.1749999988824","images/stimuli/spore_stims/simple_14_A_b.gif","images/stimuli/spore_stims/simple_07_A_a.gif","self_paced","","7","simple_dissimilar","images/stimuli/spore_stims/simple_07_A_a.gif","","","","",""
"","null","html-keyboard-response","96","2416554","0.0-23.0-0.4","SS1619739623165","","","null","","","","","","<p><img src= images/blank.png width =""600"" height = ""600"" style=""position:fixed;top:50%; left:50%; transform: translate(-50%, -50%); border:5px solid black"">","","","","","","","",""
"","42.83500000042841","sequential-stimulus-presentation-old","97","2417102","0.0-23.0-1.4","SS1619739623165","trial","","40","500","542.8350000004284","images/stimuli/spore_stims/simple_14_A_b.gif","images/stimuli/spore_stims/simple_07_A_a.gif","self_paced","","7","simple_dissimilar","images/stimuli/spore_stims/simple_07_A_a.gif","","","","",""
"","null","html-keyboard-response","98","2417981","0.0-23.0-0.5","SS1619739623165","","","null","","","","","","<p><img src= images/blank.png width =""600"" height = ""600"" style=""position:fixed;top:50%; left:50%; transform: translate(-50%, -50%); border:5px solid black"">","","","","","","","",""
"","99.7449999996461","sequential-stimulus-presentation-old","99","2418586","0.0-23.0-1.5","SS1619739623165","trial","","40","500","599.7449999996461","images/stimuli/spore_stims/simple_14_A_b.gif","images/stimuli/spore_stims/simple_07_A_a.gif","self_paced","","7","simple_dissimilar","images/stimuli/spore_stims/simple_07_A_a.gif","","","","",""
"","5035.184999998659","survey-multi-choice","100","2423626","0.0-24.0","SS1619739623165","math_question","","","","","","","","","","","","{""Q0"":""15""}","[0]","15","",""
"","null","html-keyboard-response","101","2424719","0.0-25.0-0.0","SS1619739623165","","","null","","","","","","<p><img src= images/blank.png width =""600"" height = ""600"" style=""position:fixed;top:50%; left:50%; transform: translate(-50%, -50%); border:5px solid black"">","","","","","","","",""
"","1645.7049999986775","sequential-stimulus-presentation-old","102","2426871","0.0-25.0-1.0","SS1619739623165","trial","","40","500","2145.7049999986775","images/stimuli/spore_stims/simple_06_A_a.gif","images/stimuli/spore_stims/simple_09_A_b.gif","forced_short","","8","simple_dissimilar","images/stimuli/spore_stims/simple_09_A_b.gif","","","","",""
"","null","html-keyboard-response","103","2427723","0.0-25.0-0.1","SS1619739623165","","","null","","","","","","<p><img src= images/blank.png width =""600"" height = ""600"" style=""position:fixed;top:50%; left:50%; transform: translate(-50%, -50%); border:5px solid black"">","","","","","","","",""
"","2550.1449999990873","sequential-stimulus-presentation-old","104","2430779","0.0-25.0-1.1","SS1619739623165","trial","","40","500","3050.1449999990873","images/stimuli/spore_stims/simple_06_A_a.gif","images/stimuli/spore_stims/simple_09_A_b.gif","forced_short","","8","simple_dissimilar","images/stimuli/spore_stims/simple_09_A_b.gif","","","","",""
"","null","html-keyboard-response","105","2432037","0.0-25.0-0.2","SS1619739623165","","","null","","","","","","<p><img src= images/blank.png width =""600"" height = ""600"" style=""position:fixed;top:50%; left:50%; transform: translate(-50%, -50%); border:5px solid black"">","","","","","","","",""
"","3547.725000000093","sequential-stimulus-presentation-old","106","2436090","0.0-25.0-1.2","SS1619739623165","trial","","40","500","4047.725000000093","images/stimuli/spore_stims/simple_06_A_a.gif","images/stimuli/spore_stims/simple_09_A_b.gif","forced_short","","8","simple_dissimilar","images/stimuli/spore_stims/simple_09_A_b.gif","","","","",""
"","null","html-keyboard-response","107","2437011","0.0-25.0-0.3","SS1619739623165","","","null","","","","","","<p><img src= images/blank.png width =""600"" height = ""600"" style=""position:fixed;top:50%; left:50%; transform: translate(-50%, -50%); border:5px solid black"">","","","","","","","",""
"","645.855000000447","sequential-stimulus-presentation-old","108","2438163","0.0-25.0-1.3","SS1619739623165","trial","","40","500","1145.855000000447","images/stimuli/spore_stims/simple_06_A_a.gif","images/stimuli/spore_stims/simple_09_A_b.gif","forced_short","","8","simple_dissimilar","images/stimuli/spore_stims/simple_09_A_b.gif","","","","",""
"","null","html-keyboard-response","109","2439260","0.0-25.0-0.4","SS1619739623165","","","null","","","","","","<p><img src= images/blank.png width =""600"" height = ""600"" style=""position:fixed;top:50%; left:50%; transform: translate(-50%, -50%); border:5px solid black"">","","","","","","","",""
"","339.31999999890104","sequential-stimulus-presentation-old","110","2440102","0.0-25.0-1.4","SS1619739623165","trial","","40","500","839.319999998901","images/stimuli/spore_stims/simple_06_A_a.gif","images/stimuli/spore_stims/simple_09_A_b.gif","forced_short","","8","simple_dissimilar","images/stimuli/spore_stims/simple_09_A_b.gif","","","","",""
"","2775.8249999987893","survey-multi-choice","111","2442882","0.0-26.0","SS1619739623165","math_question","","","","","","","","","","","","{""Q0"":""9""}","[0]","9","",""
"","null","html-keyboard-response","112","2443862","0.0-27.0-0.0","SS1619739623165","","","null","","","","","","<p><img src= images/blank.png width =""600"" height = ""600"" style=""position:fixed;top:50%; left:50%; transform: translate(-50%, -50%); border:5px solid black"">","","","","","","","",""
"","6877.870000000577","sequential-stimulus-presentation-old","113","2465746","0.0-27.0-1.0","SS1619739623165","trial","","40","500","7377.870000000577","images/stimuli/spore_stims/simple_07_A_b.gif","images/stimuli/spore_stims/simple_01_A_a.gif","forced_long","","9","simple_dissimilar","images/stimuli/spore_stims/simple_01_A_a.gif","","","","",""
"","null","html-keyboard-response","114","2467028","0.0-27.0-0.1","SS1619739623165","","","null","","","","","","<p><img src= images/blank.png width =""600"" height = ""600"" style=""position:fixed;top:50%; left:50%; transform: translate(-50%, -50%); border:5px solid black"">","","","","","","","",""
"","3791.890000000596","sequential-stimulus-presentation-old","115","2471326","0.0-27.0-1.1","SS1619739623165","trial","","40","500","4291.890000000596","images/stimuli/spore_stims/simple_07_A_b.gif","images/stimuli/spore_stims/simple_01_A_a.gif","forced_long","","9","simple_dissimilar","images/stimuli/spore_stims/simple_01_A_a.gif","","","","",""
"","null","html-keyboard-response","116","2472494","0.0-27.0-0.2","SS1619739623165","","","null","","","","","","<p><img src= images/blank.png width =""600"" height = ""600"" style=""position:fixed;top:50%; left:50%; transform: translate(-50%, -50%); border:5px solid black"">","","","","","","","",""
"","873.2799999997951","sequential-stimulus-presentation-old","117","2473874","0.0-27.0-1.2","SS1619739623165","trial","","40","500","1373.279999999795","images/stimuli/spore_stims/simple_07_A_b.gif","images/stimuli/spore_stims/simple_01_A_a.gif","forced_long","","9","simple_dissimilar","images/stimuli/spore_stims/simple_01_A_a.gif","","","","",""
"","null","html-keyboard-response","118","2475067","0.0-27.0-0.3","SS1619739623165","","","null","","","","","","<p><img src= images/blank.png width =""600"" height = ""600"" style=""position:fixed;top:50%; left:50%; transform: translate(-50%, -50%); border:5px solid black"">","","","","","","","",""
"","429.070000000298","sequential-stimulus-presentation-old","119","2476002","0.0-27.0-1.3","SS1619739623165","trial","","40","500","929.070000000298","images/stimuli/spore_stims/simple_07_A_b.gif","images/stimuli/spore_stims/simple_01_A_a.gif","forced_long","","9","simple_dissimilar","images/stimuli/spore_stims/simple_01_A_a.gif","","","","",""
"","null","html-keyboard-response","120","2476923","0.0-27.0-0.4","SS1619739623165","","","null","","","","","","<p><img src= images/blank.png width =""600"" height = ""600"" style=""position:fixed;top:50%; left:50%; transform: translate(-50%, -50%); border:5px solid black"">","","","","","","","",""
"","332.964999999851","sequential-stimulus-presentation-old","121","2477762","0.0-27.0-1.4","SS1619739623165","trial","","40","500","832.964999999851","images/stimuli/spore_stims/simple_07_A_b.gif","images/stimuli/spore_stims/simple_01_A_a.gif","forced_long","","9","simple_dissimilar","images/stimuli/spore_stims/simple_01_A_a.gif","","","","",""
"","null","html-keyboard-response","122","2479008","0.0-27.0-0.5","SS1619739623165","","","null","","","","","","<p><img src= images/blank.png width =""600"" height = ""600"" style=""position:fixed;top:50%; left:50%; transform: translate(-50%, -50%); border:5px solid black"">","","","","","","","",""
"","676.8500000000931","sequential-stimulus-presentation-old","123","2480190","0.0-27.0-1.5","SS1619739623165","trial","","40","500","1176.8500000000931","images/stimuli/spore_stims/simple_07_A_b.gif","images/stimuli/spore_stims/simple_01_A_a.gif","forced_long","","9","simple_dissimilar","images/stimuli/spore_stims/simple_07_A_b.gif","","","","",""
"","2790.4149999995716","survey-multi-choice","124","2482985","0.0-28.0","SS1619739623165","math_question","","","","","","","","","","","","{""Q0"":""11""}","[0]","11","",""
"","null","html-keyboard-response","125","2483813","0.0-29.0-0.0","SS1619739623165","","","null","","","","","","<p><img src= images/blank.png width =""600"" height = ""600"" style=""position:fixed;top:50%; left:50%; transform: translate(-50%, -50%); border:5px solid black"">","","","","","","","",""
"","1518.3349999990314","sequential-stimulus-presentation-old","126","2485837","0.0-29.0-1.0","SS1619739623165","trial","","40","500","2018.3349999990314","images/stimuli/spore_stims/complex_11_A_a.gif","images/stimuli/spore_stims/complex_13_A_b.gif","forced_short","","10","complex_dissimilar","images/stimuli/spore_stims/complex_13_A_b.gif","","","","",""
"","null","html-keyboard-response","127","2486903","0.0-29.0-0.1","SS1619739623165","","","null","","","","","","<p><img src= images/blank.png width =""600"" height = ""600"" style=""position:fixed;top:50%; left:50%; transform: translate(-50%, -50%); border:5px solid black"">","","","","","","","",""
"","2228.25","sequential-stimulus-presentation-old","128","2489638","0.0-29.0-1.1","SS1619739623165","trial","","40","500","2728.25","images/stimuli/spore_stims/complex_11_A_a.gif","images/stimuli/spore_stims/complex_13_A_b.gif","forced_short","","10","complex_dissimilar","images/stimuli/spore_stims/complex_13_A_b.gif","","","","",""
"","null","html-keyboard-response","129","2490848","0.0-29.0-0.2","SS1619739623165","","","null","","","","","","<p><img src= images/blank.png width =""600"" height = ""600"" style=""position:fixed;top:50%; left:50%; transform: translate(-50%, -50%); border:5px solid black"">","","","","","","","",""
"","1616.1900000008754","sequential-stimulus-presentation-old","130","2492970","0.0-29.0-1.2","SS1619739623165","trial","","40","500","2116.1900000008754","images/stimuli/spore_stims/complex_11_A_a.gif","images/stimuli/spore_stims/complex_13_A_b.gif","forced_short","","10","complex_dissimilar","images/stimuli/spore_stims/complex_11_A_a.gif","","","","",""
"","null","html-keyboard-response","131","2494257","0.0-29.0-0.3","SS1619739623165","","","null","","","","","","<p><img src= images/blank.png width =""600"" height = ""600"" style=""position:fixed;top:50%; left:50%; transform: translate(-50%, -50%); border:5px solid black"">","","","","","","","",""
"","741.8999999994412","sequential-stimulus-presentation-old","132","2495506","0.0-29.0-1.3","SS1619739623165","trial","","40","500","1241.8999999994412","images/stimuli/spore_stims/complex_11_A_a.gif","images/stimuli/spore_stims/complex_13_A_b.gif","forced_short","","10","complex_dissimilar","images/stimuli/spore_stims/complex_13_A_b.gif","","","","",""
"","null","html-keyboard-response","133","2496734","0.0-29.0-0.4","SS1619739623165","","","null","","","","","","<p><img src= images/blank.png width =""600"" height = ""600"" style=""position:fixed;top:50%; left:50%; transform: translate(-50%, -50%); border:5px solid black"">","","","","","","","",""
"","841.5499999988824","sequential-stimulus-presentation-old","134","2498082","0.0-29.0-1.4","SS1619739623165","trial","","40","500","1341.5499999988824","images/stimuli/spore_stims/complex_11_A_a.gif","images/stimuli/spore_stims/complex_13_A_b.gif","forced_short","","10","complex_dissimilar","images/stimuli/spore_stims/complex_11_A_a.gif","","","","",""
"","2605.05999999959","survey-multi-choice","135","2500690","0.0-30.0","SS1619739623165","math_question","","","","","","","","","","","","{""Q0"":""12""}","[0]","12","",""
"","null","html-keyboard-response","136","2501759","0.0-31.0-0.0","SS1619739623165","","","null","","","","","","<p><img src= images/blank.png width =""600"" height = ""600"" style=""position:fixed;top:50%; left:50%; transform: translate(-50%, -50%); border:5px solid black"">","","","","","","","",""
"","1509.695000000298","sequential-stimulus-presentation-old","137","2503774","0.0-31.0-1.0","SS1619739623165","trial","","40","500","2009.695000000298","images/stimuli/spore_stims/complex_20_A_a.gif","images/stimuli/spore_stims/complex_17_A_b.gif","self_paced","","11","complex_dissimilar","images/stimuli/spore_stims/complex_17_A_b.gif","","","","",""
"","null","html-keyboard-response","138","2504905","0.0-31.0-0.1","SS1619739623165","","","null","","","","","","<p><img src= images/blank.png width =""600"" height = ""600"" style=""position:fixed;top:50%; left:50%; transform: translate(-50%, -50%); border:5px solid black"">","","","","","","","",""
"","507.125","sequential-stimulus-presentation-old","139","2505918","0.0-31.0-1.1","SS1619739623165","trial","","40","500","1007.125","images/stimuli/spore_stims/complex_20_A_a.gif","images/stimuli/spore_stims/complex_17_A_b.gif","self_paced","","11","complex_dissimilar","images/stimuli/spore_stims/complex_20_A_a.gif","","","","",""
"","null","html-keyboard-response","140","2506724","0.0-31.0-0.2","SS1619739623165","","","null","","","","","","<p><img src= images/blank.png width =""600"" height = ""600"" style=""position:fixed;top:50%; left:50%; transform: translate(-50%, -50%); border:5px solid black"">","","","","","","","",""
"","192.01500000059605","sequential-stimulus-presentation-old","141","2507422","0.0-31.0-1.2","SS1619739623165","trial","","40","500","692.015000000596","images/stimuli/spore_stims/complex_20_A_a.gif","images/stimuli/spore_stims/complex_17_A_b.gif","self_paced","","11","complex_dissimilar","images/stimuli/spore_stims/complex_17_A_b.gif","","","","",""
"","null","html-keyboard-response","142","2508274","0.0-31.0-0.3","SS1619739623165","","","null","","","","","","<p><img src= images/blank.png width =""600"" height = ""600"" style=""position:fixed;top:50%; left:50%; transform: translate(-50%, -50%); border:5px solid black"">","","","","","","","",""
"","74.12500000093132","sequential-stimulus-presentation-old","143","2508854","0.0-31.0-1.3","SS1619739623165","trial","","40","500","574.1250000009313","images/stimuli/spore_stims/complex_20_A_a.gif","images/stimuli/spore_stims/complex_17_A_b.gif","self_paced","","11","complex_dissimilar","images/stimuli/spore_stims/complex_17_A_b.gif","","","","",""
"","null","html-keyboard-response","144","2509985","0.0-31.0-0.4","SS1619739623165","","","null","","","","","","<p><img src= images/blank.png width =""600"" height = ""600"" style=""position:fixed;top:50%; left:50%; transform: translate(-50%, -50%); border:5px solid black"">","","","","","","","",""
"","554.7549999994226","sequential-stimulus-presentation-old","145","2511046","0.0-31.0-1.4","SS1619739623165","trial","","40","500","1054.7549999994226","images/stimuli/spore_stims/complex_20_A_a.gif","images/stimuli/spore_stims/complex_17_A_b.gif","self_paced","","11","complex_dissimilar","images/stimuli/spore_stims/complex_20_A_a.gif","","","","",""
"[{""page_index"":0,""viewing_time"":9382.770000000019}]","9384.090000001248","instructions","146","2520434","0.0-32.0","SS1619739623165","instructions","","","","","","","","","","","","","","","",""
"","13584.319999999832","survey-likert","147","2534026","0.0-33.0","SS1619739623165","similarity_question","","","","","","","","","","","","{""Q0"":4}","[0]","","images/stimuli/spore_stims/complex_06_A_a.gif","images/stimuli/spore_stims/complex_19_A_b.gif"
"","9651.869999999646","survey-likert","148","2543689","0.0-34.0","SS1619739623165","similarity_question","","","","","","","","","","","","{""Q0"":5}","[0]","","images/stimuli/spore_stims/simple_06_A_a.gif","images/stimuli/spore_stims/simple_09_A_b.gif"
"","9364.309999999125","survey-likert","149","2553066","0.0-35.0","SS1619739623165","similarity_question","","","","","","","","","","","","{""Q0"":2}","[0]","","images/stimuli/spore_stims/complex_17_A_b.gif","images/stimuli/spore_stims/complex_20_A_a.gif"
"","3076.41999999946","survey-likert","150","2556154","0.0-36.0","SS1619739623165","similarity_question","","","","","","","","","","","","{""Q0"":4}","[0]","","images/stimuli/spore_stims/simple_09_A_a.gif","images/stimuli/spore_stims/simple_13_A_b.gif"
"","3556.44000000041","survey-likert","151","2559722","0.0-37.0","SS1619739623165","similarity_question","","","","","","","","","","","","{""Q0"":4}","[0]","","images/stimuli/spore_stims/simple_17_A_b.gif","images/stimuli/spore_stims/simple_19_A_a.gif"
"","7660.860000000335","survey-likert","152","2567393","0.0-38.0","SS1619739623165","similarity_question","","","","","","","","","","","","{""Q0"":1}","[0]","","images/stimuli/spore_stims/complex_13_A_a.gif","images/stimuli/spore_stims/complex_07_A_b.gif"
"","2140.704999999609","survey-likert","153","2569546","0.0-39.0","SS1619739623165","similarity_question","","","","","","","","","","","","{""Q0"":4}","[0]","","images/stimuli/spore_stims/simple_10_A_a.gif","images/stimuli/spore_stims/simple_02_A_b.gif"
"","2067.7149999989197","survey-likert","154","2571625","0.0-40.0","SS1619739623165","similarity_question","","","","","","","","","","","","{""Q0"":4}","[0]","","images/stimuli/spore_stims/simple_07_A_a.gif","images/stimuli/spore_stims/simple_14_A_b.gif"
"","3533.5500000002794","survey-likert","155","2575170","0.0-41.0","SS1619739623165","similarity_question","","","","","","","","","","","","{""Q0"":2}","[0]","","images/stimuli/spore_stims/complex_05_A_b.gif","images/stimuli/spore_stims/complex_12_A_a.gif"
"","10739.639999999665","survey-likert","156","2585921","0.0-42.0","SS1619739623165","similarity_question","","","","","","","","","","","","{""Q0"":1}","[0]","","images/stimuli/spore_stims/complex_11_A_a.gif","images/stimuli/spore_stims/complex_13_A_b.gif"
"","1924.4200000013225","survey-likert","157","2587857","0.0-43.0","SS1619739623165","similarity_question","","","","","","","","","","","","{""Q0"":4}","[0]","","images/stimuli/spore_stims/simple_01_A_a.gif","images/stimuli/spore_stims/simple_07_A_b.gif"
"","2228.2850000010803","survey-likert","158","2590097","0.0-44.0","SS1619739623165","similarity_question","","","","","","","","","","","","{""Q0"":1}","[0]","","images/stimuli/spore_stims/complex_05_A_a.gif","images/stimuli/spore_stims/complex_09_A_b.gif"
"[{""page_index"":0,""viewing_time"":9553.524999999441}]","9553.92500000028","instructions","159","2599656","0.0-45.0","SS1619739623165","instructions","","","","","","","","","","","","","","","",""
"","8890.274999999441","survey-likert","160","2608553","0.0-46.0","SS1619739623165","","","","","","","","","images/stimuli/spore_stims/complex_05_A_b.gif","","","","{""Q0"":4}","[0]","","",""
"","3070.890000000596","survey-likert","161","2611633","0.0-47.0","SS1619739623165","","","","","","","","","images/stimuli/spore_stims/complex_09_A_b.gif","","","","{""Q0"":5}","[0]","","",""
"","2693.390000000596","survey-likert","162","2614337","0.0-48.0","SS1619739623165","","","","","","","","","images/stimuli/spore_stims/simple_14_A_b.gif","","","","{""Q0"":0}","[0]","","",""
"","5236.4350000005215","survey-likert","163","2619585","0.0-49.0","SS1619739623165","","","","","","","","","images/stimuli/spore_stims/simple_09_A_b.gif","","","","{""Q0"":0}","[0]","","",""
"","5363.445000000764","survey-likert","164","2624961","0.0-50.0","SS1619739623165","","","","","","","","","images/stimuli/spore_stims/complex_20_A_a.gif","","","","{""Q0"":4}","[0]","","",""
"","2067.8649999988265","survey-likert","165","2627041","0.0-51.0","SS1619739623165","","","","","","","","","images/stimuli/spore_stims/simple_13_A_b.gif","","","","{""Q0"":0}","[0]","","",""
"","2868.470000001136","survey-likert","166","2629921","0.0-52.0","SS1619739623165","","","","","","","","","images/stimuli/spore_stims/complex_11_A_a.gif","","","","{""Q0"":5}","[0]","","",""
"","2275.6599999992177","survey-likert","167","2632209","0.0-53.0","SS1619739623165","","","","","","","","","images/stimuli/spore_stims/complex_07_A_b.gif","","","","{""Q0"":6}","[0]","","",""
"","3557.2649999996647","survey-likert","168","2635777","0.0-54.0","SS1619739623165","","","","","","","","","images/stimuli/spore_stims/simple_01_A_a.gif","","","","{""Q0"":0}","[0]","","",""
"","1836.1699999985285","survey-likert","169","2637625","0.0-55.0","SS1619739623165","","","","","","","","","images/stimuli/spore_stims/complex_06_A_a.gif","","","","{""Q0"":5}","[0]","","",""
"","2251.8600000003353","survey-likert","170","2639889","0.0-56.0","SS1619739623165","","","","","","","","","images/stimuli/spore_stims/simple_17_A_b.gif","","","","{""Q0"":0}","[0]","","",""
"","2045.4000000008382","survey-likert","171","2641945","0.0-57.0","SS1619739623165","","","","","","","","","images/stimuli/spore_stims/simple_02_A_b.gif","","","","{""Q0"":0}","[0]","","",""
"[{""page_index"":0,""viewing_time"":5396.790000000969}]","5397.165000000503","instructions","172","2647352","0.0-58.0","SS1619739623165","instructions","","","","","","","","","","","","","","","",""
"","2598.9950000001118","demog-age","173","2649961","0.0-59.0","SS1619739623165","","","","","","","","","","","","","{""age"":""22""}","","","",""
"","2951.215000001248","demog-ethnic-US","174","2652921","0.0-60.0","SS1619739623165","","","","","","","","","","","","","{""ethnicity"":[""White""]}","[0]","","",""
"","7940.034999999683","demog-gender-and-education","175","2660873","0.0-61.0","SS1619739623165","","","","","","","","","","","","","{""gender"":""Male"",""education"":""High school diploma""}","[0,1]","","",""
"","14626.080000000075","survey-text","176","2675513","0.0-62.0","SS1619739623165","feedback","","","","","","","","","","","","{""Q0"":""No""}","","","",""
"[{""page_index"":0,""viewing_time"":2912.9550000000745}]","2913.3249999997206","instructions","177","2678432","0.0-63.0","SS1619739623165","instructions","","","","","","","","","","","","","","","",""
