"view_history","rt","trial_type","trial_index","time_elapsed","internal_node_id","subject","stimulus_type","trial_stimulus","key_press","minimum_viewing_duration","trial_looking_time","block_deviant","block_background","exposure_type","stimulus","block_number","block_type","stimulus_displayed","responses","question_order","math_correct_answer","stimulus_left","stimulus_right"
"[{""page_index"":0,""viewing_time"":5855.925000010757}]","5856.729999999516","instructions","0","5858","0.0-0.0","SS1619739756194","","","","","","","","","","","","","","","","",""
"[{""page_index"":0,""viewing_time"":10663.205000004382},{""page_index"":1,""viewing_time"":6592.015000001993}]","17255.430000004708","instructions","1","25128","0.0-1.0","SS1619739756194","instructions","","","","","","","","","","","","","","","",""
"","6205.849999998463","sequential-stimulus-presentation-old","2","31836","0.0-2.0","SS1619739756194","","","40","500","6705.849999998463","null","null","self_paced","","","","","","","","",""
"","5066.135000000941","sequential-stimulus-presentation-old","3","37404","0.0-3.0","SS1619739756194","","","40","500","5566.135000000941","null","null","self_paced","","","","","","","","",""
"[{""page_index"":0,""viewing_time"":14275.300000008428}]","14275.675000011688","instructions","4","51680","0.0-4.0","SS1619739756194","instructions","","","","","","","","","","","","","","","",""
"","2226.9800000067335","sequential-stimulus-presentation-old","5","68910","0.0-5.0","SS1619739756194","","","40","500","2726.9800000067335","null","null","forced_long","","","","","","","","",""
"","2574.644999986049","sequential-stimulus-presentation-old","6","71987","0.0-6.0","SS1619739756194","","","40","500","3074.644999986049","null","null","forced_long","","","","","","","","",""
"[{""page_index"":0,""viewing_time"":4188.8250000047265}]","4189.140000002226","instructions","7","76177","0.0-7.0","SS1619739756194","instructions","","","","","","","","","","","","","","","",""
"[{""page_index"":0,""viewing_time"":10526.509999996051},{""page_index"":1,""viewing_time"":11000.175000008312},{""page_index"":2,""viewing_time"":7904.03000000515},{""page_index"":3,""viewing_time"":1407.744999989518},{""page_index"":4,""viewing_time"":1128.2050000008894}]","31967.109999997774","instructions","8","108145","0.0-8.0","SS1619739756194","instructions","","","","","","","","","","","","","","","",""
"","null","html-keyboard-response","9","109329","0.0-9.0-0.0","SS1619739756194","","","null","","","","","","<p><img src= images/blank.png width =""600"" height = ""600"" style=""position:fixed;top:50%; left:50%; transform: translate(-50%, -50%); border:5px solid black"">","","","","","","","",""
"","2414.8350000032224","sequential-stimulus-presentation-old","10","126748","0.0-9.0-1.0","SS1619739756194","trial","","40","500","2914.8350000032224","images/stimuli/spore_stims/complex_01_A_a.gif","images/stimuli/spore_stims/complex_11_A_b.gif","forced_long","","0","complex_dissimilar","images/stimuli/spore_stims/complex_11_A_b.gif","","","","",""
"","null","html-keyboard-response","11","128036","0.0-9.0-0.1","SS1619739756194","","","null","","","","","","<p><img src= images/blank.png width =""600"" height = ""600"" style=""position:fixed;top:50%; left:50%; transform: translate(-50%, -50%); border:5px solid black"">","","","","","","","",""
"","220.81499999330845","sequential-stimulus-presentation-old","12","128759","0.0-9.0-1.1","SS1619739756194","trial","","40","500","720.8149999933084","images/stimuli/spore_stims/complex_01_A_a.gif","images/stimuli/spore_stims/complex_11_A_b.gif","forced_long","","0","complex_dissimilar","images/stimuli/spore_stims/complex_11_A_b.gif","","","","",""
"","null","html-keyboard-response","13","129704","0.0-9.0-0.2","SS1619739756194","","","null","","","","","","<p><img src= images/blank.png width =""600"" height = ""600"" style=""position:fixed;top:50%; left:50%; transform: translate(-50%, -50%); border:5px solid black"">","","","","","","","",""
"","27103.84999999951","sequential-stimulus-presentation-old","14","157311","0.0-9.0-1.2","SS1619739756194","trial","","40","500","27603.84999999951","images/stimuli/spore_stims/complex_01_A_a.gif","images/stimuli/spore_stims/complex_11_A_b.gif","forced_long","","0","complex_dissimilar","images/stimuli/spore_stims/complex_11_A_b.gif","","","","",""
"","null","html-keyboard-response","15","158420","0.0-9.0-0.3","SS1619739756194","","","null","","","","","","<p><img src= images/blank.png width =""600"" height = ""600"" style=""position:fixed;top:50%; left:50%; transform: translate(-50%, -50%); border:5px solid black"">","","","","","","","",""
"","3227.549999995972","sequential-stimulus-presentation-old","16","162151","0.0-9.0-1.3","SS1619739756194","trial","","40","500","3727.549999995972","images/stimuli/spore_stims/complex_01_A_a.gif","images/stimuli/spore_stims/complex_11_A_b.gif","forced_long","","0","complex_dissimilar","images/stimuli/spore_stims/complex_11_A_b.gif","","","","",""
"","6495.61499999254","survey-multi-choice","17","168649","0.0-10.0","SS1619739756194","math_question","","","","","","","","","","","","{""Q0"":""13""}","[0]","13","",""
"","null","html-keyboard-response","18","169941","0.0-11.0-0.0","SS1619739756194","","","null","","","","","","<p><img src= images/blank.png width =""600"" height = ""600"" style=""position:fixed;top:50%; left:50%; transform: translate(-50%, -50%); border:5px solid black"">","","","","","","","",""
"","3599.464999992051","sequential-stimulus-presentation-old","19","174046","0.0-11.0-1.0","SS1619739756194","trial","","40","500","4099.464999992051","images/stimuli/spore_stims/simple_17_A_b.gif","images/stimuli/spore_stims/simple_12_A_a.gif","forced_short","","1","simple_dissimilar","images/stimuli/spore_stims/simple_12_A_a.gif","","","","",""
"","null","html-keyboard-response","20","174861","0.0-11.0-0.1","SS1619739756194","","","null","","","","","","<p><img src= images/blank.png width =""600"" height = ""600"" style=""position:fixed;top:50%; left:50%; transform: translate(-50%, -50%); border:5px solid black"">","","","","","","","",""
"","21084.600000001956","sequential-stimulus-presentation-old","21","196448","0.0-11.0-1.1","SS1619739756194","trial","","40","500","21584.600000001956","images/stimuli/spore_stims/simple_17_A_b.gif","images/stimuli/spore_stims/simple_12_A_a.gif","forced_short","","1","simple_dissimilar","images/stimuli/spore_stims/simple_17_A_b.gif","","","","",""
"","null","html-keyboard-response","22","197742","0.0-11.0-0.2","SS1619739756194","","","null","","","","","","<p><img src= images/blank.png width =""600"" height = ""600"" style=""position:fixed;top:50%; left:50%; transform: translate(-50%, -50%); border:5px solid black"">","","","","","","","",""
"","21242.310000001453","sequential-stimulus-presentation-old","23","219487","0.0-11.0-1.2","SS1619739756194","trial","","40","500","21742.310000001453","images/stimuli/spore_stims/simple_17_A_b.gif","images/stimuli/spore_stims/simple_12_A_a.gif","forced_short","","1","simple_dissimilar","images/stimuli/spore_stims/simple_12_A_a.gif","","","","",""
"","null","html-keyboard-response","24","220547","0.0-11.0-0.3","SS1619739756194","","","null","","","","","","<p><img src= images/blank.png width =""600"" height = ""600"" style=""position:fixed;top:50%; left:50%; transform: translate(-50%, -50%); border:5px solid black"">","","","","","","","",""
"","25355.315000007977","sequential-stimulus-presentation-old","25","246406","0.0-11.0-1.3","SS1619739756194","trial","","40","500","25855.315000007977","images/stimuli/spore_stims/simple_17_A_b.gif","images/stimuli/spore_stims/simple_12_A_a.gif","forced_short","","1","simple_dissimilar","images/stimuli/spore_stims/simple_17_A_b.gif","","","","",""
"","null","html-keyboard-response","26","247426","0.0-11.0-0.4","SS1619739756194","","","null","","","","","","<p><img src= images/blank.png width =""600"" height = ""600"" style=""position:fixed;top:50%; left:50%; transform: translate(-50%, -50%); border:5px solid black"">","","","","","","","",""
"","24365.569999994477","sequential-stimulus-presentation-old","27","272295","0.0-11.0-1.4","SS1619739756194","trial","","40","500","24865.569999994477","images/stimuli/spore_stims/simple_17_A_b.gif","images/stimuli/spore_stims/simple_12_A_a.gif","forced_short","","1","simple_dissimilar","images/stimuli/spore_stims/simple_12_A_a.gif","","","","",""
"","10831.254999997327","survey-multi-choice","28","283128","0.0-12.0","SS1619739756194","math_question","","","","","","","","","","","","{""Q0"":""12""}","[0]","12","",""
"","null","html-keyboard-response","29","283965","0.0-13.0-0.0","SS1619739756194","","","null","","","","","","<p><img src= images/blank.png width =""600"" height = ""600"" style=""position:fixed;top:50%; left:50%; transform: translate(-50%, -50%); border:5px solid black"">","","","","","","","",""
"","23192.19499999599","sequential-stimulus-presentation-old","30","307661","0.0-13.0-1.0","SS1619739756194","trial","","40","500","23692.19499999599","images/stimuli/spore_stims/simple_20_A_b.gif","images/stimuli/spore_stims/simple_07_A_a.gif","self_paced","","2","simple_dissimilar","images/stimuli/spore_stims/simple_07_A_a.gif","","","","",""
"","null","html-keyboard-response","31","308860","0.0-13.0-0.1","SS1619739756194","","","null","","","","","","<p><img src= images/blank.png width =""600"" height = ""600"" style=""position:fixed;top:50%; left:50%; transform: translate(-50%, -50%); border:5px solid black"">","","","","","","","",""
"","23273.339999999735","sequential-stimulus-presentation-old","32","332636","0.0-13.0-1.1","SS1619739756194","trial","","40","500","23773.339999999735","images/stimuli/spore_stims/simple_20_A_b.gif","images/stimuli/spore_stims/simple_07_A_a.gif","self_paced","","2","simple_dissimilar","images/stimuli/spore_stims/simple_07_A_a.gif","","","","",""
"","null","html-keyboard-response","33","333825","0.0-13.0-0.2","SS1619739756194","","","null","","","","","","<p><img src= images/blank.png width =""600"" height = ""600"" style=""position:fixed;top:50%; left:50%; transform: translate(-50%, -50%); border:5px solid black"">","","","","","","","",""
"","1951.4900000067428","sequential-stimulus-presentation-old","34","336280","0.0-13.0-1.2","SS1619739756194","trial","","40","500","2451.490000006743","images/stimuli/spore_stims/simple_20_A_b.gif","images/stimuli/spore_stims/simple_07_A_a.gif","self_paced","","2","simple_dissimilar","images/stimuli/spore_stims/simple_07_A_a.gif","","","","",""
"","null","html-keyboard-response","35","337419","0.0-13.0-0.3","SS1619739756194","","","null","","","","","","<p><img src= images/blank.png width =""600"" height = ""600"" style=""position:fixed;top:50%; left:50%; transform: translate(-50%, -50%); border:5px solid black"">","","","","","","","",""
"","12435.619999989285","sequential-stimulus-presentation-old","36","350359","0.0-13.0-1.3","SS1619739756194","trial","","40","500","12935.619999989285","images/stimuli/spore_stims/simple_20_A_b.gif","images/stimuli/spore_stims/simple_07_A_a.gif","self_paced","","2","simple_dissimilar","images/stimuli/spore_stims/simple_07_A_a.gif","","","","",""
"","4664.54500000691","survey-multi-choice","37","355025","0.0-14.0","SS1619739756194","math_question","","","","","","","","","","","","{""Q0"":""10""}","[0]","10","",""
"","null","html-keyboard-response","38","356219","0.0-15.0-0.0","SS1619739756194","","","null","","","","","","<p><img src= images/blank.png width =""600"" height = ""600"" style=""position:fixed;top:50%; left:50%; transform: translate(-50%, -50%); border:5px solid black"">","","","","","","","",""
"","2092.4749999976484","sequential-stimulus-presentation-old","39","358815","0.0-15.0-1.0","SS1619739756194","trial","","40","500","2592.4749999976484","images/stimuli/spore_stims/simple_11_A_a.gif","images/stimuli/spore_stims/simple_03_A_b.gif","forced_short","","3","simple_dissimilar","images/stimuli/spore_stims/simple_03_A_b.gif","","","","",""
"","null","html-keyboard-response","40","359837","0.0-15.0-0.1","SS1619739756194","","","null","","","","","","<p><img src= images/blank.png width =""600"" height = ""600"" style=""position:fixed;top:50%; left:50%; transform: translate(-50%, -50%); border:5px solid black"">","","","","","","","",""
"","23622.550000000047","sequential-stimulus-presentation-old","41","383962","0.0-15.0-1.1","SS1619739756194","trial","","40","500","24122.550000000047","images/stimuli/spore_stims/simple_11_A_a.gif","images/stimuli/spore_stims/simple_03_A_b.gif","forced_short","","3","simple_dissimilar","images/stimuli/spore_stims/simple_03_A_b.gif","","","","",""
"","null","html-keyboard-response","42","384985","0.0-15.0-0.2","SS1619739756194","","","null","","","","","","<p><img src= images/blank.png width =""600"" height = ""600"" style=""position:fixed;top:50%; left:50%; transform: translate(-50%, -50%); border:5px solid black"">","","","","","","","",""
"","8973.145000010845","sequential-stimulus-presentation-old","43","394463","0.0-15.0-1.2","SS1619739756194","trial","","40","500","9473.145000010845","images/stimuli/spore_stims/simple_11_A_a.gif","images/stimuli/spore_stims/simple_03_A_b.gif","forced_short","","3","simple_dissimilar","images/stimuli/spore_stims/simple_03_A_b.gif","","","","",""
"","null","html-keyboard-response","44","395634","0.0-15.0-0.3","SS1619739756194","","","null","","","","","","<p><img src= images/blank.png width =""600"" height = ""600"" style=""position:fixed;top:50%; left:50%; transform: translate(-50%, -50%); border:5px solid black"">","","","","","","","",""
"","9132.669999991776","sequential-stimulus-presentation-old","45","405271","0.0-15.0-1.3","SS1619739756194","trial","","40","500","9632.669999991776","images/stimuli/spore_stims/simple_11_A_a.gif","images/stimuli/spore_stims/simple_03_A_b.gif","forced_short","","3","simple_dissimilar","images/stimuli/spore_stims/simple_11_A_a.gif","","","","",""
"","null","html-keyboard-response","46","406395","0.0-15.0-0.4","SS1619739756194","","","null","","","","","","<p><img src= images/blank.png width =""600"" height = ""600"" style=""position:fixed;top:50%; left:50%; transform: translate(-50%, -50%); border:5px solid black"">","","","","","","","",""
"","11766.250000000582","sequential-stimulus-presentation-old","47","418665","0.0-15.0-1.4","SS1619739756194","trial","","40","500","12266.250000000582","images/stimuli/spore_stims/simple_11_A_a.gif","images/stimuli/spore_stims/simple_03_A_b.gif","forced_short","","3","simple_dissimilar","images/stimuli/spore_stims/simple_03_A_b.gif","","","","",""
"","null","html-keyboard-response","48","419491","0.0-15.0-0.5","SS1619739756194","","","null","","","","","","<p><img src= images/blank.png width =""600"" height = ""600"" style=""position:fixed;top:50%; left:50%; transform: translate(-50%, -50%); border:5px solid black"">","","","","","","","",""
"","12668.325000006007","sequential-stimulus-presentation-old","49","432663","0.0-15.0-1.5","SS1619739756194","trial","","40","500","13168.325000006007","images/stimuli/spore_stims/simple_11_A_a.gif","images/stimuli/spore_stims/simple_03_A_b.gif","forced_short","","3","simple_dissimilar","images/stimuli/spore_stims/simple_11_A_a.gif","","","","",""
"","10280.020000005607","survey-multi-choice","50","442944","0.0-16.0","SS1619739756194","math_question","","","","","","","","","","","","{""Q0"":""15""}","[0]","15","",""
"","null","html-keyboard-response","51","444128","0.0-17.0-0.0","SS1619739756194","","","null","","","","","","<p><img src= images/blank.png width =""600"" height = ""600"" style=""position:fixed;top:50%; left:50%; transform: translate(-50%, -50%); border:5px solid black"">","","","","","","","",""
"","2095.885000002454","sequential-stimulus-presentation-old","52","461228","0.0-17.0-1.0","SS1619739756194","trial","","40","500","2595.885000002454","images/stimuli/spore_stims/complex_20_A_a.gif","images/stimuli/spore_stims/complex_07_A_b.gif","forced_long","","4","complex_dissimilar","images/stimuli/spore_stims/complex_07_A_b.gif","","","","",""
"","null","html-keyboard-response","53","462169","0.0-17.0-0.1","SS1619739756194","","","null","","","","","","<p><img src= images/blank.png width =""600"" height = ""600"" style=""position:fixed;top:50%; left:50%; transform: translate(-50%, -50%); border:5px solid black"">","","","","","","","",""
"","23256.025000009686","sequential-stimulus-presentation-old","54","485929","0.0-17.0-1.1","SS1619739756194","trial","","40","500","23756.025000009686","images/stimuli/spore_stims/complex_20_A_a.gif","images/stimuli/spore_stims/complex_07_A_b.gif","forced_long","","4","complex_dissimilar","images/stimuli/spore_stims/complex_07_A_b.gif","","","","",""
"","null","html-keyboard-response","55","486890","0.0-17.0-0.2","SS1619739756194","","","null","","","","","","<p><img src= images/blank.png width =""600"" height = ""600"" style=""position:fixed;top:50%; left:50%; transform: translate(-50%, -50%); border:5px solid black"">","","","","","","","",""
"","24036.395000002813","sequential-stimulus-presentation-old","56","511431","0.0-17.0-1.2","SS1619739756194","trial","","40","500","24536.395000002813","images/stimuli/spore_stims/complex_20_A_a.gif","images/stimuli/spore_stims/complex_07_A_b.gif","forced_long","","4","complex_dissimilar","images/stimuli/spore_stims/complex_20_A_a.gif","","","","",""
"","null","html-keyboard-response","57","512512","0.0-17.0-0.3","SS1619739756194","","","null","","","","","","<p><img src= images/blank.png width =""600"" height = ""600"" style=""position:fixed;top:50%; left:50%; transform: translate(-50%, -50%); border:5px solid black"">","","","","","","","",""
"","11087.169999998878","sequential-stimulus-presentation-old","58","524103","0.0-17.0-1.3","SS1619739756194","trial","","40","500","11587.169999998878","images/stimuli/spore_stims/complex_20_A_a.gif","images/stimuli/spore_stims/complex_07_A_b.gif","forced_long","","4","complex_dissimilar","images/stimuli/spore_stims/complex_07_A_b.gif","","","","",""
"","null","html-keyboard-response","59","525405","0.0-17.0-0.4","SS1619739756194","","","null","","","","","","<p><img src= images/blank.png width =""600"" height = ""600"" style=""position:fixed;top:50%; left:50%; transform: translate(-50%, -50%); border:5px solid black"">","","","","","","","",""
"","10141.545000005863","sequential-stimulus-presentation-old","60","536050","0.0-17.0-1.4","SS1619739756194","trial","","40","500","10641.545000005863","images/stimuli/spore_stims/complex_20_A_a.gif","images/stimuli/spore_stims/complex_07_A_b.gif","forced_long","","4","complex_dissimilar","images/stimuli/spore_stims/complex_07_A_b.gif","","","","",""
"","null","html-keyboard-response","61","536895","0.0-17.0-0.5","SS1619739756194","","","null","","","","","","<p><img src= images/blank.png width =""600"" height = ""600"" style=""position:fixed;top:50%; left:50%; transform: translate(-50%, -50%); border:5px solid black"">","","","","","","","",""
"","11913.909999988391","sequential-stimulus-presentation-old","62","549312","0.0-17.0-1.5","SS1619739756194","trial","","40","500","12413.909999988391","images/stimuli/spore_stims/complex_20_A_a.gif","images/stimuli/spore_stims/complex_07_A_b.gif","forced_long","","4","complex_dissimilar","images/stimuli/spore_stims/complex_20_A_a.gif","","","","",""
"","4494.330000001355","survey-multi-choice","63","553808","0.0-18.0","SS1619739756194","math_question","","","","","","","","","","","","{""Q0"":""10""}","[0]","10","",""
"","null","html-keyboard-response","64","554636","0.0-19.0-0.0","SS1619739756194","","","null","","","","","","<p><img src= images/blank.png width =""600"" height = ""600"" style=""position:fixed;top:50%; left:50%; transform: translate(-50%, -50%); border:5px solid black"">","","","","","","","",""
"","5793.344999998226","sequential-stimulus-presentation-old","65","575433","0.0-19.0-1.0","SS1619739756194","trial","","40","500","6293.344999998226","images/stimuli/spore_stims/simple_15_A_a.gif","images/stimuli/spore_stims/simple_01_A_b.gif","forced_long","","5","simple_dissimilar","images/stimuli/spore_stims/simple_01_A_b.gif","","","","",""
"","null","html-keyboard-response","66","576333","0.0-19.0-0.1","SS1619739756194","","","null","","","","","","<p><img src= images/blank.png width =""600"" height = ""600"" style=""position:fixed;top:50%; left:50%; transform: translate(-50%, -50%); border:5px solid black"">","","","","","","","",""
"","11447.769999998854","sequential-stimulus-presentation-old","67","588284","0.0-19.0-1.1","SS1619739756194","trial","","40","500","11947.769999998854","images/stimuli/spore_stims/simple_15_A_a.gif","images/stimuli/spore_stims/simple_01_A_b.gif","forced_long","","5","simple_dissimilar","images/stimuli/spore_stims/simple_01_A_b.gif","","","","",""
"","null","html-keyboard-response","68","589460","0.0-19.0-0.2","SS1619739756194","","","null","","","","","","<p><img src= images/blank.png width =""600"" height = ""600"" style=""position:fixed;top:50%; left:50%; transform: translate(-50%, -50%); border:5px solid black"">","","","","","","","",""
"","10939.514999990934","sequential-stimulus-presentation-old","69","600904","0.0-19.0-1.2","SS1619739756194","trial","","40","500","11439.514999990934","images/stimuli/spore_stims/simple_15_A_a.gif","images/stimuli/spore_stims/simple_01_A_b.gif","forced_long","","5","simple_dissimilar","images/stimuli/spore_stims/simple_01_A_b.gif","","","","",""
"","null","html-keyboard-response","70","601867","0.0-19.0-0.3","SS1619739756194","","","null","","","","","","<p><img src= images/blank.png width =""600"" height = ""600"" style=""position:fixed;top:50%; left:50%; transform: translate(-50%, -50%); border:5px solid black"">","","","","","","","",""
"","11148.78500001214","sequential-stimulus-presentation-old","71","613519","0.0-19.0-1.3","SS1619739756194","trial","","40","500","11648.78500001214","images/stimuli/spore_stims/simple_15_A_a.gif","images/stimuli/spore_stims/simple_01_A_b.gif","forced_long","","5","simple_dissimilar","images/stimuli/spore_stims/simple_01_A_b.gif","","","","",""
"","null","html-keyboard-response","72","614566","0.0-19.0-0.4","SS1619739756194","","","null","","","","","","<p><img src= images/blank.png width =""600"" height = ""600"" style=""position:fixed;top:50%; left:50%; transform: translate(-50%, -50%); border:5px solid black"">","","","","","","","",""
"","11357.159999999567","sequential-stimulus-presentation-old","73","626426","0.0-19.0-1.4","SS1619739756194","trial","","40","500","11857.159999999567","images/stimuli/spore_stims/simple_15_A_a.gif","images/stimuli/spore_stims/simple_01_A_b.gif","forced_long","","5","simple_dissimilar","images/stimuli/spore_stims/simple_01_A_b.gif","","","","",""
"","5114.7300000011455","survey-multi-choice","74","631543","0.0-20.0","SS1619739756194","math_question","","","","","","","","","","","","{""Q0"":""9""}","[0]","9","",""
"","null","html-keyboard-response","75","632514","0.0-21.0-0.0","SS1619739756194","","","null","","","","","","<p><img src= images/blank.png width =""600"" height = ""600"" style=""position:fixed;top:50%; left:50%; transform: translate(-50%, -50%); border:5px solid black"">","","","","","","","",""
"","2196.5349999954924","sequential-stimulus-presentation-old","76","635214","0.0-21.0-1.0","SS1619739756194","trial","","40","500","2696.5349999954924","images/stimuli/spore_stims/complex_05_A_a.gif","images/stimuli/spore_stims/complex_10_A_b.gif","forced_short","","6","complex_dissimilar","images/stimuli/spore_stims/complex_10_A_b.gif","","","","",""
"","null","html-keyboard-response","77","636283","0.0-21.0-0.1","SS1619739756194","","","null","","","","","","<p><img src= images/blank.png width =""600"" height = ""600"" style=""position:fixed;top:50%; left:50%; transform: translate(-50%, -50%); border:5px solid black"">","","","","","","","",""
"","11508.659999992233","sequential-stimulus-presentation-old","78","648296","0.0-21.0-1.1","SS1619739756194","trial","","40","500","12008.659999992233","images/stimuli/spore_stims/complex_05_A_a.gif","images/stimuli/spore_stims/complex_10_A_b.gif","forced_short","","6","complex_dissimilar","images/stimuli/spore_stims/complex_10_A_b.gif","","","","",""
"","null","html-keyboard-response","79","649534","0.0-21.0-0.2","SS1619739756194","","","null","","","","","","<p><img src= images/blank.png width =""600"" height = ""600"" style=""position:fixed;top:50%; left:50%; transform: translate(-50%, -50%); border:5px solid black"">","","","","","","","",""
"","12213.965000002645","sequential-stimulus-presentation-old","80","662251","0.0-21.0-1.2","SS1619739756194","trial","","40","500","12713.965000002645","images/stimuli/spore_stims/complex_05_A_a.gif","images/stimuli/spore_stims/complex_10_A_b.gif","forced_short","","6","complex_dissimilar","images/stimuli/spore_stims/complex_10_A_b.gif","","","","",""
"","null","html-keyboard-response","81","663149","0.0-21.0-0.3","SS1619739756194","","","null","","","","","","<p><img src= images/blank.png width =""600"" height = ""600"" style=""position:fixed;top:50%; left:50%; transform: translate(-50%, -50%); border:5px solid black"">","","","","","","","",""
"","11336.429999995744","sequential-stimulus-presentation-old","82","674990","0.0-21.0-1.3","SS1619739756194","trial","","40","500","11836.429999995744","images/stimuli/spore_stims/complex_05_A_a.gif","images/stimuli/spore_stims/complex_10_A_b.gif","forced_short","","6","complex_dissimilar","images/stimuli/spore_stims/complex_05_A_a.gif","","","","",""
"","null","html-keyboard-response","83","675814","0.0-21.0-0.4","SS1619739756194","","","null","","","","","","<p><img src= images/blank.png width =""600"" height = ""600"" style=""position:fixed;top:50%; left:50%; transform: translate(-50%, -50%); border:5px solid black"">","","","","","","","",""
"","11353.264999997918","sequential-stimulus-presentation-old","84","687672","0.0-21.0-1.4","SS1619739756194","trial","","40","500","11853.264999997918","images/stimuli/spore_stims/complex_05_A_a.gif","images/stimuli/spore_stims/complex_10_A_b.gif","forced_short","","6","complex_dissimilar","images/stimuli/spore_stims/complex_05_A_a.gif","","","","",""
"","4613.844999999856","survey-multi-choice","85","692287","0.0-22.0","SS1619739756194","math_question","","","","","","","","","","","","{""Q0"":""10""}","[0]","10","",""
"","null","html-keyboard-response","86","693436","0.0-23.0-0.0","SS1619739756194","","","null","","","","","","<p><img src= images/blank.png width =""600"" height = ""600"" style=""position:fixed;top:50%; left:50%; transform: translate(-50%, -50%); border:5px solid black"">","","","","","","","",""
"","11252.565000002505","sequential-stimulus-presentation-old","87","705193","0.0-23.0-1.0","SS1619739756194","trial","","40","500","11752.565000002505","images/stimuli/spore_stims/complex_09_A_b.gif","images/stimuli/spore_stims/complex_11_A_a.gif","self_paced","","7","complex_dissimilar","images/stimuli/spore_stims/complex_11_A_a.gif","","","","",""
"","null","html-keyboard-response","88","706451","0.0-23.0-0.1","SS1619739756194","","","null","","","","","","<p><img src= images/blank.png width =""600"" height = ""600"" style=""position:fixed;top:50%; left:50%; transform: translate(-50%, -50%); border:5px solid black"">","","","","","","","",""
"","10988.3850000042","sequential-stimulus-presentation-old","89","717943","0.0-23.0-1.1","SS1619739756194","trial","","40","500","11488.3850000042","images/stimuli/spore_stims/complex_09_A_b.gif","images/stimuli/spore_stims/complex_11_A_a.gif","self_paced","","7","complex_dissimilar","images/stimuli/spore_stims/complex_11_A_a.gif","","","","",""
"","null","html-keyboard-response","90","718939","0.0-23.0-0.2","SS1619739756194","","","null","","","","","","<p><img src= images/blank.png width =""600"" height = ""600"" style=""position:fixed;top:50%; left:50%; transform: translate(-50%, -50%); border:5px solid black"">","","","","","","","",""
"","11002.74999999965","sequential-stimulus-presentation-old","91","730446","0.0-23.0-1.2","SS1619739756194","trial","","40","500","11502.74999999965","images/stimuli/spore_stims/complex_09_A_b.gif","images/stimuli/spore_stims/complex_11_A_a.gif","self_paced","","7","complex_dissimilar","images/stimuli/spore_stims/complex_11_A_a.gif","","","","",""
"","null","html-keyboard-response","92","731336","0.0-23.0-0.3","SS1619739756194","","","null","","","","","","<p><img src= images/blank.png width =""600"" height = ""600"" style=""position:fixed;top:50%; left:50%; transform: translate(-50%, -50%); border:5px solid black"">","","","","","","","",""
"","10304.080000001704","sequential-stimulus-presentation-old","93","742144","0.0-23.0-1.3","SS1619739756194","trial","","40","500","10804.080000001704","images/stimuli/spore_stims/complex_09_A_b.gif","images/stimuli/spore_stims/complex_11_A_a.gif","self_paced","","7","complex_dissimilar","images/stimuli/spore_stims/complex_11_A_a.gif","","","","",""
"","3285.5949999939185","survey-multi-choice","94","745432","0.0-24.0","SS1619739756194","math_question","","","","","","","","","","","","{""Q0"":""5""}","[0]","5","",""
"","null","html-keyboard-response","95","746554","0.0-25.0-0.0","SS1619739756194","","","null","","","","","","<p><img src= images/blank.png width =""600"" height = ""600"" style=""position:fixed;top:50%; left:50%; transform: translate(-50%, -50%); border:5px solid black"">","","","","","","","",""
"","13337.599999998929","sequential-stimulus-presentation-old","96","760397","0.0-25.0-1.0","SS1619739756194","trial","","40","500","13837.599999998929","images/stimuli/spore_stims/simple_02_A_a.gif","images/stimuli/spore_stims/simple_11_A_b.gif","self_paced","","8","simple_dissimilar","images/stimuli/spore_stims/simple_11_A_b.gif","","","","",""
"","null","html-keyboard-response","97","761380","0.0-25.0-0.1","SS1619739756194","","","null","","","","","","<p><img src= images/blank.png width =""600"" height = ""600"" style=""position:fixed;top:50%; left:50%; transform: translate(-50%, -50%); border:5px solid black"">","","","","","","","",""
"","8289.315000001807","sequential-stimulus-presentation-old","98","770173","0.0-25.0-1.1","SS1619739756194","trial","","40","500","8789.315000001807","images/stimuli/spore_stims/simple_02_A_a.gif","images/stimuli/spore_stims/simple_11_A_b.gif","self_paced","","8","simple_dissimilar","images/stimuli/spore_stims/simple_11_A_b.gif","","","","",""
"","null","html-keyboard-response","99","771423","0.0-25.0-0.2","SS1619739756194","","","null","","","","","","<p><img src= images/blank.png width =""600"" height = ""600"" style=""position:fixed;top:50%; left:50%; transform: translate(-50%, -50%); border:5px solid black"">","","","","","","","",""
"","10734.974999999395","sequential-stimulus-presentation-old","100","782663","0.0-25.0-1.2","SS1619739756194","trial","","40","500","11234.974999999395","images/stimuli/spore_stims/simple_02_A_a.gif","images/stimuli/spore_stims/simple_11_A_b.gif","self_paced","","8","simple_dissimilar","images/stimuli/spore_stims/simple_11_A_b.gif","","","","",""
"","null","html-keyboard-response","101","783938","0.0-25.0-0.3","SS1619739756194","","","null","","","","","","<p><img src= images/blank.png width =""600"" height = ""600"" style=""position:fixed;top:50%; left:50%; transform: translate(-50%, -50%); border:5px solid black"">","","","","","","","",""
"","10490.87999999756","sequential-stimulus-presentation-old","102","794933","0.0-25.0-1.3","SS1619739756194","trial","","40","500","10990.87999999756","images/stimuli/spore_stims/simple_02_A_a.gif","images/stimuli/spore_stims/simple_11_A_b.gif","self_paced","","8","simple_dissimilar","images/stimuli/spore_stims/simple_02_A_a.gif","","","","",""
"","null","html-keyboard-response","103","795936","0.0-25.0-0.4","SS1619739756194","","","null","","","","","","<p><img src= images/blank.png width =""600"" height = ""600"" style=""position:fixed;top:50%; left:50%; transform: translate(-50%, -50%); border:5px solid black"">","","","","","","","",""
"","9415.580000000773","sequential-stimulus-presentation-old","104","805857","0.0-25.0-1.4","SS1619739756194","trial","","40","500","9915.580000000773","images/stimuli/spore_stims/simple_02_A_a.gif","images/stimuli/spore_stims/simple_11_A_b.gif","self_paced","","8","simple_dissimilar","images/stimuli/spore_stims/simple_02_A_a.gif","","","","",""
"","10292.424999992363","survey-multi-choice","105","816151","0.0-26.0","SS1619739756194","math_question","","","","","","","","","","","","{""Q0"":""15""}","[0]","15","",""
"","null","html-keyboard-response","106","816996","0.0-27.0-0.0","SS1619739756194","","","null","","","","","","<p><img src= images/blank.png width =""600"" height = ""600"" style=""position:fixed;top:50%; left:50%; transform: translate(-50%, -50%); border:5px solid black"">","","","","","","","",""
"","1983.7750000006054","sequential-stimulus-presentation-old","107","819485","0.0-27.0-1.0","SS1619739756194","trial","","40","500","2483.7750000006054","images/stimuli/spore_stims/complex_06_A_a.gif","images/stimuli/spore_stims/complex_12_A_b.gif","forced_short","","9","complex_dissimilar","images/stimuli/spore_stims/complex_12_A_b.gif","","","","",""
"","null","html-keyboard-response","108","820509","0.0-27.0-0.1","SS1619739756194","","","null","","","","","","<p><img src= images/blank.png width =""600"" height = ""600"" style=""position:fixed;top:50%; left:50%; transform: translate(-50%, -50%); border:5px solid black"">","","","","","","","",""
"","11526.335000002291","sequential-stimulus-presentation-old","109","832539","0.0-27.0-1.1","SS1619739756194","trial","","40","500","12026.335000002291","images/stimuli/spore_stims/complex_06_A_a.gif","images/stimuli/spore_stims/complex_12_A_b.gif","forced_short","","9","complex_dissimilar","images/stimuli/spore_stims/complex_12_A_b.gif","","","","",""
"","null","html-keyboard-response","110","833796","0.0-27.0-0.2","SS1619739756194","","","null","","","","","","<p><img src= images/blank.png width =""600"" height = ""600"" style=""position:fixed;top:50%; left:50%; transform: translate(-50%, -50%); border:5px solid black"">","","","","","","","",""
"","10767.060000012862","sequential-stimulus-presentation-old","111","845067","0.0-27.0-1.2","SS1619739756194","trial","","40","500","11267.060000012862","images/stimuli/spore_stims/complex_06_A_a.gif","images/stimuli/spore_stims/complex_12_A_b.gif","forced_short","","9","complex_dissimilar","images/stimuli/spore_stims/complex_12_A_b.gif","","","","",""
"","null","html-keyboard-response","112","845952","0.0-27.0-0.3","SS1619739756194","","","null","","","","","","<p><img src= images/blank.png width =""600"" height = ""600"" style=""position:fixed;top:50%; left:50%; transform: translate(-50%, -50%); border:5px solid black"">","","","","","","","",""
"","15640.159999995376","sequential-stimulus-presentation-old","113","862096","0.0-27.0-1.3","SS1619739756194","trial","","40","500","16140.159999995376","images/stimuli/spore_stims/complex_06_A_a.gif","images/stimuli/spore_stims/complex_12_A_b.gif","forced_short","","9","complex_dissimilar","images/stimuli/spore_stims/complex_12_A_b.gif","","","","",""
"","4669.989999994868","survey-multi-choice","114","866769","0.0-28.0","SS1619739756194","math_question","","","","","","","","","","","","{""Q0"":""9""}","[0]","9","",""
"","null","html-keyboard-response","115","867657","0.0-29.0-0.0","SS1619739756194","","","null","","","","","","<p><img src= images/blank.png width =""600"" height = ""600"" style=""position:fixed;top:50%; left:50%; transform: translate(-50%, -50%); border:5px solid black"">","","","","","","","",""
"","14505.730000004405","sequential-stimulus-presentation-old","116","882666","0.0-29.0-1.0","SS1619739756194","trial","","40","500","15005.730000004405","images/stimuli/spore_stims/complex_12_A_a.gif","images/stimuli/spore_stims/complex_04_A_b.gif","self_paced","","10","complex_dissimilar","images/stimuli/spore_stims/complex_04_A_b.gif","","","","",""
"","null","html-keyboard-response","117","883936","0.0-29.0-0.1","SS1619739756194","","","null","","","","","","<p><img src= images/blank.png width =""600"" height = ""600"" style=""position:fixed;top:50%; left:50%; transform: translate(-50%, -50%); border:5px solid black"">","","","","","","","",""
"","10453.209999992396","sequential-stimulus-presentation-old","118","894894","0.0-29.0-1.1","SS1619739756194","trial","","40","500","10953.209999992396","images/stimuli/spore_stims/complex_12_A_a.gif","images/stimuli/spore_stims/complex_04_A_b.gif","self_paced","","10","complex_dissimilar","images/stimuli/spore_stims/complex_04_A_b.gif","","","","",""
"","null","html-keyboard-response","119","895750","0.0-29.0-0.2","SS1619739756194","","","null","","","","","","<p><img src= images/blank.png width =""600"" height = ""600"" style=""position:fixed;top:50%; left:50%; transform: translate(-50%, -50%); border:5px solid black"">","","","","","","","",""
"","11271.254999999655","sequential-stimulus-presentation-old","120","907526","0.0-29.0-1.2","SS1619739756194","trial","","40","500","11771.254999999655","images/stimuli/spore_stims/complex_12_A_a.gif","images/stimuli/spore_stims/complex_04_A_b.gif","self_paced","","10","complex_dissimilar","images/stimuli/spore_stims/complex_04_A_b.gif","","","","",""
"","null","html-keyboard-response","121","908618","0.0-29.0-0.3","SS1619739756194","","","null","","","","","","<p><img src= images/blank.png width =""600"" height = ""600"" style=""position:fixed;top:50%; left:50%; transform: translate(-50%, -50%); border:5px solid black"">","","","","","","","",""
"","11297.200000000885","sequential-stimulus-presentation-old","122","920420","0.0-29.0-1.3","SS1619739756194","trial","","40","500","11797.200000000885","images/stimuli/spore_stims/complex_12_A_a.gif","images/stimuli/spore_stims/complex_04_A_b.gif","self_paced","","10","complex_dissimilar","images/stimuli/spore_stims/complex_04_A_b.gif","","","","",""
"","2960.7249999971827","survey-multi-choice","123","923383","0.0-30.0","SS1619739756194","math_question","","","","","","","","","","","","{""Q0"":""9""}","[0]","9","",""
"","null","html-keyboard-response","124","924665","0.0-31.0-0.0","SS1619739756194","","","null","","","","","","<p><img src= images/blank.png width =""600"" height = ""600"" style=""position:fixed;top:50%; left:50%; transform: translate(-50%, -50%); border:5px solid black"">","","","","","","","",""
"","6329.190000004019","sequential-stimulus-presentation-old","125","945999","0.0-31.0-1.0","SS1619739756194","trial","","40","500","6829.190000004019","images/stimuli/spore_stims/simple_08_A_a.gif","images/stimuli/spore_stims/simple_13_A_b.gif","forced_long","","11","simple_dissimilar","images/stimuli/spore_stims/simple_13_A_b.gif","","","","",""
"","null","html-keyboard-response","126","947223","0.0-31.0-0.1","SS1619739756194","","","null","","","","","","<p><img src= images/blank.png width =""600"" height = ""600"" style=""position:fixed;top:50%; left:50%; transform: translate(-50%, -50%); border:5px solid black"">","","","","","","","",""
"","10656.600000002072","sequential-stimulus-presentation-old","127","958383","0.0-31.0-1.1","SS1619739756194","trial","","40","500","11156.600000002072","images/stimuli/spore_stims/simple_08_A_a.gif","images/stimuli/spore_stims/simple_13_A_b.gif","forced_long","","11","simple_dissimilar","images/stimuli/spore_stims/simple_13_A_b.gif","","","","",""
"","null","html-keyboard-response","128","959324","0.0-31.0-0.2","SS1619739756194","","","null","","","","","","<p><img src= images/blank.png width =""600"" height = ""600"" style=""position:fixed;top:50%; left:50%; transform: translate(-50%, -50%); border:5px solid black"">","","","","","","","",""
"","11212.129999999888","sequential-stimulus-presentation-old","129","971041","0.0-31.0-1.2","SS1619739756194","trial","","40","500","11712.129999999888","images/stimuli/spore_stims/simple_08_A_a.gif","images/stimuli/spore_stims/simple_13_A_b.gif","forced_long","","11","simple_dissimilar","images/stimuli/spore_stims/simple_13_A_b.gif","","","","",""
"","null","html-keyboard-response","130","972159","0.0-31.0-0.3","SS1619739756194","","","null","","","","","","<p><img src= images/blank.png width =""600"" height = ""600"" style=""position:fixed;top:50%; left:50%; transform: translate(-50%, -50%); border:5px solid black"">","","","","","","","",""
"","11373.995000001742","sequential-stimulus-presentation-old","131","984038","0.0-31.0-1.3","SS1619739756194","trial","","40","500","11873.995000001742","images/stimuli/spore_stims/simple_08_A_a.gif","images/stimuli/spore_stims/simple_13_A_b.gif","forced_long","","11","simple_dissimilar","images/stimuli/spore_stims/simple_13_A_b.gif","","","","",""
"","null","html-keyboard-response","132","985178","0.0-31.0-0.4","SS1619739756194","","","null","","","","","","<p><img src= images/blank.png width =""600"" height = ""600"" style=""position:fixed;top:50%; left:50%; transform: translate(-50%, -50%); border:5px solid black"">","","","","","","","",""
"","10344.18500000902","sequential-stimulus-presentation-old","133","996027","0.0-31.0-1.4","SS1619739756194","trial","","40","500","10844.18500000902","images/stimuli/spore_stims/simple_08_A_a.gif","images/stimuli/spore_stims/simple_13_A_b.gif","forced_long","","11","simple_dissimilar","images/stimuli/spore_stims/simple_13_A_b.gif","","","","",""
"[{""page_index"":0,""viewing_time"":4761.624999999185}]","4761.864999993122","instructions","134","1000791","0.0-32.0","SS1619739756194","instructions","","","","","","","","","","","","","","","",""
"","6284.669999993639","survey-likert","135","1007080","0.0-33.0","SS1619739756194","similarity_question","","","","","","","","","","","","{""Q0"":0}","[0]","","images/stimuli/spore_stims/simple_07_A_a.gif","images/stimuli/spore_stims/simple_20_A_b.gif"
"","5364.809999999125","survey-likert","136","1012448","0.0-34.0","SS1619739756194","similarity_question","","","","","","","","","","","","{""Q0"":2}","[0]","","images/stimuli/spore_stims/simple_02_A_a.gif","images/stimuli/spore_stims/simple_11_A_b.gif"
"","8251.514999996289","survey-likert","137","1020703","0.0-35.0","SS1619739756194","similarity_question","","","","","","","","","","","","{""Q0"":2}","[0]","","images/stimuli/spore_stims/complex_11_A_a.gif","images/stimuli/spore_stims/complex_09_A_b.gif"
"","6668.585000006715","survey-likert","138","1027375","0.0-36.0","SS1619739756194","similarity_question","","","","","","","","","","","","{""Q0"":2}","[0]","","images/stimuli/spore_stims/complex_12_A_b.gif","images/stimuli/spore_stims/complex_06_A_a.gif"
"","5052.0700000051875","survey-likert","139","1032431","0.0-37.0","SS1619739756194","similarity_question","","","","","","","","","","","","{""Q0"":4}","[0]","","images/stimuli/spore_stims/complex_05_A_a.gif","images/stimuli/spore_stims/complex_10_A_b.gif"
"","4388.290000002715","survey-likert","140","1036823","0.0-38.0","SS1619739756194","similarity_question","","","","","","","","","","","","{""Q0"":5}","[0]","","images/stimuli/spore_stims/complex_20_A_a.gif","images/stimuli/spore_stims/complex_07_A_b.gif"
"","3524.9250000054017","survey-likert","141","1040351","0.0-39.0","SS1619739756194","similarity_question","","","","","","","","","","","","{""Q0"":2}","[0]","","images/stimuli/spore_stims/simple_11_A_a.gif","images/stimuli/spore_stims/simple_03_A_b.gif"
"","4804.554999995278","survey-likert","142","1045159","0.0-40.0","SS1619739756194","similarity_question","","","","","","","","","","","","{""Q0"":4}","[0]","","images/stimuli/spore_stims/simple_17_A_b.gif","images/stimuli/spore_stims/simple_12_A_a.gif"
"","3668.3899999917485","survey-likert","143","1048831","0.0-41.0","SS1619739756194","similarity_question","","","","","","","","","","","","{""Q0"":5}","[0]","","images/stimuli/spore_stims/simple_08_A_a.gif","images/stimuli/spore_stims/simple_13_A_b.gif"
"","4172.04499999946","survey-likert","144","1053008","0.0-42.0","SS1619739756194","similarity_question","","","","","","","","","","","","{""Q0"":3}","[0]","","images/stimuli/spore_stims/complex_01_A_a.gif","images/stimuli/spore_stims/complex_11_A_b.gif"
"","3866.715000011027","survey-likert","145","1056879","0.0-43.0","SS1619739756194","similarity_question","","","","","","","","","","","","{""Q0"":4}","[0]","","images/stimuli/spore_stims/complex_12_A_a.gif","images/stimuli/spore_stims/complex_04_A_b.gif"
"","3764.40499999444","survey-likert","146","1060647","0.0-44.0","SS1619739756194","similarity_question","","","","","","","","","","","","{""Q0"":5}","[0]","","images/stimuli/spore_stims/simple_01_A_b.gif","images/stimuli/spore_stims/simple_15_A_a.gif"
"[{""page_index"":0,""viewing_time"":4460.984999997774}]","4461.200000005076","instructions","147","1065111","0.0-45.0","SS1619739756194","instructions","","","","","","","","","","","","","","","",""
"","4732.960000008345","survey-likert","148","1069846","0.0-46.0","SS1619739756194","","","","","","","","","images/stimuli/spore_stims/complex_09_A_b.gif","","","","{""Q0"":5}","[0]","","",""
"","6005.080000002636","survey-likert","149","1075855","0.0-47.0","SS1619739756194","","","","","","","","","images/stimuli/spore_stims/simple_17_A_b.gif","","","","{""Q0"":0}","[0]","","",""
"","3700.06499999715","survey-likert","150","1079559","0.0-48.0","SS1619739756194","","","","","","","","","images/stimuli/spore_stims/complex_05_A_a.gif","","","","{""Q0"":5}","[0]","","",""
"","2860.1400000043213","survey-likert","151","1082423","0.0-49.0","SS1619739756194","","","","","","","","","images/stimuli/spore_stims/simple_03_A_b.gif","","","","{""Q0"":0}","[0]","","",""
"","2892.7200000034645","survey-likert","152","1085319","0.0-50.0","SS1619739756194","","","","","","","","","images/stimuli/spore_stims/complex_20_A_a.gif","","","","{""Q0"":6}","[0]","","",""
"","2028.2500000030268","survey-likert","153","1087351","0.0-51.0","SS1619739756194","","","","","","","","","images/stimuli/spore_stims/complex_12_A_b.gif","","","","{""Q0"":6}","[0]","","",""
"","2307.585000002291","survey-likert","154","1089662","0.0-52.0","SS1619739756194","","","","","","","","","images/stimuli/spore_stims/simple_08_A_a.gif","","","","{""Q0"":0}","[0]","","",""
"","3012.819999989122","survey-likert","155","1092678","0.0-53.0","SS1619739756194","","","","","","","","","images/stimuli/spore_stims/simple_07_A_a.gif","","","","{""Q0"":0}","[0]","","",""
"","2333.2850000006147","survey-likert","156","1095015","0.0-54.0","SS1619739756194","","","","","","","","","images/stimuli/spore_stims/simple_11_A_b.gif","","","","{""Q0"":0}","[0]","","",""
"","1900.6349999983795","survey-likert","157","1096920","0.0-55.0","SS1619739756194","","","","","","","","","images/stimuli/spore_stims/simple_01_A_b.gif","","","","{""Q0"":0}","[0]","","",""
"","2812.839999998687","survey-likert","158","1099736","0.0-56.0","SS1619739756194","","","","","","","","","images/stimuli/spore_stims/complex_01_A_a.gif","","","","{""Q0"":5}","[0]","","",""
"","2299.1599999950267","survey-likert","159","1102038","0.0-57.0","SS1619739756194","","","","","","","","","images/stimuli/spore_stims/complex_12_A_a.gif","","","","{""Q0"":6}","[0]","","",""
"[{""page_index"":0,""viewing_time"":2700.4000000015367}]","2700.7549999980256","instructions","160","1104743","0.0-58.0","SS1619739756194","instructions","","","","","","","","","","","","","","","",""
"","2819.6650000025984","demog-age","161","1107567","0.0-59.0","SS1619739756194","","","","","","","","","","","","","{""age"":""31""}","","","",""
"","3698.8350000029895","demog-ethnic-US","162","1111272","0.0-60.0","SS1619739756194","","","","","","","","","","","","","{""ethnicity"":[""Hispanic or Latino""]}","[0]","","",""
"","6763.684999998193","demog-gender-and-education","163","1118039","0.0-61.0","SS1619739756194","","","","","","","","","","","","","{""gender"":""Male"",""education"":""Bachelor's Degree""}","[0,1]","","",""
"","28510.529999999562","survey-text","164","1146555","0.0-62.0","SS1619739756194","feedback","","","","","","","","","","","","{""Q0"":""No issues, no lag""}","","","",""
"[{""page_index"":0,""viewing_time"":2633.029999997467}]","2633.370000010589","instructions","165","1149191","0.0-63.0","SS1619739756194","instructions","","","","","","","","","","","","","","","",""
"[{""page_index"":0,""viewing_time"":9971.734999999404}]","9971.885000006296","instructions","166","1159166","0.0-64.0","SS1619739756194","","","","","","","","","","","","","","","","",""
