"view_history","rt","trial_type","trial_index","time_elapsed","internal_node_id","subject","stimulus_type","trial_stimulus","key_press","minimum_viewing_duration","trial_looking_time","block_deviant","block_background","exposure_type","stimulus","block_number","block_type","stimulus_displayed","responses","question_order","math_correct_answer","stimulus_left","stimulus_right"
"[{""page_index"":0,""viewing_time"":10154.790000000048}]","10155.2700000002","instructions","0","10158","0.0-0.0","SS1619739624736","","","","","","","","","","","","","","","","",""
"[{""page_index"":0,""viewing_time"":10041.15499999989},{""page_index"":1,""viewing_time"":6334.014999999912}]","16375.534999999676","instructions","1","29611","0.0-1.0","SS1619739624736","instructions","","","","","","","","","","","","","","","",""
"","5124.705000000176","sequential-stimulus-presentation-old","2","35241","0.0-2.0","SS1619739624736","","","40","500","5624.705000000176","null","null","self_paced","","","","","","","","",""
"","5793.299999999814","sequential-stimulus-presentation-old","3","41536","0.0-3.0","SS1619739624736","","","40","500","6293.299999999814","null","null","self_paced","","","","","","","","",""
"[{""page_index"":0,""viewing_time"":16367.295000000013}]","16367.639999999941","instructions","4","57905","0.0-4.0","SS1619739624736","instructions","","","","","","","","","","","","","","","",""
"","1704.580000000089","sequential-stimulus-presentation-old","5","74612","0.0-5.0","SS1619739624736","","","40","500","2204.580000000089","null","null","forced_long","","","","","","","","",""
"","6601.12499999968","sequential-stimulus-presentation-old","6","81716","0.0-6.0","SS1619739624736","","","40","500","7101.12499999968","null","null","forced_long","","","","","","","","",""
"[{""page_index"":0,""viewing_time"":2909.334999999832}]","2909.7050000000454","instructions","7","84627","0.0-7.0","SS1619739624736","instructions","","","","","","","","","","","","","","","",""
"[{""page_index"":0,""viewing_time"":8517.070000000327},{""page_index"":1,""viewing_time"":12424.964999999705},{""page_index"":2,""viewing_time"":4981.244999999937},{""page_index"":3,""viewing_time"":1830.6850000003615},{""page_index"":4,""viewing_time"":1025.2499999996799}]","28779.570000000138","instructions","8","113408","0.0-8.0","SS1619739624736","instructions","","","","","","","","","","","","","","","",""
"","null","html-keyboard-response","9","114224","0.0-9.0-0.0","SS1619739624736","","","null","","","","","","<p><img src= images/blank.png width =""600"" height = ""600"" style=""position:fixed;top:50%; left:50%; transform: translate(-50%, -50%); border:5px solid black"">","","","","","","","",""
"","2714.5199999999895","sequential-stimulus-presentation-old","10","117443","0.0-9.0-1.0","SS1619739624736","trial","","40","500","3214.5199999999895","images/stimuli/spore_stims/simple_06_A_a.gif","images/stimuli/spore_stims/simple_13_A_b.gif","self_paced","","0","simple_dissimilar","images/stimuli/spore_stims/simple_13_A_b.gif","","","","",""
"","null","html-keyboard-response","11","118484","0.0-9.0-0.1","SS1619739624736","","","null","","","","","","<p><img src= images/blank.png width =""600"" height = ""600"" style=""position:fixed;top:50%; left:50%; transform: translate(-50%, -50%); border:5px solid black"">","","","","","","","",""
"","2885.8700000000827","sequential-stimulus-presentation-old","12","121873","0.0-9.0-1.1","SS1619739624736","trial","","40","500","3385.8700000000827","images/stimuli/spore_stims/simple_06_A_a.gif","images/stimuli/spore_stims/simple_13_A_b.gif","self_paced","","0","simple_dissimilar","images/stimuli/spore_stims/simple_06_A_a.gif","","","","",""
"","null","html-keyboard-response","13","123146","0.0-9.0-0.2","SS1619739624736","","","null","","","","","","<p><img src= images/blank.png width =""600"" height = ""600"" style=""position:fixed;top:50%; left:50%; transform: translate(-50%, -50%); border:5px solid black"">","","","","","","","",""
"","1548.8199999999779","sequential-stimulus-presentation-old","14","125202","0.0-9.0-1.2","SS1619739624736","trial","","40","500","2048.819999999978","images/stimuli/spore_stims/simple_06_A_a.gif","images/stimuli/spore_stims/simple_13_A_b.gif","self_paced","","0","simple_dissimilar","images/stimuli/spore_stims/simple_13_A_b.gif","","","","",""
"","null","html-keyboard-response","15","126188","0.0-9.0-0.3","SS1619739624736","","","null","","","","","","<p><img src= images/blank.png width =""600"" height = ""600"" style=""position:fixed;top:50%; left:50%; transform: translate(-50%, -50%); border:5px solid black"">","","","","","","","",""
"","3293.2450000002864","sequential-stimulus-presentation-old","16","129986","0.0-9.0-1.3","SS1619739624736","trial","","40","500","3793.2450000002864","images/stimuli/spore_stims/simple_06_A_a.gif","images/stimuli/spore_stims/simple_13_A_b.gif","self_paced","","0","simple_dissimilar","images/stimuli/spore_stims/simple_06_A_a.gif","","","","",""
"","null","html-keyboard-response","17","131203","0.0-9.0-0.4","SS1619739624736","","","null","","","","","","<p><img src= images/blank.png width =""600"" height = ""600"" style=""position:fixed;top:50%; left:50%; transform: translate(-50%, -50%); border:5px solid black"">","","","","","","","",""
"","4425.389999999868","sequential-stimulus-presentation-old","18","136133","0.0-9.0-1.4","SS1619739624736","trial","","40","500","4925.389999999868","images/stimuli/spore_stims/simple_06_A_a.gif","images/stimuli/spore_stims/simple_13_A_b.gif","self_paced","","0","simple_dissimilar","images/stimuli/spore_stims/simple_13_A_b.gif","","","","",""
"","4561.9299999998475","survey-multi-choice","19","140702","0.0-10.0","SS1619739624736","math_question","","","","","","","","","","","","{""Q0"":""5""}","[0]","5","",""
"","null","html-keyboard-response","20","141989","0.0-11.0-0.0","SS1619739624736","","","null","","","","","","<p><img src= images/blank.png width =""600"" height = ""600"" style=""position:fixed;top:50%; left:50%; transform: translate(-50%, -50%); border:5px solid black"">","","","","","","","",""
"","2766.0300000002317","sequential-stimulus-presentation-old","21","145259","0.0-11.0-1.0","SS1619739624736","trial","","40","500","3266.0300000002317","images/stimuli/spore_stims/complex_14_A_b.gif","images/stimuli/spore_stims/complex_01_A_a.gif","self_paced","","1","complex_dissimilar","images/stimuli/spore_stims/complex_01_A_a.gif","","","","",""
"","null","html-keyboard-response","22","146435","0.0-11.0-0.1","SS1619739624736","","","null","","","","","","<p><img src= images/blank.png width =""600"" height = ""600"" style=""position:fixed;top:50%; left:50%; transform: translate(-50%, -50%); border:5px solid black"">","","","","","","","",""
"","1543.3600000001315","sequential-stimulus-presentation-old","23","148483","0.0-11.0-1.1","SS1619739624736","trial","","40","500","2043.3600000001315","images/stimuli/spore_stims/complex_14_A_b.gif","images/stimuli/spore_stims/complex_01_A_a.gif","self_paced","","1","complex_dissimilar","images/stimuli/spore_stims/complex_01_A_a.gif","","","","",""
"","null","html-keyboard-response","24","149767","0.0-11.0-0.2","SS1619739624736","","","null","","","","","","<p><img src= images/blank.png width =""600"" height = ""600"" style=""position:fixed;top:50%; left:50%; transform: translate(-50%, -50%); border:5px solid black"">","","","","","","","",""
"","3943.4449999998906","sequential-stimulus-presentation-old","25","154217","0.0-11.0-1.2","SS1619739624736","trial","","40","500","4443.444999999891","images/stimuli/spore_stims/complex_14_A_b.gif","images/stimuli/spore_stims/complex_01_A_a.gif","self_paced","","1","complex_dissimilar","images/stimuli/spore_stims/complex_14_A_b.gif","","","","",""
"","null","html-keyboard-response","26","155415","0.0-11.0-0.3","SS1619739624736","","","null","","","","","","<p><img src= images/blank.png width =""600"" height = ""600"" style=""position:fixed;top:50%; left:50%; transform: translate(-50%, -50%); border:5px solid black"">","","","","","","","",""
"","829.3300000000163","sequential-stimulus-presentation-old","27","156751","0.0-11.0-1.3","SS1619739624736","trial","","40","500","1329.3300000000163","images/stimuli/spore_stims/complex_14_A_b.gif","images/stimuli/spore_stims/complex_01_A_a.gif","self_paced","","1","complex_dissimilar","images/stimuli/spore_stims/complex_01_A_a.gif","","","","",""
"","null","html-keyboard-response","28","157946","0.0-11.0-0.4","SS1619739624736","","","null","","","","","","<p><img src= images/blank.png width =""600"" height = ""600"" style=""position:fixed;top:50%; left:50%; transform: translate(-50%, -50%); border:5px solid black"">","","","","","","","",""
"","1365.530000000028","sequential-stimulus-presentation-old","29","159816","0.0-11.0-1.4","SS1619739624736","trial","","40","500","1865.530000000028","images/stimuli/spore_stims/complex_14_A_b.gif","images/stimuli/spore_stims/complex_01_A_a.gif","self_paced","","1","complex_dissimilar","images/stimuli/spore_stims/complex_01_A_a.gif","","","","",""
"","null","html-keyboard-response","30","161017","0.0-11.0-0.5","SS1619739624736","","","null","","","","","","<p><img src= images/blank.png width =""600"" height = ""600"" style=""position:fixed;top:50%; left:50%; transform: translate(-50%, -50%); border:5px solid black"">","","","","","","","",""
"","1933.3999999999069","sequential-stimulus-presentation-old","31","163455","0.0-11.0-1.5","SS1619739624736","trial","","40","500","2433.399999999907","images/stimuli/spore_stims/complex_14_A_b.gif","images/stimuli/spore_stims/complex_01_A_a.gif","self_paced","","1","complex_dissimilar","images/stimuli/spore_stims/complex_14_A_b.gif","","","","",""
"","1987.4249999997846","survey-multi-choice","32","165444","0.0-12.0","SS1619739624736","math_question","","","","","","","","","","","","{""Q0"":""7""}","[0]","7","",""
"","null","html-keyboard-response","33","166328","0.0-13.0-0.0","SS1619739624736","","","null","","","","","","<p><img src= images/blank.png width =""600"" height = ""600"" style=""position:fixed;top:50%; left:50%; transform: translate(-50%, -50%); border:5px solid black"">","","","","","","","",""
"","3118.6849999999104","sequential-stimulus-presentation-old","34","184452","0.0-13.0-1.0","SS1619739624736","trial","","40","500","3618.6849999999104","images/stimuli/spore_stims/simple_17_A_b.gif","images/stimuli/spore_stims/simple_14_A_a.gif","forced_long","","2","simple_dissimilar","images/stimuli/spore_stims/simple_14_A_a.gif","","","","",""
"","null","html-keyboard-response","35","185564","0.0-13.0-0.1","SS1619739624736","","","null","","","","","","<p><img src= images/blank.png width =""600"" height = ""600"" style=""position:fixed;top:50%; left:50%; transform: translate(-50%, -50%); border:5px solid black"">","","","","","","","",""
"","588.7349999998114","sequential-stimulus-presentation-old","36","186659","0.0-13.0-1.1","SS1619739624736","trial","","40","500","1088.7349999998114","images/stimuli/spore_stims/simple_17_A_b.gif","images/stimuli/spore_stims/simple_14_A_a.gif","forced_long","","2","simple_dissimilar","images/stimuli/spore_stims/simple_14_A_a.gif","","","","",""
"","null","html-keyboard-response","37","187498","0.0-13.0-0.2","SS1619739624736","","","null","","","","","","<p><img src= images/blank.png width =""600"" height = ""600"" style=""position:fixed;top:50%; left:50%; transform: translate(-50%, -50%); border:5px solid black"">","","","","","","","",""
"","205.97500000029686","sequential-stimulus-presentation-old","38","188208","0.0-13.0-1.2","SS1619739624736","trial","","40","500","705.9750000002969","images/stimuli/spore_stims/simple_17_A_b.gif","images/stimuli/spore_stims/simple_14_A_a.gif","forced_long","","2","simple_dissimilar","images/stimuli/spore_stims/simple_14_A_a.gif","","","","",""
"","null","html-keyboard-response","39","189448","0.0-13.0-0.3","SS1619739624736","","","null","","","","","","<p><img src= images/blank.png width =""600"" height = ""600"" style=""position:fixed;top:50%; left:50%; transform: translate(-50%, -50%); border:5px solid black"">","","","","","","","",""
"","624.4850000002771","sequential-stimulus-presentation-old","40","190577","0.0-13.0-1.3","SS1619739624736","trial","","40","500","1124.485000000277","images/stimuli/spore_stims/simple_17_A_b.gif","images/stimuli/spore_stims/simple_14_A_a.gif","forced_long","","2","simple_dissimilar","images/stimuli/spore_stims/simple_14_A_a.gif","","","","",""
"","null","html-keyboard-response","41","191562","0.0-13.0-0.4","SS1619739624736","","","null","","","","","","<p><img src= images/blank.png width =""600"" height = ""600"" style=""position:fixed;top:50%; left:50%; transform: translate(-50%, -50%); border:5px solid black"">","","","","","","","",""
"","328.33500000013737","sequential-stimulus-presentation-old","42","192395","0.0-13.0-1.4","SS1619739624736","trial","","40","500","828.3350000001374","images/stimuli/spore_stims/simple_17_A_b.gif","images/stimuli/spore_stims/simple_14_A_a.gif","forced_long","","2","simple_dissimilar","images/stimuli/spore_stims/simple_14_A_a.gif","","","","",""
"","null","html-keyboard-response","43","193512","0.0-13.0-0.5","SS1619739624736","","","null","","","","","","<p><img src= images/blank.png width =""600"" height = ""600"" style=""position:fixed;top:50%; left:50%; transform: translate(-50%, -50%); border:5px solid black"">","","","","","","","",""
"","264.37499999973807","sequential-stimulus-presentation-old","44","194281","0.0-13.0-1.5","SS1619739624736","trial","","40","500","764.3749999997381","images/stimuli/spore_stims/simple_17_A_b.gif","images/stimuli/spore_stims/simple_14_A_a.gif","forced_long","","2","simple_dissimilar","images/stimuli/spore_stims/simple_14_A_a.gif","","","","",""
"","2613.329999999667","survey-multi-choice","45","196896","0.0-14.0","SS1619739624736","math_question","","","","","","","","","","","","{""Q0"":""5""}","[0]","5","",""
"","null","html-keyboard-response","46","198197","0.0-15.0-0.0","SS1619739624736","","","null","","","","","","<p><img src= images/blank.png width =""600"" height = ""600"" style=""position:fixed;top:50%; left:50%; transform: translate(-50%, -50%); border:5px solid black"">","","","","","","","",""
"","3171.0350000002945","sequential-stimulus-presentation-old","47","201872","0.0-15.0-1.0","SS1619739624736","trial","","40","500","3671.0350000002945","images/stimuli/spore_stims/complex_08_A_b.gif","images/stimuli/spore_stims/complex_06_A_a.gif","self_paced","","3","complex_dissimilar","images/stimuli/spore_stims/complex_06_A_a.gif","","","","",""
"","null","html-keyboard-response","48","202927","0.0-15.0-0.1","SS1619739624736","","","null","","","","","","<p><img src= images/blank.png width =""600"" height = ""600"" style=""position:fixed;top:50%; left:50%; transform: translate(-50%, -50%); border:5px solid black"">","","","","","","","",""
"","449.3349999997881","sequential-stimulus-presentation-old","49","203881","0.0-15.0-1.1","SS1619739624736","trial","","40","500","949.3349999997881","images/stimuli/spore_stims/complex_08_A_b.gif","images/stimuli/spore_stims/complex_06_A_a.gif","self_paced","","3","complex_dissimilar","images/stimuli/spore_stims/complex_06_A_a.gif","","","","",""
"","null","html-keyboard-response","50","204709","0.0-15.0-0.2","SS1619739624736","","","null","","","","","","<p><img src= images/blank.png width =""600"" height = ""600"" style=""position:fixed;top:50%; left:50%; transform: translate(-50%, -50%); border:5px solid black"">","","","","","","","",""
"","162.19499999986147","sequential-stimulus-presentation-old","51","205376","0.0-15.0-1.2","SS1619739624736","trial","","40","500","662.1949999998615","images/stimuli/spore_stims/complex_08_A_b.gif","images/stimuli/spore_stims/complex_06_A_a.gif","self_paced","","3","complex_dissimilar","images/stimuli/spore_stims/complex_06_A_a.gif","","","","",""
"","null","html-keyboard-response","52","206388","0.0-15.0-0.3","SS1619739624736","","","null","","","","","","<p><img src= images/blank.png width =""600"" height = ""600"" style=""position:fixed;top:50%; left:50%; transform: translate(-50%, -50%); border:5px solid black"">","","","","","","","",""
"","2267.710000000079","sequential-stimulus-presentation-old","53","209160","0.0-15.0-1.3","SS1619739624736","trial","","40","500","2767.710000000079","images/stimuli/spore_stims/complex_08_A_b.gif","images/stimuli/spore_stims/complex_06_A_a.gif","self_paced","","3","complex_dissimilar","images/stimuli/spore_stims/complex_08_A_b.gif","","","","",""
"","null","html-keyboard-response","54","210409","0.0-15.0-0.4","SS1619739624736","","","null","","","","","","<p><img src= images/blank.png width =""600"" height = ""600"" style=""position:fixed;top:50%; left:50%; transform: translate(-50%, -50%); border:5px solid black"">","","","","","","","",""
"","2878.2099999998463","sequential-stimulus-presentation-old","55","213793","0.0-15.0-1.4","SS1619739624736","trial","","40","500","3378.2099999998463","images/stimuli/spore_stims/complex_08_A_b.gif","images/stimuli/spore_stims/complex_06_A_a.gif","self_paced","","3","complex_dissimilar","images/stimuli/spore_stims/complex_06_A_a.gif","","","","",""
"","null","html-keyboard-response","56","214957","0.0-15.0-0.5","SS1619739624736","","","null","","","","","","<p><img src= images/blank.png width =""600"" height = ""600"" style=""position:fixed;top:50%; left:50%; transform: translate(-50%, -50%); border:5px solid black"">","","","","","","","",""
"","8402.715000000171","sequential-stimulus-presentation-old","57","223868","0.0-15.0-1.5","SS1619739624736","trial","","40","500","8902.715000000171","images/stimuli/spore_stims/complex_08_A_b.gif","images/stimuli/spore_stims/complex_06_A_a.gif","self_paced","","3","complex_dissimilar","images/stimuli/spore_stims/complex_06_A_a.gif","","","","",""
"","3322.744999999937","survey-multi-choice","58","227193","0.0-16.0","SS1619739624736","math_question","","","","","","","","","","","","{""Q0"":""10""}","[0]","10","",""
"","null","html-keyboard-response","59","228429","0.0-17.0-0.0","SS1619739624736","","","null","","","","","","<p><img src= images/blank.png width =""600"" height = ""600"" style=""position:fixed;top:50%; left:50%; transform: translate(-50%, -50%); border:5px solid black"">","","","","","","","",""
"","846.1349999997765","sequential-stimulus-presentation-old","60","229779","0.0-17.0-1.0","SS1619739624736","trial","","40","500","1346.1349999997765","images/stimuli/spore_stims/complex_15_A_b.gif","images/stimuli/spore_stims/complex_04_A_a.gif","forced_short","","4","complex_dissimilar","images/stimuli/spore_stims/complex_04_A_a.gif","","","","",""
"","null","html-keyboard-response","61","230767","0.0-17.0-0.1","SS1619739624736","","","null","","","","","","<p><img src= images/blank.png width =""600"" height = ""600"" style=""position:fixed;top:50%; left:50%; transform: translate(-50%, -50%); border:5px solid black"">","","","","","","","",""
"","28.070000000298023","sequential-stimulus-presentation-old","62","231300","0.0-17.0-1.1","SS1619739624736","trial","","40","500","528.070000000298","images/stimuli/spore_stims/complex_15_A_b.gif","images/stimuli/spore_stims/complex_04_A_a.gif","forced_short","","4","complex_dissimilar","images/stimuli/spore_stims/complex_04_A_a.gif","","","","",""
"","null","html-keyboard-response","63","232193","0.0-17.0-0.2","SS1619739624736","","","null","","","","","","<p><img src= images/blank.png width =""600"" height = ""600"" style=""position:fixed;top:50%; left:50%; transform: translate(-50%, -50%); border:5px solid black"">","","","","","","","",""
"","815.5600000000268","sequential-stimulus-presentation-old","64","233515","0.0-17.0-1.2","SS1619739624736","trial","","40","500","1315.5600000000268","images/stimuli/spore_stims/complex_15_A_b.gif","images/stimuli/spore_stims/complex_04_A_a.gif","forced_short","","4","complex_dissimilar","images/stimuli/spore_stims/complex_04_A_a.gif","","","","",""
"","null","html-keyboard-response","65","234662","0.0-17.0-0.3","SS1619739624736","","","null","","","","","","<p><img src= images/blank.png width =""600"" height = ""600"" style=""position:fixed;top:50%; left:50%; transform: translate(-50%, -50%); border:5px solid black"">","","","","","","","",""
"","653.7050000001618","sequential-stimulus-presentation-old","66","235820","0.0-17.0-1.3","SS1619739624736","trial","","40","500","1153.7050000001618","images/stimuli/spore_stims/complex_15_A_b.gif","images/stimuli/spore_stims/complex_04_A_a.gif","forced_short","","4","complex_dissimilar","images/stimuli/spore_stims/complex_04_A_a.gif","","","","",""
"","null","html-keyboard-response","67","236728","0.0-17.0-0.4","SS1619739624736","","","null","","","","","","<p><img src= images/blank.png width =""600"" height = ""600"" style=""position:fixed;top:50%; left:50%; transform: translate(-50%, -50%); border:5px solid black"">","","","","","","","",""
"","7833.525000000023","sequential-stimulus-presentation-old","68","245066","0.0-17.0-1.4","SS1619739624736","trial","","40","500","8333.525000000023","images/stimuli/spore_stims/complex_15_A_b.gif","images/stimuli/spore_stims/complex_04_A_a.gif","forced_short","","4","complex_dissimilar","images/stimuli/spore_stims/complex_04_A_a.gif","","","","",""
"","null","html-keyboard-response","69","246056","0.0-17.0-0.5","SS1619739624736","","","null","","","","","","<p><img src= images/blank.png width =""600"" height = ""600"" style=""position:fixed;top:50%; left:50%; transform: translate(-50%, -50%); border:5px solid black"">","","","","","","","",""
"","666.1049999998068","sequential-stimulus-presentation-old","70","247228","0.0-17.0-1.5","SS1619739624736","trial","","40","500","1166.1049999998068","images/stimuli/spore_stims/complex_15_A_b.gif","images/stimuli/spore_stims/complex_04_A_a.gif","forced_short","","4","complex_dissimilar","images/stimuli/spore_stims/complex_04_A_a.gif","","","","",""
"","2865.2649999998976","survey-multi-choice","71","250096","0.0-18.0","SS1619739624736","math_question","","","","","","","","","","","","{""Q0"":""9""}","[0]","9","",""
"","null","html-keyboard-response","72","251043","0.0-19.0-0.0","SS1619739624736","","","null","","","","","","<p><img src= images/blank.png width =""600"" height = ""600"" style=""position:fixed;top:50%; left:50%; transform: translate(-50%, -50%); border:5px solid black"">","","","","","","","",""
"","326.8299999999581","sequential-stimulus-presentation-old","73","251875","0.0-19.0-1.0","SS1619739624736","trial","","40","500","826.8299999999581","images/stimuli/spore_stims/simple_04_A_a.gif","images/stimuli/spore_stims/simple_06_A_b.gif","forced_short","","5","simple_dissimilar","images/stimuli/spore_stims/simple_06_A_b.gif","","","","",""
"","null","html-keyboard-response","74","252965","0.0-19.0-0.1","SS1619739624736","","","null","","","","","","<p><img src= images/blank.png width =""600"" height = ""600"" style=""position:fixed;top:50%; left:50%; transform: translate(-50%, -50%); border:5px solid black"">","","","","","","","",""
"","1250.7449999998207","sequential-stimulus-presentation-old","75","254723","0.0-19.0-1.1","SS1619739624736","trial","","40","500","1750.7449999998207","images/stimuli/spore_stims/simple_04_A_a.gif","images/stimuli/spore_stims/simple_06_A_b.gif","forced_short","","5","simple_dissimilar","images/stimuli/spore_stims/simple_06_A_b.gif","","","","",""
"","null","html-keyboard-response","76","255786","0.0-19.0-0.2","SS1619739624736","","","null","","","","","","<p><img src= images/blank.png width =""600"" height = ""600"" style=""position:fixed;top:50%; left:50%; transform: translate(-50%, -50%); border:5px solid black"">","","","","","","","",""
"","384.5449999998673","sequential-stimulus-presentation-old","77","256675","0.0-19.0-1.2","SS1619739624736","trial","","40","500","884.5449999998673","images/stimuli/spore_stims/simple_04_A_a.gif","images/stimuli/spore_stims/simple_06_A_b.gif","forced_short","","5","simple_dissimilar","images/stimuli/spore_stims/simple_06_A_b.gif","","","","",""
"","null","html-keyboard-response","78","257849","0.0-19.0-0.3","SS1619739624736","","","null","","","","","","<p><img src= images/blank.png width =""600"" height = ""600"" style=""position:fixed;top:50%; left:50%; transform: translate(-50%, -50%); border:5px solid black"">","","","","","","","",""
"","3414.415000000212","sequential-stimulus-presentation-old","79","261770","0.0-19.0-1.3","SS1619739624736","trial","","40","500","3914.415000000212","images/stimuli/spore_stims/simple_04_A_a.gif","images/stimuli/spore_stims/simple_06_A_b.gif","forced_short","","5","simple_dissimilar","images/stimuli/spore_stims/simple_06_A_b.gif","","","","",""
"","null","html-keyboard-response","80","262995","0.0-19.0-0.4","SS1619739624736","","","null","","","","","","<p><img src= images/blank.png width =""600"" height = ""600"" style=""position:fixed;top:50%; left:50%; transform: translate(-50%, -50%); border:5px solid black"">","","","","","","","",""
"","165.72500000032596","sequential-stimulus-presentation-old","81","263666","0.0-19.0-1.4","SS1619739624736","trial","","40","500","665.725000000326","images/stimuli/spore_stims/simple_04_A_a.gif","images/stimuli/spore_stims/simple_06_A_b.gif","forced_short","","5","simple_dissimilar","images/stimuli/spore_stims/simple_06_A_b.gif","","","","",""
"","null","html-keyboard-response","82","264669","0.0-19.0-0.5","SS1619739624736","","","null","","","","","","<p><img src= images/blank.png width =""600"" height = ""600"" style=""position:fixed;top:50%; left:50%; transform: translate(-50%, -50%); border:5px solid black"">","","","","","","","",""
"","372.42499999998836","sequential-stimulus-presentation-old","83","265874","0.0-19.0-1.5","SS1619739624736","trial","","40","500","872.4249999999884","images/stimuli/spore_stims/simple_04_A_a.gif","images/stimuli/spore_stims/simple_06_A_b.gif","forced_short","","5","simple_dissimilar","images/stimuli/spore_stims/simple_06_A_b.gif","","","","",""
"","2605.0900000000256","survey-multi-choice","84","268482","0.0-20.0","SS1619739624736","math_question","","","","","","","","","","","","{""Q0"":""11""}","[0]","11","",""
"","null","html-keyboard-response","85","270122","0.0-21.0-0.0","SS1619739624736","","","null","","","","","","<p><img src= images/blank.png width =""600"" height = ""600"" style=""position:fixed;top:50%; left:50%; transform: translate(-50%, -50%); border:5px solid black"">","","","","","","","",""
"","1374.9050000001444","sequential-stimulus-presentation-old","86","272602","0.0-21.0-1.0","SS1619739624736","trial","","40","500","1874.9050000001444","images/stimuli/spore_stims/complex_09_A_b.gif","images/stimuli/spore_stims/complex_16_A_a.gif","forced_short","","6","complex_dissimilar","images/stimuli/spore_stims/complex_16_A_a.gif","","","","",""
"","null","html-keyboard-response","87","273501","0.0-21.0-0.1","SS1619739624736","","","null","","","","","","<p><img src= images/blank.png width =""600"" height = ""600"" style=""position:fixed;top:50%; left:50%; transform: translate(-50%, -50%); border:5px solid black"">","","","","","","","",""
"","349.63499999954365","sequential-stimulus-presentation-old","88","274355","0.0-21.0-1.1","SS1619739624736","trial","","40","500","849.6349999995437","images/stimuli/spore_stims/complex_09_A_b.gif","images/stimuli/spore_stims/complex_16_A_a.gif","forced_short","","6","complex_dissimilar","images/stimuli/spore_stims/complex_16_A_a.gif","","","","",""
"","null","html-keyboard-response","89","275574","0.0-21.0-0.2","SS1619739624736","","","null","","","","","","<p><img src= images/blank.png width =""600"" height = ""600"" style=""position:fixed;top:50%; left:50%; transform: translate(-50%, -50%); border:5px solid black"">","","","","","","","",""
"","2937.675000000105","sequential-stimulus-presentation-old","90","279139","0.0-21.0-1.2","SS1619739624736","trial","","40","500","3437.675000000105","images/stimuli/spore_stims/complex_09_A_b.gif","images/stimuli/spore_stims/complex_16_A_a.gif","forced_short","","6","complex_dissimilar","images/stimuli/spore_stims/complex_09_A_b.gif","","","","",""
"","null","html-keyboard-response","91","280207","0.0-21.0-0.3","SS1619739624736","","","null","","","","","","<p><img src= images/blank.png width =""600"" height = ""600"" style=""position:fixed;top:50%; left:50%; transform: translate(-50%, -50%); border:5px solid black"">","","","","","","","",""
"","12880.915000000212","sequential-stimulus-presentation-old","92","294080","0.0-21.0-1.3","SS1619739624736","trial","","40","500","13380.915000000212","images/stimuli/spore_stims/complex_09_A_b.gif","images/stimuli/spore_stims/complex_16_A_a.gif","forced_short","","6","complex_dissimilar","images/stimuli/spore_stims/complex_16_A_a.gif","","","","",""
"","3375.135000000242","survey-multi-choice","93","297458","0.0-22.0","SS1619739624736","math_question","","","","","","","","","","","","{""Q0"":""5""}","[0]","5","",""
"","null","html-keyboard-response","94","299200","0.0-23.0-0.0","SS1619739624736","","","null","","","","","","<p><img src= images/blank.png width =""600"" height = ""600"" style=""position:fixed;top:50%; left:50%; transform: translate(-50%, -50%); border:5px solid black"">","","","","","","","",""
"","6071.284999999974","sequential-stimulus-presentation-old","95","305776","0.0-23.0-1.0","SS1619739624736","trial","","40","500","6571.284999999974","images/stimuli/spore_stims/simple_11_A_b.gif","images/stimuli/spore_stims/simple_12_A_a.gif","forced_short","","7","simple_dissimilar","images/stimuli/spore_stims/simple_12_A_a.gif","","","","",""
"","null","html-keyboard-response","96","307007","0.0-23.0-0.1","SS1619739624736","","","null","","","","","","<p><img src= images/blank.png width =""600"" height = ""600"" style=""position:fixed;top:50%; left:50%; transform: translate(-50%, -50%); border:5px solid black"">","","","","","","","",""
"","141.55499999970198","sequential-stimulus-presentation-old","97","307657","0.0-23.0-1.1","SS1619739624736","trial","","40","500","641.554999999702","images/stimuli/spore_stims/simple_11_A_b.gif","images/stimuli/spore_stims/simple_12_A_a.gif","forced_short","","7","simple_dissimilar","images/stimuli/spore_stims/simple_11_A_b.gif","","","","",""
"","null","html-keyboard-response","98","308766","0.0-23.0-0.2","SS1619739624736","","","null","","","","","","<p><img src= images/blank.png width =""600"" height = ""600"" style=""position:fixed;top:50%; left:50%; transform: translate(-50%, -50%); border:5px solid black"">","","","","","","","",""
"","266.94499999989057","sequential-stimulus-presentation-old","99","309537","0.0-23.0-1.2","SS1619739624736","trial","","40","500","766.9449999998906","images/stimuli/spore_stims/simple_11_A_b.gif","images/stimuli/spore_stims/simple_12_A_a.gif","forced_short","","7","simple_dissimilar","images/stimuli/spore_stims/simple_12_A_a.gif","","","","",""
"","null","html-keyboard-response","100","310421","0.0-23.0-0.3","SS1619739624736","","","null","","","","","","<p><img src= images/blank.png width =""600"" height = ""600"" style=""position:fixed;top:50%; left:50%; transform: translate(-50%, -50%); border:5px solid black"">","","","","","","","",""
"","34.79999999987194","sequential-stimulus-presentation-old","101","310960","0.0-23.0-1.3","SS1619739624736","trial","","40","500","534.7999999998719","images/stimuli/spore_stims/simple_11_A_b.gif","images/stimuli/spore_stims/simple_12_A_a.gif","forced_short","","7","simple_dissimilar","images/stimuli/spore_stims/simple_12_A_a.gif","","","","",""
"","null","html-keyboard-response","102","312214","0.0-23.0-0.4","SS1619739624736","","","null","","","","","","<p><img src= images/blank.png width =""600"" height = ""600"" style=""position:fixed;top:50%; left:50%; transform: translate(-50%, -50%); border:5px solid black"">","","","","","","","",""
"","384.84000000020023","sequential-stimulus-presentation-old","103","313104","0.0-23.0-1.4","SS1619739624736","trial","","40","500","884.8400000002002","images/stimuli/spore_stims/simple_11_A_b.gif","images/stimuli/spore_stims/simple_12_A_a.gif","forced_short","","7","simple_dissimilar","images/stimuli/spore_stims/simple_11_A_b.gif","","","","",""
"","2069.0799999997253","survey-multi-choice","104","315175","0.0-24.0","SS1619739624736","math_question","","","","","","","","","","","","{""Q0"":""12""}","[0]","12","",""
"","null","html-keyboard-response","105","316365","0.0-25.0-0.0","SS1619739624736","","","null","","","","","","<p><img src= images/blank.png width =""600"" height = ""600"" style=""position:fixed;top:50%; left:50%; transform: translate(-50%, -50%); border:5px solid black"">","","","","","","","",""
"","338.40499999996973","sequential-stimulus-presentation-old","106","317208","0.0-25.0-1.0","SS1619739624736","trial","","40","500","838.4049999999697","images/stimuli/spore_stims/simple_02_A_a.gif","images/stimuli/spore_stims/simple_18_A_b.gif","self_paced","","8","simple_dissimilar","images/stimuli/spore_stims/simple_18_A_b.gif","","","","",""
"","null","html-keyboard-response","107","318019","0.0-25.0-0.1","SS1619739624736","","","null","","","","","","<p><img src= images/blank.png width =""600"" height = ""600"" style=""position:fixed;top:50%; left:50%; transform: translate(-50%, -50%); border:5px solid black"">","","","","","","","",""
"","1211.720000000263","sequential-stimulus-presentation-old","108","319736","0.0-25.0-1.1","SS1619739624736","trial","","40","500","1711.720000000263","images/stimuli/spore_stims/simple_02_A_a.gif","images/stimuli/spore_stims/simple_18_A_b.gif","self_paced","","8","simple_dissimilar","images/stimuli/spore_stims/simple_02_A_a.gif","","","","",""
"","null","html-keyboard-response","109","320695","0.0-25.0-0.2","SS1619739624736","","","null","","","","","","<p><img src= images/blank.png width =""600"" height = ""600"" style=""position:fixed;top:50%; left:50%; transform: translate(-50%, -50%); border:5px solid black"">","","","","","","","",""
"","3224.4550000000163","sequential-stimulus-presentation-old","110","324425","0.0-25.0-1.2","SS1619739624736","trial","","40","500","3724.4550000000163","images/stimuli/spore_stims/simple_02_A_a.gif","images/stimuli/spore_stims/simple_18_A_b.gif","self_paced","","8","simple_dissimilar","images/stimuli/spore_stims/simple_18_A_b.gif","","","","",""
"","null","html-keyboard-response","111","325536","0.0-25.0-0.3","SS1619739624736","","","null","","","","","","<p><img src= images/blank.png width =""600"" height = ""600"" style=""position:fixed;top:50%; left:50%; transform: translate(-50%, -50%); border:5px solid black"">","","","","","","","",""
"","166.6700000000419","sequential-stimulus-presentation-old","112","326208","0.0-25.0-1.3","SS1619739624736","trial","","40","500","666.6700000000419","images/stimuli/spore_stims/simple_02_A_a.gif","images/stimuli/spore_stims/simple_18_A_b.gif","self_paced","","8","simple_dissimilar","images/stimuli/spore_stims/simple_18_A_b.gif","","","","",""
"","2519.110000000219","survey-multi-choice","113","328729","0.0-26.0","SS1619739624736","math_question","","","","","","","","","","","","{""Q0"":""5""}","[0]","5","",""
"","null","html-keyboard-response","114","330094","0.0-27.0-0.0","SS1619739624736","","","null","","","","","","<p><img src= images/blank.png width =""600"" height = ""600"" style=""position:fixed;top:50%; left:50%; transform: translate(-50%, -50%); border:5px solid black"">","","","","","","","",""
"","1255.2049999998999","sequential-stimulus-presentation-old","115","347454","0.0-27.0-1.0","SS1619739624736","trial","","40","500","1755.2049999998999","images/stimuli/spore_stims/complex_02_A_a.gif","images/stimuli/spore_stims/complex_03_A_b.gif","forced_long","","9","complex_dissimilar","images/stimuli/spore_stims/complex_03_A_b.gif","","","","",""
"","null","html-keyboard-response","116","348264","0.0-27.0-0.1","SS1619739624736","","","null","","","","","","<p><img src= images/blank.png width =""600"" height = ""600"" style=""position:fixed;top:50%; left:50%; transform: translate(-50%, -50%); border:5px solid black"">","","","","","","","",""
"","277.72999999980675","sequential-stimulus-presentation-old","117","349046","0.0-27.0-1.1","SS1619739624736","trial","","40","500","777.7299999998068","images/stimuli/spore_stims/complex_02_A_a.gif","images/stimuli/spore_stims/complex_03_A_b.gif","forced_long","","9","complex_dissimilar","images/stimuli/spore_stims/complex_03_A_b.gif","","","","",""
"","null","html-keyboard-response","118","349911","0.0-27.0-0.2","SS1619739624736","","","null","","","","","","<p><img src= images/blank.png width =""600"" height = ""600"" style=""position:fixed;top:50%; left:50%; transform: translate(-50%, -50%); border:5px solid black"">","","","","","","","",""
"","3517.170000000042","sequential-stimulus-presentation-old","119","354653","0.0-27.0-1.2","SS1619739624736","trial","","40","500","4017.170000000042","images/stimuli/spore_stims/complex_02_A_a.gif","images/stimuli/spore_stims/complex_03_A_b.gif","forced_long","","9","complex_dissimilar","images/stimuli/spore_stims/complex_03_A_b.gif","","","","",""
"","null","html-keyboard-response","120","355935","0.0-27.0-0.3","SS1619739624736","","","null","","","","","","<p><img src= images/blank.png width =""600"" height = ""600"" style=""position:fixed;top:50%; left:50%; transform: translate(-50%, -50%); border:5px solid black"">","","","","","","","",""
"","116.54999999975553","sequential-stimulus-presentation-old","121","356557","0.0-27.0-1.3","SS1619739624736","trial","","40","500","616.5499999997555","images/stimuli/spore_stims/complex_02_A_a.gif","images/stimuli/spore_stims/complex_03_A_b.gif","forced_long","","9","complex_dissimilar","images/stimuli/spore_stims/complex_03_A_b.gif","","","","",""
"","null","html-keyboard-response","122","357549","0.0-27.0-0.4","SS1619739624736","","","null","","","","","","<p><img src= images/blank.png width =""600"" height = ""600"" style=""position:fixed;top:50%; left:50%; transform: translate(-50%, -50%); border:5px solid black"">","","","","","","","",""
"","159.2399999999907","sequential-stimulus-presentation-old","123","358214","0.0-27.0-1.4","SS1619739624736","trial","","40","500","659.2399999999907","images/stimuli/spore_stims/complex_02_A_a.gif","images/stimuli/spore_stims/complex_03_A_b.gif","forced_long","","9","complex_dissimilar","images/stimuli/spore_stims/complex_03_A_b.gif","","","","",""
"","2324.4899999999907","survey-multi-choice","124","360542","0.0-28.0","SS1619739624736","math_question","","","","","","","","","","","","{""Q0"":""13""}","[0]","13","",""
"","null","html-keyboard-response","125","361748","0.0-29.0-0.0","SS1619739624736","","","null","","","","","","<p><img src= images/blank.png width =""600"" height = ""600"" style=""position:fixed;top:50%; left:50%; transform: translate(-50%, -50%); border:5px solid black"">","","","","","","","",""
"","490.534999999858","sequential-stimulus-presentation-old","126","377245","0.0-29.0-1.0","SS1619739624736","trial","","40","500","990.534999999858","images/stimuli/spore_stims/complex_01_A_b.gif","images/stimuli/spore_stims/complex_14_A_a.gif","forced_long","","10","complex_dissimilar","images/stimuli/spore_stims/complex_14_A_a.gif","","","","",""
"","null","html-keyboard-response","127","379323","0.0-29.0-0.1","SS1619739624736","","","null","","","","","","<p><img src= images/blank.png width =""600"" height = ""600"" style=""position:fixed;top:50%; left:50%; transform: translate(-50%, -50%); border:5px solid black"">","","","","","","","",""
"","4139.419999999984","sequential-stimulus-presentation-old","128","384276","0.0-29.0-1.1","SS1619739624736","trial","","40","500","4639.419999999984","images/stimuli/spore_stims/complex_01_A_b.gif","images/stimuli/spore_stims/complex_14_A_a.gif","forced_long","","10","complex_dissimilar","images/stimuli/spore_stims/complex_14_A_a.gif","","","","",""
"","null","html-keyboard-response","129","385348","0.0-29.0-0.2","SS1619739624736","","","null","","","","","","<p><img src= images/blank.png width =""600"" height = ""600"" style=""position:fixed;top:50%; left:50%; transform: translate(-50%, -50%); border:5px solid black"">","","","","","","","",""
"","38.4450000001234","sequential-stimulus-presentation-old","130","385892","0.0-29.0-1.2","SS1619739624736","trial","","40","500","538.4450000001234","images/stimuli/spore_stims/complex_01_A_b.gif","images/stimuli/spore_stims/complex_14_A_a.gif","forced_long","","10","complex_dissimilar","images/stimuli/spore_stims/complex_14_A_a.gif","","","","",""
"","null","html-keyboard-response","131","387049","0.0-29.0-0.3","SS1619739624736","","","null","","","","","","<p><img src= images/blank.png width =""600"" height = ""600"" style=""position:fixed;top:50%; left:50%; transform: translate(-50%, -50%); border:5px solid black"">","","","","","","","",""
"","431.7549999995972","sequential-stimulus-presentation-old","132","387987","0.0-29.0-1.3","SS1619739624736","trial","","40","500","931.7549999995972","images/stimuli/spore_stims/complex_01_A_b.gif","images/stimuli/spore_stims/complex_14_A_a.gif","forced_long","","10","complex_dissimilar","images/stimuli/spore_stims/complex_14_A_a.gif","","","","",""
"","null","html-keyboard-response","133","389011","0.0-29.0-0.4","SS1619739624736","","","null","","","","","","<p><img src= images/blank.png width =""600"" height = ""600"" style=""position:fixed;top:50%; left:50%; transform: translate(-50%, -50%); border:5px solid black"">","","","","","","","",""
"","670.8899999998393","sequential-stimulus-presentation-old","134","390188","0.0-29.0-1.4","SS1619739624736","trial","","40","500","1170.8899999998393","images/stimuli/spore_stims/complex_01_A_b.gif","images/stimuli/spore_stims/complex_14_A_a.gif","forced_long","","10","complex_dissimilar","images/stimuli/spore_stims/complex_14_A_a.gif","","","","",""
"","2327.850000000093","survey-multi-choice","135","392520","0.0-30.0","SS1619739624736","math_question","","","","","","","","","","","","{""Q0"":""10""}","[0]","10","",""
"","null","html-keyboard-response","136","393679","0.0-31.0-0.0","SS1619739624736","","","null","","","","","","<p><img src= images/blank.png width =""600"" height = ""600"" style=""position:fixed;top:50%; left:50%; transform: translate(-50%, -50%); border:5px solid black"">","","","","","","","",""
"","807.8700000001118","sequential-stimulus-presentation-old","137","409492","0.0-31.0-1.0","SS1619739624736","trial","","40","500","1307.8700000001118","images/stimuli/spore_stims/simple_04_A_b.gif","images/stimuli/spore_stims/simple_17_A_a.gif","forced_long","","11","simple_dissimilar","images/stimuli/spore_stims/simple_17_A_a.gif","","","","",""
"","null","html-keyboard-response","138","410780","0.0-31.0-0.1","SS1619739624736","","","null","","","","","","<p><img src= images/blank.png width =""600"" height = ""600"" style=""position:fixed;top:50%; left:50%; transform: translate(-50%, -50%); border:5px solid black"">","","","","","","","",""
"","126.33499999996275","sequential-stimulus-presentation-old","139","411411","0.0-31.0-1.1","SS1619739624736","trial","","40","500","626.3349999999627","images/stimuli/spore_stims/simple_04_A_b.gif","images/stimuli/spore_stims/simple_17_A_a.gif","forced_long","","11","simple_dissimilar","images/stimuli/spore_stims/simple_17_A_a.gif","","","","",""
"","null","html-keyboard-response","140","412631","0.0-31.0-0.2","SS1619739624736","","","null","","","","","","<p><img src= images/blank.png width =""600"" height = ""600"" style=""position:fixed;top:50%; left:50%; transform: translate(-50%, -50%); border:5px solid black"">","","","","","","","",""
"","856.5149999998976","sequential-stimulus-presentation-old","141","413995","0.0-31.0-1.2","SS1619739624736","trial","","40","500","1356.5149999998976","images/stimuli/spore_stims/simple_04_A_b.gif","images/stimuli/spore_stims/simple_17_A_a.gif","forced_long","","11","simple_dissimilar","images/stimuli/spore_stims/simple_17_A_a.gif","","","","",""
"","null","html-keyboard-response","142","415163","0.0-31.0-0.3","SS1619739624736","","","null","","","","","","<p><img src= images/blank.png width =""600"" height = ""600"" style=""position:fixed;top:50%; left:50%; transform: translate(-50%, -50%); border:5px solid black"">","","","","","","","",""
"","54.910000000323635","sequential-stimulus-presentation-old","143","415723","0.0-31.0-1.3","SS1619739624736","trial","","40","500","554.9100000003236","images/stimuli/spore_stims/simple_04_A_b.gif","images/stimuli/spore_stims/simple_17_A_a.gif","forced_long","","11","simple_dissimilar","images/stimuli/spore_stims/simple_17_A_a.gif","","","","",""
"","null","html-keyboard-response","144","416602","0.0-31.0-0.4","SS1619739624736","","","null","","","","","","<p><img src= images/blank.png width =""600"" height = ""600"" style=""position:fixed;top:50%; left:50%; transform: translate(-50%, -50%); border:5px solid black"">","","","","","","","",""
"","993.5749999999534","sequential-stimulus-presentation-old","145","418101","0.0-31.0-1.4","SS1619739624736","trial","","40","500","1493.5749999999534","images/stimuli/spore_stims/simple_04_A_b.gif","images/stimuli/spore_stims/simple_17_A_a.gif","forced_long","","11","simple_dissimilar","images/stimuli/spore_stims/simple_17_A_a.gif","","","","",""
"[{""page_index"":0,""viewing_time"":5215.624999999825}]","5215.990000000165","instructions","146","423320","0.0-32.0","SS1619739624736","instructions","","","","","","","","","","","","","","","",""
"","6127.465000000026","survey-likert","147","429454","0.0-33.0","SS1619739624736","similarity_question","","","","","","","","","","","","{""Q0"":3}","[0]","","images/stimuli/spore_stims/complex_15_A_b.gif","images/stimuli/spore_stims/complex_04_A_a.gif"
"","3118.0349999999744","survey-likert","148","432588","0.0-34.0","SS1619739624736","similarity_question","","","","","","","","","","","","{""Q0"":5}","[0]","","images/stimuli/spore_stims/simple_04_A_b.gif","images/stimuli/spore_stims/simple_17_A_a.gif"
"","5894.925000000047","survey-likert","149","438499","0.0-35.0","SS1619739624736","similarity_question","","","","","","","","","","","","{""Q0"":4}","[0]","","images/stimuli/spore_stims/simple_02_A_a.gif","images/stimuli/spore_stims/simple_18_A_b.gif"
"","3573.230000000447","survey-likert","150","442093","0.0-36.0","SS1619739624736","similarity_question","","","","","","","","","","","","{""Q0"":2}","[0]","","images/stimuli/spore_stims/complex_01_A_b.gif","images/stimuli/spore_stims/complex_14_A_a.gif"
"","3729.869999999646","survey-likert","151","445839","0.0-37.0","SS1619739624736","similarity_question","","","","","","","","","","","","{""Q0"":1}","[0]","","images/stimuli/spore_stims/complex_03_A_b.gif","images/stimuli/spore_stims/complex_02_A_a.gif"
"","3505.0349999996834","survey-likert","152","449361","0.0-38.0","SS1619739624736","similarity_question","","","","","","","","","","","","{""Q0"":3}","[0]","","images/stimuli/spore_stims/complex_08_A_b.gif","images/stimuli/spore_stims/complex_06_A_a.gif"
"","3042.5199999999604","survey-likert","153","452419","0.0-39.0","SS1619739624736","similarity_question","","","","","","","","","","","","{""Q0"":4}","[0]","","images/stimuli/spore_stims/simple_06_A_b.gif","images/stimuli/spore_stims/simple_04_A_a.gif"
"","3042.460000000079","survey-likert","154","455478","0.0-40.0","SS1619739624736","similarity_question","","","","","","","","","","","","{""Q0"":5}","[0]","","images/stimuli/spore_stims/simple_13_A_b.gif","images/stimuli/spore_stims/simple_06_A_a.gif"
"","5602.650000000256","survey-likert","155","461098","0.0-41.0","SS1619739624736","similarity_question","","","","","","","","","","","","{""Q0"":3}","[0]","","images/stimuli/spore_stims/complex_16_A_a.gif","images/stimuli/spore_stims/complex_09_A_b.gif"
"","2439.164999999746","survey-likert","156","463553","0.0-42.0","SS1619739624736","similarity_question","","","","","","","","","","","","{""Q0"":5}","[0]","","images/stimuli/spore_stims/simple_14_A_a.gif","images/stimuli/spore_stims/simple_17_A_b.gif"
"","1931.3050000000512","survey-likert","157","465501","0.0-43.0","SS1619739624736","similarity_question","","","","","","","","","","","","{""Q0"":5}","[0]","","images/stimuli/spore_stims/simple_12_A_a.gif","images/stimuli/spore_stims/simple_11_A_b.gif"
"","4540.735000000044","survey-likert","158","470057","0.0-44.0","SS1619739624736","similarity_question","","","","","","","","","","","","{""Q0"":0}","[0]","","images/stimuli/spore_stims/complex_01_A_a.gif","images/stimuli/spore_stims/complex_14_A_b.gif"
"[{""page_index"":0,""viewing_time"":3528.8500000001513}]","3529.234999999986","instructions","159","473602","0.0-45.0","SS1619739624736","instructions","","","","","","","","","","","","","","","",""
"","2886.715000000084","survey-likert","160","476493","0.0-46.0","SS1619739624736","","","","","","","","","images/stimuli/spore_stims/complex_01_A_b.gif","","","","{""Q0"":4}","[0]","","",""
"","3578.7399999999325","survey-likert","161","480087","0.0-47.0","SS1619739624736","","","","","","","","","images/stimuli/spore_stims/complex_06_A_a.gif","","","","{""Q0"":5}","[0]","","",""
"","2808.4799999996903","survey-likert","162","482915","0.0-48.0","SS1619739624736","","","","","","","","","images/stimuli/spore_stims/simple_04_A_b.gif","","","","{""Q0"":1}","[0]","","",""
"","2681.82500000007","survey-likert","163","485611","0.0-49.0","SS1619739624736","","","","","","","","","images/stimuli/spore_stims/complex_14_A_b.gif","","","","{""Q0"":5}","[0]","","",""
"","4194.480000000098","survey-likert","164","489822","0.0-50.0","SS1619739624736","","","","","","","","","images/stimuli/spore_stims/complex_04_A_a.gif","","","","{""Q0"":5}","[0]","","",""
"","2624.720000000205","survey-likert","165","492463","0.0-51.0","SS1619739624736","","","","","","","","","images/stimuli/spore_stims/simple_06_A_b.gif","","","","{""Q0"":0}","[0]","","",""
"","2072.7700000001932","survey-likert","166","494552","0.0-52.0","SS1619739624736","","","","","","","","","images/stimuli/spore_stims/simple_17_A_b.gif","","","","{""Q0"":1}","[0]","","",""
"","3431.399999999965","survey-likert","167","498004","0.0-53.0","SS1619739624736","","","","","","","","","images/stimuli/spore_stims/simple_02_A_a.gif","","","","{""Q0"":0}","[0]","","",""
"","2249.0149999998976","survey-likert","168","500271","0.0-54.0","SS1619739624736","","","","","","","","","images/stimuli/spore_stims/complex_09_A_b.gif","","","","{""Q0"":5}","[0]","","",""
"","2401.940000000235","survey-likert","169","502689","0.0-55.0","SS1619739624736","","","","","","","","","images/stimuli/spore_stims/simple_11_A_b.gif","","","","{""Q0"":0}","[0]","","",""
"","1970.6049999999814","survey-likert","170","504678","0.0-56.0","SS1619739624736","","","","","","","","","images/stimuli/spore_stims/simple_13_A_b.gif","","","","{""Q0"":0}","[0]","","",""
"","5097.7000000002445","survey-likert","171","509804","0.0-57.0","SS1619739624736","","","","","","","","","images/stimuli/spore_stims/complex_03_A_b.gif","","","","{""Q0"":3}","[0]","","",""
"[{""page_index"":0,""viewing_time"":1249.5049999997718}]","1250.0399999999208","instructions","172","511069","0.0-58.0","SS1619739624736","instructions","","","","","","","","","","","","","","","",""
"","2840.5849999999627","demog-age","173","513920","0.0-59.0","SS1619739624736","","","","","","","","","","","","","{""age"":""22""}","","","",""
"","4798.165000000154","demog-ethnic-US","174","518728","0.0-60.0","SS1619739624736","","","","","","","","","","","","","{""ethnicity"":[""White""]}","[0]","","",""
"","6084.60999999987","demog-gender-and-education","175","524828","0.0-61.0","SS1619739624736","","","","","","","","","","","","","{""gender"":""Male"",""education"":""Bachelor's Degree""}","[0,1]","","",""
"","65164.62000000011","survey-text","176","590009","0.0-62.0","SS1619739624736","feedback","","","","","","","","","","","","{""Q0"":""the experiment was perfectly working""}","","","",""
"[{""page_index"":0,""viewing_time"":1398.6100000002189}]","1399.030000000028","instructions","177","591414","0.0-63.0","SS1619739624736","instructions","","","","","","","","","","","","","","","",""
