"view_history","rt","trial_type","trial_index","time_elapsed","internal_node_id","subject","stimulus_type","trial_stimulus","key_press","minimum_viewing_duration","trial_looking_time","block_deviant","block_background","exposure_type","stimulus","block_number","block_type","stimulus_displayed","responses","question_order","math_correct_answer","stimulus_left","stimulus_right"
"[{""page_index"":0,""viewing_time"":23047}]","23047","instructions","0","23049","0.0-0.0","SS1619739161714","","","","","","","","","","","","","","","","",""
"[{""page_index"":0,""viewing_time"":29489},{""page_index"":1,""viewing_time"":18523}]","48012","instructions","1","73069","0.0-1.0","SS1619739161714","instructions","","","","","","","","","","","","","","","",""
"","10840","sequential-stimulus-presentation-old","2","84426","0.0-2.0","SS1619739161714","","","40","500","11340","null","null","self_paced","","","","","","","","",""
"","13860","sequential-stimulus-presentation-old","3","98811","0.0-3.0","SS1619739161714","","","40","500","14360","null","null","self_paced","","","","","","","","",""
"[{""page_index"":0,""viewing_time"":37558}]","37558","instructions","4","136371","0.0-4.0","SS1619739161714","instructions","","","","","","","","","","","","","","","",""
"","3814","sequential-stimulus-presentation-old","5","155196","0.0-5.0","SS1619739161714","","","40","500","4314","null","null","forced_long","","","","","","","","",""
"","4139","sequential-stimulus-presentation-old","6","159852","0.0-6.0","SS1619739161714","","","40","500","4639","null","null","forced_long","","","","","","","","",""
"[{""page_index"":0,""viewing_time"":99394}]","99395","instructions","7","259249","0.0-7.0","SS1619739161714","instructions","","","","","","","","","","","","","","","",""
"[{""page_index"":0,""viewing_time"":19904},{""page_index"":1,""viewing_time"":25066},{""page_index"":2,""viewing_time"":10924},{""page_index"":3,""viewing_time"":4340},{""page_index"":4,""viewing_time"":3088}]","63322","instructions","8","322573","0.0-8.0","SS1619739161714","instructions","","","","","","","","","","","","","","","",""
"","null","html-keyboard-response","9","323459","0.0-9.0-0.0","SS1619739161714","","","null","","","","","","<p><img src= images/blank.png width =""600"" height = ""600"" style=""position:fixed;top:50%; left:50%; transform: translate(-50%, -50%); border:5px solid black"">","","","","","","","",""
"","1356","sequential-stimulus-presentation-old","10","339825","0.0-9.0-1.0","SS1619739161714","trial","","40","500","1856","images/stimuli/spore_stims/complex_03_A_b.gif","images/stimuli/spore_stims/complex_19_A_a.gif","forced_long","","0","complex_dissimilar","images/stimuli/spore_stims/complex_19_A_a.gif","","","","",""
"","null","html-keyboard-response","11","340770","0.0-9.0-0.1","SS1619739161714","","","null","","","","","","<p><img src= images/blank.png width =""600"" height = ""600"" style=""position:fixed;top:50%; left:50%; transform: translate(-50%, -50%); border:5px solid black"">","","","","","","","",""
"","35802","sequential-stimulus-presentation-old","12","377093","0.0-9.0-1.1","SS1619739161714","trial","","40","500","36302","images/stimuli/spore_stims/complex_03_A_b.gif","images/stimuli/spore_stims/complex_19_A_a.gif","forced_long","","0","complex_dissimilar","images/stimuli/spore_stims/complex_19_A_a.gif","","","","",""
"","null","html-keyboard-response","13","378121","0.0-9.0-0.2","SS1619739161714","","","null","","","","","","<p><img src= images/blank.png width =""600"" height = ""600"" style=""position:fixed;top:50%; left:50%; transform: translate(-50%, -50%); border:5px solid black"">","","","","","","","",""
"","9620","sequential-stimulus-presentation-old","14","388261","0.0-9.0-1.2","SS1619739161714","trial","","40","500","10120","images/stimuli/spore_stims/complex_03_A_b.gif","images/stimuli/spore_stims/complex_19_A_a.gif","forced_long","","0","complex_dissimilar","images/stimuli/spore_stims/complex_19_A_a.gif","","","","",""
"","null","html-keyboard-response","15","389413","0.0-9.0-0.3","SS1619739161714","","","null","","","","","","<p><img src= images/blank.png width =""600"" height = ""600"" style=""position:fixed;top:50%; left:50%; transform: translate(-50%, -50%); border:5px solid black"">","","","","","","","",""
"","48738","sequential-stimulus-presentation-old","16","438671","0.0-9.0-1.3","SS1619739161714","trial","","40","500","49238","images/stimuli/spore_stims/complex_03_A_b.gif","images/stimuli/spore_stims/complex_19_A_a.gif","forced_long","","0","complex_dissimilar","images/stimuli/spore_stims/complex_19_A_a.gif","","","","",""
"","null","html-keyboard-response","17","439934","0.0-9.0-0.4","SS1619739161714","","","null","","","","","","<p><img src= images/blank.png width =""600"" height = ""600"" style=""position:fixed;top:50%; left:50%; transform: translate(-50%, -50%); border:5px solid black"">","","","","","","","",""
"","7293","sequential-stimulus-presentation-old","18","447736","0.0-9.0-1.4","SS1619739161714","trial","","40","500","7793","images/stimuli/spore_stims/complex_03_A_b.gif","images/stimuli/spore_stims/complex_19_A_a.gif","forced_long","","0","complex_dissimilar","images/stimuli/spore_stims/complex_19_A_a.gif","","","","",""
"","9433","survey-multi-choice","19","457183","0.0-10.0","SS1619739161714","math_question","","","","","","","","","","","","{""Q0"":""5""}","[0]","5","",""
"","null","html-keyboard-response","20","458395","0.0-11.0-0.0","SS1619739161714","","","null","","","","","","<p><img src= images/blank.png width =""600"" height = ""600"" style=""position:fixed;top:50%; left:50%; transform: translate(-50%, -50%); border:5px solid black"">","","","","","","","",""
"","1397","sequential-stimulus-presentation-old","21","460312","0.0-11.0-1.0","SS1619739161714","trial","","40","500","1897","images/stimuli/spore_stims/simple_18_A_b.gif","images/stimuli/spore_stims/simple_06_A_a.gif","forced_short","","1","simple_dissimilar","images/stimuli/spore_stims/simple_06_A_a.gif","","","","",""
"","null","html-keyboard-response","22","461255","0.0-11.0-0.1","SS1619739161714","","","null","","","","","","<p><img src= images/blank.png width =""600"" height = ""600"" style=""position:fixed;top:50%; left:50%; transform: translate(-50%, -50%); border:5px solid black"">","","","","","","","",""
"","6857","sequential-stimulus-presentation-old","23","468632","0.0-11.0-1.1","SS1619739161714","trial","","40","500","7357","images/stimuli/spore_stims/simple_18_A_b.gif","images/stimuli/spore_stims/simple_06_A_a.gif","forced_short","","1","simple_dissimilar","images/stimuli/spore_stims/simple_18_A_b.gif","","","","",""
"","null","html-keyboard-response","24","469514","0.0-11.0-0.2","SS1619739161714","","","null","","","","","","<p><img src= images/blank.png width =""600"" height = ""600"" style=""position:fixed;top:50%; left:50%; transform: translate(-50%, -50%); border:5px solid black"">","","","","","","","",""
"","4652","sequential-stimulus-presentation-old","25","474672","0.0-11.0-1.2","SS1619739161714","trial","","40","500","5152","images/stimuli/spore_stims/simple_18_A_b.gif","images/stimuli/spore_stims/simple_06_A_a.gif","forced_short","","1","simple_dissimilar","images/stimuli/spore_stims/simple_06_A_a.gif","","","","",""
"","null","html-keyboard-response","26","475845","0.0-11.0-0.3","SS1619739161714","","","null","","","","","","<p><img src= images/blank.png width =""600"" height = ""600"" style=""position:fixed;top:50%; left:50%; transform: translate(-50%, -50%); border:5px solid black"">","","","","","","","",""
"","19653","sequential-stimulus-presentation-old","27","496018","0.0-11.0-1.3","SS1619739161714","trial","","40","500","20153","images/stimuli/spore_stims/simple_18_A_b.gif","images/stimuli/spore_stims/simple_06_A_a.gif","forced_short","","1","simple_dissimilar","images/stimuli/spore_stims/simple_18_A_b.gif","","","","",""
"","9792","survey-multi-choice","28","505814","0.0-12.0","SS1619739161714","math_question","","","","","","","","","","","","{""Q0"":""13""}","[0]","13","",""
"","null","html-keyboard-response","29","506916","0.0-13.0-0.0","SS1619739161714","","","null","","","","","","<p><img src= images/blank.png width =""600"" height = ""600"" style=""position:fixed;top:50%; left:50%; transform: translate(-50%, -50%); border:5px solid black"">","","","","","","","",""
"","11687","sequential-stimulus-presentation-old","30","519114","0.0-13.0-1.0","SS1619739161714","trial","","40","500","12187","images/stimuli/spore_stims/complex_16_A_a.gif","images/stimuli/spore_stims/complex_19_A_b.gif","self_paced","","2","complex_dissimilar","images/stimuli/spore_stims/complex_19_A_b.gif","","","","",""
"","null","html-keyboard-response","31","520407","0.0-13.0-0.1","SS1619739161714","","","null","","","","","","<p><img src= images/blank.png width =""600"" height = ""600"" style=""position:fixed;top:50%; left:50%; transform: translate(-50%, -50%); border:5px solid black"">","","","","","","","",""
"","9798","sequential-stimulus-presentation-old","32","530714","0.0-13.0-1.1","SS1619739161714","trial","","40","500","10298","images/stimuli/spore_stims/complex_16_A_a.gif","images/stimuli/spore_stims/complex_19_A_b.gif","self_paced","","2","complex_dissimilar","images/stimuli/spore_stims/complex_19_A_b.gif","","","","",""
"","null","html-keyboard-response","33","531738","0.0-13.0-0.2","SS1619739161714","","","null","","","","","","<p><img src= images/blank.png width =""600"" height = ""600"" style=""position:fixed;top:50%; left:50%; transform: translate(-50%, -50%); border:5px solid black"">","","","","","","","",""
"","11865","sequential-stimulus-presentation-old","34","544122","0.0-13.0-1.2","SS1619739161714","trial","","40","500","12365","images/stimuli/spore_stims/complex_16_A_a.gif","images/stimuli/spore_stims/complex_19_A_b.gif","self_paced","","2","complex_dissimilar","images/stimuli/spore_stims/complex_16_A_a.gif","","","","",""
"","null","html-keyboard-response","35","544958","0.0-13.0-0.3","SS1619739161714","","","null","","","","","","<p><img src= images/blank.png width =""600"" height = ""600"" style=""position:fixed;top:50%; left:50%; transform: translate(-50%, -50%); border:5px solid black"">","","","","","","","",""
"","4405","sequential-stimulus-presentation-old","36","549882","0.0-13.0-1.3","SS1619739161714","trial","","40","500","4905","images/stimuli/spore_stims/complex_16_A_a.gif","images/stimuli/spore_stims/complex_19_A_b.gif","self_paced","","2","complex_dissimilar","images/stimuli/spore_stims/complex_19_A_b.gif","","","","",""
"","null","html-keyboard-response","37","550758","0.0-13.0-0.4","SS1619739161714","","","null","","","","","","<p><img src= images/blank.png width =""600"" height = ""600"" style=""position:fixed;top:50%; left:50%; transform: translate(-50%, -50%); border:5px solid black"">","","","","","","","",""
"","5646","sequential-stimulus-presentation-old","38","556923","0.0-13.0-1.4","SS1619739161714","trial","","40","500","6146","images/stimuli/spore_stims/complex_16_A_a.gif","images/stimuli/spore_stims/complex_19_A_b.gif","self_paced","","2","complex_dissimilar","images/stimuli/spore_stims/complex_19_A_b.gif","","","","",""
"","7750","survey-multi-choice","39","564677","0.0-14.0","SS1619739161714","math_question","","","","","","","","","","","","{""Q0"":""15""}","[0]","15","",""
"","null","html-keyboard-response","40","565508","0.0-15.0-0.0","SS1619739161714","","","null","","","","","","<p><img src= images/blank.png width =""600"" height = ""600"" style=""position:fixed;top:50%; left:50%; transform: translate(-50%, -50%); border:5px solid black"">","","","","","","","",""
"","1373","sequential-stimulus-presentation-old","41","581892","0.0-15.0-1.0","SS1619739161714","trial","","40","500","1873","images/stimuli/spore_stims/complex_13_A_b.gif","images/stimuli/spore_stims/complex_02_A_a.gif","forced_long","","3","complex_dissimilar","images/stimuli/spore_stims/complex_02_A_a.gif","","","","",""
"","null","html-keyboard-response","42","582899","0.0-15.0-0.1","SS1619739161714","","","null","","","","","","<p><img src= images/blank.png width =""600"" height = ""600"" style=""position:fixed;top:50%; left:50%; transform: translate(-50%, -50%); border:5px solid black"">","","","","","","","",""
"","6225","sequential-stimulus-presentation-old","43","589644","0.0-15.0-1.1","SS1619739161714","trial","","40","500","6725","images/stimuli/spore_stims/complex_13_A_b.gif","images/stimuli/spore_stims/complex_02_A_a.gif","forced_long","","3","complex_dissimilar","images/stimuli/spore_stims/complex_02_A_a.gif","","","","",""
"","null","html-keyboard-response","44","590498","0.0-15.0-0.2","SS1619739161714","","","null","","","","","","<p><img src= images/blank.png width =""600"" height = ""600"" style=""position:fixed;top:50%; left:50%; transform: translate(-50%, -50%); border:5px solid black"">","","","","","","","",""
"","6209","sequential-stimulus-presentation-old","45","597228","0.0-15.0-1.2","SS1619739161714","trial","","40","500","6709","images/stimuli/spore_stims/complex_13_A_b.gif","images/stimuli/spore_stims/complex_02_A_a.gif","forced_long","","3","complex_dissimilar","images/stimuli/spore_stims/complex_02_A_a.gif","","","","",""
"","null","html-keyboard-response","46","598270","0.0-15.0-0.3","SS1619739161714","","","null","","","","","","<p><img src= images/blank.png width =""600"" height = ""600"" style=""position:fixed;top:50%; left:50%; transform: translate(-50%, -50%); border:5px solid black"">","","","","","","","",""
"","8479","sequential-stimulus-presentation-old","47","607269","0.0-15.0-1.3","SS1619739161714","trial","","40","500","8979","images/stimuli/spore_stims/complex_13_A_b.gif","images/stimuli/spore_stims/complex_02_A_a.gif","forced_long","","3","complex_dissimilar","images/stimuli/spore_stims/complex_13_A_b.gif","","","","",""
"","6829","survey-multi-choice","48","614102","0.0-16.0","SS1619739161714","math_question","","","","","","","","","","","","{""Q0"":""4""}","[0]","4","",""
"","null","html-keyboard-response","49","615280","0.0-17.0-0.0","SS1619739161714","","","null","","","","","","<p><img src= images/blank.png width =""600"" height = ""600"" style=""position:fixed;top:50%; left:50%; transform: translate(-50%, -50%); border:5px solid black"">","","","","","","","",""
"","1014","sequential-stimulus-presentation-old","50","616812","0.0-17.0-1.0","SS1619739161714","trial","","40","500","1514","images/stimuli/spore_stims/simple_14_A_a.gif","images/stimuli/spore_stims/simple_19_A_b.gif","forced_short","","4","simple_dissimilar","images/stimuli/spore_stims/simple_19_A_b.gif","","","","",""
"","null","html-keyboard-response","51","618009","0.0-17.0-0.1","SS1619739161714","","","null","","","","","","<p><img src= images/blank.png width =""600"" height = ""600"" style=""position:fixed;top:50%; left:50%; transform: translate(-50%, -50%); border:5px solid black"">","","","","","","","",""
"","10060","sequential-stimulus-presentation-old","52","628589","0.0-17.0-1.1","SS1619739161714","trial","","40","500","10560","images/stimuli/spore_stims/simple_14_A_a.gif","images/stimuli/spore_stims/simple_19_A_b.gif","forced_short","","4","simple_dissimilar","images/stimuli/spore_stims/simple_19_A_b.gif","","","","",""
"","null","html-keyboard-response","53","629520","0.0-17.0-0.2","SS1619739161714","","","null","","","","","","<p><img src= images/blank.png width =""600"" height = ""600"" style=""position:fixed;top:50%; left:50%; transform: translate(-50%, -50%); border:5px solid black"">","","","","","","","",""
"","9141","sequential-stimulus-presentation-old","54","639183","0.0-17.0-1.2","SS1619739161714","trial","","40","500","9641","images/stimuli/spore_stims/simple_14_A_a.gif","images/stimuli/spore_stims/simple_19_A_b.gif","forced_short","","4","simple_dissimilar","images/stimuli/spore_stims/simple_14_A_a.gif","","","","",""
"","null","html-keyboard-response","55","640051","0.0-17.0-0.3","SS1619739161714","","","null","","","","","","<p><img src= images/blank.png width =""600"" height = ""600"" style=""position:fixed;top:50%; left:50%; transform: translate(-50%, -50%); border:5px solid black"">","","","","","","","",""
"","4723","sequential-stimulus-presentation-old","56","645294","0.0-17.0-1.3","SS1619739161714","trial","","40","500","5223","images/stimuli/spore_stims/simple_14_A_a.gif","images/stimuli/spore_stims/simple_19_A_b.gif","forced_short","","4","simple_dissimilar","images/stimuli/spore_stims/simple_19_A_b.gif","","","","",""
"","null","html-keyboard-response","57","646541","0.0-17.0-0.4","SS1619739161714","","","null","","","","","","<p><img src= images/blank.png width =""600"" height = ""600"" style=""position:fixed;top:50%; left:50%; transform: translate(-50%, -50%); border:5px solid black"">","","","","","","","",""
"","2233","sequential-stimulus-presentation-old","58","649294","0.0-17.0-1.4","SS1619739161714","trial","","40","500","2733","images/stimuli/spore_stims/simple_14_A_a.gif","images/stimuli/spore_stims/simple_19_A_b.gif","forced_short","","4","simple_dissimilar","images/stimuli/spore_stims/simple_14_A_a.gif","","","","",""
"","9081","survey-multi-choice","59","658380","0.0-18.0","SS1619739161714","math_question","","","","","","","","","","","","{""Q0"":""12""}","[0]","12","",""
"","null","html-keyboard-response","60","659652","0.0-19.0-0.0","SS1619739161714","","","null","","","","","","<p><img src= images/blank.png width =""600"" height = ""600"" style=""position:fixed;top:50%; left:50%; transform: translate(-50%, -50%); border:5px solid black"">","","","","","","","",""
"","5681","sequential-stimulus-presentation-old","61","665838","0.0-19.0-1.0","SS1619739161714","trial","","40","500","6181","images/stimuli/spore_stims/complex_15_A_a.gif","images/stimuli/spore_stims/complex_08_A_b.gif","self_paced","","5","complex_dissimilar","images/stimuli/spore_stims/complex_08_A_b.gif","","","","",""
"","null","html-keyboard-response","62","667069","0.0-19.0-0.1","SS1619739161714","","","null","","","","","","<p><img src= images/blank.png width =""600"" height = ""600"" style=""position:fixed;top:50%; left:50%; transform: translate(-50%, -50%); border:5px solid black"">","","","","","","","",""
"","2822","sequential-stimulus-presentation-old","63","670414","0.0-19.0-1.1","SS1619739161714","trial","","40","500","3322","images/stimuli/spore_stims/complex_15_A_a.gif","images/stimuli/spore_stims/complex_08_A_b.gif","self_paced","","5","complex_dissimilar","images/stimuli/spore_stims/complex_08_A_b.gif","","","","",""
"","null","html-keyboard-response","64","671633","0.0-19.0-0.2","SS1619739161714","","","null","","","","","","<p><img src= images/blank.png width =""600"" height = ""600"" style=""position:fixed;top:50%; left:50%; transform: translate(-50%, -50%); border:5px solid black"">","","","","","","","",""
"","6232","sequential-stimulus-presentation-old","65","678375","0.0-19.0-1.2","SS1619739161714","trial","","40","500","6732","images/stimuli/spore_stims/complex_15_A_a.gif","images/stimuli/spore_stims/complex_08_A_b.gif","self_paced","","5","complex_dissimilar","images/stimuli/spore_stims/complex_15_A_a.gif","","","","",""
"","null","html-keyboard-response","66","679503","0.0-19.0-0.3","SS1619739161714","","","null","","","","","","<p><img src= images/blank.png width =""600"" height = ""600"" style=""position:fixed;top:50%; left:50%; transform: translate(-50%, -50%); border:5px solid black"">","","","","","","","",""
"","1419","sequential-stimulus-presentation-old","67","681430","0.0-19.0-1.3","SS1619739161714","trial","","40","500","1919","images/stimuli/spore_stims/complex_15_A_a.gif","images/stimuli/spore_stims/complex_08_A_b.gif","self_paced","","5","complex_dissimilar","images/stimuli/spore_stims/complex_08_A_b.gif","","","","",""
"","null","html-keyboard-response","68","682272","0.0-19.0-0.4","SS1619739161714","","","null","","","","","","<p><img src= images/blank.png width =""600"" height = ""600"" style=""position:fixed;top:50%; left:50%; transform: translate(-50%, -50%); border:5px solid black"">","","","","","","","",""
"","6344","sequential-stimulus-presentation-old","69","689136","0.0-19.0-1.4","SS1619739161714","trial","","40","500","6844","images/stimuli/spore_stims/complex_15_A_a.gif","images/stimuli/spore_stims/complex_08_A_b.gif","self_paced","","5","complex_dissimilar","images/stimuli/spore_stims/complex_15_A_a.gif","","","","",""
"","5821","survey-multi-choice","70","694961","0.0-20.0","SS1619739161714","math_question","","","","","","","","","","","","{""Q0"":""7""}","[0]","7","",""
"","null","html-keyboard-response","71","695902","0.0-21.0-0.0","SS1619739161714","","","null","","","","","","<p><img src= images/blank.png width =""600"" height = ""600"" style=""position:fixed;top:50%; left:50%; transform: translate(-50%, -50%); border:5px solid black"">","","","","","","","",""
"","1437","sequential-stimulus-presentation-old","72","712360","0.0-21.0-1.0","SS1619739161714","trial","","40","500","1937","images/stimuli/spore_stims/simple_18_A_a.gif","images/stimuli/spore_stims/simple_07_A_b.gif","forced_long","","6","simple_dissimilar","images/stimuli/spore_stims/simple_07_A_b.gif","","","","",""
"","null","html-keyboard-response","73","713624","0.0-21.0-0.1","SS1619739161714","","","null","","","","","","<p><img src= images/blank.png width =""600"" height = ""600"" style=""position:fixed;top:50%; left:50%; transform: translate(-50%, -50%); border:5px solid black"">","","","","","","","",""
"","2843","sequential-stimulus-presentation-old","74","716986","0.0-21.0-1.1","SS1619739161714","trial","","40","500","3343","images/stimuli/spore_stims/simple_18_A_a.gif","images/stimuli/spore_stims/simple_07_A_b.gif","forced_long","","6","simple_dissimilar","images/stimuli/spore_stims/simple_07_A_b.gif","","","","",""
"","null","html-keyboard-response","75","717824","0.0-21.0-0.2","SS1619739161714","","","null","","","","","","<p><img src= images/blank.png width =""600"" height = ""600"" style=""position:fixed;top:50%; left:50%; transform: translate(-50%, -50%); border:5px solid black"">","","","","","","","",""
"","5298","sequential-stimulus-presentation-old","76","723641","0.0-21.0-1.2","SS1619739161714","trial","","40","500","5798","images/stimuli/spore_stims/simple_18_A_a.gif","images/stimuli/spore_stims/simple_07_A_b.gif","forced_long","","6","simple_dissimilar","images/stimuli/spore_stims/simple_18_A_a.gif","","","","",""
"","null","html-keyboard-response","77","724655","0.0-21.0-0.3","SS1619739161714","","","null","","","","","","<p><img src= images/blank.png width =""600"" height = ""600"" style=""position:fixed;top:50%; left:50%; transform: translate(-50%, -50%); border:5px solid black"">","","","","","","","",""
"","8484","sequential-stimulus-presentation-old","78","733648","0.0-21.0-1.3","SS1619739161714","trial","","40","500","8984","images/stimuli/spore_stims/simple_18_A_a.gif","images/stimuli/spore_stims/simple_07_A_b.gif","forced_long","","6","simple_dissimilar","images/stimuli/spore_stims/simple_07_A_b.gif","","","","",""
"","null","html-keyboard-response","79","734544","0.0-21.0-0.4","SS1619739161714","","","null","","","","","","<p><img src= images/blank.png width =""600"" height = ""600"" style=""position:fixed;top:50%; left:50%; transform: translate(-50%, -50%); border:5px solid black"">","","","","","","","",""
"","8253","sequential-stimulus-presentation-old","80","743305","0.0-21.0-1.4","SS1619739161714","trial","","40","500","8753","images/stimuli/spore_stims/simple_18_A_a.gif","images/stimuli/spore_stims/simple_07_A_b.gif","forced_long","","6","simple_dissimilar","images/stimuli/spore_stims/simple_07_A_b.gif","","","","",""
"","4430","survey-multi-choice","81","747742","0.0-22.0","SS1619739161714","math_question","","","","","","","","","","","","{""Q0"":""10""}","[0]","10","",""
"","null","html-keyboard-response","82","748705","0.0-23.0-0.0","SS1619739161714","","","null","","","","","","<p><img src= images/blank.png width =""600"" height = ""600"" style=""position:fixed;top:50%; left:50%; transform: translate(-50%, -50%); border:5px solid black"">","","","","","","","",""
"","822","sequential-stimulus-presentation-old","83","764538","0.0-23.0-1.0","SS1619739161714","trial","","40","500","1322","images/stimuli/spore_stims/simple_09_A_b.gif","images/stimuli/spore_stims/simple_17_A_a.gif","forced_long","","7","simple_dissimilar","images/stimuli/spore_stims/simple_17_A_a.gif","","","","",""
"","null","html-keyboard-response","84","765776","0.0-23.0-0.1","SS1619739161714","","","null","","","","","","<p><img src= images/blank.png width =""600"" height = ""600"" style=""position:fixed;top:50%; left:50%; transform: translate(-50%, -50%); border:5px solid black"">","","","","","","","",""
"","3347","sequential-stimulus-presentation-old","85","769643","0.0-23.0-1.1","SS1619739161714","trial","","40","500","3847","images/stimuli/spore_stims/simple_09_A_b.gif","images/stimuli/spore_stims/simple_17_A_a.gif","forced_long","","7","simple_dissimilar","images/stimuli/spore_stims/simple_17_A_a.gif","","","","",""
"","null","html-keyboard-response","86","770776","0.0-23.0-0.2","SS1619739161714","","","null","","","","","","<p><img src= images/blank.png width =""600"" height = ""600"" style=""position:fixed;top:50%; left:50%; transform: translate(-50%, -50%); border:5px solid black"">","","","","","","","",""
"","4140","sequential-stimulus-presentation-old","87","775434","0.0-23.0-1.2","SS1619739161714","trial","","40","500","4640","images/stimuli/spore_stims/simple_09_A_b.gif","images/stimuli/spore_stims/simple_17_A_a.gif","forced_long","","7","simple_dissimilar","images/stimuli/spore_stims/simple_17_A_a.gif","","","","",""
"","null","html-keyboard-response","88","776346","0.0-23.0-0.3","SS1619739161714","","","null","","","","","","<p><img src= images/blank.png width =""600"" height = ""600"" style=""position:fixed;top:50%; left:50%; transform: translate(-50%, -50%); border:5px solid black"">","","","","","","","",""
"","2953","sequential-stimulus-presentation-old","89","779818","0.0-23.0-1.3","SS1619739161714","trial","","40","500","3453","images/stimuli/spore_stims/simple_09_A_b.gif","images/stimuli/spore_stims/simple_17_A_a.gif","forced_long","","7","simple_dissimilar","images/stimuli/spore_stims/simple_17_A_a.gif","","","","",""
"","null","html-keyboard-response","90","780675","0.0-23.0-0.4","SS1619739161714","","","null","","","","","","<p><img src= images/blank.png width =""600"" height = ""600"" style=""position:fixed;top:50%; left:50%; transform: translate(-50%, -50%); border:5px solid black"">","","","","","","","",""
"","1917","sequential-stimulus-presentation-old","91","783114","0.0-23.0-1.4","SS1619739161714","trial","","40","500","2417","images/stimuli/spore_stims/simple_09_A_b.gif","images/stimuli/spore_stims/simple_17_A_a.gif","forced_long","","7","simple_dissimilar","images/stimuli/spore_stims/simple_17_A_a.gif","","","","",""
"","null","html-keyboard-response","92","784006","0.0-23.0-0.5","SS1619739161714","","","null","","","","","","<p><img src= images/blank.png width =""600"" height = ""600"" style=""position:fixed;top:50%; left:50%; transform: translate(-50%, -50%); border:5px solid black"">","","","","","","","",""
"","3432","sequential-stimulus-presentation-old","93","787948","0.0-23.0-1.5","SS1619739161714","trial","","40","500","3932","images/stimuli/spore_stims/simple_09_A_b.gif","images/stimuli/spore_stims/simple_17_A_a.gif","forced_long","","7","simple_dissimilar","images/stimuli/spore_stims/simple_17_A_a.gif","","","","",""
"","7346","survey-multi-choice","94","795301","0.0-24.0","SS1619739161714","math_question","","","","","","","","","","","","{""Q0"":""7""}","[0]","7","",""
"","null","html-keyboard-response","95","796226","0.0-25.0-0.0","SS1619739161714","","","null","","","","","","<p><img src= images/blank.png width =""600"" height = ""600"" style=""position:fixed;top:50%; left:50%; transform: translate(-50%, -50%); border:5px solid black"">","","","","","","","",""
"","1096","sequential-stimulus-presentation-old","96","797842","0.0-25.0-1.0","SS1619739161714","trial","","40","500","1596","images/stimuli/spore_stims/complex_07_A_b.gif","images/stimuli/spore_stims/complex_20_A_a.gif","forced_short","","8","complex_dissimilar","images/stimuli/spore_stims/complex_20_A_a.gif","","","","",""
"","null","html-keyboard-response","97","798837","0.0-25.0-0.1","SS1619739161714","","","null","","","","","","<p><img src= images/blank.png width =""600"" height = ""600"" style=""position:fixed;top:50%; left:50%; transform: translate(-50%, -50%); border:5px solid black"">","","","","","","","",""
"","3240","sequential-stimulus-presentation-old","98","802587","0.0-25.0-1.1","SS1619739161714","trial","","40","500","3740","images/stimuli/spore_stims/complex_07_A_b.gif","images/stimuli/spore_stims/complex_20_A_a.gif","forced_short","","8","complex_dissimilar","images/stimuli/spore_stims/complex_20_A_a.gif","","","","",""
"","null","html-keyboard-response","99","803757","0.0-25.0-0.2","SS1619739161714","","","null","","","","","","<p><img src= images/blank.png width =""600"" height = ""600"" style=""position:fixed;top:50%; left:50%; transform: translate(-50%, -50%); border:5px solid black"">","","","","","","","",""
"","647","sequential-stimulus-presentation-old","100","804924","0.0-25.0-1.2","SS1619739161714","trial","","40","500","1147","images/stimuli/spore_stims/complex_07_A_b.gif","images/stimuli/spore_stims/complex_20_A_a.gif","forced_short","","8","complex_dissimilar","images/stimuli/spore_stims/complex_20_A_a.gif","","","","",""
"","null","html-keyboard-response","101","805776","0.0-25.0-0.3","SS1619739161714","","","null","","","","","","<p><img src= images/blank.png width =""600"" height = ""600"" style=""position:fixed;top:50%; left:50%; transform: translate(-50%, -50%); border:5px solid black"">","","","","","","","",""
"","2322","sequential-stimulus-presentation-old","102","808619","0.0-25.0-1.3","SS1619739161714","trial","","40","500","2822","images/stimuli/spore_stims/complex_07_A_b.gif","images/stimuli/spore_stims/complex_20_A_a.gif","forced_short","","8","complex_dissimilar","images/stimuli/spore_stims/complex_20_A_a.gif","","","","",""
"","null","html-keyboard-response","103","809447","0.0-25.0-0.4","SS1619739161714","","","null","","","","","","<p><img src= images/blank.png width =""600"" height = ""600"" style=""position:fixed;top:50%; left:50%; transform: translate(-50%, -50%); border:5px solid black"">","","","","","","","",""
"","4461","sequential-stimulus-presentation-old","104","814436","0.0-25.0-1.4","SS1619739161714","trial","","40","500","4961","images/stimuli/spore_stims/complex_07_A_b.gif","images/stimuli/spore_stims/complex_20_A_a.gif","forced_short","","8","complex_dissimilar","images/stimuli/spore_stims/complex_07_A_b.gif","","","","",""
"","null","html-keyboard-response","105","815337","0.0-25.0-0.5","SS1619739161714","","","null","","","","","","<p><img src= images/blank.png width =""600"" height = ""600"" style=""position:fixed;top:50%; left:50%; transform: translate(-50%, -50%); border:5px solid black"">","","","","","","","",""
"","2435","sequential-stimulus-presentation-old","106","818292","0.0-25.0-1.5","SS1619739161714","trial","","40","500","2935","images/stimuli/spore_stims/complex_07_A_b.gif","images/stimuli/spore_stims/complex_20_A_a.gif","forced_short","","8","complex_dissimilar","images/stimuli/spore_stims/complex_07_A_b.gif","","","","",""
"","9055","survey-multi-choice","107","827353","0.0-26.0","SS1619739161714","math_question","","","","","","","","","","","","{""Q0"":""10""}","[0]","10","",""
"","null","html-keyboard-response","108","828488","0.0-27.0-0.0","SS1619739161714","","","null","","","","","","<p><img src= images/blank.png width =""600"" height = ""600"" style=""position:fixed;top:50%; left:50%; transform: translate(-50%, -50%); border:5px solid black"">","","","","","","","",""
"","2813","sequential-stimulus-presentation-old","109","831820","0.0-27.0-1.0","SS1619739161714","trial","","40","500","3313","images/stimuli/spore_stims/simple_20_A_b.gif","images/stimuli/spore_stims/simple_01_A_a.gif","self_paced","","9","simple_dissimilar","images/stimuli/spore_stims/simple_01_A_a.gif","","","","",""
"","null","html-keyboard-response","110","832827","0.0-27.0-0.1","SS1619739161714","","","null","","","","","","<p><img src= images/blank.png width =""600"" height = ""600"" style=""position:fixed;top:50%; left:50%; transform: translate(-50%, -50%); border:5px solid black"">","","","","","","","",""
"","3473","sequential-stimulus-presentation-old","111","836820","0.0-27.0-1.1","SS1619739161714","trial","","40","500","3973","images/stimuli/spore_stims/simple_20_A_b.gif","images/stimuli/spore_stims/simple_01_A_a.gif","self_paced","","9","simple_dissimilar","images/stimuli/spore_stims/simple_20_A_b.gif","","","","",""
"","null","html-keyboard-response","112","837898","0.0-27.0-0.2","SS1619739161714","","","null","","","","","","<p><img src= images/blank.png width =""600"" height = ""600"" style=""position:fixed;top:50%; left:50%; transform: translate(-50%, -50%); border:5px solid black"">","","","","","","","",""
"","1066","sequential-stimulus-presentation-old","113","839485","0.0-27.0-1.2","SS1619739161714","trial","","40","500","1566","images/stimuli/spore_stims/simple_20_A_b.gif","images/stimuli/spore_stims/simple_01_A_a.gif","self_paced","","9","simple_dissimilar","images/stimuli/spore_stims/simple_01_A_a.gif","","","","",""
"","null","html-keyboard-response","114","840559","0.0-27.0-0.3","SS1619739161714","","","null","","","","","","<p><img src= images/blank.png width =""600"" height = ""600"" style=""position:fixed;top:50%; left:50%; transform: translate(-50%, -50%); border:5px solid black"">","","","","","","","",""
"","3472","sequential-stimulus-presentation-old","115","844549","0.0-27.0-1.3","SS1619739161714","trial","","40","500","3972","images/stimuli/spore_stims/simple_20_A_b.gif","images/stimuli/spore_stims/simple_01_A_a.gif","self_paced","","9","simple_dissimilar","images/stimuli/spore_stims/simple_01_A_a.gif","","","","",""
"","null","html-keyboard-response","116","845739","0.0-27.0-0.4","SS1619739161714","","","null","","","","","","<p><img src= images/blank.png width =""600"" height = ""600"" style=""position:fixed;top:50%; left:50%; transform: translate(-50%, -50%); border:5px solid black"">","","","","","","","",""
"","1083","sequential-stimulus-presentation-old","117","847341","0.0-27.0-1.4","SS1619739161714","trial","","40","500","1583","images/stimuli/spore_stims/simple_20_A_b.gif","images/stimuli/spore_stims/simple_01_A_a.gif","self_paced","","9","simple_dissimilar","images/stimuli/spore_stims/simple_01_A_a.gif","","","","",""
"","null","html-keyboard-response","118","848619","0.0-27.0-0.5","SS1619739161714","","","null","","","","","","<p><img src= images/blank.png width =""600"" height = ""600"" style=""position:fixed;top:50%; left:50%; transform: translate(-50%, -50%); border:5px solid black"">","","","","","","","",""
"","3451","sequential-stimulus-presentation-old","119","852590","0.0-27.0-1.5","SS1619739161714","trial","","40","500","3951","images/stimuli/spore_stims/simple_20_A_b.gif","images/stimuli/spore_stims/simple_01_A_a.gif","self_paced","","9","simple_dissimilar","images/stimuli/spore_stims/simple_01_A_a.gif","","","","",""
"","6897","survey-multi-choice","120","859495","0.0-28.0","SS1619739161714","math_question","","","","","","","","","","","","{""Q0"":""15""}","[0]","15","",""
"","null","html-keyboard-response","121","860538","0.0-29.0-0.0","SS1619739161714","","","null","","","","","","<p><img src= images/blank.png width =""600"" height = ""600"" style=""position:fixed;top:50%; left:50%; transform: translate(-50%, -50%); border:5px solid black"">","","","","","","","",""
"","1939","sequential-stimulus-presentation-old","122","862998","0.0-29.0-1.0","SS1619739161714","trial","","40","500","2439","images/stimuli/spore_stims/simple_20_A_a.gif","images/stimuli/spore_stims/simple_10_A_b.gif","self_paced","","10","simple_dissimilar","images/stimuli/spore_stims/simple_10_A_b.gif","","","","",""
"","null","html-keyboard-response","123","864149","0.0-29.0-0.1","SS1619739161714","","","null","","","","","","<p><img src= images/blank.png width =""600"" height = ""600"" style=""position:fixed;top:50%; left:50%; transform: translate(-50%, -50%); border:5px solid black"">","","","","","","","",""
"","1778","sequential-stimulus-presentation-old","124","866446","0.0-29.0-1.1","SS1619739161714","trial","","40","500","2278","images/stimuli/spore_stims/simple_20_A_a.gif","images/stimuli/spore_stims/simple_10_A_b.gif","self_paced","","10","simple_dissimilar","images/stimuli/spore_stims/simple_10_A_b.gif","","","","",""
"","null","html-keyboard-response","125","867449","0.0-29.0-0.2","SS1619739161714","","","null","","","","","","<p><img src= images/blank.png width =""600"" height = ""600"" style=""position:fixed;top:50%; left:50%; transform: translate(-50%, -50%); border:5px solid black"">","","","","","","","",""
"","3581","sequential-stimulus-presentation-old","126","871550","0.0-29.0-1.2","SS1619739161714","trial","","40","500","4081","images/stimuli/spore_stims/simple_20_A_a.gif","images/stimuli/spore_stims/simple_10_A_b.gif","self_paced","","10","simple_dissimilar","images/stimuli/spore_stims/simple_10_A_b.gif","","","","",""
"","null","html-keyboard-response","127","872679","0.0-29.0-0.3","SS1619739161714","","","null","","","","","","<p><img src= images/blank.png width =""600"" height = ""600"" style=""position:fixed;top:50%; left:50%; transform: translate(-50%, -50%); border:5px solid black"">","","","","","","","",""
"","3697","sequential-stimulus-presentation-old","128","876887","0.0-29.0-1.3","SS1619739161714","trial","","40","500","4197","images/stimuli/spore_stims/simple_20_A_a.gif","images/stimuli/spore_stims/simple_10_A_b.gif","self_paced","","10","simple_dissimilar","images/stimuli/spore_stims/simple_20_A_a.gif","","","","",""
"","null","html-keyboard-response","129","877879","0.0-29.0-0.4","SS1619739161714","","","null","","","","","","<p><img src= images/blank.png width =""600"" height = ""600"" style=""position:fixed;top:50%; left:50%; transform: translate(-50%, -50%); border:5px solid black"">","","","","","","","",""
"","2167","sequential-stimulus-presentation-old","130","880575","0.0-29.0-1.4","SS1619739161714","trial","","40","500","2667","images/stimuli/spore_stims/simple_20_A_a.gif","images/stimuli/spore_stims/simple_10_A_b.gif","self_paced","","10","simple_dissimilar","images/stimuli/spore_stims/simple_20_A_a.gif","","","","",""
"","7378","survey-multi-choice","131","887960","0.0-30.0","SS1619739161714","math_question","","","","","","","","","","","","{""Q0"":""13""}","[0]","13","",""
"","null","html-keyboard-response","132","888959","0.0-31.0-0.0","SS1619739161714","","","null","","","","","","<p><img src= images/blank.png width =""600"" height = ""600"" style=""position:fixed;top:50%; left:50%; transform: translate(-50%, -50%); border:5px solid black"">","","","","","","","",""
"","1198","sequential-stimulus-presentation-old","133","890677","0.0-31.0-1.0","SS1619739161714","trial","","40","500","1698","images/stimuli/spore_stims/complex_07_A_a.gif","images/stimuli/spore_stims/complex_11_A_b.gif","forced_short","","11","complex_dissimilar","images/stimuli/spore_stims/complex_11_A_b.gif","","","","",""
"","null","html-keyboard-response","134","891660","0.0-31.0-0.1","SS1619739161714","","","null","","","","","","<p><img src= images/blank.png width =""600"" height = ""600"" style=""position:fixed;top:50%; left:50%; transform: translate(-50%, -50%); border:5px solid black"">","","","","","","","",""
"","2532","sequential-stimulus-presentation-old","135","894711","0.0-31.0-1.1","SS1619739161714","trial","","40","500","3032","images/stimuli/spore_stims/complex_07_A_a.gif","images/stimuli/spore_stims/complex_11_A_b.gif","forced_short","","11","complex_dissimilar","images/stimuli/spore_stims/complex_07_A_a.gif","","","","",""
"","null","html-keyboard-response","136","895920","0.0-31.0-0.2","SS1619739161714","","","null","","","","","","<p><img src= images/blank.png width =""600"" height = ""600"" style=""position:fixed;top:50%; left:50%; transform: translate(-50%, -50%); border:5px solid black"">","","","","","","","",""
"","4872","sequential-stimulus-presentation-old","137","901311","0.0-31.0-1.2","SS1619739161714","trial","","40","500","5372","images/stimuli/spore_stims/complex_07_A_a.gif","images/stimuli/spore_stims/complex_11_A_b.gif","forced_short","","11","complex_dissimilar","images/stimuli/spore_stims/complex_11_A_b.gif","","","","",""
"","null","html-keyboard-response","138","902251","0.0-31.0-0.3","SS1619739161714","","","null","","","","","","<p><img src= images/blank.png width =""600"" height = ""600"" style=""position:fixed;top:50%; left:50%; transform: translate(-50%, -50%); border:5px solid black"">","","","","","","","",""
"","3812","sequential-stimulus-presentation-old","139","906582","0.0-31.0-1.3","SS1619739161714","trial","","40","500","4312","images/stimuli/spore_stims/complex_07_A_a.gif","images/stimuli/spore_stims/complex_11_A_b.gif","forced_short","","11","complex_dissimilar","images/stimuli/spore_stims/complex_11_A_b.gif","","","","",""
"","null","html-keyboard-response","140","907450","0.0-31.0-0.4","SS1619739161714","","","null","","","","","","<p><img src= images/blank.png width =""600"" height = ""600"" style=""position:fixed;top:50%; left:50%; transform: translate(-50%, -50%); border:5px solid black"">","","","","","","","",""
"","1435","sequential-stimulus-presentation-old","141","909416","0.0-31.0-1.4","SS1619739161714","trial","","40","500","1935","images/stimuli/spore_stims/complex_07_A_a.gif","images/stimuli/spore_stims/complex_11_A_b.gif","forced_short","","11","complex_dissimilar","images/stimuli/spore_stims/complex_11_A_b.gif","","","","",""
"","null","html-keyboard-response","142","910671","0.0-31.0-0.5","SS1619739161714","","","null","","","","","","<p><img src= images/blank.png width =""600"" height = ""600"" style=""position:fixed;top:50%; left:50%; transform: translate(-50%, -50%); border:5px solid black"">","","","","","","","",""
"","1667","sequential-stimulus-presentation-old","143","912848","0.0-31.0-1.5","SS1619739161714","trial","","40","500","2167","images/stimuli/spore_stims/complex_07_A_a.gif","images/stimuli/spore_stims/complex_11_A_b.gif","forced_short","","11","complex_dissimilar","images/stimuli/spore_stims/complex_07_A_a.gif","","","","",""
"[{""page_index"":0,""viewing_time"":11386}]","11387","instructions","144","924244","0.0-32.0","SS1619739161714","instructions","","","","","","","","","","","","","","","",""
"","29683","survey-likert","145","953932","0.0-33.0","SS1619739161714","similarity_question","","","","","","","","","","","","{""Q0"":4}","[0]","","images/stimuli/spore_stims/complex_08_A_b.gif","images/stimuli/spore_stims/complex_15_A_a.gif"
"","22648","survey-likert","146","976584","0.0-34.0","SS1619739161714","similarity_question","","","","","","","","","","","","{""Q0"":3}","[0]","","images/stimuli/spore_stims/complex_13_A_b.gif","images/stimuli/spore_stims/complex_02_A_a.gif"
"","12670","survey-likert","147","989258","0.0-35.0","SS1619739161714","similarity_question","","","","","","","","","","","","{""Q0"":5}","[0]","","images/stimuli/spore_stims/complex_03_A_b.gif","images/stimuli/spore_stims/complex_19_A_a.gif"
"","8557","survey-likert","148","997821","0.0-36.0","SS1619739161714","similarity_question","","","","","","","","","","","","{""Q0"":5}","[0]","","images/stimuli/spore_stims/simple_18_A_a.gif","images/stimuli/spore_stims/simple_07_A_b.gif"
"","9239","survey-likert","149","1007065","0.0-37.0","SS1619739161714","similarity_question","","","","","","","","","","","","{""Q0"":1}","[0]","","images/stimuli/spore_stims/complex_19_A_b.gif","images/stimuli/spore_stims/complex_16_A_a.gif"
"","6966","survey-likert","150","1014039","0.0-38.0","SS1619739161714","similarity_question","","","","","","","","","","","","{""Q0"":4}","[0]","","images/stimuli/spore_stims/simple_14_A_a.gif","images/stimuli/spore_stims/simple_19_A_b.gif"
"","14157","survey-likert","151","1028200","0.0-39.0","SS1619739161714","similarity_question","","","","","","","","","","","","{""Q0"":0}","[0]","","images/stimuli/spore_stims/complex_11_A_b.gif","images/stimuli/spore_stims/complex_07_A_a.gif"
"","10457","survey-likert","152","1038665","0.0-40.0","SS1619739161714","similarity_question","","","","","","","","","","","","{""Q0"":4}","[0]","","images/stimuli/spore_stims/simple_06_A_a.gif","images/stimuli/spore_stims/simple_18_A_b.gif"
"","12630","survey-likert","153","1051299","0.0-41.0","SS1619739161714","similarity_question","","","","","","","","","","","","{""Q0"":4}","[0]","","images/stimuli/spore_stims/complex_20_A_a.gif","images/stimuli/spore_stims/complex_07_A_b.gif"
"","4853","survey-likert","154","1056156","0.0-42.0","SS1619739161714","similarity_question","","","","","","","","","","","","{""Q0"":4}","[0]","","images/stimuli/spore_stims/simple_17_A_a.gif","images/stimuli/spore_stims/simple_09_A_b.gif"
"","5883","survey-likert","155","1062043","0.0-43.0","SS1619739161714","similarity_question","","","","","","","","","","","","{""Q0"":5}","[0]","","images/stimuli/spore_stims/simple_20_A_a.gif","images/stimuli/spore_stims/simple_10_A_b.gif"
"","6181","survey-likert","156","1068229","0.0-44.0","SS1619739161714","similarity_question","","","","","","","","","","","","{""Q0"":5}","[0]","","images/stimuli/spore_stims/simple_01_A_a.gif","images/stimuli/spore_stims/simple_20_A_b.gif"
"[{""page_index"":0,""viewing_time"":9251}]","9251","instructions","157","1077486","0.0-45.0","SS1619739161714","instructions","","","","","","","","","","","","","","","",""
"","7634","survey-likert","158","1085124","0.0-46.0","SS1619739161714","","","","","","","","","images/stimuli/spore_stims/simple_18_A_a.gif","","","","{""Q0"":1}","[0]","","",""
"","4731","survey-likert","159","1089860","0.0-47.0","SS1619739161714","","","","","","","","","images/stimuli/spore_stims/complex_15_A_a.gif","","","","{""Q0"":5}","[0]","","",""
"","5899","survey-likert","160","1095764","0.0-48.0","SS1619739161714","","","","","","","","","images/stimuli/spore_stims/simple_10_A_b.gif","","","","{""Q0"":1}","[0]","","",""
"","6189","survey-likert","161","1101958","0.0-49.0","SS1619739161714","","","","","","","","","images/stimuli/spore_stims/complex_07_A_b.gif","","","","{""Q0"":5}","[0]","","",""
"","7261","survey-likert","162","1109222","0.0-50.0","SS1619739161714","","","","","","","","","images/stimuli/spore_stims/simple_19_A_b.gif","","","","{""Q0"":2}","[0]","","",""
"","10531","survey-likert","163","1119757","0.0-51.0","SS1619739161714","","","","","","","","","images/stimuli/spore_stims/complex_03_A_b.gif","","","","{""Q0"":5}","[0]","","",""
"","6124","survey-likert","164","1125885","0.0-52.0","SS1619739161714","","","","","","","","","images/stimuli/spore_stims/complex_02_A_a.gif","","","","{""Q0"":4}","[0]","","",""
"","4342","survey-likert","165","1130230","0.0-53.0","SS1619739161714","","","","","","","","","images/stimuli/spore_stims/simple_20_A_b.gif","","","","{""Q0"":2}","[0]","","",""
"","3473","survey-likert","166","1133708","0.0-54.0","SS1619739161714","","","","","","","","","images/stimuli/spore_stims/complex_11_A_b.gif","","","","{""Q0"":5}","[0]","","",""
"","5273","survey-likert","167","1138985","0.0-55.0","SS1619739161714","","","","","","","","","images/stimuli/spore_stims/simple_06_A_a.gif","","","","{""Q0"":1}","[0]","","",""
"","3760","survey-likert","168","1142751","0.0-56.0","SS1619739161714","","","","","","","","","images/stimuli/spore_stims/simple_09_A_b.gif","","","","{""Q0"":1}","[0]","","",""
"","4072","survey-likert","169","1146827","0.0-57.0","SS1619739161714","","","","","","","","","images/stimuli/spore_stims/complex_19_A_b.gif","","","","{""Q0"":5}","[0]","","",""
"[{""page_index"":0,""viewing_time"":4884}]","4884","instructions","170","1151715","0.0-58.0","SS1619739161714","instructions","","","","","","","","","","","","","","","",""
"","11736","demog-age","171","1163459","0.0-59.0","SS1619739161714","","","","","","","","","","","","","{""age"":""27""}","","","",""
"","23161","demog-ethnic-US","172","1186628","0.0-60.0","SS1619739161714","","","","","","","","","","","","","{""ethnicity"":[""White""]}","[0]","","",""
"","19868","demog-gender-and-education","173","1206500","0.0-61.0","SS1619739161714","","","","","","","","","","","","","{""gender"":""Male"",""education"":""Bachelor's Degree""}","[0,1]","","",""
"","84158","survey-text","174","1290664","0.0-62.0","SS1619739161714","feedback","","","","","","","","","","","","{""Q0"":""it worked smoothly""}","","","",""
"[{""page_index"":0,""viewing_time"":5220}]","5220","instructions","175","1295889","0.0-63.0","SS1619739161714","instructions","","","","","","","","","","","","","","","",""
