"view_history","rt","trial_type","trial_index","time_elapsed","internal_node_id","subject","stimulus_type","trial_stimulus","key_press","minimum_viewing_duration","trial_looking_time","block_deviant","block_background","exposure_type","stimulus","block_number","block_type","stimulus_displayed","responses","question_order","math_correct_answer","stimulus_left","stimulus_right"
"[{""page_index"":0,""viewing_time"":1972.4800000003597}]","1972.8800000011688","instructions","0","1974","0.0-0.0","SS1619739341056","","","","","","","","","","","","","","","","",""
"[{""page_index"":0,""viewing_time"":13745.285000000877},{""page_index"":1,""viewing_time"":8220.604999998613}]","21966.12499999901","instructions","1","25950","0.0-1.0","SS1619739341056","instructions","","","","","","","","","","","","","","","",""
"","7689.640000000509","sequential-stimulus-presentation-old","2","34146","0.0-2.0","SS1619739341056","","","40","500","8189.640000000509","null","null","self_paced","","","","","","","","",""
"","4257.450000000972","sequential-stimulus-presentation-old","3","38905","0.0-3.0","SS1619739341056","","","40","500","4757.450000000972","null","null","self_paced","","","","","","","","",""
"[{""page_index"":0,""viewing_time"":16699.604999997973}]","16699.829999997746","instructions","4","55606","0.0-4.0","SS1619739341056","instructions","","","","","","","","","","","","","","","",""
"","580.3749999977299","sequential-stimulus-presentation-old","5","71189","0.0-5.0","SS1619739341056","","","40","500","1080.37499999773","null","null","forced_long","","","","","","","","",""
"","3148.4400000008463","sequential-stimulus-presentation-old","6","74846","0.0-6.0","SS1619739341056","","","40","500","3648.4400000008463","null","null","forced_long","","","","","","","","",""
"[{""page_index"":0,""viewing_time"":3502.025000001595}]","3502.2400000016205","instructions","7","78349","0.0-7.0","SS1619739341056","instructions","","","","","","","","","","","","","","","",""
"[{""page_index"":0,""viewing_time"":9537.950000001729},{""page_index"":1,""viewing_time"":10409.830000000511},{""page_index"":2,""viewing_time"":5975.009999998292},{""page_index"":3,""viewing_time"":2243.46499999956},{""page_index"":4,""viewing_time"":1013.7200000026496}]","29180.245000003197","instructions","8","107530","0.0-8.0","SS1619739341056","instructions","","","","","","","","","","","","","","","",""
"","null","html-keyboard-response","9","108418","0.0-9.0-0.0","SS1619739341056","","","null","","","","","","<p><img src= images/blank.png width =""600"" height = ""600"" style=""position:fixed;top:50%; left:50%; transform: translate(-50%, -50%); border:5px solid black"">","","","","","","","",""
"","11376.055000000633","sequential-stimulus-presentation-old","10","120307","0.0-9.0-1.0","SS1619739341056","trial","","40","500","11876.055000000633","images/stimuli/spore_stims/complex_15_A_a.gif","images/stimuli/spore_stims/complex_18_A_b.gif","self_paced","","0","complex_dissimilar","images/stimuli/spore_stims/complex_18_A_b.gif","","","","",""
"","null","html-keyboard-response","11","121190","0.0-9.0-0.1","SS1619739341056","","","null","","","","","","<p><img src= images/blank.png width =""600"" height = ""600"" style=""position:fixed;top:50%; left:50%; transform: translate(-50%, -50%); border:5px solid black"">","","","","","","","",""
"","5429.399999997258","sequential-stimulus-presentation-old","12","127132","0.0-9.0-1.1","SS1619739341056","trial","","40","500","5929.399999997258","images/stimuli/spore_stims/complex_15_A_a.gif","images/stimuli/spore_stims/complex_18_A_b.gif","self_paced","","0","complex_dissimilar","images/stimuli/spore_stims/complex_15_A_a.gif","","","","",""
"","null","html-keyboard-response","13","127984","0.0-9.0-0.2","SS1619739341056","","","null","","","","","","<p><img src= images/blank.png width =""600"" height = ""600"" style=""position:fixed;top:50%; left:50%; transform: translate(-50%, -50%); border:5px solid black"">","","","","","","","",""
"","4373.579999999492","sequential-stimulus-presentation-old","14","132869","0.0-9.0-1.2","SS1619739341056","trial","","40","500","4873.579999999492","images/stimuli/spore_stims/complex_15_A_a.gif","images/stimuli/spore_stims/complex_18_A_b.gif","self_paced","","0","complex_dissimilar","images/stimuli/spore_stims/complex_18_A_b.gif","","","","",""
"","null","html-keyboard-response","15","133894","0.0-9.0-0.3","SS1619739341056","","","null","","","","","","<p><img src= images/blank.png width =""600"" height = ""600"" style=""position:fixed;top:50%; left:50%; transform: translate(-50%, -50%); border:5px solid black"">","","","","","","","",""
"","5494.214999998803","sequential-stimulus-presentation-old","16","139893","0.0-9.0-1.3","SS1619739341056","trial","","40","500","5994.214999998803","images/stimuli/spore_stims/complex_15_A_a.gif","images/stimuli/spore_stims/complex_18_A_b.gif","self_paced","","0","complex_dissimilar","images/stimuli/spore_stims/complex_15_A_a.gif","","","","",""
"","null","html-keyboard-response","17","141171","0.0-9.0-0.4","SS1619739341056","","","null","","","","","","<p><img src= images/blank.png width =""600"" height = ""600"" style=""position:fixed;top:50%; left:50%; transform: translate(-50%, -50%); border:5px solid black"">","","","","","","","",""
"","6083.909999997559","sequential-stimulus-presentation-old","18","147758","0.0-9.0-1.4","SS1619739341056","trial","","40","500","6583.909999997559","images/stimuli/spore_stims/complex_15_A_a.gif","images/stimuli/spore_stims/complex_18_A_b.gif","self_paced","","0","complex_dissimilar","images/stimuli/spore_stims/complex_18_A_b.gif","","","","",""
"","null","html-keyboard-response","19","148750","0.0-9.0-0.5","SS1619739341056","","","null","","","","","","<p><img src= images/blank.png width =""600"" height = ""600"" style=""position:fixed;top:50%; left:50%; transform: translate(-50%, -50%); border:5px solid black"">","","","","","","","",""
"","1915.755000001809","sequential-stimulus-presentation-old","20","151182","0.0-9.0-1.5","SS1619739341056","trial","","40","500","2415.755000001809","images/stimuli/spore_stims/complex_15_A_a.gif","images/stimuli/spore_stims/complex_18_A_b.gif","self_paced","","0","complex_dissimilar","images/stimuli/spore_stims/complex_18_A_b.gif","","","","",""
"","12848.74999999738","survey-multi-choice","21","164033","0.0-10.0","SS1619739341056","math_question","","","","","","","","","","","","{""Q0"":""16""}","[0]","16","",""
"","null","html-keyboard-response","22","165021","0.0-11.0-0.0","SS1619739341056","","","null","","","","","","<p><img src= images/blank.png width =""600"" height = ""600"" style=""position:fixed;top:50%; left:50%; transform: translate(-50%, -50%); border:5px solid black"">","","","","","","","",""
"","999.855000001844","sequential-stimulus-presentation-old","23","181026","0.0-11.0-1.0","SS1619739341056","trial","","40","500","1499.855000001844","images/stimuli/spore_stims/simple_12_A_a.gif","images/stimuli/spore_stims/simple_19_A_b.gif","forced_long","","1","simple_dissimilar","images/stimuli/spore_stims/simple_19_A_b.gif","","","","",""
"","null","html-keyboard-response","24","181968","0.0-11.0-0.1","SS1619739341056","","","null","","","","","","<p><img src= images/blank.png width =""600"" height = ""600"" style=""position:fixed;top:50%; left:50%; transform: translate(-50%, -50%); border:5px solid black"">","","","","","","","",""
"","58.29999999696156","sequential-stimulus-presentation-old","25","182530","0.0-11.0-1.1","SS1619739341056","trial","","40","500","558.2999999969616","images/stimuli/spore_stims/simple_12_A_a.gif","images/stimuli/spore_stims/simple_19_A_b.gif","forced_long","","1","simple_dissimilar","images/stimuli/spore_stims/simple_19_A_b.gif","","","","",""
"","null","html-keyboard-response","26","183553","0.0-11.0-0.2","SS1619739341056","","","null","","","","","","<p><img src= images/blank.png width =""600"" height = ""600"" style=""position:fixed;top:50%; left:50%; transform: translate(-50%, -50%); border:5px solid black"">","","","","","","","",""
"","459.52499999839347","sequential-stimulus-presentation-old","27","184515","0.0-11.0-1.2","SS1619739341056","trial","","40","500","959.5249999983935","images/stimuli/spore_stims/simple_12_A_a.gif","images/stimuli/spore_stims/simple_19_A_b.gif","forced_long","","1","simple_dissimilar","images/stimuli/spore_stims/simple_19_A_b.gif","","","","",""
"","null","html-keyboard-response","28","185427","0.0-11.0-0.3","SS1619739341056","","","null","","","","","","<p><img src= images/blank.png width =""600"" height = ""600"" style=""position:fixed;top:50%; left:50%; transform: translate(-50%, -50%); border:5px solid black"">","","","","","","","",""
"","1193.8699999991513","sequential-stimulus-presentation-old","29","187123","0.0-11.0-1.3","SS1619739341056","trial","","40","500","1693.8699999991513","images/stimuli/spore_stims/simple_12_A_a.gif","images/stimuli/spore_stims/simple_19_A_b.gif","forced_long","","1","simple_dissimilar","images/stimuli/spore_stims/simple_19_A_b.gif","","","","",""
"","null","html-keyboard-response","30","188367","0.0-11.0-0.4","SS1619739341056","","","null","","","","","","<p><img src= images/blank.png width =""600"" height = ""600"" style=""position:fixed;top:50%; left:50%; transform: translate(-50%, -50%); border:5px solid black"">","","","","","","","",""
"","654.4150000008813","sequential-stimulus-presentation-old","31","189523","0.0-11.0-1.4","SS1619739341056","trial","","40","500","1154.4150000008813","images/stimuli/spore_stims/simple_12_A_a.gif","images/stimuli/spore_stims/simple_19_A_b.gif","forced_long","","1","simple_dissimilar","images/stimuli/spore_stims/simple_19_A_b.gif","","","","",""
"","null","html-keyboard-response","32","190751","0.0-11.0-0.5","SS1619739341056","","","null","","","","","","<p><img src= images/blank.png width =""600"" height = ""600"" style=""position:fixed;top:50%; left:50%; transform: translate(-50%, -50%); border:5px solid black"">","","","","","","","",""
"","3323.9549999998417","sequential-stimulus-presentation-old","33","194580","0.0-11.0-1.5","SS1619739341056","trial","","40","500","3823.9549999998417","images/stimuli/spore_stims/simple_12_A_a.gif","images/stimuli/spore_stims/simple_19_A_b.gif","forced_long","","1","simple_dissimilar","images/stimuli/spore_stims/simple_12_A_a.gif","","","","",""
"","5664.580000000569","survey-multi-choice","34","200246","0.0-12.0","SS1619739341056","math_question","","","","","","","","","","","","{""Q0"":""12""}","[0]","12","",""
"","null","html-keyboard-response","35","201537","0.0-13.0-0.0","SS1619739341056","","","null","","","","","","<p><img src= images/blank.png width =""600"" height = ""600"" style=""position:fixed;top:50%; left:50%; transform: translate(-50%, -50%); border:5px solid black"">","","","","","","","",""
"","1025.00499999951","sequential-stimulus-presentation-old","36","217567","0.0-13.0-1.0","SS1619739341056","trial","","40","500","1525.00499999951","images/stimuli/spore_stims/complex_07_A_a.gif","images/stimuli/spore_stims/complex_02_A_b.gif","forced_long","","2","complex_dissimilar","images/stimuli/spore_stims/complex_02_A_b.gif","","","","",""
"","null","html-keyboard-response","37","218686","0.0-13.0-0.1","SS1619739341056","","","null","","","","","","<p><img src= images/blank.png width =""600"" height = ""600"" style=""position:fixed;top:50%; left:50%; transform: translate(-50%, -50%); border:5px solid black"">","","","","","","","",""
"","199.70499999908498","sequential-stimulus-presentation-old","38","219399","0.0-13.0-1.1","SS1619739341056","trial","","40","500","699.704999999085","images/stimuli/spore_stims/complex_07_A_a.gif","images/stimuli/spore_stims/complex_02_A_b.gif","forced_long","","2","complex_dissimilar","images/stimuli/spore_stims/complex_02_A_b.gif","","","","",""
"","null","html-keyboard-response","39","220500","0.0-13.0-0.2","SS1619739341056","","","null","","","","","","<p><img src= images/blank.png width =""600"" height = ""600"" style=""position:fixed;top:50%; left:50%; transform: translate(-50%, -50%); border:5px solid black"">","","","","","","","",""
"","292.0850000009523","sequential-stimulus-presentation-old","40","221295","0.0-13.0-1.2","SS1619739341056","trial","","40","500","792.0850000009523","images/stimuli/spore_stims/complex_07_A_a.gif","images/stimuli/spore_stims/complex_02_A_b.gif","forced_long","","2","complex_dissimilar","images/stimuli/spore_stims/complex_02_A_b.gif","","","","",""
"","null","html-keyboard-response","41","222470","0.0-13.0-0.3","SS1619739341056","","","null","","","","","","<p><img src= images/blank.png width =""600"" height = ""600"" style=""position:fixed;top:50%; left:50%; transform: translate(-50%, -50%); border:5px solid black"">","","","","","","","",""
"","74.06999999875552","sequential-stimulus-presentation-old","42","223047","0.0-13.0-1.3","SS1619739341056","trial","","40","500","574.0699999987555","images/stimuli/spore_stims/complex_07_A_a.gif","images/stimuli/spore_stims/complex_02_A_b.gif","forced_long","","2","complex_dissimilar","images/stimuli/spore_stims/complex_02_A_b.gif","","","","",""
"","null","html-keyboard-response","43","224224","0.0-13.0-0.4","SS1619739341056","","","null","","","","","","<p><img src= images/blank.png width =""600"" height = ""600"" style=""position:fixed;top:50%; left:50%; transform: translate(-50%, -50%); border:5px solid black"">","","","","","","","",""
"","529.0100000020175","sequential-stimulus-presentation-old","44","225255","0.0-13.0-1.4","SS1619739341056","trial","","40","500","1029.0100000020175","images/stimuli/spore_stims/complex_07_A_a.gif","images/stimuli/spore_stims/complex_02_A_b.gif","forced_long","","2","complex_dissimilar","images/stimuli/spore_stims/complex_02_A_b.gif","","","","",""
"","null","html-keyboard-response","45","226422","0.0-13.0-0.5","SS1619739341056","","","null","","","","","","<p><img src= images/blank.png width =""600"" height = ""600"" style=""position:fixed;top:50%; left:50%; transform: translate(-50%, -50%); border:5px solid black"">","","","","","","","",""
"","2978.334999999788","sequential-stimulus-presentation-old","46","229904","0.0-13.0-1.5","SS1619739341056","trial","","40","500","3478.334999999788","images/stimuli/spore_stims/complex_07_A_a.gif","images/stimuli/spore_stims/complex_02_A_b.gif","forced_long","","2","complex_dissimilar","images/stimuli/spore_stims/complex_07_A_a.gif","","","","",""
"","2515.6800000004296","survey-multi-choice","47","232422","0.0-14.0","SS1619739341056","math_question","","","","","","","","","","","","{""Q0"":""10""}","[0]","10","",""
"","null","html-keyboard-response","48","233609","0.0-15.0-0.0","SS1619739341056","","","null","","","","","","<p><img src= images/blank.png width =""600"" height = ""600"" style=""position:fixed;top:50%; left:50%; transform: translate(-50%, -50%); border:5px solid black"">","","","","","","","",""
"","2480.294999997568","sequential-stimulus-presentation-old","49","236593","0.0-15.0-1.0","SS1619739341056","trial","","40","500","2980.294999997568","images/stimuli/spore_stims/simple_15_A_a.gif","images/stimuli/spore_stims/simple_04_A_b.gif","forced_short","","3","simple_dissimilar","images/stimuli/spore_stims/simple_04_A_b.gif","","","","",""
"","null","html-keyboard-response","50","237843","0.0-15.0-0.1","SS1619739341056","","","null","","","","","","<p><img src= images/blank.png width =""600"" height = ""600"" style=""position:fixed;top:50%; left:50%; transform: translate(-50%, -50%); border:5px solid black"">","","","","","","","",""
"","1573.5449999992852","sequential-stimulus-presentation-old","51","239921","0.0-15.0-1.1","SS1619739341056","trial","","40","500","2073.544999999285","images/stimuli/spore_stims/simple_15_A_a.gif","images/stimuli/spore_stims/simple_04_A_b.gif","forced_short","","3","simple_dissimilar","images/stimuli/spore_stims/simple_04_A_b.gif","","","","",""
"","null","html-keyboard-response","52","240789","0.0-15.0-0.2","SS1619739341056","","","null","","","","","","<p><img src= images/blank.png width =""600"" height = ""600"" style=""position:fixed;top:50%; left:50%; transform: translate(-50%, -50%); border:5px solid black"">","","","","","","","",""
"","677.5300000008428","sequential-stimulus-presentation-old","53","241969","0.0-15.0-1.2","SS1619739341056","trial","","40","500","1177.5300000008428","images/stimuli/spore_stims/simple_15_A_a.gif","images/stimuli/spore_stims/simple_04_A_b.gif","forced_short","","3","simple_dissimilar","images/stimuli/spore_stims/simple_04_A_b.gif","","","","",""
"","null","html-keyboard-response","54","242843","0.0-15.0-0.3","SS1619739341056","","","null","","","","","","<p><img src= images/blank.png width =""600"" height = ""600"" style=""position:fixed;top:50%; left:50%; transform: translate(-50%, -50%); border:5px solid black"">","","","","","","","",""
"","295.0349999991886","sequential-stimulus-presentation-old","55","243641","0.0-15.0-1.3","SS1619739341056","trial","","40","500","795.0349999991886","images/stimuli/spore_stims/simple_15_A_a.gif","images/stimuli/spore_stims/simple_04_A_b.gif","forced_short","","3","simple_dissimilar","images/stimuli/spore_stims/simple_04_A_b.gif","","","","",""
"","null","html-keyboard-response","56","244611","0.0-15.0-0.4","SS1619739341056","","","null","","","","","","<p><img src= images/blank.png width =""600"" height = ""600"" style=""position:fixed;top:50%; left:50%; transform: translate(-50%, -50%); border:5px solid black"">","","","","","","","",""
"","350.9300000005169","sequential-stimulus-presentation-old","57","245473","0.0-15.0-1.4","SS1619739341056","trial","","40","500","850.9300000005169","images/stimuli/spore_stims/simple_15_A_a.gif","images/stimuli/spore_stims/simple_04_A_b.gif","forced_short","","3","simple_dissimilar","images/stimuli/spore_stims/simple_04_A_b.gif","","","","",""
"","null","html-keyboard-response","58","246725","0.0-15.0-0.5","SS1619739341056","","","null","","","","","","<p><img src= images/blank.png width =""600"" height = ""600"" style=""position:fixed;top:50%; left:50%; transform: translate(-50%, -50%); border:5px solid black"">","","","","","","","",""
"","141.7750000000524","sequential-stimulus-presentation-old","59","247370","0.0-15.0-1.5","SS1619739341056","trial","","40","500","641.7750000000524","images/stimuli/spore_stims/simple_15_A_a.gif","images/stimuli/spore_stims/simple_04_A_b.gif","forced_short","","3","simple_dissimilar","images/stimuli/spore_stims/simple_15_A_a.gif","","","","",""
"","7425.965000002179","survey-multi-choice","60","254798","0.0-16.0","SS1619739341056","math_question","","","","","","","","","","","","{""Q0"":""15""}","[0]","15","",""
"","null","html-keyboard-response","61","255916","0.0-17.0-0.0","SS1619739341056","","","null","","","","","","<p><img src= images/blank.png width =""600"" height = ""600"" style=""position:fixed;top:50%; left:50%; transform: translate(-50%, -50%); border:5px solid black"">","","","","","","","",""
"","588.5500000003958","sequential-stimulus-presentation-old","62","271508","0.0-17.0-1.0","SS1619739341056","trial","","40","500","1088.5500000003958","images/stimuli/spore_stims/complex_05_A_a.gif","images/stimuli/spore_stims/complex_04_A_b.gif","forced_long","","4","complex_dissimilar","images/stimuli/spore_stims/complex_04_A_b.gif","","","","",""
"","null","html-keyboard-response","63","272404","0.0-17.0-0.1","SS1619739341056","","","null","","","","","","<p><img src= images/blank.png width =""600"" height = ""600"" style=""position:fixed;top:50%; left:50%; transform: translate(-50%, -50%); border:5px solid black"">","","","","","","","",""
"","236.10499999992317","sequential-stimulus-presentation-old","64","273148","0.0-17.0-1.1","SS1619739341056","trial","","40","500","736.1049999999232","images/stimuli/spore_stims/complex_05_A_a.gif","images/stimuli/spore_stims/complex_04_A_b.gif","forced_long","","4","complex_dissimilar","images/stimuli/spore_stims/complex_04_A_b.gif","","","","",""
"","null","html-keyboard-response","65","274441","0.0-17.0-0.2","SS1619739341056","","","null","","","","","","<p><img src= images/blank.png width =""600"" height = ""600"" style=""position:fixed;top:50%; left:50%; transform: translate(-50%, -50%); border:5px solid black"">","","","","","","","",""
"","1244.8550000008545","sequential-stimulus-presentation-old","66","276189","0.0-17.0-1.2","SS1619739341056","trial","","40","500","1744.8550000008545","images/stimuli/spore_stims/complex_05_A_a.gif","images/stimuli/spore_stims/complex_04_A_b.gif","forced_long","","4","complex_dissimilar","images/stimuli/spore_stims/complex_05_A_a.gif","","","","",""
"","null","html-keyboard-response","67","277233","0.0-17.0-0.3","SS1619739341056","","","null","","","","","","<p><img src= images/blank.png width =""600"" height = ""600"" style=""position:fixed;top:50%; left:50%; transform: translate(-50%, -50%); border:5px solid black"">","","","","","","","",""
"","414.2649999994319","sequential-stimulus-presentation-old","68","278165","0.0-17.0-1.3","SS1619739341056","trial","","40","500","914.2649999994319","images/stimuli/spore_stims/complex_05_A_a.gif","images/stimuli/spore_stims/complex_04_A_b.gif","forced_long","","4","complex_dissimilar","images/stimuli/spore_stims/complex_04_A_b.gif","","","","",""
"","2635.6250000026193","survey-multi-choice","69","280803","0.0-18.0","SS1619739341056","math_question","","","","","","","","","","","","{""Q0"":""10""}","[0]","10","",""
"","null","html-keyboard-response","70","282096","0.0-19.0-0.0","SS1619739341056","","","null","","","","","","<p><img src= images/blank.png width =""600"" height = ""600"" style=""position:fixed;top:50%; left:50%; transform: translate(-50%, -50%); border:5px solid black"">","","","","","","","",""
"","1294.5349999972968","sequential-stimulus-presentation-old","71","283894","0.0-19.0-1.0","SS1619739341056","trial","","40","500","1794.5349999972968","images/stimuli/spore_stims/complex_08_A_a.gif","images/stimuli/spore_stims/complex_15_A_b.gif","self_paced","","5","complex_dissimilar","images/stimuli/spore_stims/complex_15_A_b.gif","","","","",""
"","null","html-keyboard-response","72","284962","0.0-19.0-0.1","SS1619739341056","","","null","","","","","","<p><img src= images/blank.png width =""600"" height = ""600"" style=""position:fixed;top:50%; left:50%; transform: translate(-50%, -50%); border:5px solid black"">","","","","","","","",""
"","245.10999999986961","sequential-stimulus-presentation-old","73","285718","0.0-19.0-1.1","SS1619739341056","trial","","40","500","745.1099999998696","images/stimuli/spore_stims/complex_08_A_a.gif","images/stimuli/spore_stims/complex_15_A_b.gif","self_paced","","5","complex_dissimilar","images/stimuli/spore_stims/complex_15_A_b.gif","","","","",""
"","null","html-keyboard-response","74","286788","0.0-19.0-0.2","SS1619739341056","","","null","","","","","","<p><img src= images/blank.png width =""600"" height = ""600"" style=""position:fixed;top:50%; left:50%; transform: translate(-50%, -50%); border:5px solid black"">","","","","","","","",""
"","851.135000000766","sequential-stimulus-presentation-old","75","288142","0.0-19.0-1.2","SS1619739341056","trial","","40","500","1351.135000000766","images/stimuli/spore_stims/complex_08_A_a.gif","images/stimuli/spore_stims/complex_15_A_b.gif","self_paced","","5","complex_dissimilar","images/stimuli/spore_stims/complex_15_A_b.gif","","","","",""
"","null","html-keyboard-response","76","289324","0.0-19.0-0.3","SS1619739341056","","","null","","","","","","<p><img src= images/blank.png width =""600"" height = ""600"" style=""position:fixed;top:50%; left:50%; transform: translate(-50%, -50%); border:5px solid black"">","","","","","","","",""
"","1387.9799999995157","sequential-stimulus-presentation-old","77","291215","0.0-19.0-1.3","SS1619739341056","trial","","40","500","1887.9799999995157","images/stimuli/spore_stims/complex_08_A_a.gif","images/stimuli/spore_stims/complex_15_A_b.gif","self_paced","","5","complex_dissimilar","images/stimuli/spore_stims/complex_08_A_a.gif","","","","",""
"","null","html-keyboard-response","78","292314","0.0-19.0-0.4","SS1619739341056","","","null","","","","","","<p><img src= images/blank.png width =""600"" height = ""600"" style=""position:fixed;top:50%; left:50%; transform: translate(-50%, -50%); border:5px solid black"">","","","","","","","",""
"","253.41000000113854","sequential-stimulus-presentation-old","79","293071","0.0-19.0-1.4","SS1619739341056","trial","","40","500","753.4100000011385","images/stimuli/spore_stims/complex_08_A_a.gif","images/stimuli/spore_stims/complex_15_A_b.gif","self_paced","","5","complex_dissimilar","images/stimuli/spore_stims/complex_15_A_b.gif","","","","",""
"","null","html-keyboard-response","80","294275","0.0-19.0-0.5","SS1619739341056","","","null","","","","","","<p><img src= images/blank.png width =""600"" height = ""600"" style=""position:fixed;top:50%; left:50%; transform: translate(-50%, -50%); border:5px solid black"">","","","","","","","",""
"","7413.544999999402","sequential-stimulus-presentation-old","81","302192","0.0-19.0-1.5","SS1619739341056","trial","","40","500","7913.544999999402","images/stimuli/spore_stims/complex_08_A_a.gif","images/stimuli/spore_stims/complex_15_A_b.gif","self_paced","","5","complex_dissimilar","images/stimuli/spore_stims/complex_15_A_b.gif","","","","",""
"","2682.6400000026915","survey-multi-choice","82","304877","0.0-20.0","SS1619739341056","math_question","","","","","","","","","","","","{""Q0"":""7""}","[0]","7","",""
"","null","html-keyboard-response","83","305695","0.0-21.0-0.0","SS1619739341056","","","null","","","","","","<p><img src= images/blank.png width =""600"" height = ""600"" style=""position:fixed;top:50%; left:50%; transform: translate(-50%, -50%); border:5px solid black"">","","","","","","","",""
"","893.4599999993807","sequential-stimulus-presentation-old","84","321595","0.0-21.0-1.0","SS1619739341056","trial","","40","500","1393.4599999993807","images/stimuli/spore_stims/simple_13_A_a.gif","images/stimuli/spore_stims/simple_09_A_b.gif","forced_long","","6","simple_dissimilar","images/stimuli/spore_stims/simple_09_A_b.gif","","","","",""
"","null","html-keyboard-response","85","322485","0.0-21.0-0.1","SS1619739341056","","","null","","","","","","<p><img src= images/blank.png width =""600"" height = ""600"" style=""position:fixed;top:50%; left:50%; transform: translate(-50%, -50%); border:5px solid black"">","","","","","","","",""
"","87.70999999978812","sequential-stimulus-presentation-old","86","323083","0.0-21.0-1.1","SS1619739341056","trial","","40","500","587.7099999997881","images/stimuli/spore_stims/simple_13_A_a.gif","images/stimuli/spore_stims/simple_09_A_b.gif","forced_long","","6","simple_dissimilar","images/stimuli/spore_stims/simple_09_A_b.gif","","","","",""
"","null","html-keyboard-response","87","324272","0.0-21.0-0.2","SS1619739341056","","","null","","","","","","<p><img src= images/blank.png width =""600"" height = ""600"" style=""position:fixed;top:50%; left:50%; transform: translate(-50%, -50%); border:5px solid black"">","","","","","","","",""
"","436.009999997681","sequential-stimulus-presentation-old","88","325211","0.0-21.0-1.2","SS1619739341056","trial","","40","500","936.009999997681","images/stimuli/spore_stims/simple_13_A_a.gif","images/stimuli/spore_stims/simple_09_A_b.gif","forced_long","","6","simple_dissimilar","images/stimuli/spore_stims/simple_13_A_a.gif","","","","",""
"","null","html-keyboard-response","89","326225","0.0-21.0-0.3","SS1619739341056","","","null","","","","","","<p><img src= images/blank.png width =""600"" height = ""600"" style=""position:fixed;top:50%; left:50%; transform: translate(-50%, -50%); border:5px solid black"">","","","","","","","",""
"","135.3899999994319","sequential-stimulus-presentation-old","90","326875","0.0-21.0-1.3","SS1619739341056","trial","","40","500","635.3899999994319","images/stimuli/spore_stims/simple_13_A_a.gif","images/stimuli/spore_stims/simple_09_A_b.gif","forced_long","","6","simple_dissimilar","images/stimuli/spore_stims/simple_09_A_b.gif","","","","",""
"","null","html-keyboard-response","91","328107","0.0-21.0-0.4","SS1619739341056","","","null","","","","","","<p><img src= images/blank.png width =""600"" height = ""600"" style=""position:fixed;top:50%; left:50%; transform: translate(-50%, -50%); border:5px solid black"">","","","","","","","",""
"","378.2449999998789","sequential-stimulus-presentation-old","92","328996","0.0-21.0-1.4","SS1619739341056","trial","","40","500","878.2449999998789","images/stimuli/spore_stims/simple_13_A_a.gif","images/stimuli/spore_stims/simple_09_A_b.gif","forced_long","","6","simple_dissimilar","images/stimuli/spore_stims/simple_13_A_a.gif","","","","",""
"","4114.075000001292","survey-multi-choice","93","333112","0.0-22.0","SS1619739341056","math_question","","","","","","","","","","","","{""Q0"":""11""}","[0]","11","",""
"","null","html-keyboard-response","94","334098","0.0-23.0-0.0","SS1619739341056","","","null","","","","","","<p><img src= images/blank.png width =""600"" height = ""600"" style=""position:fixed;top:50%; left:50%; transform: translate(-50%, -50%); border:5px solid black"">","","","","","","","",""
"","1098.419999998412","sequential-stimulus-presentation-old","95","335700","0.0-23.0-1.0","SS1619739341056","trial","","40","500","1598.419999998412","images/stimuli/spore_stims/simple_17_A_a.gif","images/stimuli/spore_stims/simple_10_A_b.gif","self_paced","","7","simple_dissimilar","images/stimuli/spore_stims/simple_10_A_b.gif","","","","",""
"","null","html-keyboard-response","96","336663","0.0-23.0-0.1","SS1619739341056","","","null","","","","","","<p><img src= images/blank.png width =""600"" height = ""600"" style=""position:fixed;top:50%; left:50%; transform: translate(-50%, -50%); border:5px solid black"">","","","","","","","",""
"","49.85500000114553","sequential-stimulus-presentation-old","97","337229","0.0-23.0-1.1","SS1619739341056","trial","","40","500","549.8550000011455","images/stimuli/spore_stims/simple_17_A_a.gif","images/stimuli/spore_stims/simple_10_A_b.gif","self_paced","","7","simple_dissimilar","images/stimuli/spore_stims/simple_10_A_b.gif","","","","",""
"","null","html-keyboard-response","98","338474","0.0-23.0-0.2","SS1619739341056","","","null","","","","","","<p><img src= images/blank.png width =""600"" height = ""600"" style=""position:fixed;top:50%; left:50%; transform: translate(-50%, -50%); border:5px solid black"">","","","","","","","",""
"","353.7749999995576","sequential-stimulus-presentation-old","99","339333","0.0-23.0-1.2","SS1619739341056","trial","","40","500","853.7749999995576","images/stimuli/spore_stims/simple_17_A_a.gif","images/stimuli/spore_stims/simple_10_A_b.gif","self_paced","","7","simple_dissimilar","images/stimuli/spore_stims/simple_17_A_a.gif","","","","",""
"","null","html-keyboard-response","100","340426","0.0-23.0-0.3","SS1619739341056","","","null","","","","","","<p><img src= images/blank.png width =""600"" height = ""600"" style=""position:fixed;top:50%; left:50%; transform: translate(-50%, -50%); border:5px solid black"">","","","","","","","",""
"","410.57999999978347","sequential-stimulus-presentation-old","101","341341","0.0-23.0-1.3","SS1619739341056","trial","","40","500","910.5799999997835","images/stimuli/spore_stims/simple_17_A_a.gif","images/stimuli/spore_stims/simple_10_A_b.gif","self_paced","","7","simple_dissimilar","images/stimuli/spore_stims/simple_10_A_b.gif","","","","",""
"","2136.435000000347","survey-multi-choice","102","343479","0.0-24.0","SS1619739341056","math_question","","","","","","","","","","","","{""Q0"":""7""}","[0]","7","",""
"","null","html-keyboard-response","103","344727","0.0-25.0-0.0","SS1619739341056","","","null","","","","","","<p><img src= images/blank.png width =""600"" height = ""600"" style=""position:fixed;top:50%; left:50%; transform: translate(-50%, -50%); border:5px solid black"">","","","","","","","",""
"","1421.2850000003818","sequential-stimulus-presentation-old","104","346653","0.0-25.0-1.0","SS1619739341056","trial","","40","500","1921.2850000003818","images/stimuli/spore_stims/complex_12_A_b.gif","images/stimuli/spore_stims/complex_14_A_a.gif","forced_short","","8","complex_dissimilar","images/stimuli/spore_stims/complex_14_A_a.gif","","","","",""
"","null","html-keyboard-response","105","347654","0.0-25.0-0.1","SS1619739341056","","","null","","","","","","<p><img src= images/blank.png width =""600"" height = ""600"" style=""position:fixed;top:50%; left:50%; transform: translate(-50%, -50%); border:5px solid black"">","","","","","","","",""
"","456.17000000126427","sequential-stimulus-presentation-old","106","348622","0.0-25.0-1.1","SS1619739341056","trial","","40","500","956.1700000012643","images/stimuli/spore_stims/complex_12_A_b.gif","images/stimuli/spore_stims/complex_14_A_a.gif","forced_short","","8","complex_dissimilar","images/stimuli/spore_stims/complex_14_A_a.gif","","","","",""
"","null","html-keyboard-response","107","349553","0.0-25.0-0.2","SS1619739341056","","","null","","","","","","<p><img src= images/blank.png width =""600"" height = ""600"" style=""position:fixed;top:50%; left:50%; transform: translate(-50%, -50%); border:5px solid black"">","","","","","","","",""
"","109.48999999888474","sequential-stimulus-presentation-old","108","350166","0.0-25.0-1.2","SS1619739341056","trial","","40","500","609.4899999988847","images/stimuli/spore_stims/complex_12_A_b.gif","images/stimuli/spore_stims/complex_14_A_a.gif","forced_short","","8","complex_dissimilar","images/stimuli/spore_stims/complex_14_A_a.gif","","","","",""
"","null","html-keyboard-response","109","351179","0.0-25.0-0.3","SS1619739341056","","","null","","","","","","<p><img src= images/blank.png width =""600"" height = ""600"" style=""position:fixed;top:50%; left:50%; transform: translate(-50%, -50%); border:5px solid black"">","","","","","","","",""
"","2065.695000001171","sequential-stimulus-presentation-old","110","353759","0.0-25.0-1.3","SS1619739341056","trial","","40","500","2565.695000001171","images/stimuli/spore_stims/complex_12_A_b.gif","images/stimuli/spore_stims/complex_14_A_a.gif","forced_short","","8","complex_dissimilar","images/stimuli/spore_stims/complex_14_A_a.gif","","","","",""
"","null","html-keyboard-response","111","354647","0.0-25.0-0.4","SS1619739341056","","","null","","","","","","<p><img src= images/blank.png width =""600"" height = ""600"" style=""position:fixed;top:50%; left:50%; transform: translate(-50%, -50%); border:5px solid black"">","","","","","","","",""
"","446.58500000147615","sequential-stimulus-presentation-old","112","355607","0.0-25.0-1.4","SS1619739341056","trial","","40","500","946.5850000014761","images/stimuli/spore_stims/complex_12_A_b.gif","images/stimuli/spore_stims/complex_14_A_a.gif","forced_short","","8","complex_dissimilar","images/stimuli/spore_stims/complex_14_A_a.gif","","","","",""
"","null","html-keyboard-response","113","356777","0.0-25.0-0.5","SS1619739341056","","","null","","","","","","<p><img src= images/blank.png width =""600"" height = ""600"" style=""position:fixed;top:50%; left:50%; transform: translate(-50%, -50%); border:5px solid black"">","","","","","","","",""
"","1038.4350000022096","sequential-stimulus-presentation-old","114","358319","0.0-25.0-1.5","SS1619739341056","trial","","40","500","1538.4350000022096","images/stimuli/spore_stims/complex_12_A_b.gif","images/stimuli/spore_stims/complex_14_A_a.gif","forced_short","","8","complex_dissimilar","images/stimuli/spore_stims/complex_12_A_b.gif","","","","",""
"","3603.255000001809","survey-multi-choice","115","361925","0.0-26.0","SS1619739341056","math_question","","","","","","","","","","","","{""Q0"":""12""}","[0]","12","",""
"","null","html-keyboard-response","116","362844","0.0-27.0-0.0","SS1619739341056","","","null","","","","","","<p><img src= images/blank.png width =""600"" height = ""600"" style=""position:fixed;top:50%; left:50%; transform: translate(-50%, -50%); border:5px solid black"">","","","","","","","",""
"","5644.290000000212","sequential-stimulus-presentation-old","117","368992","0.0-27.0-1.0","SS1619739341056","trial","","40","500","6144.290000000212","images/stimuli/spore_stims/complex_16_A_b.gif","images/stimuli/spore_stims/complex_12_A_a.gif","forced_short","","9","complex_dissimilar","images/stimuli/spore_stims/complex_12_A_a.gif","","","","",""
"","null","html-keyboard-response","118","369845","0.0-27.0-0.1","SS1619739341056","","","null","","","","","","<p><img src= images/blank.png width =""600"" height = ""600"" style=""position:fixed;top:50%; left:50%; transform: translate(-50%, -50%); border:5px solid black"">","","","","","","","",""
"","697.9699999974109","sequential-stimulus-presentation-old","119","371057","0.0-27.0-1.1","SS1619739341056","trial","","40","500","1197.969999997411","images/stimuli/spore_stims/complex_16_A_b.gif","images/stimuli/spore_stims/complex_12_A_a.gif","forced_short","","9","complex_dissimilar","images/stimuli/spore_stims/complex_16_A_b.gif","","","","",""
"","null","html-keyboard-response","120","372201","0.0-27.0-0.2","SS1619739341056","","","null","","","","","","<p><img src= images/blank.png width =""600"" height = ""600"" style=""position:fixed;top:50%; left:50%; transform: translate(-50%, -50%); border:5px solid black"">","","","","","","","",""
"","760.1250000006985","sequential-stimulus-presentation-old","121","373473","0.0-27.0-1.2","SS1619739341056","trial","","40","500","1260.1250000006985","images/stimuli/spore_stims/complex_16_A_b.gif","images/stimuli/spore_stims/complex_12_A_a.gif","forced_short","","9","complex_dissimilar","images/stimuli/spore_stims/complex_16_A_b.gif","","","","",""
"","null","html-keyboard-response","122","374613","0.0-27.0-0.3","SS1619739341056","","","null","","","","","","<p><img src= images/blank.png width =""600"" height = ""600"" style=""position:fixed;top:50%; left:50%; transform: translate(-50%, -50%); border:5px solid black"">","","","","","","","",""
"","1252.6350000007078","sequential-stimulus-presentation-old","123","376369","0.0-27.0-1.3","SS1619739341056","trial","","40","500","1752.6350000007078","images/stimuli/spore_stims/complex_16_A_b.gif","images/stimuli/spore_stims/complex_12_A_a.gif","forced_short","","9","complex_dissimilar","images/stimuli/spore_stims/complex_12_A_a.gif","","","","",""
"","3111.609999999986","survey-multi-choice","124","379483","0.0-28.0","SS1619739341056","math_question","","","","","","","","","","","","{""Q0"":""11""}","[0]","11","",""
"","null","html-keyboard-response","125","380566","0.0-29.0-0.0","SS1619739341056","","","null","","","","","","<p><img src= images/blank.png width =""600"" height = ""600"" style=""position:fixed;top:50%; left:50%; transform: translate(-50%, -50%); border:5px solid black"">","","","","","","","",""
"","508.5399999989313","sequential-stimulus-presentation-old","126","381586","0.0-29.0-1.0","SS1619739341056","trial","","40","500","1008.5399999989313","images/stimuli/spore_stims/simple_12_A_b.gif","images/stimuli/spore_stims/simple_16_A_a.gif","forced_short","","10","simple_dissimilar","images/stimuli/spore_stims/simple_16_A_a.gif","","","","",""
"","null","html-keyboard-response","127","382824","0.0-29.0-0.1","SS1619739341056","","","null","","","","","","<p><img src= images/blank.png width =""600"" height = ""600"" style=""position:fixed;top:50%; left:50%; transform: translate(-50%, -50%); border:5px solid black"">","","","","","","","",""
"","56.309999999939464","sequential-stimulus-presentation-old","128","383394","0.0-29.0-1.1","SS1619739341056","trial","","40","500","556.3099999999395","images/stimuli/spore_stims/simple_12_A_b.gif","images/stimuli/spore_stims/simple_16_A_a.gif","forced_short","","10","simple_dissimilar","images/stimuli/spore_stims/simple_16_A_a.gif","","","","",""
"","null","html-keyboard-response","129","384586","0.0-29.0-0.2","SS1619739341056","","","null","","","","","","<p><img src= images/blank.png width =""600"" height = ""600"" style=""position:fixed;top:50%; left:50%; transform: translate(-50%, -50%); border:5px solid black"">","","","","","","","",""
"","177.0250000008964","sequential-stimulus-presentation-old","130","385266","0.0-29.0-1.2","SS1619739341056","trial","","40","500","677.0250000008964","images/stimuli/spore_stims/simple_12_A_b.gif","images/stimuli/spore_stims/simple_16_A_a.gif","forced_short","","10","simple_dissimilar","images/stimuli/spore_stims/simple_16_A_a.gif","","","","",""
"","null","html-keyboard-response","131","386193","0.0-29.0-0.3","SS1619739341056","","","null","","","","","","<p><img src= images/blank.png width =""600"" height = ""600"" style=""position:fixed;top:50%; left:50%; transform: translate(-50%, -50%); border:5px solid black"">","","","","","","","",""
"","141.40000000043074","sequential-stimulus-presentation-old","132","386842","0.0-29.0-1.3","SS1619739341056","trial","","40","500","641.4000000004307","images/stimuli/spore_stims/simple_12_A_b.gif","images/stimuli/spore_stims/simple_16_A_a.gif","forced_short","","10","simple_dissimilar","images/stimuli/spore_stims/simple_16_A_a.gif","","","","",""
"","null","html-keyboard-response","133","387704","0.0-29.0-0.4","SS1619739341056","","","null","","","","","","<p><img src= images/blank.png width =""600"" height = ""600"" style=""position:fixed;top:50%; left:50%; transform: translate(-50%, -50%); border:5px solid black"">","","","","","","","",""
"","602.6150000034249","sequential-stimulus-presentation-old","134","388819","0.0-29.0-1.4","SS1619739341056","trial","","40","500","1102.615000003425","images/stimuli/spore_stims/simple_12_A_b.gif","images/stimuli/spore_stims/simple_16_A_a.gif","forced_short","","10","simple_dissimilar","images/stimuli/spore_stims/simple_16_A_a.gif","","","","",""
"","null","html-keyboard-response","135","389679","0.0-29.0-0.5","SS1619739341056","","","null","","","","","","<p><img src= images/blank.png width =""600"" height = ""600"" style=""position:fixed;top:50%; left:50%; transform: translate(-50%, -50%); border:5px solid black"">","","","","","","","",""
"","52.86999999952968","sequential-stimulus-presentation-old","136","390235","0.0-29.0-1.5","SS1619739341056","trial","","40","500","552.8699999995297","images/stimuli/spore_stims/simple_12_A_b.gif","images/stimuli/spore_stims/simple_16_A_a.gif","forced_short","","10","simple_dissimilar","images/stimuli/spore_stims/simple_16_A_a.gif","","","","",""
"","2500.3450000004377","survey-multi-choice","137","392739","0.0-30.0","SS1619739341056","math_question","","","","","","","","","","","","{""Q0"":""3""}","[0]","3","",""
"","null","html-keyboard-response","138","393940","0.0-31.0-0.0","SS1619739341056","","","null","","","","","","<p><img src= images/blank.png width =""600"" height = ""600"" style=""position:fixed;top:50%; left:50%; transform: translate(-50%, -50%); border:5px solid black"">","","","","","","","",""
"","135.7349999998114","sequential-stimulus-presentation-old","139","394579","0.0-31.0-1.0","SS1619739341056","trial","","40","500","635.7349999998114","images/stimuli/spore_stims/simple_15_A_b.gif","images/stimuli/spore_stims/simple_09_A_a.gif","self_paced","","11","simple_dissimilar","images/stimuli/spore_stims/simple_09_A_a.gif","","","","",""
"","null","html-keyboard-response","140","395479","0.0-31.0-0.1","SS1619739341056","","","null","","","","","","<p><img src= images/blank.png width =""600"" height = ""600"" style=""position:fixed;top:50%; left:50%; transform: translate(-50%, -50%); border:5px solid black"">","","","","","","","",""
"","388.6800000000512","sequential-stimulus-presentation-old","141","396371","0.0-31.0-1.1","SS1619739341056","trial","","40","500","888.6800000000512","images/stimuli/spore_stims/simple_15_A_b.gif","images/stimuli/spore_stims/simple_09_A_a.gif","self_paced","","11","simple_dissimilar","images/stimuli/spore_stims/simple_09_A_a.gif","","","","",""
"","null","html-keyboard-response","142","397221","0.0-31.0-0.2","SS1619739341056","","","null","","","","","","<p><img src= images/blank.png width =""600"" height = ""600"" style=""position:fixed;top:50%; left:50%; transform: translate(-50%, -50%); border:5px solid black"">","","","","","","","",""
"","317.8700000026147","sequential-stimulus-presentation-old","143","398044","0.0-31.0-1.2","SS1619739341056","trial","","40","500","817.8700000026147","images/stimuli/spore_stims/simple_15_A_b.gif","images/stimuli/spore_stims/simple_09_A_a.gif","self_paced","","11","simple_dissimilar","images/stimuli/spore_stims/simple_15_A_b.gif","","","","",""
"","null","html-keyboard-response","144","399202","0.0-31.0-0.3","SS1619739341056","","","null","","","","","","<p><img src= images/blank.png width =""600"" height = ""600"" style=""position:fixed;top:50%; left:50%; transform: translate(-50%, -50%); border:5px solid black"">","","","","","","","",""
"","326.33500000159256","sequential-stimulus-presentation-old","145","400044","0.0-31.0-1.3","SS1619739341056","trial","","40","500","826.3350000015926","images/stimuli/spore_stims/simple_15_A_b.gif","images/stimuli/spore_stims/simple_09_A_a.gif","self_paced","","11","simple_dissimilar","images/stimuli/spore_stims/simple_09_A_a.gif","","","","",""
"","null","html-keyboard-response","146","401287","0.0-31.0-0.4","SS1619739341056","","","null","","","","","","<p><img src= images/blank.png width =""600"" height = ""600"" style=""position:fixed;top:50%; left:50%; transform: translate(-50%, -50%); border:5px solid black"">","","","","","","","",""
"","237.26499999978114","sequential-stimulus-presentation-old","147","402028","0.0-31.0-1.4","SS1619739341056","trial","","40","500","737.2649999997811","images/stimuli/spore_stims/simple_15_A_b.gif","images/stimuli/spore_stims/simple_09_A_a.gif","self_paced","","11","simple_dissimilar","images/stimuli/spore_stims/simple_15_A_b.gif","","","","",""
"[{""page_index"":0,""viewing_time"":5788.834999999381}]","5789.145000002463","instructions","148","407819","0.0-32.0","SS1619739341056","instructions","","","","","","","","","","","","","","","",""
"","7380.5649999994785","survey-likert","149","415203","0.0-33.0","SS1619739341056","similarity_question","","","","","","","","","","","","{""Q0"":4}","[0]","","images/stimuli/spore_stims/simple_16_A_a.gif","images/stimuli/spore_stims/simple_12_A_b.gif"
"","6430.05500000075","survey-likert","150","421637","0.0-34.0","SS1619739341056","similarity_question","","","","","","","","","","","","{""Q0"":1}","[0]","","images/stimuli/spore_stims/complex_08_A_a.gif","images/stimuli/spore_stims/complex_15_A_b.gif"
"","6959.460000001884","survey-likert","151","428600","0.0-35.0","SS1619739341056","similarity_question","","","","","","","","","","","","{""Q0"":1}","[0]","","images/stimuli/spore_stims/complex_05_A_a.gif","images/stimuli/spore_stims/complex_04_A_b.gif"
"","4191.319999998086","survey-likert","152","432795","0.0-36.0","SS1619739341056","similarity_question","","","","","","","","","","","","{""Q0"":4}","[0]","","images/stimuli/spore_stims/complex_15_A_a.gif","images/stimuli/spore_stims/complex_18_A_b.gif"
"","3548.3750000021537","survey-likert","153","436348","0.0-37.0","SS1619739341056","similarity_question","","","","","","","","","","","","{""Q0"":2}","[0]","","images/stimuli/spore_stims/complex_12_A_a.gif","images/stimuli/spore_stims/complex_16_A_b.gif"
"","2396.3050000020303","survey-likert","154","438747","0.0-38.0","SS1619739341056","similarity_question","","","","","","","","","","","","{""Q0"":5}","[0]","","images/stimuli/spore_stims/simple_09_A_a.gif","images/stimuli/spore_stims/simple_15_A_b.gif"
"","2339.015000001411","survey-likert","155","441090","0.0-39.0","SS1619739341056","similarity_question","","","","","","","","","","","","{""Q0"":6}","[0]","","images/stimuli/spore_stims/simple_17_A_a.gif","images/stimuli/spore_stims/simple_10_A_b.gif"
"","1979.3700000009267","survey-likert","156","443074","0.0-40.0","SS1619739341056","similarity_question","","","","","","","","","","","","{""Q0"":5}","[0]","","images/stimuli/spore_stims/simple_12_A_a.gif","images/stimuli/spore_stims/simple_19_A_b.gif"
"","2981.4499999993714","survey-likert","157","446059","0.0-41.0","SS1619739341056","similarity_question","","","","","","","","","","","","{""Q0"":6}","[0]","","images/stimuli/spore_stims/simple_09_A_b.gif","images/stimuli/spore_stims/simple_13_A_a.gif"
"","5483.570000000298","survey-likert","158","451546","0.0-42.0","SS1619739341056","similarity_question","","","","","","","","","","","","{""Q0"":2}","[0]","","images/stimuli/spore_stims/complex_14_A_a.gif","images/stimuli/spore_stims/complex_12_A_b.gif"
"","2555.769999998971","survey-likert","159","454106","0.0-43.0","SS1619739341056","similarity_question","","","","","","","","","","","","{""Q0"":1}","[0]","","images/stimuli/spore_stims/complex_02_A_b.gif","images/stimuli/spore_stims/complex_07_A_a.gif"
"","4038.0650000006426","survey-likert","160","458148","0.0-44.0","SS1619739341056","similarity_question","","","","","","","","","","","","{""Q0"":5}","[0]","","images/stimuli/spore_stims/simple_04_A_b.gif","images/stimuli/spore_stims/simple_15_A_a.gif"
"[{""page_index"":0,""viewing_time"":3019.6150000010966}]","3019.8749999981374","instructions","161","461172","0.0-45.0","SS1619739341056","instructions","","","","","","","","","","","","","","","",""
"","4101.125000001048","survey-likert","162","465276","0.0-46.0","SS1619739341056","","","","","","","","","images/stimuli/spore_stims/complex_07_A_a.gif","","","","{""Q0"":5}","[0]","","",""
"","2382.0699999996577","survey-likert","163","467661","0.0-47.0","SS1619739341056","","","","","","","","","images/stimuli/spore_stims/simple_17_A_a.gif","","","","{""Q0"":1}","[0]","","",""
"","2989.994999999879","survey-likert","164","470655","0.0-48.0","SS1619739341056","","","","","","","","","images/stimuli/spore_stims/complex_18_A_b.gif","","","","{""Q0"":5}","[0]","","",""
"","2549.685000001802","survey-likert","165","473208","0.0-49.0","SS1619739341056","","","","","","","","","images/stimuli/spore_stims/simple_19_A_b.gif","","","","{""Q0"":2}","[0]","","",""
"","2834.3800000002375","survey-likert","166","476046","0.0-50.0","SS1619739341056","","","","","","","","","images/stimuli/spore_stims/complex_12_A_a.gif","","","","{""Q0"":6}","[0]","","",""
"","3107.1800000026706","survey-likert","167","479157","0.0-51.0","SS1619739341056","","","","","","","","","images/stimuli/spore_stims/simple_15_A_a.gif","","","","{""Q0"":0}","[0]","","",""
"","2732.435000001744","survey-likert","168","481892","0.0-52.0","SS1619739341056","","","","","","","","","images/stimuli/spore_stims/simple_16_A_a.gif","","","","{""Q0"":1}","[0]","","",""
"","1597.3549999980023","survey-likert","169","483494","0.0-53.0","SS1619739341056","","","","","","","","","images/stimuli/spore_stims/simple_09_A_b.gif","","","","{""Q0"":2}","[0]","","",""
"","2236.6099999998696","survey-likert","170","485735","0.0-54.0","SS1619739341056","","","","","","","","","images/stimuli/spore_stims/complex_14_A_a.gif","","","","{""Q0"":5}","[0]","","",""
"","1916.1600000006729","survey-likert","171","487655","0.0-55.0","SS1619739341056","","","","","","","","","images/stimuli/spore_stims/simple_15_A_b.gif","","","","{""Q0"":0}","[0]","","",""
"","2380.590000000666","survey-likert","172","490039","0.0-56.0","SS1619739341056","","","","","","","","","images/stimuli/spore_stims/complex_04_A_b.gif","","","","{""Q0"":5}","[0]","","",""
"","2924.435000000871","survey-likert","173","492967","0.0-57.0","SS1619739341056","","","","","","","","","images/stimuli/spore_stims/complex_15_A_b.gif","","","","{""Q0"":5}","[0]","","",""
"[{""page_index"":0,""viewing_time"":2583.8049999984214}]","2584.0749999988475","instructions","174","495554","0.0-58.0","SS1619739341056","instructions","","","","","","","","","","","","","","","",""
"","2936.7850000017206","demog-age","175","498496","0.0-59.0","SS1619739341056","","","","","","","","","","","","","{""age"":""19""}","","","",""
"","5962.884999997157","demog-ethnic-US","176","504466","0.0-60.0","SS1619739341056","","","","","","","","","","","","","{""ethnicity"":[""Hispanic or Latino"",""White""]}","[0]","","",""
"","4849.555000000633","demog-gender-and-education","177","509320","0.0-61.0","SS1619739341056","","","","","","","","","","","","","{""gender"":""Male"",""education"":""High school diploma""}","[0,1]","","",""
"","34652.53999999922","survey-text","178","543979","0.0-62.0","SS1619739341056","feedback","","","","","","","","","","","","{""Q0"":""Some animations of the more complex monsters were a little more laggy""}","","","",""
"[{""page_index"":0,""viewing_time"":1110.979999997653}]","1111.2800000009593","instructions","179","545092","0.0-63.0","SS1619739341056","instructions","","","","","","","","","","","","","","","",""
