"view_history","rt","trial_type","trial_index","time_elapsed","internal_node_id","subject","stimulus_type","trial_stimulus","key_press","minimum_viewing_duration","trial_looking_time","block_deviant","block_background","exposure_type","stimulus","block_number","block_type","stimulus_displayed","responses","question_order","math_correct_answer","stimulus_left","stimulus_right"
"[{""page_index"":0,""viewing_time"":24299.74999994738}]","24300.709999981336","instructions","0","24303","0.0-0.0","SS1619739185303","","","","","","","","","","","","","","","","",""
"[{""page_index"":0,""viewing_time"":11418.714999977965},{""page_index"":1,""viewing_time"":6234.014999994542}]","17653.040000004694","instructions","1","43961","0.0-1.0","SS1619739185303","instructions","","","","","","","","","","","","","","","",""
"","6439.94999997085","sequential-stimulus-presentation-old","2","50912","0.0-2.0","SS1619739185303","","","40","500","6939.94999997085","null","null","self_paced","","","","","","","","",""
"","6926.370000001043","sequential-stimulus-presentation-old","3","58358","0.0-3.0","SS1619739185303","","","40","500","7426.370000001043","null","null","self_paced","","","","","","","","",""
"[{""page_index"":0,""viewing_time"":14337.360000004992}]","14337.780000001658","instructions","4","72699","0.0-4.0","SS1619739185303","instructions","","","","","","","","","","","","","","","",""
"","1241.5799999726005","sequential-stimulus-presentation-old","5","88944","0.0-5.0","SS1619739185303","","","40","500","1741.5799999726005","null","null","forced_long","","","","","","","","",""
"","2476.135000004433","sequential-stimulus-presentation-old","6","91930","0.0-6.0","SS1619739185303","","","40","500","2976.135000004433","null","null","forced_long","","","","","","","","",""
"[{""page_index"":0,""viewing_time"":3217.479999992065}]","3217.774999968242","instructions","7","95150","0.0-7.0","SS1619739185303","instructions","","","","","","","","","","","","","","","",""
"[{""page_index"":0,""viewing_time"":7299.2599999997765},{""page_index"":1,""viewing_time"":7264.2350000096485},{""page_index"":2,""viewing_time"":4688.635000027716},{""page_index"":3,""viewing_time"":1841.4599999669008},{""page_index"":4,""viewing_time"":2086.1600000062026}]","23180.114999995567","instructions","8","118333","0.0-8.0","SS1619739185303","instructions","","","","","","","","","","","","","","","",""
"","null","html-keyboard-response","9","119576","0.0-9.0-0.0","SS1619739185303","","","null","","","","","","<p><img src= images/blank.png width =""600"" height = ""600"" style=""position:fixed;top:50%; left:50%; transform: translate(-50%, -50%); border:5px solid black"">","","","","","","","",""
"","908.3700000192039","sequential-stimulus-presentation-old","10","135495","0.0-9.0-1.0","SS1619739185303","trial","","40","500","1408.3700000192039","images/stimuli/spore_stims/complex_14_A_a.gif","images/stimuli/spore_stims/complex_11_A_b.gif","forced_long","","0","complex_dissimilar","images/stimuli/spore_stims/complex_11_A_b.gif","","","","",""
"","null","html-keyboard-response","11","136375","0.0-9.0-0.1","SS1619739185303","","","null","","","","","","<p><img src= images/blank.png width =""600"" height = ""600"" style=""position:fixed;top:50%; left:50%; transform: translate(-50%, -50%); border:5px solid black"">","","","","","","","",""
"","14735.71500001708","sequential-stimulus-presentation-old","12","151625","0.0-9.0-1.1","SS1619739185303","trial","","40","500","15235.71500001708","images/stimuli/spore_stims/complex_14_A_a.gif","images/stimuli/spore_stims/complex_11_A_b.gif","forced_long","","0","complex_dissimilar","images/stimuli/spore_stims/complex_11_A_b.gif","","","","",""
"","null","html-keyboard-response","13","152558","0.0-9.0-0.2","SS1619739185303","","","null","","","","","","<p><img src= images/blank.png width =""600"" height = ""600"" style=""position:fixed;top:50%; left:50%; transform: translate(-50%, -50%); border:5px solid black"">","","","","","","","",""
"","3645.5950000090525","sequential-stimulus-presentation-old","14","156724","0.0-9.0-1.2","SS1619739185303","trial","","40","500","4145.5950000090525","images/stimuli/spore_stims/complex_14_A_a.gif","images/stimuli/spore_stims/complex_11_A_b.gif","forced_long","","0","complex_dissimilar","images/stimuli/spore_stims/complex_11_A_b.gif","","","","",""
"","null","html-keyboard-response","15","157964","0.0-9.0-0.3","SS1619739185303","","","null","","","","","","<p><img src= images/blank.png width =""600"" height = ""600"" style=""position:fixed;top:50%; left:50%; transform: translate(-50%, -50%); border:5px solid black"">","","","","","","","",""
"","8824.304999958258","sequential-stimulus-presentation-old","16","167302","0.0-9.0-1.3","SS1619739185303","trial","","40","500","9324.304999958258","images/stimuli/spore_stims/complex_14_A_a.gif","images/stimuli/spore_stims/complex_11_A_b.gif","forced_long","","0","complex_dissimilar","images/stimuli/spore_stims/complex_14_A_a.gif","","","","",""
"","null","html-keyboard-response","17","168496","0.0-9.0-0.4","SS1619739185303","","","null","","","","","","<p><img src= images/blank.png width =""600"" height = ""600"" style=""position:fixed;top:50%; left:50%; transform: translate(-50%, -50%); border:5px solid black"">","","","","","","","",""
"","980.6450000032783","sequential-stimulus-presentation-old","18","169998","0.0-9.0-1.4","SS1619739185303","trial","","40","500","1480.6450000032783","images/stimuli/spore_stims/complex_14_A_a.gif","images/stimuli/spore_stims/complex_11_A_b.gif","forced_long","","0","complex_dissimilar","images/stimuli/spore_stims/complex_11_A_b.gif","","","","",""
"","null","html-keyboard-response","19","171049","0.0-9.0-0.5","SS1619739185303","","","null","","","","","","<p><img src= images/blank.png width =""600"" height = ""600"" style=""position:fixed;top:50%; left:50%; transform: translate(-50%, -50%); border:5px solid black"">","","","","","","","",""
"","2698.750000039581","sequential-stimulus-presentation-old","20","174254","0.0-9.0-1.5","SS1619739185303","trial","","40","500","3198.750000039581","images/stimuli/spore_stims/complex_14_A_a.gif","images/stimuli/spore_stims/complex_11_A_b.gif","forced_long","","0","complex_dissimilar","images/stimuli/spore_stims/complex_14_A_a.gif","","","","",""
"","4215.450000017881","survey-multi-choice","21","178481","0.0-10.0","SS1619739185303","math_question","","","","","","","","","","","","{""Q0"":""14""}","[0]","14","",""
"","null","html-keyboard-response","22","179683","0.0-11.0-0.0","SS1619739185303","","","null","","","","","","<p><img src= images/blank.png width =""600"" height = ""600"" style=""position:fixed;top:50%; left:50%; transform: translate(-50%, -50%); border:5px solid black"">","","","","","","","",""
"","1686.470000015106","sequential-stimulus-presentation-old","23","181878","0.0-11.0-1.0","SS1619739185303","trial","","40","500","2186.470000015106","images/stimuli/spore_stims/complex_10_A_b.gif","images/stimuli/spore_stims/complex_18_A_a.gif","forced_short","","1","complex_dissimilar","images/stimuli/spore_stims/complex_18_A_a.gif","","","","",""
"","null","html-keyboard-response","24","182831","0.0-11.0-0.1","SS1619739185303","","","null","","","","","","<p><img src= images/blank.png width =""600"" height = ""600"" style=""position:fixed;top:50%; left:50%; transform: translate(-50%, -50%); border:5px solid black"">","","","","","","","",""
"","9353.240000025835","sequential-stimulus-presentation-old","25","192706","0.0-11.0-1.1","SS1619739185303","trial","","40","500","9853.240000025835","images/stimuli/spore_stims/complex_10_A_b.gif","images/stimuli/spore_stims/complex_18_A_a.gif","forced_short","","1","complex_dissimilar","images/stimuli/spore_stims/complex_18_A_a.gif","","","","",""
"","null","html-keyboard-response","26","193866","0.0-11.0-0.2","SS1619739185303","","","null","","","","","","<p><img src= images/blank.png width =""600"" height = ""600"" style=""position:fixed;top:50%; left:50%; transform: translate(-50%, -50%); border:5px solid black"">","","","","","","","",""
"","2004.2549999780022","sequential-stimulus-presentation-old","27","196391","0.0-11.0-1.2","SS1619739185303","trial","","40","500","2504.254999978002","images/stimuli/spore_stims/complex_10_A_b.gif","images/stimuli/spore_stims/complex_18_A_a.gif","forced_short","","1","complex_dissimilar","images/stimuli/spore_stims/complex_18_A_a.gif","","","","",""
"","null","html-keyboard-response","28","197254","0.0-11.0-0.3","SS1619739185303","","","null","","","","","","<p><img src= images/blank.png width =""600"" height = ""600"" style=""position:fixed;top:50%; left:50%; transform: translate(-50%, -50%); border:5px solid black"">","","","","","","","",""
"","917.8499999688938","sequential-stimulus-presentation-old","29","198689","0.0-11.0-1.3","SS1619739185303","trial","","40","500","1417.8499999688938","images/stimuli/spore_stims/complex_10_A_b.gif","images/stimuli/spore_stims/complex_18_A_a.gif","forced_short","","1","complex_dissimilar","images/stimuli/spore_stims/complex_18_A_a.gif","","","","",""
"","null","html-keyboard-response","30","199650","0.0-11.0-0.4","SS1619739185303","","","null","","","","","","<p><img src= images/blank.png width =""600"" height = ""600"" style=""position:fixed;top:50%; left:50%; transform: translate(-50%, -50%); border:5px solid black"">","","","","","","","",""
"","6546.809999970719","sequential-stimulus-presentation-old","31","206706","0.0-11.0-1.4","SS1619739185303","trial","","40","500","7046.809999970719","images/stimuli/spore_stims/complex_10_A_b.gif","images/stimuli/spore_stims/complex_18_A_a.gif","forced_short","","1","complex_dissimilar","images/stimuli/spore_stims/complex_10_A_b.gif","","","","",""
"","null","html-keyboard-response","32","207535","0.0-11.0-0.5","SS1619739185303","","","null","","","","","","<p><img src= images/blank.png width =""600"" height = ""600"" style=""position:fixed;top:50%; left:50%; transform: translate(-50%, -50%); border:5px solid black"">","","","","","","","",""
"","1890.274999954272","sequential-stimulus-presentation-old","33","209947","0.0-11.0-1.5","SS1619739185303","trial","","40","500","2390.274999954272","images/stimuli/spore_stims/complex_10_A_b.gif","images/stimuli/spore_stims/complex_18_A_a.gif","forced_short","","1","complex_dissimilar","images/stimuli/spore_stims/complex_18_A_a.gif","","","","",""
"","3734.320000046864","survey-multi-choice","34","213686","0.0-12.0","SS1619739185303","math_question","","","","","","","","","","","","{""Q0"":""10""}","[0]","10","",""
"","null","html-keyboard-response","35","214932","0.0-13.0-0.0","SS1619739185303","","","null","","","","","","<p><img src= images/blank.png width =""600"" height = ""600"" style=""position:fixed;top:50%; left:50%; transform: translate(-50%, -50%); border:5px solid black"">","","","","","","","",""
"","408.7549999821931","sequential-stimulus-presentation-old","36","230353","0.0-13.0-1.0","SS1619739185303","trial","","40","500","908.7549999821931","images/stimuli/spore_stims/simple_14_A_b.gif","images/stimuli/spore_stims/simple_19_A_a.gif","forced_long","","2","simple_dissimilar","images/stimuli/spore_stims/simple_19_A_a.gif","","","","",""
"","null","html-keyboard-response","37","231461","0.0-13.0-0.1","SS1619739185303","","","null","","","","","","<p><img src= images/blank.png width =""600"" height = ""600"" style=""position:fixed;top:50%; left:50%; transform: translate(-50%, -50%); border:5px solid black"">","","","","","","","",""
"","458.70499999728054","sequential-stimulus-presentation-old","38","232431","0.0-13.0-1.1","SS1619739185303","trial","","40","500","958.7049999972805","images/stimuli/spore_stims/simple_14_A_b.gif","images/stimuli/spore_stims/simple_19_A_a.gif","forced_long","","2","simple_dissimilar","images/stimuli/spore_stims/simple_19_A_a.gif","","","","",""
"","null","html-keyboard-response","39","233641","0.0-13.0-0.2","SS1619739185303","","","null","","","","","","<p><img src= images/blank.png width =""600"" height = ""600"" style=""position:fixed;top:50%; left:50%; transform: translate(-50%, -50%); border:5px solid black"">","","","","","","","",""
"","166.02000000420958","sequential-stimulus-presentation-old","40","234318","0.0-13.0-1.2","SS1619739185303","trial","","40","500","666.0200000042096","images/stimuli/spore_stims/simple_14_A_b.gif","images/stimuli/spore_stims/simple_19_A_a.gif","forced_long","","2","simple_dissimilar","images/stimuli/spore_stims/simple_19_A_a.gif","","","","",""
"","null","html-keyboard-response","41","235178","0.0-13.0-0.3","SS1619739185303","","","null","","","","","","<p><img src= images/blank.png width =""600"" height = ""600"" style=""position:fixed;top:50%; left:50%; transform: translate(-50%, -50%); border:5px solid black"">","","","","","","","",""
"","529.6399999642745","sequential-stimulus-presentation-old","42","236224","0.0-13.0-1.3","SS1619739185303","trial","","40","500","1029.6399999642745","images/stimuli/spore_stims/simple_14_A_b.gif","images/stimuli/spore_stims/simple_19_A_a.gif","forced_long","","2","simple_dissimilar","images/stimuli/spore_stims/simple_19_A_a.gif","","","","",""
"","null","html-keyboard-response","43","237211","0.0-13.0-0.4","SS1619739185303","","","null","","","","","","<p><img src= images/blank.png width =""600"" height = ""600"" style=""position:fixed;top:50%; left:50%; transform: translate(-50%, -50%); border:5px solid black"">","","","","","","","",""
"","9258.060000021942","sequential-stimulus-presentation-old","44","246985","0.0-13.0-1.4","SS1619739185303","trial","","40","500","9758.060000021942","images/stimuli/spore_stims/simple_14_A_b.gif","images/stimuli/spore_stims/simple_19_A_a.gif","forced_long","","2","simple_dissimilar","images/stimuli/spore_stims/simple_14_A_b.gif","","","","",""
"","3254.700000048615","survey-multi-choice","45","250245","0.0-14.0","SS1619739185303","math_question","","","","","","","","","","","","{""Q0"":""5""}","[0]","5","",""
"","null","html-keyboard-response","46","251222","0.0-15.0-0.0","SS1619739185303","","","null","","","","","","<p><img src= images/blank.png width =""600"" height = ""600"" style=""position:fixed;top:50%; left:50%; transform: translate(-50%, -50%); border:5px solid black"">","","","","","","","",""
"","894.7549999575131","sequential-stimulus-presentation-old","47","252641","0.0-15.0-1.0","SS1619739185303","trial","","40","500","1394.754999957513","images/stimuli/spore_stims/complex_02_A_b.gif","images/stimuli/spore_stims/complex_11_A_a.gif","forced_short","","3","complex_dissimilar","images/stimuli/spore_stims/complex_11_A_a.gif","","","","",""
"","null","html-keyboard-response","48","253455","0.0-15.0-0.1","SS1619739185303","","","null","","","","","","<p><img src= images/blank.png width =""600"" height = ""600"" style=""position:fixed;top:50%; left:50%; transform: translate(-50%, -50%); border:5px solid black"">","","","","","","","",""
"","289.98000000137836","sequential-stimulus-presentation-old","49","254255","0.0-15.0-1.1","SS1619739185303","trial","","40","500","789.9800000013784","images/stimuli/spore_stims/complex_02_A_b.gif","images/stimuli/spore_stims/complex_11_A_a.gif","forced_short","","3","complex_dissimilar","images/stimuli/spore_stims/complex_11_A_a.gif","","","","",""
"","null","html-keyboard-response","50","255306","0.0-15.0-0.2","SS1619739185303","","","null","","","","","","<p><img src= images/blank.png width =""600"" height = ""600"" style=""position:fixed;top:50%; left:50%; transform: translate(-50%, -50%); border:5px solid black"">","","","","","","","",""
"","2930.0899999798276","sequential-stimulus-presentation-old","51","258745","0.0-15.0-1.2","SS1619739185303","trial","","40","500","3430.0899999798276","images/stimuli/spore_stims/complex_02_A_b.gif","images/stimuli/spore_stims/complex_11_A_a.gif","forced_short","","3","complex_dissimilar","images/stimuli/spore_stims/complex_11_A_a.gif","","","","",""
"","null","html-keyboard-response","52","259666","0.0-15.0-0.3","SS1619739185303","","","null","","","","","","<p><img src= images/blank.png width =""600"" height = ""600"" style=""position:fixed;top:50%; left:50%; transform: translate(-50%, -50%); border:5px solid black"">","","","","","","","",""
"","885.6849999865517","sequential-stimulus-presentation-old","53","261067","0.0-15.0-1.3","SS1619739185303","trial","","40","500","1385.6849999865517","images/stimuli/spore_stims/complex_02_A_b.gif","images/stimuli/spore_stims/complex_11_A_a.gif","forced_short","","3","complex_dissimilar","images/stimuli/spore_stims/complex_11_A_a.gif","","","","",""
"","null","html-keyboard-response","54","262193","0.0-15.0-0.4","SS1619739185303","","","null","","","","","","<p><img src= images/blank.png width =""600"" height = ""600"" style=""position:fixed;top:50%; left:50%; transform: translate(-50%, -50%); border:5px solid black"">","","","","","","","",""
"","4059.9250000086613","sequential-stimulus-presentation-old","55","266773","0.0-15.0-1.4","SS1619739185303","trial","","40","500","4559.925000008661","images/stimuli/spore_stims/complex_02_A_b.gif","images/stimuli/spore_stims/complex_11_A_a.gif","forced_short","","3","complex_dissimilar","images/stimuli/spore_stims/complex_02_A_b.gif","","","","",""
"","3802.320000017062","survey-multi-choice","56","270581","0.0-16.0","SS1619739185303","math_question","","","","","","","","","","","","{""Q0"":""10""}","[0]","10","",""
"","null","html-keyboard-response","57","271468","0.0-17.0-0.0","SS1619739185303","","","null","","","","","","<p><img src= images/blank.png width =""600"" height = ""600"" style=""position:fixed;top:50%; left:50%; transform: translate(-50%, -50%); border:5px solid black"">","","","","","","","",""
"","6490.869999979623","sequential-stimulus-presentation-old","58","278474","0.0-17.0-1.0","SS1619739185303","trial","","40","500","6990.869999979623","images/stimuli/spore_stims/complex_03_A_b.gif","images/stimuli/spore_stims/complex_15_A_a.gif","self_paced","","4","complex_dissimilar","images/stimuli/spore_stims/complex_15_A_a.gif","","","","",""
"","null","html-keyboard-response","59","279339","0.0-17.0-0.1","SS1619739185303","","","null","","","","","","<p><img src= images/blank.png width =""600"" height = ""600"" style=""position:fixed;top:50%; left:50%; transform: translate(-50%, -50%); border:5px solid black"">","","","","","","","",""
"","439.284999971278","sequential-stimulus-presentation-old","60","280289","0.0-17.0-1.1","SS1619739185303","trial","","40","500","939.284999971278","images/stimuli/spore_stims/complex_03_A_b.gif","images/stimuli/spore_stims/complex_15_A_a.gif","self_paced","","4","complex_dissimilar","images/stimuli/spore_stims/complex_15_A_a.gif","","","","",""
"","null","html-keyboard-response","61","281390","0.0-17.0-0.2","SS1619739185303","","","null","","","","","","<p><img src= images/blank.png width =""600"" height = ""600"" style=""position:fixed;top:50%; left:50%; transform: translate(-50%, -50%); border:5px solid black"">","","","","","","","",""
"","5404.165000014473","sequential-stimulus-presentation-old","62","287309","0.0-17.0-1.2","SS1619739185303","trial","","40","500","5904.165000014473","images/stimuli/spore_stims/complex_03_A_b.gif","images/stimuli/spore_stims/complex_15_A_a.gif","self_paced","","4","complex_dissimilar","images/stimuli/spore_stims/complex_03_A_b.gif","","","","",""
"","null","html-keyboard-response","63","288323","0.0-17.0-0.3","SS1619739185303","","","null","","","","","","<p><img src= images/blank.png width =""600"" height = ""600"" style=""position:fixed;top:50%; left:50%; transform: translate(-50%, -50%); border:5px solid black"">","","","","","","","",""
"","2149.260000034701","sequential-stimulus-presentation-old","64","290997","0.0-17.0-1.3","SS1619739185303","trial","","40","500","2649.260000034701","images/stimuli/spore_stims/complex_03_A_b.gif","images/stimuli/spore_stims/complex_15_A_a.gif","self_paced","","4","complex_dissimilar","images/stimuli/spore_stims/complex_15_A_a.gif","","","","",""
"","null","html-keyboard-response","65","291958","0.0-17.0-0.4","SS1619739185303","","","null","","","","","","<p><img src= images/blank.png width =""600"" height = ""600"" style=""position:fixed;top:50%; left:50%; transform: translate(-50%, -50%); border:5px solid black"">","","","","","","","",""
"","194.05500002903864","sequential-stimulus-presentation-old","66","292665","0.0-17.0-1.4","SS1619739185303","trial","","40","500","694.0550000290386","images/stimuli/spore_stims/complex_03_A_b.gif","images/stimuli/spore_stims/complex_15_A_a.gif","self_paced","","4","complex_dissimilar","images/stimuli/spore_stims/complex_15_A_a.gif","","","","",""
"","null","html-keyboard-response","67","293560","0.0-17.0-0.5","SS1619739185303","","","null","","","","","","<p><img src= images/blank.png width =""600"" height = ""600"" style=""position:fixed;top:50%; left:50%; transform: translate(-50%, -50%); border:5px solid black"">","","","","","","","",""
"","3711.745000036899","sequential-stimulus-presentation-old","68","297784","0.0-17.0-1.5","SS1619739185303","trial","","40","500","4211.745000036899","images/stimuli/spore_stims/complex_03_A_b.gif","images/stimuli/spore_stims/complex_15_A_a.gif","self_paced","","4","complex_dissimilar","images/stimuli/spore_stims/complex_15_A_a.gif","","","","",""
"","3356.9600000046194","survey-multi-choice","69","301149","0.0-18.0","SS1619739185303","math_question","","","","","","","","","","","","{""Q0"":""10""}","[0]","10","",""
"","null","html-keyboard-response","70","302148","0.0-19.0-0.0","SS1619739185303","","","null","","","","","","<p><img src= images/blank.png width =""600"" height = ""600"" style=""position:fixed;top:50%; left:50%; transform: translate(-50%, -50%); border:5px solid black"">","","","","","","","",""
"","1227.8499999665655","sequential-stimulus-presentation-old","71","303894","0.0-19.0-1.0","SS1619739185303","trial","","40","500","1727.8499999665655","images/stimuli/spore_stims/simple_18_A_a.gif","images/stimuli/spore_stims/simple_10_A_b.gif","self_paced","","5","simple_dissimilar","images/stimuli/spore_stims/simple_10_A_b.gif","","","","",""
"","null","html-keyboard-response","72","304937","0.0-19.0-0.1","SS1619739185303","","","null","","","","","","<p><img src= images/blank.png width =""600"" height = ""600"" style=""position:fixed;top:50%; left:50%; transform: translate(-50%, -50%); border:5px solid black"">","","","","","","","",""
"","416.7100000195205","sequential-stimulus-presentation-old","73","305870","0.0-19.0-1.1","SS1619739185303","trial","","40","500","916.7100000195205","images/stimuli/spore_stims/simple_18_A_a.gif","images/stimuli/spore_stims/simple_10_A_b.gif","self_paced","","5","simple_dissimilar","images/stimuli/spore_stims/simple_18_A_a.gif","","","","",""
"","null","html-keyboard-response","74","307001","0.0-19.0-0.2","SS1619739185303","","","null","","","","","","<p><img src= images/blank.png width =""600"" height = ""600"" style=""position:fixed;top:50%; left:50%; transform: translate(-50%, -50%); border:5px solid black"">","","","","","","","",""
"","408.6949999909848","sequential-stimulus-presentation-old","75","307932","0.0-19.0-1.2","SS1619739185303","trial","","40","500","908.6949999909848","images/stimuli/spore_stims/simple_18_A_a.gif","images/stimuli/spore_stims/simple_10_A_b.gif","self_paced","","5","simple_dissimilar","images/stimuli/spore_stims/simple_10_A_b.gif","","","","",""
"","null","html-keyboard-response","76","309151","0.0-19.0-0.3","SS1619739185303","","","null","","","","","","<p><img src= images/blank.png width =""600"" height = ""600"" style=""position:fixed;top:50%; left:50%; transform: translate(-50%, -50%); border:5px solid black"">","","","","","","","",""
"","121.89999996917322","sequential-stimulus-presentation-old","77","309800","0.0-19.0-1.3","SS1619739185303","trial","","40","500","621.8999999691732","images/stimuli/spore_stims/simple_18_A_a.gif","images/stimuli/spore_stims/simple_10_A_b.gif","self_paced","","5","simple_dissimilar","images/stimuli/spore_stims/simple_10_A_b.gif","","","","",""
"","2893.480000027921","survey-multi-choice","78","312704","0.0-20.0","SS1619739185303","math_question","","","","","","","","","","","","{""Q0"":""9""}","[0]","9","",""
"","null","html-keyboard-response","79","313652","0.0-21.0-0.0","SS1619739185303","","","null","","","","","","<p><img src= images/blank.png width =""600"" height = ""600"" style=""position:fixed;top:50%; left:50%; transform: translate(-50%, -50%); border:5px solid black"">","","","","","","","",""
"","972.4549999809824","sequential-stimulus-presentation-old","80","315138","0.0-21.0-1.0","SS1619739185303","trial","","40","500","1472.4549999809824","images/stimuli/spore_stims/simple_20_A_a.gif","images/stimuli/spore_stims/simple_15_A_b.gif","forced_short","","6","simple_dissimilar","images/stimuli/spore_stims/simple_15_A_b.gif","","","","",""
"","null","html-keyboard-response","81","316127","0.0-21.0-0.1","SS1619739185303","","","null","","","","","","<p><img src= images/blank.png width =""600"" height = ""600"" style=""position:fixed;top:50%; left:50%; transform: translate(-50%, -50%); border:5px solid black"">","","","","","","","",""
"","2797.4099999992177","sequential-stimulus-presentation-old","82","319431","0.0-21.0-1.1","SS1619739185303","trial","","40","500","3297.4099999992177","images/stimuli/spore_stims/simple_20_A_a.gif","images/stimuli/spore_stims/simple_15_A_b.gif","forced_short","","6","simple_dissimilar","images/stimuli/spore_stims/simple_15_A_b.gif","","","","",""
"","null","html-keyboard-response","83","320731","0.0-21.0-0.2","SS1619739185303","","","null","","","","","","<p><img src= images/blank.png width =""600"" height = ""600"" style=""position:fixed;top:50%; left:50%; transform: translate(-50%, -50%); border:5px solid black"">","","","","","","","",""
"","950.1299999537878","sequential-stimulus-presentation-old","84","322208","0.0-21.0-1.2","SS1619739185303","trial","","40","500","1450.1299999537878","images/stimuli/spore_stims/simple_20_A_a.gif","images/stimuli/spore_stims/simple_15_A_b.gif","forced_short","","6","simple_dissimilar","images/stimuli/spore_stims/simple_20_A_a.gif","","","","",""
"","null","html-keyboard-response","85","323158","0.0-21.0-0.3","SS1619739185303","","","null","","","","","","<p><img src= images/blank.png width =""600"" height = ""600"" style=""position:fixed;top:50%; left:50%; transform: translate(-50%, -50%); border:5px solid black"">","","","","","","","",""
"","99.13499996764585","sequential-stimulus-presentation-old","86","323779","0.0-21.0-1.3","SS1619739185303","trial","","40","500","599.1349999676459","images/stimuli/spore_stims/simple_20_A_a.gif","images/stimuli/spore_stims/simple_15_A_b.gif","forced_short","","6","simple_dissimilar","images/stimuli/spore_stims/simple_20_A_a.gif","","","","",""
"","5042.554999992717","survey-multi-choice","87","328830","0.0-22.0","SS1619739185303","math_question","","","","","","","","","","","","{""Q0"":""17""}","[0]","17","",""
"","null","html-keyboard-response","88","329979","0.0-23.0-0.0","SS1619739185303","","","null","","","","","","<p><img src= images/blank.png width =""600"" height = ""600"" style=""position:fixed;top:50%; left:50%; transform: translate(-50%, -50%); border:5px solid black"">","","","","","","","",""
"","2990.1649999665096","sequential-stimulus-presentation-old","89","333495","0.0-23.0-1.0","SS1619739185303","trial","","40","500","3490.1649999665096","images/stimuli/spore_stims/simple_04_A_a.gif","images/stimuli/spore_stims/simple_01_A_b.gif","self_paced","","7","simple_dissimilar","images/stimuli/spore_stims/simple_01_A_b.gif","","","","",""
"","null","html-keyboard-response","90","334467","0.0-23.0-0.1","SS1619739185303","","","null","","","","","","<p><img src= images/blank.png width =""600"" height = ""600"" style=""position:fixed;top:50%; left:50%; transform: translate(-50%, -50%); border:5px solid black"">","","","","","","","",""
"","329.169999982696","sequential-stimulus-presentation-old","91","335307","0.0-23.0-1.1","SS1619739185303","trial","","40","500","829.169999982696","images/stimuli/spore_stims/simple_04_A_a.gif","images/stimuli/spore_stims/simple_01_A_b.gif","self_paced","","7","simple_dissimilar","images/stimuli/spore_stims/simple_01_A_b.gif","","","","",""
"","null","html-keyboard-response","92","336359","0.0-23.0-0.2","SS1619739185303","","","null","","","","","","<p><img src= images/blank.png width =""600"" height = ""600"" style=""position:fixed;top:50%; left:50%; transform: translate(-50%, -50%); border:5px solid black"">","","","","","","","",""
"","2667.879999964498","sequential-stimulus-presentation-old","93","339542","0.0-23.0-1.2","SS1619739185303","trial","","40","500","3167.879999964498","images/stimuli/spore_stims/simple_04_A_a.gif","images/stimuli/spore_stims/simple_01_A_b.gif","self_paced","","7","simple_dissimilar","images/stimuli/spore_stims/simple_04_A_a.gif","","","","",""
"","null","html-keyboard-response","94","340708","0.0-23.0-0.3","SS1619739185303","","","null","","","","","","<p><img src= images/blank.png width =""600"" height = ""600"" style=""position:fixed;top:50%; left:50%; transform: translate(-50%, -50%); border:5px solid black"">","","","","","","","",""
"","406.35000000474975","sequential-stimulus-presentation-old","95","341642","0.0-23.0-1.3","SS1619739185303","trial","","40","500","906.3500000047497","images/stimuli/spore_stims/simple_04_A_a.gif","images/stimuli/spore_stims/simple_01_A_b.gif","self_paced","","7","simple_dissimilar","images/stimuli/spore_stims/simple_04_A_a.gif","","","","",""
"","11026.934999972582","survey-multi-choice","96","352676","0.0-24.0","SS1619739185303","math_question","","","","","","","","","","","","{""Q0"":""16""}","[0]","16","",""
"","null","html-keyboard-response","97","353617","0.0-25.0-0.0","SS1619739185303","","","null","","","","","","<p><img src= images/blank.png width =""600"" height = ""600"" style=""position:fixed;top:50%; left:50%; transform: translate(-50%, -50%); border:5px solid black"">","","","","","","","",""
"","526.8950000172481","sequential-stimulus-presentation-old","98","369156","0.0-25.0-1.0","SS1619739185303","trial","","40","500","1026.895000017248","images/stimuli/spore_stims/complex_13_A_a.gif","images/stimuli/spore_stims/complex_18_A_b.gif","forced_long","","8","complex_dissimilar","images/stimuli/spore_stims/complex_18_A_b.gif","","","","",""
"","null","html-keyboard-response","99","370320","0.0-25.0-0.1","SS1619739185303","","","null","","","","","","<p><img src= images/blank.png width =""600"" height = ""600"" style=""position:fixed;top:50%; left:50%; transform: translate(-50%, -50%); border:5px solid black"">","","","","","","","",""
"","7557.665000029374","sequential-stimulus-presentation-old","100","378403","0.0-25.0-1.1","SS1619739185303","trial","","40","500","8057.665000029374","images/stimuli/spore_stims/complex_13_A_a.gif","images/stimuli/spore_stims/complex_18_A_b.gif","forced_long","","8","complex_dissimilar","images/stimuli/spore_stims/complex_18_A_b.gif","","","","",""
"","null","html-keyboard-response","101","379433","0.0-25.0-0.2","SS1619739185303","","","null","","","","","","<p><img src= images/blank.png width =""600"" height = ""600"" style=""position:fixed;top:50%; left:50%; transform: translate(-50%, -50%); border:5px solid black"">","","","","","","","",""
"","3314.6100000012666","sequential-stimulus-presentation-old","102","383271","0.0-25.0-1.2","SS1619739185303","trial","","40","500","3814.6100000012666","images/stimuli/spore_stims/complex_13_A_a.gif","images/stimuli/spore_stims/complex_18_A_b.gif","forced_long","","8","complex_dissimilar","images/stimuli/spore_stims/complex_18_A_b.gif","","","","",""
"","null","html-keyboard-response","103","384239","0.0-25.0-0.3","SS1619739185303","","","null","","","","","","<p><img src= images/blank.png width =""600"" height = ""600"" style=""position:fixed;top:50%; left:50%; transform: translate(-50%, -50%); border:5px solid black"">","","","","","","","",""
"","283.0899999826215","sequential-stimulus-presentation-old","104","385046","0.0-25.0-1.3","SS1619739185303","trial","","40","500","783.0899999826215","images/stimuli/spore_stims/complex_13_A_a.gif","images/stimuli/spore_stims/complex_18_A_b.gif","forced_long","","8","complex_dissimilar","images/stimuli/spore_stims/complex_18_A_b.gif","","","","",""
"","3535.8649999834597","survey-multi-choice","105","388591","0.0-26.0","SS1619739185303","math_question","","","","","","","","","","","","{""Q0"":""10""}","[0]","10","",""
"","null","html-keyboard-response","106","389791","0.0-27.0-0.0","SS1619739185303","","","null","","","","","","<p><img src= images/blank.png width =""600"" height = ""600"" style=""position:fixed;top:50%; left:50%; transform: translate(-50%, -50%); border:5px solid black"">","","","","","","","",""
"","1294.5149999577552","sequential-stimulus-presentation-old","107","391599","0.0-27.0-1.0","SS1619739185303","trial","","40","500","1794.5149999577552","images/stimuli/spore_stims/complex_08_A_a.gif","images/stimuli/spore_stims/complex_07_A_b.gif","self_paced","","9","complex_dissimilar","images/stimuli/spore_stims/complex_07_A_b.gif","","","","",""
"","null","html-keyboard-response","108","392494","0.0-27.0-0.1","SS1619739185303","","","null","","","","","","<p><img src= images/blank.png width =""600"" height = ""600"" style=""position:fixed;top:50%; left:50%; transform: translate(-50%, -50%); border:5px solid black"">","","","","","","","",""
"","8311.015000042971","sequential-stimulus-presentation-old","109","401319","0.0-27.0-1.1","SS1619739185303","trial","","40","500","8811.015000042971","images/stimuli/spore_stims/complex_08_A_a.gif","images/stimuli/spore_stims/complex_07_A_b.gif","self_paced","","9","complex_dissimilar","images/stimuli/spore_stims/complex_07_A_b.gif","","","","",""
"","null","html-keyboard-response","110","402372","0.0-27.0-0.2","SS1619739185303","","","null","","","","","","<p><img src= images/blank.png width =""600"" height = ""600"" style=""position:fixed;top:50%; left:50%; transform: translate(-50%, -50%); border:5px solid black"">","","","","","","","",""
"","544.7099999873899","sequential-stimulus-presentation-old","111","403438","0.0-27.0-1.2","SS1619739185303","trial","","40","500","1044.70999998739","images/stimuli/spore_stims/complex_08_A_a.gif","images/stimuli/spore_stims/complex_07_A_b.gif","self_paced","","9","complex_dissimilar","images/stimuli/spore_stims/complex_07_A_b.gif","","","","",""
"","null","html-keyboard-response","112","404294","0.0-27.0-0.3","SS1619739185303","","","null","","","","","","<p><img src= images/blank.png width =""600"" height = ""600"" style=""position:fixed;top:50%; left:50%; transform: translate(-50%, -50%); border:5px solid black"">","","","","","","","",""
"","1468.3250000234693","sequential-stimulus-presentation-old","113","406281","0.0-27.0-1.3","SS1619739185303","trial","","40","500","1968.3250000234693","images/stimuli/spore_stims/complex_08_A_a.gif","images/stimuli/spore_stims/complex_07_A_b.gif","self_paced","","9","complex_dissimilar","images/stimuli/spore_stims/complex_08_A_a.gif","","","","",""
"","null","html-keyboard-response","114","407292","0.0-27.0-0.4","SS1619739185303","","","null","","","","","","<p><img src= images/blank.png width =""600"" height = ""600"" style=""position:fixed;top:50%; left:50%; transform: translate(-50%, -50%); border:5px solid black"">","","","","","","","",""
"","954.0500000002794","sequential-stimulus-presentation-old","115","408758","0.0-27.0-1.4","SS1619739185303","trial","","40","500","1454.0500000002794","images/stimuli/spore_stims/complex_08_A_a.gif","images/stimuli/spore_stims/complex_07_A_b.gif","self_paced","","9","complex_dissimilar","images/stimuli/spore_stims/complex_08_A_a.gif","","","","",""
"","null","html-keyboard-response","116","409852","0.0-27.0-0.5","SS1619739185303","","","null","","","","","","<p><img src= images/blank.png width =""600"" height = ""600"" style=""position:fixed;top:50%; left:50%; transform: translate(-50%, -50%); border:5px solid black"">","","","","","","","",""
"","1339.9199999985285","sequential-stimulus-presentation-old","117","411703","0.0-27.0-1.5","SS1619739185303","trial","","40","500","1839.9199999985285","images/stimuli/spore_stims/complex_08_A_a.gif","images/stimuli/spore_stims/complex_07_A_b.gif","self_paced","","9","complex_dissimilar","images/stimuli/spore_stims/complex_07_A_b.gif","","","","",""
"","3569.244999962393","survey-multi-choice","118","415282","0.0-28.0","SS1619739185303","math_question","","","","","","","","","","","","{""Q0"":""16""}","[0]","16","",""
"","null","html-keyboard-response","119","416136","0.0-29.0-0.0","SS1619739185303","","","null","","","","","","<p><img src= images/blank.png width =""600"" height = ""600"" style=""position:fixed;top:50%; left:50%; transform: translate(-50%, -50%); border:5px solid black"">","","","","","","","",""
"","215.47499997541308","sequential-stimulus-presentation-old","120","416879","0.0-29.0-1.0","SS1619739185303","trial","","40","500","715.4749999754131","images/stimuli/spore_stims/simple_17_A_b.gif","images/stimuli/spore_stims/simple_10_A_a.gif","forced_short","","10","simple_dissimilar","images/stimuli/spore_stims/simple_10_A_a.gif","","","","",""
"","null","html-keyboard-response","121","417726","0.0-29.0-0.1","SS1619739185303","","","null","","","","","","<p><img src= images/blank.png width =""600"" height = ""600"" style=""position:fixed;top:50%; left:50%; transform: translate(-50%, -50%); border:5px solid black"">","","","","","","","",""
"","63.239999988581985","sequential-stimulus-presentation-old","122","418300","0.0-29.0-1.1","SS1619739185303","trial","","40","500","563.239999988582","images/stimuli/spore_stims/simple_17_A_b.gif","images/stimuli/spore_stims/simple_10_A_a.gif","forced_short","","10","simple_dissimilar","images/stimuli/spore_stims/simple_10_A_a.gif","","","","",""
"","null","html-keyboard-response","123","419477","0.0-29.0-0.2","SS1619739185303","","","null","","","","","","<p><img src= images/blank.png width =""600"" height = ""600"" style=""position:fixed;top:50%; left:50%; transform: translate(-50%, -50%); border:5px solid black"">","","","","","","","",""
"","533.8750000228174","sequential-stimulus-presentation-old","124","420534","0.0-29.0-1.2","SS1619739185303","trial","","40","500","1033.8750000228174","images/stimuli/spore_stims/simple_17_A_b.gif","images/stimuli/spore_stims/simple_10_A_a.gif","forced_short","","10","simple_dissimilar","images/stimuli/spore_stims/simple_10_A_a.gif","","","","",""
"","null","html-keyboard-response","125","421515","0.0-29.0-0.3","SS1619739185303","","","null","","","","","","<p><img src= images/blank.png width =""600"" height = ""600"" style=""position:fixed;top:50%; left:50%; transform: translate(-50%, -50%); border:5px solid black"">","","","","","","","",""
"","459.4950000173412","sequential-stimulus-presentation-old","126","422496","0.0-29.0-1.3","SS1619739185303","trial","","40","500","959.4950000173412","images/stimuli/spore_stims/simple_17_A_b.gif","images/stimuli/spore_stims/simple_10_A_a.gif","forced_short","","10","simple_dissimilar","images/stimuli/spore_stims/simple_10_A_a.gif","","","","",""
"","3413.200000009965","survey-multi-choice","127","425920","0.0-30.0","SS1619739185303","math_question","","","","","","","","","","","","{""Q0"":""10""}","[0]","10","",""
"","null","html-keyboard-response","128","426903","0.0-31.0-0.0","SS1619739185303","","","null","","","","","","<p><img src= images/blank.png width =""600"" height = ""600"" style=""position:fixed;top:50%; left:50%; transform: translate(-50%, -50%); border:5px solid black"">","","","","","","","",""
"","494.16499998187646","sequential-stimulus-presentation-old","129","442414","0.0-31.0-1.0","SS1619739185303","trial","","40","500","994.1649999818765","images/stimuli/spore_stims/simple_05_A_b.gif","images/stimuli/spore_stims/simple_13_A_a.gif","forced_long","","11","simple_dissimilar","images/stimuli/spore_stims/simple_13_A_a.gif","","","","",""
"","null","html-keyboard-response","130","443404","0.0-31.0-0.1","SS1619739185303","","","null","","","","","","<p><img src= images/blank.png width =""600"" height = ""600"" style=""position:fixed;top:50%; left:50%; transform: translate(-50%, -50%); border:5px solid black"">","","","","","","","",""
"","628.0949999927543","sequential-stimulus-presentation-old","131","444546","0.0-31.0-1.1","SS1619739185303","trial","","40","500","1128.0949999927543","images/stimuli/spore_stims/simple_05_A_b.gif","images/stimuli/spore_stims/simple_13_A_a.gif","forced_long","","11","simple_dissimilar","images/stimuli/spore_stims/simple_05_A_b.gif","","","","",""
"","null","html-keyboard-response","132","445850","0.0-31.0-0.2","SS1619739185303","","","null","","","","","","<p><img src= images/blank.png width =""600"" height = ""600"" style=""position:fixed;top:50%; left:50%; transform: translate(-50%, -50%); border:5px solid black"">","","","","","","","",""
"","1650.2800000016578","sequential-stimulus-presentation-old","133","448022","0.0-31.0-1.2","SS1619739185303","trial","","40","500","2150.2800000016578","images/stimuli/spore_stims/simple_05_A_b.gif","images/stimuli/spore_stims/simple_13_A_a.gif","forced_long","","11","simple_dissimilar","images/stimuli/spore_stims/simple_05_A_b.gif","","","","",""
"","null","html-keyboard-response","134","449128","0.0-31.0-0.3","SS1619739185303","","","null","","","","","","<p><img src= images/blank.png width =""600"" height = ""600"" style=""position:fixed;top:50%; left:50%; transform: translate(-50%, -50%); border:5px solid black"">","","","","","","","",""
"","202.24999997299165","sequential-stimulus-presentation-old","135","449842","0.0-31.0-1.3","SS1619739185303","trial","","40","500","702.2499999729916","images/stimuli/spore_stims/simple_05_A_b.gif","images/stimuli/spore_stims/simple_13_A_a.gif","forced_long","","11","simple_dissimilar","images/stimuli/spore_stims/simple_13_A_a.gif","","","","",""
"","null","html-keyboard-response","136","450950","0.0-31.0-0.4","SS1619739185303","","","null","","","","","","<p><img src= images/blank.png width =""600"" height = ""600"" style=""position:fixed;top:50%; left:50%; transform: translate(-50%, -50%); border:5px solid black"">","","","","","","","",""
"","599.385000008624","sequential-stimulus-presentation-old","137","452059","0.0-31.0-1.4","SS1619739185303","trial","","40","500","1099.385000008624","images/stimuli/spore_stims/simple_05_A_b.gif","images/stimuli/spore_stims/simple_13_A_a.gif","forced_long","","11","simple_dissimilar","images/stimuli/spore_stims/simple_13_A_a.gif","","","","",""
"","null","html-keyboard-response","138","453304","0.0-31.0-0.5","SS1619739185303","","","null","","","","","","<p><img src= images/blank.png width =""600"" height = ""600"" style=""position:fixed;top:50%; left:50%; transform: translate(-50%, -50%); border:5px solid black"">","","","","","","","",""
"","22798.070000018924","sequential-stimulus-presentation-old","139","476623","0.0-31.0-1.5","SS1619739185303","trial","","40","500","23298.070000018924","images/stimuli/spore_stims/simple_05_A_b.gif","images/stimuli/spore_stims/simple_13_A_a.gif","forced_long","","11","simple_dissimilar","images/stimuli/spore_stims/simple_13_A_a.gif","","","","",""
"[{""page_index"":0,""viewing_time"":3910.875000001397}]","3911.229999968782","instructions","140","480546","0.0-32.0","SS1619739185303","instructions","","","","","","","","","","","","","","","",""
"","9171.035000006668","survey-likert","141","489722","0.0-33.0","SS1619739185303","similarity_question","","","","","","","","","","","","{""Q0"":6}","[0]","","images/stimuli/spore_stims/simple_05_A_b.gif","images/stimuli/spore_stims/simple_13_A_a.gif"
"","6321.51999999769","survey-likert","142","496049","0.0-34.0","SS1619739185303","similarity_question","","","","","","","","","","","","{""Q0"":1}","[0]","","images/stimuli/spore_stims/complex_03_A_b.gif","images/stimuli/spore_stims/complex_15_A_a.gif"
"","5880.375000007916","survey-likert","143","501935","0.0-35.0","SS1619739185303","similarity_question","","","","","","","","","","","","{""Q0"":2}","[0]","","images/stimuli/spore_stims/complex_10_A_b.gif","images/stimuli/spore_stims/complex_18_A_a.gif"
"","8763.449999969453","survey-likert","144","510704","0.0-36.0","SS1619739185303","similarity_question","","","","","","","","","","","","{""Q0"":4}","[0]","","images/stimuli/spore_stims/complex_02_A_b.gif","images/stimuli/spore_stims/complex_11_A_a.gif"
"","5536.064999992959","survey-likert","145","516245","0.0-37.0","SS1619739185303","similarity_question","","","","","","","","","","","","{""Q0"":5}","[0]","","images/stimuli/spore_stims/simple_10_A_b.gif","images/stimuli/spore_stims/simple_18_A_a.gif"
"","2951.8950000056066","survey-likert","146","519203","0.0-38.0","SS1619739185303","similarity_question","","","","","","","","","","","","{""Q0"":5}","[0]","","images/stimuli/spore_stims/simple_01_A_b.gif","images/stimuli/spore_stims/simple_04_A_a.gif"
"","8052.780000027269","survey-likert","147","527261","0.0-39.0","SS1619739185303","similarity_question","","","","","","","","","","","","{""Q0"":4}","[0]","","images/stimuli/spore_stims/complex_08_A_a.gif","images/stimuli/spore_stims/complex_07_A_b.gif"
"","4429.560000018682","survey-likert","148","531696","0.0-40.0","SS1619739185303","similarity_question","","","","","","","","","","","","{""Q0"":6}","[0]","","images/stimuli/spore_stims/simple_15_A_b.gif","images/stimuli/spore_stims/simple_20_A_a.gif"
"","5190.340000030119","survey-likert","149","536891","0.0-41.0","SS1619739185303","similarity_question","","","","","","","","","","","","{""Q0"":1}","[0]","","images/stimuli/spore_stims/complex_13_A_a.gif","images/stimuli/spore_stims/complex_18_A_b.gif"
"","2295.87500001071","survey-likert","150","539192","0.0-42.0","SS1619739185303","similarity_question","","","","","","","","","","","","{""Q0"":6}","[0]","","images/stimuli/spore_stims/simple_19_A_a.gif","images/stimuli/spore_stims/simple_14_A_b.gif"
"","4056.1300000408664","survey-likert","151","543253","0.0-43.0","SS1619739185303","similarity_question","","","","","","","","","","","","{""Q0"":4}","[0]","","images/stimuli/spore_stims/complex_11_A_b.gif","images/stimuli/spore_stims/complex_14_A_a.gif"
"","5040.595000027679","survey-likert","152","548299","0.0-44.0","SS1619739185303","similarity_question","","","","","","","","","","","","{""Q0"":6}","[0]","","images/stimuli/spore_stims/simple_10_A_a.gif","images/stimuli/spore_stims/simple_17_A_b.gif"
"[{""page_index"":0,""viewing_time"":3351.710000017192}]","3352.0550000248477","instructions","153","551655","0.0-45.0","SS1619739185303","instructions","","","","","","","","","","","","","","","",""
"","4753.220000013243","survey-likert","154","556414","0.0-46.0","SS1619739185303","","","","","","","","","images/stimuli/spore_stims/simple_15_A_b.gif","","","","{""Q0"":0}","[0]","","",""
"","6351.144999964163","survey-likert","155","562773","0.0-47.0","SS1619739185303","","","","","","","","","images/stimuli/spore_stims/complex_13_A_a.gif","","","","{""Q0"":5}","[0]","","",""
"","2273.2950000208803","survey-likert","156","565051","0.0-48.0","SS1619739185303","","","","","","","","","images/stimuli/spore_stims/simple_05_A_b.gif","","","","{""Q0"":0}","[0]","","",""
"","3609.244999999646","survey-likert","157","568666","0.0-49.0","SS1619739185303","","","","","","","","","images/stimuli/spore_stims/complex_02_A_b.gif","","","","{""Q0"":4}","[0]","","",""
"","3647.7650000015274","survey-likert","158","572319","0.0-50.0","SS1619739185303","","","","","","","","","images/stimuli/spore_stims/simple_18_A_a.gif","","","","{""Q0"":1}","[0]","","",""
"","4439.130000013392","survey-likert","159","576763","0.0-51.0","SS1619739185303","","","","","","","","","images/stimuli/spore_stims/complex_14_A_a.gif","","","","{""Q0"":5}","[0]","","",""
"","2303.1949999858625","survey-likert","160","579071","0.0-52.0","SS1619739185303","","","","","","","","","images/stimuli/spore_stims/simple_10_A_a.gif","","","","{""Q0"":0}","[0]","","",""
"","2741.044999973383","survey-likert","161","581817","0.0-53.0","SS1619739185303","","","","","","","","","images/stimuli/spore_stims/complex_08_A_a.gif","","","","{""Q0"":5}","[0]","","",""
"","2348.3300000079907","survey-likert","162","584173","0.0-54.0","SS1619739185303","","","","","","","","","images/stimuli/spore_stims/simple_01_A_b.gif","","","","{""Q0"":0}","[0]","","",""
"","3538.8500000117347","survey-likert","163","587717","0.0-55.0","SS1619739185303","","","","","","","","","images/stimuli/spore_stims/complex_10_A_b.gif","","","","{""Q0"":4}","[0]","","",""
"","2530.124999990221","survey-likert","164","590252","0.0-56.0","SS1619739185303","","","","","","","","","images/stimuli/spore_stims/complex_03_A_b.gif","","","","{""Q0"":3}","[0]","","",""
"","2483.1799999810755","survey-likert","165","592740","0.0-57.0","SS1619739185303","","","","","","","","","images/stimuli/spore_stims/simple_14_A_b.gif","","","","{""Q0"":1}","[0]","","",""
"[{""page_index"":0,""viewing_time"":1825.4600000218488}]","1825.8200000273064","instructions","166","594570","0.0-58.0","SS1619739185303","instructions","","","","","","","","","","","","","","","",""
"","2708.935000002384","demog-age","167","597286","0.0-59.0","SS1619739185303","","","","","","","","","","","","","{""age"":""19""}","","","",""
"","3260.8449999825098","demog-ethnic-US","168","600557","0.0-60.0","SS1619739185303","","","","","","","","","","","","","{""ethnicity"":[""White""]}","[0]","","",""
"","6856.064999999944","demog-gender-and-education","169","607419","0.0-61.0","SS1619739185303","","","","","","","","","","","","","{""gender"":""Male"",""education"":""High school diploma""}","[0,1]","","",""
"","11116.22000002535","survey-text","170","618542","0.0-62.0","SS1619739185303","feedback","","","","","","","","","","","","{""Q0"":""No problems at all""}","","","",""
"[{""page_index"":0,""viewing_time"":1419.3000000086613}]","1419.6300000185147","instructions","171","619966","0.0-63.0","SS1619739185303","instructions","","","","","","","","","","","","","","","",""
