"view_history","rt","trial_type","trial_index","time_elapsed","internal_node_id","subject","stimulus_type","trial_stimulus","key_press","minimum_viewing_duration","trial_looking_time","block_deviant","block_background","exposure_type","stimulus","block_number","block_type","stimulus_displayed","responses","question_order","math_correct_answer","stimulus_left","stimulus_right"
"[{""page_index"":0,""viewing_time"":1685.4149999999208}]","1685.604999998759","instructions","0","1687","0.0-0.0","SS1619739685705","","","","","","","","","","","","","","","","",""
"[{""page_index"":0,""viewing_time"":17897.185000001627},{""page_index"":1,""viewing_time"":8280.080000000453}]","26177.419999999984","instructions","1","29878","0.0-1.0","SS1619739685705","instructions","","","","","","","","","","","","","","","",""
"","8912.609999999404","sequential-stimulus-presentation-old","2","39293","0.0-2.0","SS1619739685705","","","40","500","9412.609999999404","null","null","self_paced","","","","","","","","",""
"","8452.2799999977","sequential-stimulus-presentation-old","3","48258","0.0-3.0","SS1619739685705","","","40","500","8952.2799999977","null","null","self_paced","","","","","","","","",""
"[{""page_index"":0,""viewing_time"":26755.590000000666}]","26755.669999998645","instructions","4","75014","0.0-4.0","SS1619739685705","instructions","","","","","","","","","","","","","","","",""
"","1427.2799999998824","sequential-stimulus-presentation-old","5","91443","0.0-5.0","SS1619739685705","","","40","500","1927.2799999998824","null","null","forced_long","","","","","","","","",""
"","2965.055000000575","sequential-stimulus-presentation-old","6","94909","0.0-6.0","SS1619739685705","","","40","500","3465.055000000575","null","null","forced_long","","","","","","","","",""
"[{""page_index"":0,""viewing_time"":9947.510000001785}]","9947.570000000269","instructions","7","104857","0.0-7.0","SS1619739685705","instructions","","","","","","","","","","","","","","","",""
"[{""page_index"":0,""viewing_time"":12177.990000000136},{""page_index"":1,""viewing_time"":20542.914999998175},{""page_index"":2,""viewing_time"":25899.929999999586},{""page_index"":3,""viewing_time"":4231.500000001688},{""page_index"":4,""viewing_time"":1853.0199999986507}]","64705.464999999094","instructions","8","169562","0.0-8.0","SS1619739685705","instructions","","","","","","","","","","","","","","","",""
"","null","html-keyboard-response","9","170768","0.0-9.0-0.0","SS1619739685705","","","null","","","","","","<p><img src= images/blank.png width =""600"" height = ""600"" style=""position:fixed;top:50%; left:50%; transform: translate(-50%, -50%); border:5px solid black"">","","","","","","","",""
"","1694.5799999994051","sequential-stimulus-presentation-old","10","187465","0.0-9.0-1.0","SS1619739685705","trial","","40","500","2194.579999999405","images/stimuli/spore_stims/simple_09_A_a.gif","images/stimuli/spore_stims/simple_11_A_b.gif","forced_long","","0","simple_dissimilar","images/stimuli/spore_stims/simple_11_A_b.gif","","","","",""
"","null","html-keyboard-response","11","188609","0.0-9.0-0.1","SS1619739685705","","","null","","","","","","<p><img src= images/blank.png width =""600"" height = ""600"" style=""position:fixed;top:50%; left:50%; transform: translate(-50%, -50%); border:5px solid black"">","","","","","","","",""
"","12553.33999999857","sequential-stimulus-presentation-old","12","201663","0.0-9.0-1.1","SS1619739685705","trial","","40","500","13053.33999999857","images/stimuli/spore_stims/simple_09_A_a.gif","images/stimuli/spore_stims/simple_11_A_b.gif","forced_long","","0","simple_dissimilar","images/stimuli/spore_stims/simple_11_A_b.gif","","","","",""
"","null","html-keyboard-response","13","202763","0.0-9.0-0.2","SS1619739685705","","","null","","","","","","<p><img src= images/blank.png width =""600"" height = ""600"" style=""position:fixed;top:50%; left:50%; transform: translate(-50%, -50%); border:5px solid black"">","","","","","","","",""
"","8206.650000000081","sequential-stimulus-presentation-old","14","211472","0.0-9.0-1.2","SS1619739685705","trial","","40","500","8706.650000000081","images/stimuli/spore_stims/simple_09_A_a.gif","images/stimuli/spore_stims/simple_11_A_b.gif","forced_long","","0","simple_dissimilar","images/stimuli/spore_stims/simple_11_A_b.gif","","","","",""
"","null","html-keyboard-response","15","212455","0.0-9.0-0.3","SS1619739685705","","","null","","","","","","<p><img src= images/blank.png width =""600"" height = ""600"" style=""position:fixed;top:50%; left:50%; transform: translate(-50%, -50%); border:5px solid black"">","","","","","","","",""
"","2740.09500000102","sequential-stimulus-presentation-old","16","215697","0.0-9.0-1.3","SS1619739685705","trial","","40","500","3240.09500000102","images/stimuli/spore_stims/simple_09_A_a.gif","images/stimuli/spore_stims/simple_11_A_b.gif","forced_long","","0","simple_dissimilar","images/stimuli/spore_stims/simple_11_A_b.gif","","","","",""
"","null","html-keyboard-response","17","216896","0.0-9.0-0.4","SS1619739685705","","","null","","","","","","<p><img src= images/blank.png width =""600"" height = ""600"" style=""position:fixed;top:50%; left:50%; transform: translate(-50%, -50%); border:5px solid black"">","","","","","","","",""
"","14680.11000000115","sequential-stimulus-presentation-old","18","232080","0.0-9.0-1.4","SS1619739685705","trial","","40","500","15180.11000000115","images/stimuli/spore_stims/simple_09_A_a.gif","images/stimuli/spore_stims/simple_11_A_b.gif","forced_long","","0","simple_dissimilar","images/stimuli/spore_stims/simple_11_A_b.gif","","","","",""
"","null","html-keyboard-response","19","233026","0.0-9.0-0.5","SS1619739685705","","","null","","","","","","<p><img src= images/blank.png width =""600"" height = ""600"" style=""position:fixed;top:50%; left:50%; transform: translate(-50%, -50%); border:5px solid black"">","","","","","","","",""
"","3547.725000000355","sequential-stimulus-presentation-old","20","237076","0.0-9.0-1.5","SS1619739685705","trial","","40","500","4047.725000000355","images/stimuli/spore_stims/simple_09_A_a.gif","images/stimuli/spore_stims/simple_11_A_b.gif","forced_long","","0","simple_dissimilar","images/stimuli/spore_stims/simple_11_A_b.gif","","","","",""
"","8556.359999998676","survey-multi-choice","21","245634","0.0-10.0","SS1619739685705","math_question","","","","","","","","","","","","{""Q0"":""15""}","[0]","15","",""
"","null","html-keyboard-response","22","246782","0.0-11.0-0.0","SS1619739685705","","","null","","","","","","<p><img src= images/blank.png width =""600"" height = ""600"" style=""position:fixed;top:50%; left:50%; transform: translate(-50%, -50%); border:5px solid black"">","","","","","","","",""
"","2822.5149999998393","sequential-stimulus-presentation-old","23","250106","0.0-11.0-1.0","SS1619739685705","trial","","40","500","3322.5149999998393","images/stimuli/spore_stims/simple_02_A_b.gif","images/stimuli/spore_stims/simple_08_A_a.gif","self_paced","","1","simple_dissimilar","images/stimuli/spore_stims/simple_08_A_a.gif","","","","",""
"","null","html-keyboard-response","24","251120","0.0-11.0-0.1","SS1619739685705","","","null","","","","","","<p><img src= images/blank.png width =""600"" height = ""600"" style=""position:fixed;top:50%; left:50%; transform: translate(-50%, -50%); border:5px solid black"">","","","","","","","",""
"","3739.1700000007404","sequential-stimulus-presentation-old","25","255361","0.0-11.0-1.1","SS1619739685705","trial","","40","500","4239.17000000074","images/stimuli/spore_stims/simple_02_A_b.gif","images/stimuli/spore_stims/simple_08_A_a.gif","self_paced","","1","simple_dissimilar","images/stimuli/spore_stims/simple_08_A_a.gif","","","","",""
"","null","html-keyboard-response","26","256186","0.0-11.0-0.2","SS1619739685705","","","null","","","","","","<p><img src= images/blank.png width =""600"" height = ""600"" style=""position:fixed;top:50%; left:50%; transform: translate(-50%, -50%); border:5px solid black"">","","","","","","","",""
"","3789.7349999984435","sequential-stimulus-presentation-old","27","260478","0.0-11.0-1.2","SS1619739685705","trial","","40","500","4289.7349999984435","images/stimuli/spore_stims/simple_02_A_b.gif","images/stimuli/spore_stims/simple_08_A_a.gif","self_paced","","1","simple_dissimilar","images/stimuli/spore_stims/simple_08_A_a.gif","","","","",""
"","null","html-keyboard-response","28","261718","0.0-11.0-0.3","SS1619739685705","","","null","","","","","","<p><img src= images/blank.png width =""600"" height = ""600"" style=""position:fixed;top:50%; left:50%; transform: translate(-50%, -50%); border:5px solid black"">","","","","","","","",""
"","4315.330000001297","sequential-stimulus-presentation-old","29","266535","0.0-11.0-1.3","SS1619739685705","trial","","40","500","4815.330000001297","images/stimuli/spore_stims/simple_02_A_b.gif","images/stimuli/spore_stims/simple_08_A_a.gif","self_paced","","1","simple_dissimilar","images/stimuli/spore_stims/simple_08_A_a.gif","","","","",""
"","null","html-keyboard-response","30","267686","0.0-11.0-0.4","SS1619739685705","","","null","","","","","","<p><img src= images/blank.png width =""600"" height = ""600"" style=""position:fixed;top:50%; left:50%; transform: translate(-50%, -50%); border:5px solid black"">","","","","","","","",""
"","6172.334999999264","sequential-stimulus-presentation-old","31","274360","0.0-11.0-1.4","SS1619739685705","trial","","40","500","6672.334999999264","images/stimuli/spore_stims/simple_02_A_b.gif","images/stimuli/spore_stims/simple_08_A_a.gif","self_paced","","1","simple_dissimilar","images/stimuli/spore_stims/simple_08_A_a.gif","","","","",""
"","null","html-keyboard-response","32","275562","0.0-11.0-0.5","SS1619739685705","","","null","","","","","","<p><img src= images/blank.png width =""600"" height = ""600"" style=""position:fixed;top:50%; left:50%; transform: translate(-50%, -50%); border:5px solid black"">","","","","","","","",""
"","2831.7750000023516","sequential-stimulus-presentation-old","33","278896","0.0-11.0-1.5","SS1619739685705","trial","","40","500","3331.7750000023516","images/stimuli/spore_stims/simple_02_A_b.gif","images/stimuli/spore_stims/simple_08_A_a.gif","self_paced","","1","simple_dissimilar","images/stimuli/spore_stims/simple_02_A_b.gif","","","","",""
"","3571.4849999967264","survey-multi-choice","34","282469","0.0-12.0","SS1619739685705","math_question","","","","","","","","","","","","{""Q0"":""12""}","[0]","12","",""
"","null","html-keyboard-response","35","283623","0.0-13.0-0.0","SS1619739685705","","","null","","","","","","<p><img src= images/blank.png width =""600"" height = ""600"" style=""position:fixed;top:50%; left:50%; transform: translate(-50%, -50%); border:5px solid black"">","","","","","","","",""
"","6522.380000002158","sequential-stimulus-presentation-old","36","290648","0.0-13.0-1.0","SS1619739685705","trial","","40","500","7022.380000002158","images/stimuli/spore_stims/complex_08_A_a.gif","images/stimuli/spore_stims/complex_20_A_b.gif","self_paced","","2","complex_dissimilar","images/stimuli/spore_stims/complex_20_A_b.gif","","","","",""
"","null","html-keyboard-response","37","291466","0.0-13.0-0.1","SS1619739685705","","","null","","","","","","<p><img src= images/blank.png width =""600"" height = ""600"" style=""position:fixed;top:50%; left:50%; transform: translate(-50%, -50%); border:5px solid black"">","","","","","","","",""
"","2755.7699999997276","sequential-stimulus-presentation-old","38","294725","0.0-13.0-1.1","SS1619739685705","trial","","40","500","3255.7699999997276","images/stimuli/spore_stims/complex_08_A_a.gif","images/stimuli/spore_stims/complex_20_A_b.gif","self_paced","","2","complex_dissimilar","images/stimuli/spore_stims/complex_20_A_b.gif","","","","",""
"","null","html-keyboard-response","39","295994","0.0-13.0-0.2","SS1619739685705","","","null","","","","","","<p><img src= images/blank.png width =""600"" height = ""600"" style=""position:fixed;top:50%; left:50%; transform: translate(-50%, -50%); border:5px solid black"">","","","","","","","",""
"","1705.7700000004843","sequential-stimulus-presentation-old","40","298209","0.0-13.0-1.2","SS1619739685705","trial","","40","500","2205.7700000004843","images/stimuli/spore_stims/complex_08_A_a.gif","images/stimuli/spore_stims/complex_20_A_b.gif","self_paced","","2","complex_dissimilar","images/stimuli/spore_stims/complex_20_A_b.gif","","","","",""
"","null","html-keyboard-response","41","299223","0.0-13.0-0.3","SS1619739685705","","","null","","","","","","<p><img src= images/blank.png width =""600"" height = ""600"" style=""position:fixed;top:50%; left:50%; transform: translate(-50%, -50%); border:5px solid black"">","","","","","","","",""
"","2658.7500000023283","sequential-stimulus-presentation-old","42","302383","0.0-13.0-1.3","SS1619739685705","trial","","40","500","3158.7500000023283","images/stimuli/spore_stims/complex_08_A_a.gif","images/stimuli/spore_stims/complex_20_A_b.gif","self_paced","","2","complex_dissimilar","images/stimuli/spore_stims/complex_20_A_b.gif","","","","",""
"","null","html-keyboard-response","43","303574","0.0-13.0-0.4","SS1619739685705","","","null","","","","","","<p><img src= images/blank.png width =""600"" height = ""600"" style=""position:fixed;top:50%; left:50%; transform: translate(-50%, -50%); border:5px solid black"">","","","","","","","",""
"","5964.649999998044","sequential-stimulus-presentation-old","44","310041","0.0-13.0-1.4","SS1619739685705","trial","","40","500","6464.649999998044","images/stimuli/spore_stims/complex_08_A_a.gif","images/stimuli/spore_stims/complex_20_A_b.gif","self_paced","","2","complex_dissimilar","images/stimuli/spore_stims/complex_20_A_b.gif","","","","",""
"","null","html-keyboard-response","45","310924","0.0-13.0-0.5","SS1619739685705","","","null","","","","","","<p><img src= images/blank.png width =""600"" height = ""600"" style=""position:fixed;top:50%; left:50%; transform: translate(-50%, -50%); border:5px solid black"">","","","","","","","",""
"","8861.259999997856","sequential-stimulus-presentation-old","46","320287","0.0-13.0-1.5","SS1619739685705","trial","","40","500","9361.259999997856","images/stimuli/spore_stims/complex_08_A_a.gif","images/stimuli/spore_stims/complex_20_A_b.gif","self_paced","","2","complex_dissimilar","images/stimuli/spore_stims/complex_08_A_a.gif","","","","",""
"","3246.2049999994924","survey-multi-choice","47","323534","0.0-14.0","SS1619739685705","math_question","","","","","","","","","","","","{""Q0"":""11""}","[0]","11","",""
"","null","html-keyboard-response","48","324425","0.0-15.0-0.0","SS1619739685705","","","null","","","","","","<p><img src= images/blank.png width =""600"" height = ""600"" style=""position:fixed;top:50%; left:50%; transform: translate(-50%, -50%); border:5px solid black"">","","","","","","","",""
"","2600.6149999994086","sequential-stimulus-presentation-old","49","327528","0.0-15.0-1.0","SS1619739685705","trial","","40","500","3100.6149999994086","images/stimuli/spore_stims/complex_11_A_b.gif","images/stimuli/spore_stims/complex_15_A_a.gif","forced_short","","3","complex_dissimilar","images/stimuli/spore_stims/complex_15_A_a.gif","","","","",""
"","null","html-keyboard-response","50","328429","0.0-15.0-0.1","SS1619739685705","","","null","","","","","","<p><img src= images/blank.png width =""600"" height = ""600"" style=""position:fixed;top:50%; left:50%; transform: translate(-50%, -50%); border:5px solid black"">","","","","","","","",""
"","4633.880000001169","sequential-stimulus-presentation-old","51","333566","0.0-15.0-1.1","SS1619739685705","trial","","40","500","5133.880000001169","images/stimuli/spore_stims/complex_11_A_b.gif","images/stimuli/spore_stims/complex_15_A_a.gif","forced_short","","3","complex_dissimilar","images/stimuli/spore_stims/complex_15_A_a.gif","","","","",""
"","null","html-keyboard-response","52","334557","0.0-15.0-0.2","SS1619739685705","","","null","","","","","","<p><img src= images/blank.png width =""600"" height = ""600"" style=""position:fixed;top:50%; left:50%; transform: translate(-50%, -50%); border:5px solid black"">","","","","","","","",""
"","3597.520000002987","sequential-stimulus-presentation-old","53","338657","0.0-15.0-1.2","SS1619739685705","trial","","40","500","4097.520000002987","images/stimuli/spore_stims/complex_11_A_b.gif","images/stimuli/spore_stims/complex_15_A_a.gif","forced_short","","3","complex_dissimilar","images/stimuli/spore_stims/complex_15_A_a.gif","","","","",""
"","null","html-keyboard-response","54","339555","0.0-15.0-0.3","SS1619739685705","","","null","","","","","","<p><img src= images/blank.png width =""600"" height = ""600"" style=""position:fixed;top:50%; left:50%; transform: translate(-50%, -50%); border:5px solid black"">","","","","","","","",""
"","5509.135000000242","sequential-stimulus-presentation-old","55","345566","0.0-15.0-1.3","SS1619739685705","trial","","40","500","6009.135000000242","images/stimuli/spore_stims/complex_11_A_b.gif","images/stimuli/spore_stims/complex_15_A_a.gif","forced_short","","3","complex_dissimilar","images/stimuli/spore_stims/complex_11_A_b.gif","","","","",""
"","null","html-keyboard-response","56","346693","0.0-15.0-0.4","SS1619739685705","","","null","","","","","","<p><img src= images/blank.png width =""600"" height = ""600"" style=""position:fixed;top:50%; left:50%; transform: translate(-50%, -50%); border:5px solid black"">","","","","","","","",""
"","3196.1349999983795","sequential-stimulus-presentation-old","57","350391","0.0-15.0-1.4","SS1619739685705","trial","","40","500","3696.1349999983795","images/stimuli/spore_stims/complex_11_A_b.gif","images/stimuli/spore_stims/complex_15_A_a.gif","forced_short","","3","complex_dissimilar","images/stimuli/spore_stims/complex_15_A_a.gif","","","","",""
"","null","html-keyboard-response","58","351199","0.0-15.0-0.5","SS1619739685705","","","null","","","","","","<p><img src= images/blank.png width =""600"" height = ""600"" style=""position:fixed;top:50%; left:50%; transform: translate(-50%, -50%); border:5px solid black"">","","","","","","","",""
"","1772.595000002184","sequential-stimulus-presentation-old","59","353474","0.0-15.0-1.5","SS1619739685705","trial","","40","500","2272.595000002184","images/stimuli/spore_stims/complex_11_A_b.gif","images/stimuli/spore_stims/complex_15_A_a.gif","forced_short","","3","complex_dissimilar","images/stimuli/spore_stims/complex_11_A_b.gif","","","","",""
"","3991.7200000017765","survey-multi-choice","60","357466","0.0-16.0","SS1619739685705","math_question","","","","","","","","","","","","{""Q0"":""13""}","[0]","13","",""
"","null","html-keyboard-response","61","358318","0.0-17.0-0.0","SS1619739685705","","","null","","","","","","<p><img src= images/blank.png width =""600"" height = ""600"" style=""position:fixed;top:50%; left:50%; transform: translate(-50%, -50%); border:5px solid black"">","","","","","","","",""
"","816.5999999982887","sequential-stimulus-presentation-old","62","374138","0.0-17.0-1.0","SS1619739685705","trial","","40","500","1316.5999999982887","images/stimuli/spore_stims/complex_07_A_b.gif","images/stimuli/spore_stims/complex_20_A_a.gif","forced_long","","4","complex_dissimilar","images/stimuli/spore_stims/complex_20_A_a.gif","","","","",""
"","null","html-keyboard-response","63","375416","0.0-17.0-0.1","SS1619739685705","","","null","","","","","","<p><img src= images/blank.png width =""600"" height = ""600"" style=""position:fixed;top:50%; left:50%; transform: translate(-50%, -50%); border:5px solid black"">","","","","","","","",""
"","1349.6350000023376","sequential-stimulus-presentation-old","64","377268","0.0-17.0-1.1","SS1619739685705","trial","","40","500","1849.6350000023376","images/stimuli/spore_stims/complex_07_A_b.gif","images/stimuli/spore_stims/complex_20_A_a.gif","forced_long","","4","complex_dissimilar","images/stimuli/spore_stims/complex_20_A_a.gif","","","","",""
"","null","html-keyboard-response","65","378246","0.0-17.0-0.2","SS1619739685705","","","null","","","","","","<p><img src= images/blank.png width =""600"" height = ""600"" style=""position:fixed;top:50%; left:50%; transform: translate(-50%, -50%); border:5px solid black"">","","","","","","","",""
"","1629.0750000007683","sequential-stimulus-presentation-old","66","380377","0.0-17.0-1.2","SS1619739685705","trial","","40","500","2129.0750000007683","images/stimuli/spore_stims/complex_07_A_b.gif","images/stimuli/spore_stims/complex_20_A_a.gif","forced_long","","4","complex_dissimilar","images/stimuli/spore_stims/complex_20_A_a.gif","","","","",""
"","null","html-keyboard-response","67","381619","0.0-17.0-0.3","SS1619739685705","","","null","","","","","","<p><img src= images/blank.png width =""600"" height = ""600"" style=""position:fixed;top:50%; left:50%; transform: translate(-50%, -50%); border:5px solid black"">","","","","","","","",""
"","1527.249999999185","sequential-stimulus-presentation-old","68","383649","0.0-17.0-1.3","SS1619739685705","trial","","40","500","2027.249999999185","images/stimuli/spore_stims/complex_07_A_b.gif","images/stimuli/spore_stims/complex_20_A_a.gif","forced_long","","4","complex_dissimilar","images/stimuli/spore_stims/complex_20_A_a.gif","","","","",""
"","3688.515000001644","survey-multi-choice","69","387338","0.0-18.0","SS1619739685705","math_question","","","","","","","","","","","","{""Q0"":""16""}","[0]","16","",""
"","null","html-keyboard-response","70","388180","0.0-19.0-0.0","SS1619739685705","","","null","","","","","","<p><img src= images/blank.png width =""600"" height = ""600"" style=""position:fixed;top:50%; left:50%; transform: translate(-50%, -50%); border:5px solid black"">","","","","","","","",""
"","2047.8550000006799","sequential-stimulus-presentation-old","71","390730","0.0-19.0-1.0","SS1619739685705","trial","","40","500","2547.85500000068","images/stimuli/spore_stims/complex_12_A_b.gif","images/stimuli/spore_stims/complex_03_A_a.gif","forced_short","","5","complex_dissimilar","images/stimuli/spore_stims/complex_03_A_a.gif","","","","",""
"","null","html-keyboard-response","72","392000","0.0-19.0-0.1","SS1619739685705","","","null","","","","","","<p><img src= images/blank.png width =""600"" height = ""600"" style=""position:fixed;top:50%; left:50%; transform: translate(-50%, -50%); border:5px solid black"">","","","","","","","",""
"","6494.660000000265","sequential-stimulus-presentation-old","73","398997","0.0-19.0-1.1","SS1619739685705","trial","","40","500","6994.660000000265","images/stimuli/spore_stims/complex_12_A_b.gif","images/stimuli/spore_stims/complex_03_A_a.gif","forced_short","","5","complex_dissimilar","images/stimuli/spore_stims/complex_03_A_a.gif","","","","",""
"","null","html-keyboard-response","74","400071","0.0-19.0-0.2","SS1619739685705","","","null","","","","","","<p><img src= images/blank.png width =""600"" height = ""600"" style=""position:fixed;top:50%; left:50%; transform: translate(-50%, -50%); border:5px solid black"">","","","","","","","",""
"","6413.854999998875","sequential-stimulus-presentation-old","75","406987","0.0-19.0-1.2","SS1619739685705","trial","","40","500","6913.854999998875","images/stimuli/spore_stims/complex_12_A_b.gif","images/stimuli/spore_stims/complex_03_A_a.gif","forced_short","","5","complex_dissimilar","images/stimuli/spore_stims/complex_12_A_b.gif","","","","",""
"","null","html-keyboard-response","76","407953","0.0-19.0-0.3","SS1619739685705","","","null","","","","","","<p><img src= images/blank.png width =""600"" height = ""600"" style=""position:fixed;top:50%; left:50%; transform: translate(-50%, -50%); border:5px solid black"">","","","","","","","",""
"","2159.4399999994203","sequential-stimulus-presentation-old","77","410615","0.0-19.0-1.3","SS1619739685705","trial","","40","500","2659.4399999994203","images/stimuli/spore_stims/complex_12_A_b.gif","images/stimuli/spore_stims/complex_03_A_a.gif","forced_short","","5","complex_dissimilar","images/stimuli/spore_stims/complex_03_A_a.gif","","","","",""
"","3275.354999997944","survey-multi-choice","78","413891","0.0-20.0","SS1619739685705","math_question","","","","","","","","","","","","{""Q0"":""11""}","[0]","11","",""
"","null","html-keyboard-response","79","414862","0.0-21.0-0.0","SS1619739685705","","","null","","","","","","<p><img src= images/blank.png width =""600"" height = ""600"" style=""position:fixed;top:50%; left:50%; transform: translate(-50%, -50%); border:5px solid black"">","","","","","","","",""
"","731.4949999999953","sequential-stimulus-presentation-old","80","430596","0.0-21.0-1.0","SS1619739685705","trial","","40","500","1231.4949999999953","images/stimuli/spore_stims/simple_01_A_b.gif","images/stimuli/spore_stims/simple_11_A_a.gif","forced_long","","6","simple_dissimilar","images/stimuli/spore_stims/simple_11_A_a.gif","","","","",""
"","null","html-keyboard-response","81","431859","0.0-21.0-0.1","SS1619739685705","","","null","","","","","","<p><img src= images/blank.png width =""600"" height = ""600"" style=""position:fixed;top:50%; left:50%; transform: translate(-50%, -50%); border:5px solid black"">","","","","","","","",""
"","3048.170000001788","sequential-stimulus-presentation-old","82","435409","0.0-21.0-1.1","SS1619739685705","trial","","40","500","3548.170000001788","images/stimuli/spore_stims/simple_01_A_b.gif","images/stimuli/spore_stims/simple_11_A_a.gif","forced_long","","6","simple_dissimilar","images/stimuli/spore_stims/simple_01_A_b.gif","","","","",""
"","null","html-keyboard-response","83","436586","0.0-21.0-0.2","SS1619739685705","","","null","","","","","","<p><img src= images/blank.png width =""600"" height = ""600"" style=""position:fixed;top:50%; left:50%; transform: translate(-50%, -50%); border:5px solid black"">","","","","","","","",""
"","1445.3949999988545","sequential-stimulus-presentation-old","84","438534","0.0-21.0-1.2","SS1619739685705","trial","","40","500","1945.3949999988545","images/stimuli/spore_stims/simple_01_A_b.gif","images/stimuli/spore_stims/simple_11_A_a.gif","forced_long","","6","simple_dissimilar","images/stimuli/spore_stims/simple_11_A_a.gif","","","","",""
"","null","html-keyboard-response","85","439553","0.0-21.0-0.3","SS1619739685705","","","null","","","","","","<p><img src= images/blank.png width =""600"" height = ""600"" style=""position:fixed;top:50%; left:50%; transform: translate(-50%, -50%); border:5px solid black"">","","","","","","","",""
"","637.3349999994389","sequential-stimulus-presentation-old","86","440692","0.0-21.0-1.3","SS1619739685705","trial","","40","500","1137.3349999994389","images/stimuli/spore_stims/simple_01_A_b.gif","images/stimuli/spore_stims/simple_11_A_a.gif","forced_long","","6","simple_dissimilar","images/stimuli/spore_stims/simple_11_A_a.gif","","","","",""
"","null","html-keyboard-response","87","441591","0.0-21.0-0.4","SS1619739685705","","","null","","","","","","<p><img src= images/blank.png width =""600"" height = ""600"" style=""position:fixed;top:50%; left:50%; transform: translate(-50%, -50%); border:5px solid black"">","","","","","","","",""
"","806.0399999995134","sequential-stimulus-presentation-old","88","442901","0.0-21.0-1.4","SS1619739685705","trial","","40","500","1306.0399999995134","images/stimuli/spore_stims/simple_01_A_b.gif","images/stimuli/spore_stims/simple_11_A_a.gif","forced_long","","6","simple_dissimilar","images/stimuli/spore_stims/simple_01_A_b.gif","","","","",""
"","null","html-keyboard-response","89","444121","0.0-21.0-0.5","SS1619739685705","","","null","","","","","","<p><img src= images/blank.png width =""600"" height = ""600"" style=""position:fixed;top:50%; left:50%; transform: translate(-50%, -50%); border:5px solid black"">","","","","","","","",""
"","5320.4249999980675","sequential-stimulus-presentation-old","90","449944","0.0-21.0-1.5","SS1619739685705","trial","","40","500","5820.4249999980675","images/stimuli/spore_stims/simple_01_A_b.gif","images/stimuli/spore_stims/simple_11_A_a.gif","forced_long","","6","simple_dissimilar","images/stimuli/spore_stims/simple_11_A_a.gif","","","","",""
"","5089.299999999639","survey-multi-choice","91","455035","0.0-22.0","SS1619739685705","math_question","","","","","","","","","","","","{""Q0"":""14""}","[0]","14","",""
"","null","html-keyboard-response","92","455871","0.0-23.0-0.0","SS1619739685705","","","null","","","","","","<p><img src= images/blank.png width =""600"" height = ""600"" style=""position:fixed;top:50%; left:50%; transform: translate(-50%, -50%); border:5px solid black"">","","","","","","","",""
"","2964.4100000004983","sequential-stimulus-presentation-old","93","459338","0.0-23.0-1.0","SS1619739685705","trial","","40","500","3464.4100000004983","images/stimuli/spore_stims/simple_10_A_b.gif","images/stimuli/spore_stims/simple_04_A_a.gif","forced_short","","7","simple_dissimilar","images/stimuli/spore_stims/simple_04_A_a.gif","","","","",""
"","null","html-keyboard-response","94","460615","0.0-23.0-0.1","SS1619739685705","","","null","","","","","","<p><img src= images/blank.png width =""600"" height = ""600"" style=""position:fixed;top:50%; left:50%; transform: translate(-50%, -50%); border:5px solid black"">","","","","","","","",""
"","3187.420000002021","sequential-stimulus-presentation-old","95","464306","0.0-23.0-1.1","SS1619739685705","trial","","40","500","3687.420000002021","images/stimuli/spore_stims/simple_10_A_b.gif","images/stimuli/spore_stims/simple_04_A_a.gif","forced_short","","7","simple_dissimilar","images/stimuli/spore_stims/simple_04_A_a.gif","","","","",""
"","null","html-keyboard-response","96","465493","0.0-23.0-0.2","SS1619739685705","","","null","","","","","","<p><img src= images/blank.png width =""600"" height = ""600"" style=""position:fixed;top:50%; left:50%; transform: translate(-50%, -50%); border:5px solid black"">","","","","","","","",""
"","1589.1000000010245","sequential-stimulus-presentation-old","97","467585","0.0-23.0-1.2","SS1619739685705","trial","","40","500","2089.1000000010245","images/stimuli/spore_stims/simple_10_A_b.gif","images/stimuli/spore_stims/simple_04_A_a.gif","forced_short","","7","simple_dissimilar","images/stimuli/spore_stims/simple_04_A_a.gif","","","","",""
"","null","html-keyboard-response","98","468520","0.0-23.0-0.3","SS1619739685705","","","null","","","","","","<p><img src= images/blank.png width =""600"" height = ""600"" style=""position:fixed;top:50%; left:50%; transform: translate(-50%, -50%); border:5px solid black"">","","","","","","","",""
"","885.9300000003423","sequential-stimulus-presentation-old","99","469909","0.0-23.0-1.3","SS1619739685705","trial","","40","500","1385.9300000003423","images/stimuli/spore_stims/simple_10_A_b.gif","images/stimuli/spore_stims/simple_04_A_a.gif","forced_short","","7","simple_dissimilar","images/stimuli/spore_stims/simple_04_A_a.gif","","","","",""
"","2839.9150000004447","survey-multi-choice","100","472750","0.0-24.0","SS1619739685705","math_question","","","","","","","","","","","","{""Q0"":""5""}","[0]","5","",""
"","null","html-keyboard-response","101","473750","0.0-25.0-0.0","SS1619739685705","","","null","","","","","","<p><img src= images/blank.png width =""600"" height = ""600"" style=""position:fixed;top:50%; left:50%; transform: translate(-50%, -50%); border:5px solid black"">","","","","","","","",""
"","4494.239999999991","sequential-stimulus-presentation-old","102","478746","0.0-25.0-1.0","SS1619739685705","trial","","40","500","4994.239999999991","images/stimuli/spore_stims/simple_13_A_a.gif","images/stimuli/spore_stims/simple_08_A_b.gif","self_paced","","8","simple_dissimilar","images/stimuli/spore_stims/simple_08_A_b.gif","","","","",""
"","null","html-keyboard-response","103","479580","0.0-25.0-0.1","SS1619739685705","","","null","","","","","","<p><img src= images/blank.png width =""600"" height = ""600"" style=""position:fixed;top:50%; left:50%; transform: translate(-50%, -50%); border:5px solid black"">","","","","","","","",""
"","2971.9499999991967","sequential-stimulus-presentation-old","104","483054","0.0-25.0-1.1","SS1619739685705","trial","","40","500","3471.9499999991967","images/stimuli/spore_stims/simple_13_A_a.gif","images/stimuli/spore_stims/simple_08_A_b.gif","self_paced","","8","simple_dissimilar","images/stimuli/spore_stims/simple_08_A_b.gif","","","","",""
"","null","html-keyboard-response","105","484318","0.0-25.0-0.2","SS1619739685705","","","null","","","","","","<p><img src= images/blank.png width =""600"" height = ""600"" style=""position:fixed;top:50%; left:50%; transform: translate(-50%, -50%); border:5px solid black"">","","","","","","","",""
"","1209.2050000028103","sequential-stimulus-presentation-old","106","486030","0.0-25.0-1.2","SS1619739685705","trial","","40","500","1709.2050000028103","images/stimuli/spore_stims/simple_13_A_a.gif","images/stimuli/spore_stims/simple_08_A_b.gif","self_paced","","8","simple_dissimilar","images/stimuli/spore_stims/simple_08_A_b.gif","","","","",""
"","null","html-keyboard-response","107","486907","0.0-25.0-0.3","SS1619739685705","","","null","","","","","","<p><img src= images/blank.png width =""600"" height = ""600"" style=""position:fixed;top:50%; left:50%; transform: translate(-50%, -50%); border:5px solid black"">","","","","","","","",""
"","613.855000003241","sequential-stimulus-presentation-old","108","488023","0.0-25.0-1.3","SS1619739685705","trial","","40","500","1113.855000003241","images/stimuli/spore_stims/simple_13_A_a.gif","images/stimuli/spore_stims/simple_08_A_b.gif","self_paced","","8","simple_dissimilar","images/stimuli/spore_stims/simple_08_A_b.gif","","","","",""
"","2885.9799999991665","survey-multi-choice","109","490910","0.0-26.0","SS1619739685705","math_question","","","","","","","","","","","","{""Q0"":""10""}","[0]","10","",""
"","null","html-keyboard-response","110","492014","0.0-27.0-0.0","SS1619739685705","","","null","","","","","","<p><img src= images/blank.png width =""600"" height = ""600"" style=""position:fixed;top:50%; left:50%; transform: translate(-50%, -50%); border:5px solid black"">","","","","","","","",""
"","4430.735000001732","sequential-stimulus-presentation-old","111","496947","0.0-27.0-1.0","SS1619739685705","trial","","40","500","4930.735000001732","images/stimuli/spore_stims/complex_10_A_b.gif","images/stimuli/spore_stims/complex_05_A_a.gif","self_paced","","9","complex_dissimilar","images/stimuli/spore_stims/complex_05_A_a.gif","","","","",""
"","null","html-keyboard-response","112","498103","0.0-27.0-0.1","SS1619739685705","","","null","","","","","","<p><img src= images/blank.png width =""600"" height = ""600"" style=""position:fixed;top:50%; left:50%; transform: translate(-50%, -50%); border:5px solid black"">","","","","","","","",""
"","820.674999999057","sequential-stimulus-presentation-old","113","499426","0.0-27.0-1.1","SS1619739685705","trial","","40","500","1320.674999999057","images/stimuli/spore_stims/complex_10_A_b.gif","images/stimuli/spore_stims/complex_05_A_a.gif","self_paced","","9","complex_dissimilar","images/stimuli/spore_stims/complex_05_A_a.gif","","","","",""
"","null","html-keyboard-response","114","500489","0.0-27.0-0.2","SS1619739685705","","","null","","","","","","<p><img src= images/blank.png width =""600"" height = ""600"" style=""position:fixed;top:50%; left:50%; transform: translate(-50%, -50%); border:5px solid black"">","","","","","","","",""
"","663.0499999992317","sequential-stimulus-presentation-old","115","501654","0.0-27.0-1.2","SS1619739685705","trial","","40","500","1163.0499999992317","images/stimuli/spore_stims/complex_10_A_b.gif","images/stimuli/spore_stims/complex_05_A_a.gif","self_paced","","9","complex_dissimilar","images/stimuli/spore_stims/complex_05_A_a.gif","","","","",""
"","null","html-keyboard-response","116","502461","0.0-27.0-0.3","SS1619739685705","","","null","","","","","","<p><img src= images/blank.png width =""600"" height = ""600"" style=""position:fixed;top:50%; left:50%; transform: translate(-50%, -50%); border:5px solid black"">","","","","","","","",""
"","1045.9850000006263","sequential-stimulus-presentation-old","117","504011","0.0-27.0-1.3","SS1619739685705","trial","","40","500","1545.9850000006263","images/stimuli/spore_stims/complex_10_A_b.gif","images/stimuli/spore_stims/complex_05_A_a.gif","self_paced","","9","complex_dissimilar","images/stimuli/spore_stims/complex_05_A_a.gif","","","","",""
"","2984.0750000003027","survey-multi-choice","118","506996","0.0-28.0","SS1619739685705","math_question","","","","","","","","","","","","{""Q0"":""12""}","[0]","12","",""
"","null","html-keyboard-response","119","508230","0.0-29.0-0.0","SS1619739685705","","","null","","","","","","<p><img src= images/blank.png width =""600"" height = ""600"" style=""position:fixed;top:50%; left:50%; transform: translate(-50%, -50%); border:5px solid black"">","","","","","","","",""
"","99.8650000001071","sequential-stimulus-presentation-old","120","523332","0.0-29.0-1.0","SS1619739685705","trial","","40","500","599.8650000001071","images/stimuli/spore_stims/complex_12_A_a.gif","images/stimuli/spore_stims/complex_05_A_b.gif","forced_long","","10","complex_dissimilar","images/stimuli/spore_stims/complex_05_A_b.gif","","","","",""
"","null","html-keyboard-response","121","524171","0.0-29.0-0.1","SS1619739685705","","","null","","","","","","<p><img src= images/blank.png width =""600"" height = ""600"" style=""position:fixed;top:50%; left:50%; transform: translate(-50%, -50%); border:5px solid black"">","","","","","","","",""
"","6224.695000000764","sequential-stimulus-presentation-old","122","530898","0.0-29.0-1.1","SS1619739685705","trial","","40","500","6724.695000000764","images/stimuli/spore_stims/complex_12_A_a.gif","images/stimuli/spore_stims/complex_05_A_b.gif","forced_long","","10","complex_dissimilar","images/stimuli/spore_stims/complex_12_A_a.gif","","","","",""
"","null","html-keyboard-response","123","531905","0.0-29.0-0.2","SS1619739685705","","","null","","","","","","<p><img src= images/blank.png width =""600"" height = ""600"" style=""position:fixed;top:50%; left:50%; transform: translate(-50%, -50%); border:5px solid black"">","","","","","","","",""
"","959.9450000023935","sequential-stimulus-presentation-old","124","533367","0.0-29.0-1.2","SS1619739685705","trial","","40","500","1459.9450000023935","images/stimuli/spore_stims/complex_12_A_a.gif","images/stimuli/spore_stims/complex_05_A_b.gif","forced_long","","10","complex_dissimilar","images/stimuli/spore_stims/complex_12_A_a.gif","","","","",""
"","null","html-keyboard-response","125","534580","0.0-29.0-0.3","SS1619739685705","","","null","","","","","","<p><img src= images/blank.png width =""600"" height = ""600"" style=""position:fixed;top:50%; left:50%; transform: translate(-50%, -50%); border:5px solid black"">","","","","","","","",""
"","486.59499999845866","sequential-stimulus-presentation-old","126","535569","0.0-29.0-1.3","SS1619739685705","trial","","40","500","986.5949999984587","images/stimuli/spore_stims/complex_12_A_a.gif","images/stimuli/spore_stims/complex_05_A_b.gif","forced_long","","10","complex_dissimilar","images/stimuli/spore_stims/complex_05_A_b.gif","","","","",""
"","null","html-keyboard-response","127","536730","0.0-29.0-0.4","SS1619739685705","","","null","","","","","","<p><img src= images/blank.png width =""600"" height = ""600"" style=""position:fixed;top:50%; left:50%; transform: translate(-50%, -50%); border:5px solid black"">","","","","","","","",""
"","399.8549999996321","sequential-stimulus-presentation-old","128","537632","0.0-29.0-1.4","SS1619739685705","trial","","40","500","899.8549999996321","images/stimuli/spore_stims/complex_12_A_a.gif","images/stimuli/spore_stims/complex_05_A_b.gif","forced_long","","10","complex_dissimilar","images/stimuli/spore_stims/complex_05_A_b.gif","","","","",""
"","null","html-keyboard-response","129","538907","0.0-29.0-0.5","SS1619739685705","","","null","","","","","","<p><img src= images/blank.png width =""600"" height = ""600"" style=""position:fixed;top:50%; left:50%; transform: translate(-50%, -50%); border:5px solid black"">","","","","","","","",""
"","494.9899999992922","sequential-stimulus-presentation-old","130","539903","0.0-29.0-1.5","SS1619739685705","trial","","40","500","994.9899999992922","images/stimuli/spore_stims/complex_12_A_a.gif","images/stimuli/spore_stims/complex_05_A_b.gif","forced_long","","10","complex_dissimilar","images/stimuli/spore_stims/complex_05_A_b.gif","","","","",""
"","2749.2199999978766","survey-multi-choice","131","542654","0.0-30.0","SS1619739685705","math_question","","","","","","","","","","","","{""Q0"":""7""}","[0]","7","",""
"","null","html-keyboard-response","132","543931","0.0-31.0-0.0","SS1619739685705","","","null","","","","","","<p><img src= images/blank.png width =""600"" height = ""600"" style=""position:fixed;top:50%; left:50%; transform: translate(-50%, -50%); border:5px solid black"">","","","","","","","",""
"","1434.1550000027055","sequential-stimulus-presentation-old","133","545868","0.0-31.0-1.0","SS1619739685705","trial","","40","500","1934.1550000027055","images/stimuli/spore_stims/simple_03_A_b.gif","images/stimuli/spore_stims/simple_20_A_a.gif","forced_short","","11","simple_dissimilar","images/stimuli/spore_stims/simple_20_A_a.gif","","","","",""
"","null","html-keyboard-response","134","547109","0.0-31.0-0.1","SS1619739685705","","","null","","","","","","<p><img src= images/blank.png width =""600"" height = ""600"" style=""position:fixed;top:50%; left:50%; transform: translate(-50%, -50%); border:5px solid black"">","","","","","","","",""
"","1703.8699999975506","sequential-stimulus-presentation-old","135","549315","0.0-31.0-1.1","SS1619739685705","trial","","40","500","2203.8699999975506","images/stimuli/spore_stims/simple_03_A_b.gif","images/stimuli/spore_stims/simple_20_A_a.gif","forced_short","","11","simple_dissimilar","images/stimuli/spore_stims/simple_20_A_a.gif","","","","",""
"","null","html-keyboard-response","136","550162","0.0-31.0-0.2","SS1619739685705","","","null","","","","","","<p><img src= images/blank.png width =""600"" height = ""600"" style=""position:fixed;top:50%; left:50%; transform: translate(-50%, -50%); border:5px solid black"">","","","","","","","",""
"","2215.7050000022864","sequential-stimulus-presentation-old","137","552880","0.0-31.0-1.2","SS1619739685705","trial","","40","500","2715.7050000022864","images/stimuli/spore_stims/simple_03_A_b.gif","images/stimuli/spore_stims/simple_20_A_a.gif","forced_short","","11","simple_dissimilar","images/stimuli/spore_stims/simple_20_A_a.gif","","","","",""
"","null","html-keyboard-response","138","554124","0.0-31.0-0.3","SS1619739685705","","","null","","","","","","<p><img src= images/blank.png width =""600"" height = ""600"" style=""position:fixed;top:50%; left:50%; transform: translate(-50%, -50%); border:5px solid black"">","","","","","","","",""
"","3051.450000002631","sequential-stimulus-presentation-old","139","557677","0.0-31.0-1.3","SS1619739685705","trial","","40","500","3551.450000002631","images/stimuli/spore_stims/simple_03_A_b.gif","images/stimuli/spore_stims/simple_20_A_a.gif","forced_short","","11","simple_dissimilar","images/stimuli/spore_stims/simple_20_A_a.gif","","","","",""
"[{""page_index"":0,""viewing_time"":8760.080000000075}]","8760.245000001276","instructions","140","566439","0.0-32.0","SS1619739685705","instructions","","","","","","","","","","","","","","","",""
"","14235.294999998529","survey-likert","141","580677","0.0-33.0","SS1619739685705","similarity_question","","","","","","","","","","","","{""Q0"":2}","[0]","","images/stimuli/spore_stims/complex_05_A_b.gif","images/stimuli/spore_stims/complex_12_A_a.gif"
"","10757.49999999965","survey-likert","142","591438","0.0-34.0","SS1619739685705","similarity_question","","","","","","","","","","","","{""Q0"":4}","[0]","","images/stimuli/spore_stims/complex_20_A_b.gif","images/stimuli/spore_stims/complex_08_A_a.gif"
"","7741.269999998622","survey-likert","143","599184","0.0-35.0","SS1619739685705","similarity_question","","","","","","","","","","","","{""Q0"":4}","[0]","","images/stimuli/spore_stims/complex_20_A_a.gif","images/stimuli/spore_stims/complex_07_A_b.gif"
"","12161.159999999683","survey-likert","144","611350","0.0-36.0","SS1619739685705","similarity_question","","","","","","","","","","","","{""Q0"":1}","[0]","","images/stimuli/spore_stims/complex_05_A_a.gif","images/stimuli/spore_stims/complex_10_A_b.gif"
"","8391.084999999264","survey-likert","145","619744","0.0-37.0","SS1619739685705","similarity_question","","","","","","","","","","","","{""Q0"":6}","[0]","","images/stimuli/spore_stims/simple_02_A_b.gif","images/stimuli/spore_stims/simple_08_A_a.gif"
"","5105.094999999041","survey-likert","146","624853","0.0-38.0","SS1619739685705","similarity_question","","","","","","","","","","","","{""Q0"":3}","[0]","","images/stimuli/spore_stims/simple_08_A_b.gif","images/stimuli/spore_stims/simple_13_A_a.gif"
"","6124.195000000298","survey-likert","147","630981","0.0-39.0","SS1619739685705","similarity_question","","","","","","","","","","","","{""Q0"":1}","[0]","","images/stimuli/spore_stims/complex_11_A_b.gif","images/stimuli/spore_stims/complex_15_A_a.gif"
"","5918.480000000214","survey-likert","148","636904","0.0-40.0","SS1619739685705","similarity_question","","","","","","","","","","","","{""Q0"":4}","[0]","","images/stimuli/spore_stims/simple_11_A_a.gif","images/stimuli/spore_stims/simple_01_A_b.gif"
"","5640.494999999646","survey-likert","149","642548","0.0-41.0","SS1619739685705","similarity_question","","","","","","","","","","","","{""Q0"":2}","[0]","","images/stimuli/spore_stims/simple_04_A_a.gif","images/stimuli/spore_stims/simple_10_A_b.gif"
"","4056.114999999525","survey-likert","150","646608","0.0-42.0","SS1619739685705","similarity_question","","","","","","","","","","","","{""Q0"":5}","[0]","","images/stimuli/spore_stims/simple_20_A_a.gif","images/stimuli/spore_stims/simple_03_A_b.gif"
"","2708.8850000000093","survey-likert","151","649321","0.0-43.0","SS1619739685705","similarity_question","","","","","","","","","","","","{""Q0"":0}","[0]","","images/stimuli/spore_stims/complex_03_A_a.gif","images/stimuli/spore_stims/complex_12_A_b.gif"
"","4176.159999998985","survey-likert","152","653501","0.0-44.0","SS1619739685705","similarity_question","","","","","","","","","","","","{""Q0"":4}","[0]","","images/stimuli/spore_stims/simple_11_A_b.gif","images/stimuli/spore_stims/simple_09_A_a.gif"
"[{""page_index"":0,""viewing_time"":5775.1199999983655}]","5775.499999999651","instructions","153","659280","0.0-45.0","SS1619739685705","instructions","","","","","","","","","","","","","","","",""
"","50424.535000001895","survey-likert","154","709707","0.0-46.0","SS1619739685705","","","","","","","","","images/stimuli/spore_stims/complex_08_A_a.gif","","","","{""Q0"":5}","[0]","","",""
"","3861.829999997979","survey-likert","155","713573","0.0-47.0","SS1619739685705","","","","","","","","","images/stimuli/spore_stims/complex_11_A_b.gif","","","","{""Q0"":4}","[0]","","",""
"","2373.200000001816","survey-likert","156","715950","0.0-48.0","SS1619739685705","","","","","","","","","images/stimuli/spore_stims/complex_05_A_a.gif","","","","{""Q0"":4}","[0]","","",""
"","6634.205000002054","survey-likert","157","722589","0.0-49.0","SS1619739685705","","","","","","","","","images/stimuli/spore_stims/simple_11_A_b.gif","","","","{""Q0"":1}","[0]","","",""
"","3647.544999999809","survey-likert","158","726241","0.0-50.0","SS1619739685705","","","","","","","","","images/stimuli/spore_stims/complex_12_A_b.gif","","","","{""Q0"":6}","[0]","","",""
"","2338.9700000006706","survey-likert","159","728584","0.0-51.0","SS1619739685705","","","","","","","","","images/stimuli/spore_stims/simple_01_A_b.gif","","","","{""Q0"":1}","[0]","","",""
"","1793.4500000010012","survey-likert","160","730382","0.0-52.0","SS1619739685705","","","","","","","","","images/stimuli/spore_stims/simple_04_A_a.gif","","","","{""Q0"":1}","[0]","","",""
"","2698.0100000001257","survey-likert","161","733084","0.0-53.0","SS1619739685705","","","","","","","","","images/stimuli/spore_stims/simple_02_A_b.gif","","","","{""Q0"":1}","[0]","","",""
"","4041.7300000007963","survey-likert","162","737130","0.0-54.0","SS1619739685705","","","","","","","","","images/stimuli/spore_stims/simple_13_A_a.gif","","","","{""Q0"":1}","[0]","","",""
"","3278.1150000010384","survey-likert","163","740412","0.0-55.0","SS1619739685705","","","","","","","","","images/stimuli/spore_stims/complex_05_A_b.gif","","","","{""Q0"":4}","[0]","","",""
"","4766.144999997807","survey-likert","164","745182","0.0-56.0","SS1619739685705","","","","","","","","","images/stimuli/spore_stims/complex_20_A_a.gif","","","","{""Q0"":5}","[0]","","",""
"","3127.259999997448","survey-likert","165","748314","0.0-57.0","SS1619739685705","","","","","","","","","images/stimuli/spore_stims/simple_03_A_b.gif","","","","{""Q0"":1}","[0]","","",""
"[{""page_index"":0,""viewing_time"":2793.9000000006054}]","2794.1399999981513","instructions","166","751112","0.0-58.0","SS1619739685705","instructions","","","","","","","","","","","","","","","",""
"","3039.3699999985984","demog-age","167","754154","0.0-59.0","SS1619739685705","","","","","","","","","","","","","{""age"":""21""}","","","",""
"","5016.485000000102","demog-ethnic-US","168","759174","0.0-60.0","SS1619739685705","","","","","","","","","","","","","{""ethnicity"":[""White""]}","[0]","","",""
"","5105.569999999716","demog-gender-and-education","169","764284","0.0-61.0","SS1619739685705","","","","","","","","","","","","","{""gender"":""Male"",""education"":""Bachelor's Degree""}","[0,1]","","",""
"","6588.289999999572","survey-text","170","770877","0.0-62.0","SS1619739685705","feedback","","","","","","","","","","","","{""Q0"":""no""}","","","",""
"[{""page_index"":0,""viewing_time"":3098.949999999604}]","3099.09499999776","instructions","171","773979","0.0-63.0","SS1619739685705","instructions","","","","","","","","","","","","","","","",""
