"view_history","rt","trial_type","trial_index","time_elapsed","internal_node_id","subject","stimulus_type","trial_stimulus","key_press","minimum_viewing_duration","trial_looking_time","block_deviant","block_background","exposure_type","stimulus","block_number","block_type","stimulus_displayed","responses","question_order","math_correct_answer","stimulus_left","stimulus_right"
"[{""page_index"":0,""viewing_time"":27405.715000000782}]","27406.07500000624","instructions","0","27408","0.0-0.0","SS1619739861046","","","","","","","","","","","","","","","","",""
"[{""page_index"":0,""viewing_time"":35604.865000001155},{""page_index"":1,""viewing_time"":153103.82499999832}]","188708.96999997785","instructions","1","218119","0.0-1.0","SS1619739861046","instructions","","","","","","","","","","","","","","","",""
"","4568.5750000411645","sequential-stimulus-presentation-old","2","223190","0.0-2.0","SS1619739861046","","","40","500","5068.5750000411645","null","null","self_paced","","","","","","","","",""
"","4290.830000012647","sequential-stimulus-presentation-old","3","227983","0.0-3.0","SS1619739861046","","","40","500","4790.830000012647","null","null","self_paced","","","","","","","","",""
"[{""page_index"":0,""viewing_time"":10790.995000046678}]","10791.29500000272","instructions","4","238775","0.0-4.0","SS1619739861046","instructions","","","","","","","","","","","","","","","",""
"","348.79499999806285","sequential-stimulus-presentation-old","5","254127","0.0-5.0","SS1619739861046","","","40","500","848.7949999980628","null","null","forced_long","","","","","","","","",""
"","1609.4400000292808","sequential-stimulus-presentation-old","6","256239","0.0-6.0","SS1619739861046","","","40","500","2109.440000029281","null","null","forced_long","","","","","","","","",""
"[{""page_index"":0,""viewing_time"":3910.745000001043}]","3911.0449999570847","instructions","7","260151","0.0-7.0","SS1619739861046","instructions","","","","","","","","","","","","","","","",""
"[{""page_index"":0,""viewing_time"":8350.209999945946},{""page_index"":1,""viewing_time"":6816.095000016503},{""page_index"":2,""viewing_time"":5311.970000038855},{""page_index"":3,""viewing_time"":1223.844999971334},{""page_index"":4,""viewing_time"":1055.9399999910966}]","22758.325000002515","instructions","8","282911","0.0-8.0","SS1619739861046","instructions","","","","","","","","","","","","","","","",""
"","null","html-keyboard-response","9","284132","0.0-9.0-0.0","SS1619739861046","","","null","","","","","","<p><img src= images/blank.png width =""600"" height = ""600"" style=""position:fixed;top:50%; left:50%; transform: translate(-50%, -50%); border:5px solid black"">","","","","","","","",""
"","930.3150000050664","sequential-stimulus-presentation-old","10","285567","0.0-9.0-1.0","SS1619739861046","trial","","40","500","1430.3150000050664","images/stimuli/spore_stims/simple_08_A_a.gif","images/stimuli/spore_stims/simple_04_A_b.gif","forced_short","","0","simple_dissimilar","images/stimuli/spore_stims/simple_04_A_b.gif","","","","",""
"","null","html-keyboard-response","11","286512","0.0-9.0-0.1","SS1619739861046","","","null","","","","","","<p><img src= images/blank.png width =""600"" height = ""600"" style=""position:fixed;top:50%; left:50%; transform: translate(-50%, -50%); border:5px solid black"">","","","","","","","",""
"","3287.255000032019","sequential-stimulus-presentation-old","12","290303","0.0-9.0-1.1","SS1619739861046","trial","","40","500","3787.255000032019","images/stimuli/spore_stims/simple_08_A_a.gif","images/stimuli/spore_stims/simple_04_A_b.gif","forced_short","","0","simple_dissimilar","images/stimuli/spore_stims/simple_08_A_a.gif","","","","",""
"","null","html-keyboard-response","13","291257","0.0-9.0-0.2","SS1619739861046","","","null","","","","","","<p><img src= images/blank.png width =""600"" height = ""600"" style=""position:fixed;top:50%; left:50%; transform: translate(-50%, -50%); border:5px solid black"">","","","","","","","",""
"","238.0600000033155","sequential-stimulus-presentation-old","14","291999","0.0-9.0-1.2","SS1619739861046","trial","","40","500","738.0600000033155","images/stimuli/spore_stims/simple_08_A_a.gif","images/stimuli/spore_stims/simple_04_A_b.gif","forced_short","","0","simple_dissimilar","images/stimuli/spore_stims/simple_08_A_a.gif","","","","",""
"","null","html-keyboard-response","15","292856","0.0-9.0-0.3","SS1619739861046","","","null","","","","","","<p><img src= images/blank.png width =""600"" height = ""600"" style=""position:fixed;top:50%; left:50%; transform: translate(-50%, -50%); border:5px solid black"">","","","","","","","",""
"","5934.324999980163","sequential-stimulus-presentation-old","16","299295","0.0-9.0-1.3","SS1619739861046","trial","","40","500","6434.324999980163","images/stimuli/spore_stims/simple_08_A_a.gif","images/stimuli/spore_stims/simple_04_A_b.gif","forced_short","","0","simple_dissimilar","images/stimuli/spore_stims/simple_04_A_b.gif","","","","",""
"","null","html-keyboard-response","17","300368","0.0-9.0-0.4","SS1619739861046","","","null","","","","","","<p><img src= images/blank.png width =""600"" height = ""600"" style=""position:fixed;top:50%; left:50%; transform: translate(-50%, -50%); border:5px solid black"">","","","","","","","",""
"","455.2350000012666","sequential-stimulus-presentation-old","18","301327","0.0-9.0-1.4","SS1619739861046","trial","","40","500","955.2350000012666","images/stimuli/spore_stims/simple_08_A_a.gif","images/stimuli/spore_stims/simple_04_A_b.gif","forced_short","","0","simple_dissimilar","images/stimuli/spore_stims/simple_04_A_b.gif","","","","",""
"","5718.134999973699","survey-multi-choice","19","307048","0.0-10.0","SS1619739861046","math_question","","","","","","","","","","","","{""Q0"":""12""}","[0]","12","",""
"","null","html-keyboard-response","20","308060","0.0-11.0-0.0","SS1619739861046","","","null","","","","","","<p><img src= images/blank.png width =""600"" height = ""600"" style=""position:fixed;top:50%; left:50%; transform: translate(-50%, -50%); border:5px solid black"">","","","","","","","",""
"","58.1499999971129","sequential-stimulus-presentation-old","21","308622","0.0-11.0-1.0","SS1619739861046","trial","","40","500","558.1499999971129","images/stimuli/spore_stims/simple_11_A_a.gif","images/stimuli/spore_stims/simple_17_A_b.gif","self_paced","","1","simple_dissimilar","images/stimuli/spore_stims/simple_17_A_b.gif","","","","",""
"","null","html-keyboard-response","22","309614","0.0-11.0-0.1","SS1619739861046","","","null","","","","","","<p><img src= images/blank.png width =""600"" height = ""600"" style=""position:fixed;top:50%; left:50%; transform: translate(-50%, -50%); border:5px solid black"">","","","","","","","",""
"","1192.3449999885634","sequential-stimulus-presentation-old","23","311311","0.0-11.0-1.1","SS1619739861046","trial","","40","500","1692.3449999885634","images/stimuli/spore_stims/simple_11_A_a.gif","images/stimuli/spore_stims/simple_17_A_b.gif","self_paced","","1","simple_dissimilar","images/stimuli/spore_stims/simple_17_A_b.gif","","","","",""
"","null","html-keyboard-response","24","312419","0.0-11.0-0.2","SS1619739861046","","","null","","","","","","<p><img src= images/blank.png width =""600"" height = ""600"" style=""position:fixed;top:50%; left:50%; transform: translate(-50%, -50%); border:5px solid black"">","","","","","","","",""
"","275.1200000056997","sequential-stimulus-presentation-old","25","313199","0.0-11.0-1.2","SS1619739861046","trial","","40","500","775.1200000056997","images/stimuli/spore_stims/simple_11_A_a.gif","images/stimuli/spore_stims/simple_17_A_b.gif","self_paced","","1","simple_dissimilar","images/stimuli/spore_stims/simple_17_A_b.gif","","","","",""
"","null","html-keyboard-response","26","314044","0.0-11.0-0.3","SS1619739861046","","","null","","","","","","<p><img src= images/blank.png width =""600"" height = ""600"" style=""position:fixed;top:50%; left:50%; transform: translate(-50%, -50%); border:5px solid black"">","","","","","","","",""
"","9115.25500001153","sequential-stimulus-presentation-old","27","323664","0.0-11.0-1.3","SS1619739861046","trial","","40","500","9615.25500001153","images/stimuli/spore_stims/simple_11_A_a.gif","images/stimuli/spore_stims/simple_17_A_b.gif","self_paced","","1","simple_dissimilar","images/stimuli/spore_stims/simple_17_A_b.gif","","","","",""
"","null","html-keyboard-response","28","324548","0.0-11.0-0.4","SS1619739861046","","","null","","","","","","<p><img src= images/blank.png width =""600"" height = ""600"" style=""position:fixed;top:50%; left:50%; transform: translate(-50%, -50%); border:5px solid black"">","","","","","","","",""
"","291.2600000272505","sequential-stimulus-presentation-old","29","325343","0.0-11.0-1.4","SS1619739861046","trial","","40","500","791.2600000272505","images/stimuli/spore_stims/simple_11_A_a.gif","images/stimuli/spore_stims/simple_17_A_b.gif","self_paced","","1","simple_dissimilar","images/stimuli/spore_stims/simple_17_A_b.gif","","","","",""
"","2446.7249999870546","survey-multi-choice","30","327791","0.0-12.0","SS1619739861046","math_question","","","","","","","","","","","","{""Q0"":""6""}","[0]","6","",""
"","null","html-keyboard-response","31","328942","0.0-13.0-0.0","SS1619739861046","","","null","","","","","","<p><img src= images/blank.png width =""600"" height = ""600"" style=""position:fixed;top:50%; left:50%; transform: translate(-50%, -50%); border:5px solid black"">","","","","","","","",""
"","4434.315000020433","sequential-stimulus-presentation-old","32","349375","0.0-13.0-1.0","SS1619739861046","trial","","40","500","4934.315000020433","images/stimuli/spore_stims/simple_06_A_b.gif","images/stimuli/spore_stims/simple_09_A_a.gif","forced_long","","2","simple_dissimilar","images/stimuli/spore_stims/simple_09_A_a.gif","","","","",""
"","null","html-keyboard-response","33","350460","0.0-13.0-0.1","SS1619739861046","","","null","","","","","","<p><img src= images/blank.png width =""600"" height = ""600"" style=""position:fixed;top:50%; left:50%; transform: translate(-50%, -50%); border:5px solid black"">","","","","","","","",""
"","25.335000013001263","sequential-stimulus-presentation-old","34","350991","0.0-13.0-1.1","SS1619739861046","trial","","40","500","525.3350000130013","images/stimuli/spore_stims/simple_06_A_b.gif","images/stimuli/spore_stims/simple_09_A_a.gif","forced_long","","2","simple_dissimilar","images/stimuli/spore_stims/simple_09_A_a.gif","","","","",""
"","null","html-keyboard-response","35","352046","0.0-13.0-0.2","SS1619739861046","","","null","","","","","","<p><img src= images/blank.png width =""600"" height = ""600"" style=""position:fixed;top:50%; left:50%; transform: translate(-50%, -50%); border:5px solid black"">","","","","","","","",""
"","298.4849999775179","sequential-stimulus-presentation-old","36","352847","0.0-13.0-1.2","SS1619739861046","trial","","40","500","798.4849999775179","images/stimuli/spore_stims/simple_06_A_b.gif","images/stimuli/spore_stims/simple_09_A_a.gif","forced_long","","2","simple_dissimilar","images/stimuli/spore_stims/simple_09_A_a.gif","","","","",""
"","null","html-keyboard-response","37","353659","0.0-13.0-0.3","SS1619739861046","","","null","","","","","","<p><img src= images/blank.png width =""600"" height = ""600"" style=""position:fixed;top:50%; left:50%; transform: translate(-50%, -50%); border:5px solid black"">","","","","","","","",""
"","155.5250000092201","sequential-stimulus-presentation-old","38","354319","0.0-13.0-1.3","SS1619739861046","trial","","40","500","655.5250000092201","images/stimuli/spore_stims/simple_06_A_b.gif","images/stimuli/spore_stims/simple_09_A_a.gif","forced_long","","2","simple_dissimilar","images/stimuli/spore_stims/simple_06_A_b.gif","","","","",""
"","null","html-keyboard-response","39","355159","0.0-13.0-0.4","SS1619739861046","","","null","","","","","","<p><img src= images/blank.png width =""600"" height = ""600"" style=""position:fixed;top:50%; left:50%; transform: translate(-50%, -50%); border:5px solid black"">","","","","","","","",""
"","289.47999997762963","sequential-stimulus-presentation-old","40","355951","0.0-13.0-1.4","SS1619739861046","trial","","40","500","789.4799999776296","images/stimuli/spore_stims/simple_06_A_b.gif","images/stimuli/spore_stims/simple_09_A_a.gif","forced_long","","2","simple_dissimilar","images/stimuli/spore_stims/simple_09_A_a.gif","","","","",""
"","null","html-keyboard-response","41","357037","0.0-13.0-0.5","SS1619739861046","","","null","","","","","","<p><img src= images/blank.png width =""600"" height = ""600"" style=""position:fixed;top:50%; left:50%; transform: translate(-50%, -50%); border:5px solid black"">","","","","","","","",""
"","42.290000012144446","sequential-stimulus-presentation-old","42","357583","0.0-13.0-1.5","SS1619739861046","trial","","40","500","542.2900000121444","images/stimuli/spore_stims/simple_06_A_b.gif","images/stimuli/spore_stims/simple_09_A_a.gif","forced_long","","2","simple_dissimilar","images/stimuli/spore_stims/simple_06_A_b.gif","","","","",""
"","2942.6000000094064","survey-multi-choice","43","360528","0.0-14.0","SS1619739861046","math_question","","","","","","","","","","","","{""Q0"":""4""}","[0]","4","",""
"","null","html-keyboard-response","44","361653","0.0-15.0-0.0","SS1619739861046","","","null","","","","","","<p><img src= images/blank.png width =""600"" height = ""600"" style=""position:fixed;top:50%; left:50%; transform: translate(-50%, -50%); border:5px solid black"">","","","","","","","",""
"","96.18499997304752","sequential-stimulus-presentation-old","45","362255","0.0-15.0-1.0","SS1619739861046","trial","","40","500","596.1849999730475","images/stimuli/spore_stims/simple_03_A_b.gif","images/stimuli/spore_stims/simple_17_A_a.gif","forced_short","","3","simple_dissimilar","images/stimuli/spore_stims/simple_17_A_a.gif","","","","",""
"","null","html-keyboard-response","46","363339","0.0-15.0-0.1","SS1619739861046","","","null","","","","","","<p><img src= images/blank.png width =""600"" height = ""600"" style=""position:fixed;top:50%; left:50%; transform: translate(-50%, -50%); border:5px solid black"">","","","","","","","",""
"","1371.3800000259653","sequential-stimulus-presentation-old","47","365215","0.0-15.0-1.1","SS1619739861046","trial","","40","500","1871.3800000259653","images/stimuli/spore_stims/simple_03_A_b.gif","images/stimuli/spore_stims/simple_17_A_a.gif","forced_short","","3","simple_dissimilar","images/stimuli/spore_stims/simple_17_A_a.gif","","","","",""
"","null","html-keyboard-response","48","366098","0.0-15.0-0.2","SS1619739861046","","","null","","","","","","<p><img src= images/blank.png width =""600"" height = ""600"" style=""position:fixed;top:50%; left:50%; transform: translate(-50%, -50%); border:5px solid black"">","","","","","","","",""
"","1364.2850000178441","sequential-stimulus-presentation-old","49","367967","0.0-15.0-1.2","SS1619739861046","trial","","40","500","1864.2850000178441","images/stimuli/spore_stims/simple_03_A_b.gif","images/stimuli/spore_stims/simple_17_A_a.gif","forced_short","","3","simple_dissimilar","images/stimuli/spore_stims/simple_17_A_a.gif","","","","",""
"","null","html-keyboard-response","50","369211","0.0-15.0-0.3","SS1619739861046","","","null","","","","","","<p><img src= images/blank.png width =""600"" height = ""600"" style=""position:fixed;top:50%; left:50%; transform: translate(-50%, -50%); border:5px solid black"">","","","","","","","",""
"","346.34500002721325","sequential-stimulus-presentation-old","51","370063","0.0-15.0-1.3","SS1619739861046","trial","","40","500","846.3450000272132","images/stimuli/spore_stims/simple_03_A_b.gif","images/stimuli/spore_stims/simple_17_A_a.gif","forced_short","","3","simple_dissimilar","images/stimuli/spore_stims/simple_17_A_a.gif","","","","",""
"","null","html-keyboard-response","52","371196","0.0-15.0-0.4","SS1619739861046","","","null","","","","","","<p><img src= images/blank.png width =""600"" height = ""600"" style=""position:fixed;top:50%; left:50%; transform: translate(-50%, -50%); border:5px solid black"">","","","","","","","",""
"","714.6200000424869","sequential-stimulus-presentation-old","53","372415","0.0-15.0-1.4","SS1619739861046","trial","","40","500","1214.620000042487","images/stimuli/spore_stims/simple_03_A_b.gif","images/stimuli/spore_stims/simple_17_A_a.gif","forced_short","","3","simple_dissimilar","images/stimuli/spore_stims/simple_03_A_b.gif","","","","",""
"","1998.6400000052527","survey-multi-choice","54","374415","0.0-16.0","SS1619739861046","math_question","","","","","","","","","","","","{""Q0"":""5""}","[0]","5","",""
"","null","html-keyboard-response","55","375422","0.0-17.0-0.0","SS1619739861046","","","null","","","","","","<p><img src= images/blank.png width =""600"" height = ""600"" style=""position:fixed;top:50%; left:50%; transform: translate(-50%, -50%); border:5px solid black"">","","","","","","","",""
"","14489.535000000615","sequential-stimulus-presentation-old","56","390415","0.0-17.0-1.0","SS1619739861046","trial","","40","500","14989.535000000615","images/stimuli/spore_stims/complex_08_A_b.gif","images/stimuli/spore_stims/complex_04_A_a.gif","self_paced","","4","complex_dissimilar","images/stimuli/spore_stims/complex_04_A_a.gif","","","","",""
"","null","html-keyboard-response","57","391477","0.0-17.0-0.1","SS1619739861046","","","null","","","","","","<p><img src= images/blank.png width =""600"" height = ""600"" style=""position:fixed;top:50%; left:50%; transform: translate(-50%, -50%); border:5px solid black"">","","","","","","","",""
"","785.2000000420958","sequential-stimulus-presentation-old","58","392767","0.0-17.0-1.1","SS1619739861046","trial","","40","500","1285.2000000420958","images/stimuli/spore_stims/complex_08_A_b.gif","images/stimuli/spore_stims/complex_04_A_a.gif","self_paced","","4","complex_dissimilar","images/stimuli/spore_stims/complex_04_A_a.gif","","","","",""
"","null","html-keyboard-response","59","394001","0.0-17.0-0.2","SS1619739861046","","","null","","","","","","<p><img src= images/blank.png width =""600"" height = ""600"" style=""position:fixed;top:50%; left:50%; transform: translate(-50%, -50%); border:5px solid black"">","","","","","","","",""
"","342.1199999866076","sequential-stimulus-presentation-old","60","394847","0.0-17.0-1.2","SS1619739861046","trial","","40","500","842.1199999866076","images/stimuli/spore_stims/complex_08_A_b.gif","images/stimuli/spore_stims/complex_04_A_a.gif","self_paced","","4","complex_dissimilar","images/stimuli/spore_stims/complex_08_A_b.gif","","","","",""
"","null","html-keyboard-response","61","395800","0.0-17.0-0.3","SS1619739861046","","","null","","","","","","<p><img src= images/blank.png width =""600"" height = ""600"" style=""position:fixed;top:50%; left:50%; transform: translate(-50%, -50%); border:5px solid black"">","","","","","","","",""
"","125.31999999191612","sequential-stimulus-presentation-old","62","396431","0.0-17.0-1.3","SS1619739861046","trial","","40","500","625.3199999919161","images/stimuli/spore_stims/complex_08_A_b.gif","images/stimuli/spore_stims/complex_04_A_a.gif","self_paced","","4","complex_dissimilar","images/stimuli/spore_stims/complex_04_A_a.gif","","","","",""
"","null","html-keyboard-response","63","397249","0.0-17.0-0.4","SS1619739861046","","","null","","","","","","<p><img src= images/blank.png width =""600"" height = ""600"" style=""position:fixed;top:50%; left:50%; transform: translate(-50%, -50%); border:5px solid black"">","","","","","","","",""
"","2758.300000044983","sequential-stimulus-presentation-old","64","400511","0.0-17.0-1.4","SS1619739861046","trial","","40","500","3258.300000044983","images/stimuli/spore_stims/complex_08_A_b.gif","images/stimuli/spore_stims/complex_04_A_a.gif","self_paced","","4","complex_dissimilar","images/stimuli/spore_stims/complex_04_A_a.gif","","","","",""
"","null","html-keyboard-response","65","401705","0.0-17.0-0.5","SS1619739861046","","","null","","","","","","<p><img src= images/blank.png width =""600"" height = ""600"" style=""position:fixed;top:50%; left:50%; transform: translate(-50%, -50%); border:5px solid black"">","","","","","","","",""
"","764.9150000070222","sequential-stimulus-presentation-old","66","402975","0.0-17.0-1.5","SS1619739861046","trial","","40","500","1264.9150000070222","images/stimuli/spore_stims/complex_08_A_b.gif","images/stimuli/spore_stims/complex_04_A_a.gif","self_paced","","4","complex_dissimilar","images/stimuli/spore_stims/complex_04_A_a.gif","","","","",""
"","2470.5100000137463","survey-multi-choice","67","405447","0.0-18.0","SS1619739861046","math_question","","","","","","","","","","","","{""Q0"":""5""}","[0]","5","",""
"","null","html-keyboard-response","68","406644","0.0-19.0-0.0","SS1619739861046","","","null","","","","","","<p><img src= images/blank.png width =""600"" height = ""600"" style=""position:fixed;top:50%; left:50%; transform: translate(-50%, -50%); border:5px solid black"">","","","","","","","",""
"","2538.234999985434","sequential-stimulus-presentation-old","69","409695","0.0-19.0-1.0","SS1619739861046","trial","","40","500","3038.234999985434","images/stimuli/spore_stims/complex_15_A_a.gif","images/stimuli/spore_stims/complex_12_A_b.gif","self_paced","","5","complex_dissimilar","images/stimuli/spore_stims/complex_12_A_b.gif","","","","",""
"","null","html-keyboard-response","70","410593","0.0-19.0-0.1","SS1619739861046","","","null","","","","","","<p><img src= images/blank.png width =""600"" height = ""600"" style=""position:fixed;top:50%; left:50%; transform: translate(-50%, -50%); border:5px solid black"">","","","","","","","",""
"","1699.4100000010803","sequential-stimulus-presentation-old","71","412799","0.0-19.0-1.1","SS1619739861046","trial","","40","500","2199.4100000010803","images/stimuli/spore_stims/complex_15_A_a.gif","images/stimuli/spore_stims/complex_12_A_b.gif","self_paced","","5","complex_dissimilar","images/stimuli/spore_stims/complex_12_A_b.gif","","","","",""
"","null","html-keyboard-response","72","413859","0.0-19.0-0.2","SS1619739861046","","","null","","","","","","<p><img src= images/blank.png width =""600"" height = ""600"" style=""position:fixed;top:50%; left:50%; transform: translate(-50%, -50%); border:5px solid black"">","","","","","","","",""
"","2994.224999973085","sequential-stimulus-presentation-old","73","417359","0.0-19.0-1.2","SS1619739861046","trial","","40","500","3494.224999973085","images/stimuli/spore_stims/complex_15_A_a.gif","images/stimuli/spore_stims/complex_12_A_b.gif","self_paced","","5","complex_dissimilar","images/stimuli/spore_stims/complex_12_A_b.gif","","","","",""
"","null","html-keyboard-response","74","418619","0.0-19.0-0.3","SS1619739861046","","","null","","","","","","<p><img src= images/blank.png width =""600"" height = ""600"" style=""position:fixed;top:50%; left:50%; transform: translate(-50%, -50%); border:5px solid black"">","","","","","","","",""
"","330.92000003671274","sequential-stimulus-presentation-old","75","419455","0.0-19.0-1.3","SS1619739861046","trial","","40","500","830.9200000367127","images/stimuli/spore_stims/complex_15_A_a.gif","images/stimuli/spore_stims/complex_12_A_b.gif","self_paced","","5","complex_dissimilar","images/stimuli/spore_stims/complex_12_A_b.gif","","","","",""
"","3710.3449999704026","survey-multi-choice","76","423167","0.0-20.0","SS1619739861046","math_question","","","","","","","","","","","","{""Q0"":""17""}","[0]","17","",""
"","null","html-keyboard-response","77","424339","0.0-21.0-0.0","SS1619739861046","","","null","","","","","","<p><img src= images/blank.png width =""600"" height = ""600"" style=""position:fixed;top:50%; left:50%; transform: translate(-50%, -50%); border:5px solid black"">","","","","","","","",""
"","4372.280000010505","sequential-stimulus-presentation-old","78","429215","0.0-21.0-1.0","SS1619739861046","trial","","40","500","4872.280000010505","images/stimuli/spore_stims/simple_10_A_a.gif","images/stimuli/spore_stims/simple_18_A_b.gif","self_paced","","6","simple_dissimilar","images/stimuli/spore_stims/simple_18_A_b.gif","","","","",""
"","null","html-keyboard-response","79","430144","0.0-21.0-0.1","SS1619739861046","","","null","","","","","","<p><img src= images/blank.png width =""600"" height = ""600"" style=""position:fixed;top:50%; left:50%; transform: translate(-50%, -50%); border:5px solid black"">","","","","","","","",""
"","100.07000004407018","sequential-stimulus-presentation-old","80","430751","0.0-21.0-1.1","SS1619739861046","trial","","40","500","600.0700000440702","images/stimuli/spore_stims/simple_10_A_a.gif","images/stimuli/spore_stims/simple_18_A_b.gif","self_paced","","6","simple_dissimilar","images/stimuli/spore_stims/simple_18_A_b.gif","","","","",""
"","null","html-keyboard-response","81","431972","0.0-21.0-0.2","SS1619739861046","","","null","","","","","","<p><img src= images/blank.png width =""600"" height = ""600"" style=""position:fixed;top:50%; left:50%; transform: translate(-50%, -50%); border:5px solid black"">","","","","","","","",""
"","1.4100000262260437","sequential-stimulus-presentation-old","82","432478","0.0-21.0-1.2","SS1619739861046","trial","","40","500","501.41000002622604","images/stimuli/spore_stims/simple_10_A_a.gif","images/stimuli/spore_stims/simple_18_A_b.gif","self_paced","","6","simple_dissimilar","images/stimuli/spore_stims/simple_18_A_b.gif","","","","",""
"","null","html-keyboard-response","83","433414","0.0-21.0-0.3","SS1619739861046","","","null","","","","","","<p><img src= images/blank.png width =""600"" height = ""600"" style=""position:fixed;top:50%; left:50%; transform: translate(-50%, -50%); border:5px solid black"">","","","","","","","",""
"","912.7050000242889","sequential-stimulus-presentation-old","84","434831","0.0-21.0-1.3","SS1619739861046","trial","","40","500","1412.705000024289","images/stimuli/spore_stims/simple_10_A_a.gif","images/stimuli/spore_stims/simple_18_A_b.gif","self_paced","","6","simple_dissimilar","images/stimuli/spore_stims/simple_10_A_a.gif","","","","",""
"","null","html-keyboard-response","85","435969","0.0-21.0-0.4","SS1619739861046","","","null","","","","","","<p><img src= images/blank.png width =""600"" height = ""600"" style=""position:fixed;top:50%; left:50%; transform: translate(-50%, -50%); border:5px solid black"">","","","","","","","",""
"","164.98499998124316","sequential-stimulus-presentation-old","86","436638","0.0-21.0-1.4","SS1619739861046","trial","","40","500","664.9849999812432","images/stimuli/spore_stims/simple_10_A_a.gif","images/stimuli/spore_stims/simple_18_A_b.gif","self_paced","","6","simple_dissimilar","images/stimuli/spore_stims/simple_10_A_a.gif","","","","",""
"","2558.4750000271015","survey-multi-choice","87","439199","0.0-22.0","SS1619739861046","math_question","","","","","","","","","","","","{""Q0"":""15""}","[0]","15","",""
"","null","html-keyboard-response","88","440160","0.0-23.0-0.0","SS1619739861046","","","null","","","","","","<p><img src= images/blank.png width =""600"" height = ""600"" style=""position:fixed;top:50%; left:50%; transform: translate(-50%, -50%); border:5px solid black"">","","","","","","","",""
"","498.50500002503395","sequential-stimulus-presentation-old","89","455663","0.0-23.0-1.0","SS1619739861046","trial","","40","500","998.505000025034","images/stimuli/spore_stims/complex_09_A_a.gif","images/stimuli/spore_stims/complex_01_A_b.gif","forced_long","","7","complex_dissimilar","images/stimuli/spore_stims/complex_01_A_b.gif","","","","",""
"","null","html-keyboard-response","90","456760","0.0-23.0-0.1","SS1619739861046","","","null","","","","","","<p><img src= images/blank.png width =""600"" height = ""600"" style=""position:fixed;top:50%; left:50%; transform: translate(-50%, -50%); border:5px solid black"">","","","","","","","",""
"","93.83500000694767","sequential-stimulus-presentation-old","91","457359","0.0-23.0-1.1","SS1619739861046","trial","","40","500","593.8350000069477","images/stimuli/spore_stims/complex_09_A_a.gif","images/stimuli/spore_stims/complex_01_A_b.gif","forced_long","","7","complex_dissimilar","images/stimuli/spore_stims/complex_01_A_b.gif","","","","",""
"","null","html-keyboard-response","92","458187","0.0-23.0-0.2","SS1619739861046","","","null","","","","","","<p><img src= images/blank.png width =""600"" height = ""600"" style=""position:fixed;top:50%; left:50%; transform: translate(-50%, -50%); border:5px solid black"">","","","","","","","",""
"","347.124999971129","sequential-stimulus-presentation-old","93","459039","0.0-23.0-1.2","SS1619739861046","trial","","40","500","847.124999971129","images/stimuli/spore_stims/complex_09_A_a.gif","images/stimuli/spore_stims/complex_01_A_b.gif","forced_long","","7","complex_dissimilar","images/stimuli/spore_stims/complex_01_A_b.gif","","","","",""
"","null","html-keyboard-response","94","460247","0.0-23.0-0.3","SS1619739861046","","","null","","","","","","<p><img src= images/blank.png width =""600"" height = ""600"" style=""position:fixed;top:50%; left:50%; transform: translate(-50%, -50%); border:5px solid black"">","","","","","","","",""
"","2190.5250000418164","sequential-stimulus-presentation-old","95","462943","0.0-23.0-1.3","SS1619739861046","trial","","40","500","2690.5250000418164","images/stimuli/spore_stims/complex_09_A_a.gif","images/stimuli/spore_stims/complex_01_A_b.gif","forced_long","","7","complex_dissimilar","images/stimuli/spore_stims/complex_01_A_b.gif","","","","",""
"","null","html-keyboard-response","96","463863","0.0-23.0-0.4","SS1619739861046","","","null","","","","","","<p><img src= images/blank.png width =""600"" height = ""600"" style=""position:fixed;top:50%; left:50%; transform: translate(-50%, -50%); border:5px solid black"">","","","","","","","",""
"","21022.375000000466","sequential-stimulus-presentation-old","97","485390","0.0-23.0-1.4","SS1619739861046","trial","","40","500","21522.375000000466","images/stimuli/spore_stims/complex_09_A_a.gif","images/stimuli/spore_stims/complex_01_A_b.gif","forced_long","","7","complex_dissimilar","images/stimuli/spore_stims/complex_09_A_a.gif","","","","",""
"","2038.3949999813922","survey-multi-choice","98","487431","0.0-24.0","SS1619739861046","math_question","","","","","","","","","","","","{""Q0"":""10""}","[0]","10","",""
"","null","html-keyboard-response","99","488702","0.0-25.0-0.0","SS1619739861046","","","null","","","","","","<p><img src= images/blank.png width =""600"" height = ""600"" style=""position:fixed;top:50%; left:50%; transform: translate(-50%, -50%); border:5px solid black"">","","","","","","","",""
"","5577.155000006314","sequential-stimulus-presentation-old","100","509518","0.0-25.0-1.0","SS1619739861046","trial","","40","500","6077.155000006314","images/stimuli/spore_stims/complex_08_A_a.gif","images/stimuli/spore_stims/complex_16_A_b.gif","forced_long","","8","complex_dissimilar","images/stimuli/spore_stims/complex_16_A_b.gif","","","","",""
"","null","html-keyboard-response","101","510478","0.0-25.0-0.1","SS1619739861046","","","null","","","","","","<p><img src= images/blank.png width =""600"" height = ""600"" style=""position:fixed;top:50%; left:50%; transform: translate(-50%, -50%); border:5px solid black"">","","","","","","","",""
"","150.9000000078231","sequential-stimulus-presentation-old","102","511134","0.0-25.0-1.1","SS1619739861046","trial","","40","500","650.9000000078231","images/stimuli/spore_stims/complex_08_A_a.gif","images/stimuli/spore_stims/complex_16_A_b.gif","forced_long","","8","complex_dissimilar","images/stimuli/spore_stims/complex_08_A_a.gif","","","","",""
"","null","html-keyboard-response","103","511973","0.0-25.0-0.2","SS1619739861046","","","null","","","","","","<p><img src= images/blank.png width =""600"" height = ""600"" style=""position:fixed;top:50%; left:50%; transform: translate(-50%, -50%); border:5px solid black"">","","","","","","","",""
"","17.330000002402812","sequential-stimulus-presentation-old","104","512495","0.0-25.0-1.2","SS1619739861046","trial","","40","500","517.3300000024028","images/stimuli/spore_stims/complex_08_A_a.gif","images/stimuli/spore_stims/complex_16_A_b.gif","forced_long","","8","complex_dissimilar","images/stimuli/spore_stims/complex_16_A_b.gif","","","","",""
"","null","html-keyboard-response","105","513580","0.0-25.0-0.3","SS1619739861046","","","null","","","","","","<p><img src= images/blank.png width =""600"" height = ""600"" style=""position:fixed;top:50%; left:50%; transform: translate(-50%, -50%); border:5px solid black"">","","","","","","","",""
"","104.63000001618639","sequential-stimulus-presentation-old","106","514190","0.0-25.0-1.3","SS1619739861046","trial","","40","500","604.6300000161864","images/stimuli/spore_stims/complex_08_A_a.gif","images/stimuli/spore_stims/complex_16_A_b.gif","forced_long","","8","complex_dissimilar","images/stimuli/spore_stims/complex_08_A_a.gif","","","","",""
"","2126.415000006091","survey-multi-choice","107","516319","0.0-26.0","SS1619739861046","math_question","","","","","","","","","","","","{""Q0"":""10""}","[0]","10","",""
"","null","html-keyboard-response","108","517138","0.0-27.0-0.0","SS1619739861046","","","null","","","","","","<p><img src= images/blank.png width =""600"" height = ""600"" style=""position:fixed;top:50%; left:50%; transform: translate(-50%, -50%); border:5px solid black"">","","","","","","","",""
"","10690.340000030119","sequential-stimulus-presentation-old","109","528335","0.0-27.0-1.0","SS1619739861046","trial","","40","500","11190.340000030119","images/stimuli/spore_stims/complex_02_A_b.gif","images/stimuli/spore_stims/complex_06_A_a.gif","forced_short","","9","complex_dissimilar","images/stimuli/spore_stims/complex_06_A_a.gif","","","","",""
"","null","html-keyboard-response","110","529249","0.0-27.0-0.1","SS1619739861046","","","null","","","","","","<p><img src= images/blank.png width =""600"" height = ""600"" style=""position:fixed;top:50%; left:50%; transform: translate(-50%, -50%); border:5px solid black"">","","","","","","","",""
"","37.08999999798834","sequential-stimulus-presentation-old","111","529791","0.0-27.0-1.1","SS1619739861046","trial","","40","500","537.0899999979883","images/stimuli/spore_stims/complex_02_A_b.gif","images/stimuli/spore_stims/complex_06_A_a.gif","forced_short","","9","complex_dissimilar","images/stimuli/spore_stims/complex_06_A_a.gif","","","","",""
"","null","html-keyboard-response","112","530815","0.0-27.0-0.2","SS1619739861046","","","null","","","","","","<p><img src= images/blank.png width =""600"" height = ""600"" style=""position:fixed;top:50%; left:50%; transform: translate(-50%, -50%); border:5px solid black"">","","","","","","","",""
"","39.31000002194196","sequential-stimulus-presentation-old","113","531359","0.0-27.0-1.2","SS1619739861046","trial","","40","500","539.310000021942","images/stimuli/spore_stims/complex_02_A_b.gif","images/stimuli/spore_stims/complex_06_A_a.gif","forced_short","","9","complex_dissimilar","images/stimuli/spore_stims/complex_06_A_a.gif","","","","",""
"","null","html-keyboard-response","114","532608","0.0-27.0-0.3","SS1619739861046","","","null","","","","","","<p><img src= images/blank.png width =""600"" height = ""600"" style=""position:fixed;top:50%; left:50%; transform: translate(-50%, -50%); border:5px solid black"">","","","","","","","",""
"","5971.959999995306","sequential-stimulus-presentation-old","115","539919","0.0-27.0-1.3","SS1619739861046","trial","","40","500","6471.959999995306","images/stimuli/spore_stims/complex_02_A_b.gif","images/stimuli/spore_stims/complex_06_A_a.gif","forced_short","","9","complex_dissimilar","images/stimuli/spore_stims/complex_06_A_a.gif","","","","",""
"","2004.4699999853037","survey-multi-choice","116","541927","0.0-28.0","SS1619739861046","math_question","","","","","","","","","","","","{""Q0"":""9""}","[0]","9","",""
"","null","html-keyboard-response","117","543989","0.0-29.0-0.0","SS1619739861046","","","null","","","","","","<p><img src= images/blank.png width =""600"" height = ""600"" style=""position:fixed;top:50%; left:50%; transform: translate(-50%, -50%); border:5px solid black"">","","","","","","","",""
"","14465.265000006184","sequential-stimulus-presentation-old","118","559615","0.0-29.0-1.0","SS1619739861046","trial","","40","500","14965.265000006184","images/stimuli/spore_stims/complex_15_A_b.gif","images/stimuli/spore_stims/complex_02_A_a.gif","forced_short","","10","complex_dissimilar","images/stimuli/spore_stims/complex_02_A_a.gif","","","","",""
"","null","html-keyboard-response","119","560809","0.0-29.0-0.1","SS1619739861046","","","null","","","","","","<p><img src= images/blank.png width =""600"" height = ""600"" style=""position:fixed;top:50%; left:50%; transform: translate(-50%, -50%); border:5px solid black"">","","","","","","","",""
"","142.37499999580905","sequential-stimulus-presentation-old","120","561455","0.0-29.0-1.1","SS1619739861046","trial","","40","500","642.374999995809","images/stimuli/spore_stims/complex_15_A_b.gif","images/stimuli/spore_stims/complex_02_A_a.gif","forced_short","","10","complex_dissimilar","images/stimuli/spore_stims/complex_02_A_a.gif","","","","",""
"","null","html-keyboard-response","121","562622","0.0-29.0-0.2","SS1619739861046","","","null","","","","","","<p><img src= images/blank.png width =""600"" height = ""600"" style=""position:fixed;top:50%; left:50%; transform: translate(-50%, -50%); border:5px solid black"">","","","","","","","",""
"","103.92999998293817","sequential-stimulus-presentation-old","122","563231","0.0-29.0-1.2","SS1619739861046","trial","","40","500","603.9299999829382","images/stimuli/spore_stims/complex_15_A_b.gif","images/stimuli/spore_stims/complex_02_A_a.gif","forced_short","","10","complex_dissimilar","images/stimuli/spore_stims/complex_02_A_a.gif","","","","",""
"","null","html-keyboard-response","123","564285","0.0-29.0-0.3","SS1619739861046","","","null","","","","","","<p><img src= images/blank.png width =""600"" height = ""600"" style=""position:fixed;top:50%; left:50%; transform: translate(-50%, -50%); border:5px solid black"">","","","","","","","",""
"","121.42499996116385","sequential-stimulus-presentation-old","124","564911","0.0-29.0-1.3","SS1619739861046","trial","","40","500","621.4249999611638","images/stimuli/spore_stims/complex_15_A_b.gif","images/stimuli/spore_stims/complex_02_A_a.gif","forced_short","","10","complex_dissimilar","images/stimuli/spore_stims/complex_02_A_a.gif","","","","",""
"","null","html-keyboard-response","125","565769","0.0-29.0-0.4","SS1619739861046","","","null","","","","","","<p><img src= images/blank.png width =""600"" height = ""600"" style=""position:fixed;top:50%; left:50%; transform: translate(-50%, -50%); border:5px solid black"">","","","","","","","",""
"","61.064999958034605","sequential-stimulus-presentation-old","126","566335","0.0-29.0-1.4","SS1619739861046","trial","","40","500","561.0649999580346","images/stimuli/spore_stims/complex_15_A_b.gif","images/stimuli/spore_stims/complex_02_A_a.gif","forced_short","","10","complex_dissimilar","images/stimuli/spore_stims/complex_02_A_a.gif","","","","",""
"","2214.254999998957","survey-multi-choice","127","568551","0.0-30.0","SS1619739861046","math_question","","","","","","","","","","","","{""Q0"":""9""}","[0]","9","",""
"","null","html-keyboard-response","128","569504","0.0-31.0-0.0","SS1619739861046","","","null","","","","","","<p><img src= images/blank.png width =""600"" height = ""600"" style=""position:fixed;top:50%; left:50%; transform: translate(-50%, -50%); border:5px solid black"">","","","","","","","",""
"","23105.70999997435","sequential-stimulus-presentation-old","129","607615","0.0-31.0-1.0","SS1619739861046","trial","","40","500","23605.70999997435","images/stimuli/spore_stims/simple_04_A_a.gif","images/stimuli/spore_stims/simple_02_A_b.gif","forced_long","","11","simple_dissimilar","images/stimuli/spore_stims/simple_02_A_b.gif","","","","",""
"","null","html-keyboard-response","130","608676","0.0-31.0-0.1","SS1619739861046","","","null","","","","","","<p><img src= images/blank.png width =""600"" height = ""600"" style=""position:fixed;top:50%; left:50%; transform: translate(-50%, -50%); border:5px solid black"">","","","","","","","",""
"","161.14999999990687","sequential-stimulus-presentation-old","131","609343","0.0-31.0-1.1","SS1619739861046","trial","","40","500","661.1499999999069","images/stimuli/spore_stims/simple_04_A_a.gif","images/stimuli/spore_stims/simple_02_A_b.gif","forced_long","","11","simple_dissimilar","images/stimuli/spore_stims/simple_02_A_b.gif","","","","",""
"","null","html-keyboard-response","132","610164","0.0-31.0-0.2","SS1619739861046","","","null","","","","","","<p><img src= images/blank.png width =""600"" height = ""600"" style=""position:fixed;top:50%; left:50%; transform: translate(-50%, -50%); border:5px solid black"">","","","","","","","",""
"","194.4249999942258","sequential-stimulus-presentation-old","133","610863","0.0-31.0-1.2","SS1619739861046","trial","","40","500","694.4249999942258","images/stimuli/spore_stims/simple_04_A_a.gif","images/stimuli/spore_stims/simple_02_A_b.gif","forced_long","","11","simple_dissimilar","images/stimuli/spore_stims/simple_02_A_b.gif","","","","",""
"","null","html-keyboard-response","134","611750","0.0-31.0-0.3","SS1619739861046","","","null","","","","","","<p><img src= images/blank.png width =""600"" height = ""600"" style=""position:fixed;top:50%; left:50%; transform: translate(-50%, -50%); border:5px solid black"">","","","","","","","",""
"","64.23499999800697","sequential-stimulus-presentation-old","135","612319","0.0-31.0-1.3","SS1619739861046","trial","","40","500","564.234999998007","images/stimuli/spore_stims/simple_04_A_a.gif","images/stimuli/spore_stims/simple_02_A_b.gif","forced_long","","11","simple_dissimilar","images/stimuli/spore_stims/simple_02_A_b.gif","","","","",""
"","null","html-keyboard-response","136","613238","0.0-31.0-0.4","SS1619739861046","","","null","","","","","","<p><img src= images/blank.png width =""600"" height = ""600"" style=""position:fixed;top:50%; left:50%; transform: translate(-50%, -50%); border:5px solid black"">","","","","","","","",""
"","53424.13499997929","sequential-stimulus-presentation-old","137","667166","0.0-31.0-1.4","SS1619739861046","trial","","40","500","53924.13499997929","images/stimuli/spore_stims/simple_04_A_a.gif","images/stimuli/spore_stims/simple_02_A_b.gif","forced_long","","11","simple_dissimilar","images/stimuli/spore_stims/simple_02_A_b.gif","","","","",""
"[{""page_index"":0,""viewing_time"":4493.930000055116}]","4494.245000008959","instructions","138","671663","0.0-32.0","SS1619739861046","instructions","","","","","","","","","","","","","","","",""
"","6621.305000036955","survey-likert","139","678287","0.0-33.0","SS1619739861046","similarity_question","","","","","","","","","","","","{""Q0"":5}","[0]","","images/stimuli/spore_stims/simple_09_A_a.gif","images/stimuli/spore_stims/simple_06_A_b.gif"
"","4716.439999989234","survey-likert","140","683007","0.0-34.0","SS1619739861046","similarity_question","","","","","","","","","","","","{""Q0"":2}","[0]","","images/stimuli/spore_stims/simple_11_A_a.gif","images/stimuli/spore_stims/simple_17_A_b.gif"
"","6068.174999963958","survey-likert","141","689079","0.0-35.0","SS1619739861046","similarity_question","","","","","","","","","","","","{""Q0"":2}","[0]","","images/stimuli/spore_stims/complex_08_A_a.gif","images/stimuli/spore_stims/complex_16_A_b.gif"
"","2523.879999993369","survey-likert","142","691607","0.0-36.0","SS1619739861046","similarity_question","","","","","","","","","","","","{""Q0"":2}","[0]","","images/stimuli/spore_stims/complex_04_A_a.gif","images/stimuli/spore_stims/complex_08_A_b.gif"
"","4228.2450000057","survey-likert","143","695839","0.0-37.0","SS1619739861046","similarity_question","","","","","","","","","","","","{""Q0"":2}","[0]","","images/stimuli/spore_stims/simple_08_A_a.gif","images/stimuli/spore_stims/simple_04_A_b.gif"
"","2340.8049999852665","survey-likert","144","698183","0.0-38.0","SS1619739861046","similarity_question","","","","","","","","","","","","{""Q0"":2}","[0]","","images/stimuli/spore_stims/simple_04_A_a.gif","images/stimuli/spore_stims/simple_02_A_b.gif"
"","2315.999999991618","survey-likert","145","700503","0.0-39.0","SS1619739861046","similarity_question","","","","","","","","","","","","{""Q0"":2}","[0]","","images/stimuli/spore_stims/complex_02_A_a.gif","images/stimuli/spore_stims/complex_15_A_b.gif"
"","3012.2649999684654","survey-likert","146","703519","0.0-40.0","SS1619739861046","similarity_question","","","","","","","","","","","","{""Q0"":1}","[0]","","images/stimuli/spore_stims/complex_02_A_b.gif","images/stimuli/spore_stims/complex_06_A_a.gif"
"","2340.50000004936","survey-likert","147","705863","0.0-41.0","SS1619739861046","similarity_question","","","","","","","","","","","","{""Q0"":2}","[0]","","images/stimuli/spore_stims/complex_12_A_b.gif","images/stimuli/spore_stims/complex_15_A_a.gif"
"","3220.9700000239536","survey-likert","148","709087","0.0-42.0","SS1619739861046","similarity_question","","","","","","","","","","","","{""Q0"":1}","[0]","","images/stimuli/spore_stims/simple_10_A_a.gif","images/stimuli/spore_stims/simple_18_A_b.gif"
"","4220.3450000379235","survey-likert","149","713311","0.0-43.0","SS1619739861046","similarity_question","","","","","","","","","","","","{""Q0"":1}","[0]","","images/stimuli/spore_stims/simple_03_A_b.gif","images/stimuli/spore_stims/simple_17_A_a.gif"
"","4259.985000011511","survey-likert","150","717575","0.0-44.0","SS1619739861046","similarity_question","","","","","","","","","","","","{""Q0"":1}","[0]","","images/stimuli/spore_stims/complex_09_A_a.gif","images/stimuli/spore_stims/complex_01_A_b.gif"
"[{""page_index"":0,""viewing_time"":5172.485000046436}]","5172.810000018217","instructions","151","722751","0.0-45.0","SS1619739861046","instructions","","","","","","","","","","","","","","","",""
"","4724.974999960978","survey-likert","152","727479","0.0-46.0","SS1619739861046","","","","","","","","","images/stimuli/spore_stims/simple_03_A_b.gif","","","","{""Q0"":2}","[0]","","",""
"","5964.665000035893","survey-likert","153","733447","0.0-47.0","SS1619739861046","","","","","","","","","images/stimuli/spore_stims/complex_02_A_b.gif","","","","{""Q0"":4}","[0]","","",""
"","3196.4349999907427","survey-likert","154","736647","0.0-48.0","SS1619739861046","","","","","","","","","images/stimuli/spore_stims/simple_04_A_a.gif","","","","{""Q0"":1}","[0]","","",""
"","5764.290000020992","survey-likert","155","742415","0.0-49.0","SS1619739861046","","","","","","","","","images/stimuli/spore_stims/complex_12_A_b.gif","","","","{""Q0"":5}","[0]","","",""
"","6476.900000008754","survey-likert","156","748895","0.0-50.0","SS1619739861046","","","","","","","","","images/stimuli/spore_stims/complex_16_A_b.gif","","","","{""Q0"":5}","[0]","","",""
"","2164.9100000504404","survey-likert","157","751063","0.0-51.0","SS1619739861046","","","","","","","","","images/stimuli/spore_stims/complex_02_A_a.gif","","","","{""Q0"":4}","[0]","","",""
"","2236.6000000038184","survey-likert","158","753303","0.0-52.0","SS1619739861046","","","","","","","","","images/stimuli/spore_stims/simple_17_A_b.gif","","","","{""Q0"":1}","[0]","","",""
"","2948.6350000370294","survey-likert","159","756255","0.0-53.0","SS1619739861046","","","","","","","","","images/stimuli/spore_stims/complex_09_A_a.gif","","","","{""Q0"":4}","[0]","","",""
"","2708.150000020396","survey-likert","160","758967","0.0-54.0","SS1619739861046","","","","","","","","","images/stimuli/spore_stims/complex_04_A_a.gif","","","","{""Q0"":4}","[0]","","",""
"","3989.090000046417","survey-likert","161","762959","0.0-55.0","SS1619739861046","","","","","","","","","images/stimuli/spore_stims/simple_04_A_b.gif","","","","{""Q0"":1}","[0]","","",""
"","3397.0449999906123","survey-likert","162","766359","0.0-56.0","SS1619739861046","","","","","","","","","images/stimuli/spore_stims/simple_10_A_a.gif","","","","{""Q0"":0}","[0]","","",""
"","3884.3449999694712","survey-likert","163","770247","0.0-57.0","SS1619739861046","","","","","","","","","images/stimuli/spore_stims/simple_06_A_b.gif","","","","{""Q0"":1}","[0]","","",""
"[{""page_index"":0,""viewing_time"":1364.6399999852292}]","1364.9399999994785","instructions","164","771615","0.0-58.0","SS1619739861046","instructions","","","","","","","","","","","","","","","",""
"","2330.3549999836832","demog-age","165","773953","0.0-59.0","SS1619739861046","","","","","","","","","","","","","{""age"":""19""}","","","",""
"","7369.21000003349","demog-ethnic-US","166","781327","0.0-60.0","SS1619739861046","","","","","","","","","","","","","{""ethnicity"":[""Asian""]}","[0]","","",""
"","13963.714999961667","demog-gender-and-education","167","795295","0.0-61.0","SS1619739861046","","","","","","","","","","","","","{""gender"":""Decline to Answer"",""education"":""High school diploma""}","[0,1]","","",""
"","13153.344999998808","survey-text","168","808455","0.0-62.0","SS1619739861046","feedback","","","","","","","","","","","","{""Q0"":""No""}","","","",""
"[{""page_index"":0,""viewing_time"":2419.1800000262447}]","2419.4949999800883","instructions","169","810878","0.0-63.0","SS1619739861046","instructions","","","","","","","","","","","","","","","",""
