"view_history","rt","trial_type","trial_index","time_elapsed","internal_node_id","subject","stimulus_type","trial_stimulus","key_press","minimum_viewing_duration","trial_looking_time","block_deviant","block_background","exposure_type","stimulus","block_number","block_type","stimulus_displayed","responses","question_order","math_correct_answer","stimulus_left","stimulus_right"
"[{""page_index"":0,""viewing_time"":6917.300000000978}]","6917.720000001282","instructions","0","6922","0.0-0.0","SS1619739966649","","","","","","","","","","","","","","","","",""
"[{""page_index"":0,""viewing_time"":31158.10500000225},{""page_index"":1,""viewing_time"":12514.984999997978}]","43673.515000002226","instructions","1","52608","0.0-1.0","SS1619739966649","instructions","","","","","","","","","","","","","","","",""
"","37540.790000002744","sequential-stimulus-presentation-old","2","90657","0.0-2.0","SS1619739966649","","","40","500","38040.790000002744","null","null","self_paced","","","","","","","","",""
"","20377.234999999928","sequential-stimulus-presentation-old","3","111537","0.0-3.0","SS1619739966649","","","40","500","20877.234999999928","null","null","self_paced","","","","","","","","",""
"[{""page_index"":0,""viewing_time"":31974.33000000092}]","31974.764999999024","instructions","4","143511","0.0-4.0","SS1619739966649","instructions","","","","","","","","","","","","","","","",""
"","626.5050000001793","sequential-stimulus-presentation-old","5","159143","0.0-5.0","SS1619739966649","","","40","500","1126.5050000001793","null","null","forced_long","","","","","","","","",""
"","4120.694999997795","sequential-stimulus-presentation-old","6","163772","0.0-6.0","SS1619739966649","","","40","500","4620.694999997795","null","null","forced_long","","","","","","","","",""
"[{""page_index"":0,""viewing_time"":8609.805000000051}]","8610.160000000178","instructions","7","172390","0.0-7.0","SS1619739966649","instructions","","","","","","","","","","","","","","","",""
"[{""page_index"":0,""viewing_time"":24145.449999999983},{""page_index"":1,""viewing_time"":23560.734999999113},{""page_index"":2,""viewing_time"":10434.61500000194},{""page_index"":3,""viewing_time"":1623.6299999982293},{""page_index"":4,""viewing_time"":1380.0850000006903}]","61144.875000001775","instructions","8","233537","0.0-8.0","SS1619739966649","instructions","","","","","","","","","","","","","","","",""
"","null","html-keyboard-response","9","234487","0.0-9.0-0.0","SS1619739966649","","","null","","","","","","<p><img src= images/blank.png width =""600"" height = ""600"" style=""position:fixed;top:50%; left:50%; transform: translate(-50%, -50%); border:5px solid black"">","","","","","","","",""
"","11027.910000000702","sequential-stimulus-presentation-old","10","246023","0.0-9.0-1.0","SS1619739966649","trial","","40","500","11527.910000000702","images/stimuli/spore_stims/simple_03_A_a.gif","images/stimuli/spore_stims/simple_11_A_b.gif","self_paced","","0","simple_dissimilar","images/stimuli/spore_stims/simple_11_A_b.gif","","","","",""
"","null","html-keyboard-response","11","247207","0.0-9.0-0.1","SS1619739966649","","","null","","","","","","<p><img src= images/blank.png width =""600"" height = ""600"" style=""position:fixed;top:50%; left:50%; transform: translate(-50%, -50%); border:5px solid black"">","","","","","","","",""
"","12694.39499999865","sequential-stimulus-presentation-old","12","260407","0.0-9.0-1.1","SS1619739966649","trial","","40","500","13194.39499999865","images/stimuli/spore_stims/simple_03_A_a.gif","images/stimuli/spore_stims/simple_11_A_b.gif","self_paced","","0","simple_dissimilar","images/stimuli/spore_stims/simple_11_A_b.gif","","","","",""
"","null","html-keyboard-response","13","261486","0.0-9.0-0.2","SS1619739966649","","","null","","","","","","<p><img src= images/blank.png width =""600"" height = ""600"" style=""position:fixed;top:50%; left:50%; transform: translate(-50%, -50%); border:5px solid black"">","","","","","","","",""
"","7465.5950000014855","sequential-stimulus-presentation-old","14","269463","0.0-9.0-1.2","SS1619739966649","trial","","40","500","7965.5950000014855","images/stimuli/spore_stims/simple_03_A_a.gif","images/stimuli/spore_stims/simple_11_A_b.gif","self_paced","","0","simple_dissimilar","images/stimuli/spore_stims/simple_11_A_b.gif","","","","",""
"","null","html-keyboard-response","15","270296","0.0-9.0-0.3","SS1619739966649","","","null","","","","","","<p><img src= images/blank.png width =""600"" height = ""600"" style=""position:fixed;top:50%; left:50%; transform: translate(-50%, -50%); border:5px solid black"">","","","","","","","",""
"","7850.995000000694","sequential-stimulus-presentation-old","16","278658","0.0-9.0-1.3","SS1619739966649","trial","","40","500","8350.995000000694","images/stimuli/spore_stims/simple_03_A_a.gif","images/stimuli/spore_stims/simple_11_A_b.gif","self_paced","","0","simple_dissimilar","images/stimuli/spore_stims/simple_11_A_b.gif","","","","",""
"","null","html-keyboard-response","17","279645","0.0-9.0-0.4","SS1619739966649","","","null","","","","","","<p><img src= images/blank.png width =""600"" height = ""600"" style=""position:fixed;top:50%; left:50%; transform: translate(-50%, -50%); border:5px solid black"">","","","","","","","",""
"","4550.084999998915","sequential-stimulus-presentation-old","18","284705","0.0-9.0-1.4","SS1619739966649","trial","","40","500","5050.084999998915","images/stimuli/spore_stims/simple_03_A_a.gif","images/stimuli/spore_stims/simple_11_A_b.gif","self_paced","","0","simple_dissimilar","images/stimuli/spore_stims/simple_11_A_b.gif","","","","",""
"","null","html-keyboard-response","19","285604","0.0-9.0-0.5","SS1619739966649","","","null","","","","","","<p><img src= images/blank.png width =""600"" height = ""600"" style=""position:fixed;top:50%; left:50%; transform: translate(-50%, -50%); border:5px solid black"">","","","","","","","",""
"","6639.630000001518","sequential-stimulus-presentation-old","20","292752","0.0-9.0-1.5","SS1619739966649","trial","","40","500","7139.630000001518","images/stimuli/spore_stims/simple_03_A_a.gif","images/stimuli/spore_stims/simple_11_A_b.gif","self_paced","","0","simple_dissimilar","images/stimuli/spore_stims/simple_03_A_a.gif","","","","",""
"","4373.775000000023","survey-multi-choice","21","297135","0.0-10.0","SS1619739966649","math_question","","","","","","","","","","","","{""Q0"":""6""}","[0]","6","",""
"","null","html-keyboard-response","22","298077","0.0-11.0-0.0","SS1619739966649","","","null","","","","","","<p><img src= images/blank.png width =""600"" height = ""600"" style=""position:fixed;top:50%; left:50%; transform: translate(-50%, -50%); border:5px solid black"">","","","","","","","",""
"","722.2849999997998","sequential-stimulus-presentation-old","23","313811","0.0-11.0-1.0","SS1619739966649","trial","","40","500","1222.2849999997998","images/stimuli/spore_stims/complex_17_A_b.gif","images/stimuli/spore_stims/complex_08_A_a.gif","forced_long","","1","complex_dissimilar","images/stimuli/spore_stims/complex_08_A_a.gif","","","","",""
"","null","html-keyboard-response","24","314869","0.0-11.0-0.1","SS1619739966649","","","null","","","","","","<p><img src= images/blank.png width =""600"" height = ""600"" style=""position:fixed;top:50%; left:50%; transform: translate(-50%, -50%); border:5px solid black"">","","","","","","","",""
"","7215.529999997641","sequential-stimulus-presentation-old","25","322597","0.0-11.0-1.1","SS1619739966649","trial","","40","500","7715.529999997641","images/stimuli/spore_stims/complex_17_A_b.gif","images/stimuli/spore_stims/complex_08_A_a.gif","forced_long","","1","complex_dissimilar","images/stimuli/spore_stims/complex_08_A_a.gif","","","","",""
"","null","html-keyboard-response","26","323646","0.0-11.0-0.2","SS1619739966649","","","null","","","","","","<p><img src= images/blank.png width =""600"" height = ""600"" style=""position:fixed;top:50%; left:50%; transform: translate(-50%, -50%); border:5px solid black"">","","","","","","","",""
"","10320.475000000442","sequential-stimulus-presentation-old","27","334477","0.0-11.0-1.2","SS1619739966649","trial","","40","500","10820.475000000442","images/stimuli/spore_stims/complex_17_A_b.gif","images/stimuli/spore_stims/complex_08_A_a.gif","forced_long","","1","complex_dissimilar","images/stimuli/spore_stims/complex_17_A_b.gif","","","","",""
"","null","html-keyboard-response","28","335586","0.0-11.0-0.3","SS1619739966649","","","null","","","","","","<p><img src= images/blank.png width =""600"" height = ""600"" style=""position:fixed;top:50%; left:50%; transform: translate(-50%, -50%); border:5px solid black"">","","","","","","","",""
"","5717.394999999669","sequential-stimulus-presentation-old","29","341814","0.0-11.0-1.3","SS1619739966649","trial","","40","500","6217.394999999669","images/stimuli/spore_stims/complex_17_A_b.gif","images/stimuli/spore_stims/complex_08_A_a.gif","forced_long","","1","complex_dissimilar","images/stimuli/spore_stims/complex_08_A_a.gif","","","","",""
"","null","html-keyboard-response","30","342739","0.0-11.0-0.4","SS1619739966649","","","null","","","","","","<p><img src= images/blank.png width =""600"" height = ""600"" style=""position:fixed;top:50%; left:50%; transform: translate(-50%, -50%); border:5px solid black"">","","","","","","","",""
"","4654.044999999285","sequential-stimulus-presentation-old","31","347904","0.0-11.0-1.4","SS1619739966649","trial","","40","500","5154.044999999285","images/stimuli/spore_stims/complex_17_A_b.gif","images/stimuli/spore_stims/complex_08_A_a.gif","forced_long","","1","complex_dissimilar","images/stimuli/spore_stims/complex_08_A_a.gif","","","","",""
"","null","html-keyboard-response","32","349172","0.0-11.0-0.5","SS1619739966649","","","null","","","","","","<p><img src= images/blank.png width =""600"" height = ""600"" style=""position:fixed;top:50%; left:50%; transform: translate(-50%, -50%); border:5px solid black"">","","","","","","","",""
"","5117.225000001723","sequential-stimulus-presentation-old","33","354812","0.0-11.0-1.5","SS1619739966649","trial","","40","500","5617.225000001723","images/stimuli/spore_stims/complex_17_A_b.gif","images/stimuli/spore_stims/complex_08_A_a.gif","forced_long","","1","complex_dissimilar","images/stimuli/spore_stims/complex_17_A_b.gif","","","","",""
"","3853.685000001802","survey-multi-choice","34","358670","0.0-12.0","SS1619739966649","math_question","","","","","","","","","","","","{""Q0"":""7""}","[0]","7","",""
"","null","html-keyboard-response","35","359955","0.0-13.0-0.0","SS1619739966649","","","null","","","","","","<p><img src= images/blank.png width =""600"" height = ""600"" style=""position:fixed;top:50%; left:50%; transform: translate(-50%, -50%); border:5px solid black"">","","","","","","","",""
"","5205.105000000913","sequential-stimulus-presentation-old","36","365672","0.0-13.0-1.0","SS1619739966649","trial","","40","500","5705.105000000913","images/stimuli/spore_stims/complex_14_A_b.gif","images/stimuli/spore_stims/complex_06_A_a.gif","forced_short","","2","complex_dissimilar","images/stimuli/spore_stims/complex_06_A_a.gif","","","","",""
"","null","html-keyboard-response","37","366830","0.0-13.0-0.1","SS1619739966649","","","null","","","","","","<p><img src= images/blank.png width =""600"" height = ""600"" style=""position:fixed;top:50%; left:50%; transform: translate(-50%, -50%); border:5px solid black"">","","","","","","","",""
"","10632.29499999946","sequential-stimulus-presentation-old","38","377973","0.0-13.0-1.1","SS1619739966649","trial","","40","500","11132.29499999946","images/stimuli/spore_stims/complex_14_A_b.gif","images/stimuli/spore_stims/complex_06_A_a.gif","forced_short","","2","complex_dissimilar","images/stimuli/spore_stims/complex_06_A_a.gif","","","","",""
"","null","html-keyboard-response","39","378818","0.0-13.0-0.2","SS1619739966649","","","null","","","","","","<p><img src= images/blank.png width =""600"" height = ""600"" style=""position:fixed;top:50%; left:50%; transform: translate(-50%, -50%); border:5px solid black"">","","","","","","","",""
"","7406.244999998249","sequential-stimulus-presentation-old","40","386734","0.0-13.0-1.2","SS1619739966649","trial","","40","500","7906.244999998249","images/stimuli/spore_stims/complex_14_A_b.gif","images/stimuli/spore_stims/complex_06_A_a.gif","forced_short","","2","complex_dissimilar","images/stimuli/spore_stims/complex_06_A_a.gif","","","","",""
"","null","html-keyboard-response","41","387579","0.0-13.0-0.3","SS1619739966649","","","null","","","","","","<p><img src= images/blank.png width =""600"" height = ""600"" style=""position:fixed;top:50%; left:50%; transform: translate(-50%, -50%); border:5px solid black"">","","","","","","","",""
"","3854.1150000018533","sequential-stimulus-presentation-old","42","391944","0.0-13.0-1.3","SS1619739966649","trial","","40","500","4354.115000001853","images/stimuli/spore_stims/complex_14_A_b.gif","images/stimuli/spore_stims/complex_06_A_a.gif","forced_short","","2","complex_dissimilar","images/stimuli/spore_stims/complex_06_A_a.gif","","","","",""
"","null","html-keyboard-response","43","393160","0.0-13.0-0.4","SS1619739966649","","","null","","","","","","<p><img src= images/blank.png width =""600"" height = ""600"" style=""position:fixed;top:50%; left:50%; transform: translate(-50%, -50%); border:5px solid black"">","","","","","","","",""
"","4591.300000000047","sequential-stimulus-presentation-old","44","398258","0.0-13.0-1.4","SS1619739966649","trial","","40","500","5091.300000000047","images/stimuli/spore_stims/complex_14_A_b.gif","images/stimuli/spore_stims/complex_06_A_a.gif","forced_short","","2","complex_dissimilar","images/stimuli/spore_stims/complex_06_A_a.gif","","","","",""
"","null","html-keyboard-response","45","399321","0.0-13.0-0.5","SS1619739966649","","","null","","","","","","<p><img src= images/blank.png width =""600"" height = ""600"" style=""position:fixed;top:50%; left:50%; transform: translate(-50%, -50%); border:5px solid black"">","","","","","","","",""
"","2821.094999999332","sequential-stimulus-presentation-old","46","402650","0.0-13.0-1.5","SS1619739966649","trial","","40","500","3321.094999999332","images/stimuli/spore_stims/complex_14_A_b.gif","images/stimuli/spore_stims/complex_06_A_a.gif","forced_short","","2","complex_dissimilar","images/stimuli/spore_stims/complex_06_A_a.gif","","","","",""
"","6489.580000001297","survey-multi-choice","47","409150","0.0-14.0","SS1619739966649","math_question","","","","","","","","","","","","{""Q0"":""15""}","[0]","15","",""
"","null","html-keyboard-response","48","410153","0.0-15.0-0.0","SS1619739966649","","","null","","","","","","<p><img src= images/blank.png width =""600"" height = ""600"" style=""position:fixed;top:50%; left:50%; transform: translate(-50%, -50%); border:5px solid black"">","","","","","","","",""
"","1371.175000000163","sequential-stimulus-presentation-old","49","412036","0.0-15.0-1.0","SS1619739966649","trial","","40","500","1871.175000000163","images/stimuli/spore_stims/complex_12_A_b.gif","images/stimuli/spore_stims/complex_13_A_a.gif","self_paced","","3","complex_dissimilar","images/stimuli/spore_stims/complex_13_A_a.gif","","","","",""
"","null","html-keyboard-response","50","413030","0.0-15.0-0.1","SS1619739966649","","","null","","","","","","<p><img src= images/blank.png width =""600"" height = ""600"" style=""position:fixed;top:50%; left:50%; transform: translate(-50%, -50%); border:5px solid black"">","","","","","","","",""
"","4657.734999997076","sequential-stimulus-presentation-old","51","418203","0.0-15.0-1.1","SS1619739966649","trial","","40","500","5157.734999997076","images/stimuli/spore_stims/complex_12_A_b.gif","images/stimuli/spore_stims/complex_13_A_a.gif","self_paced","","3","complex_dissimilar","images/stimuli/spore_stims/complex_13_A_a.gif","","","","",""
"","null","html-keyboard-response","52","419441","0.0-15.0-0.2","SS1619739966649","","","null","","","","","","<p><img src= images/blank.png width =""600"" height = ""600"" style=""position:fixed;top:50%; left:50%; transform: translate(-50%, -50%); border:5px solid black"">","","","","","","","",""
"","4775.325000002398","sequential-stimulus-presentation-old","53","424735","0.0-15.0-1.2","SS1619739966649","trial","","40","500","5275.325000002398","images/stimuli/spore_stims/complex_12_A_b.gif","images/stimuli/spore_stims/complex_13_A_a.gif","self_paced","","3","complex_dissimilar","images/stimuli/spore_stims/complex_13_A_a.gif","","","","",""
"","null","html-keyboard-response","54","425877","0.0-15.0-0.3","SS1619739966649","","","null","","","","","","<p><img src= images/blank.png width =""600"" height = ""600"" style=""position:fixed;top:50%; left:50%; transform: translate(-50%, -50%); border:5px solid black"">","","","","","","","",""
"","5871.2549999982","sequential-stimulus-presentation-old","55","432269","0.0-15.0-1.3","SS1619739966649","trial","","40","500","6371.2549999982","images/stimuli/spore_stims/complex_12_A_b.gif","images/stimuli/spore_stims/complex_13_A_a.gif","self_paced","","3","complex_dissimilar","images/stimuli/spore_stims/complex_13_A_a.gif","","","","",""
"","null","html-keyboard-response","56","433428","0.0-15.0-0.4","SS1619739966649","","","null","","","","","","<p><img src= images/blank.png width =""600"" height = ""600"" style=""position:fixed;top:50%; left:50%; transform: translate(-50%, -50%); border:5px solid black"">","","","","","","","",""
"","8755.239999998594","sequential-stimulus-presentation-old","57","442692","0.0-15.0-1.4","SS1619739966649","trial","","40","500","9255.239999998594","images/stimuli/spore_stims/complex_12_A_b.gif","images/stimuli/spore_stims/complex_13_A_a.gif","self_paced","","3","complex_dissimilar","images/stimuli/spore_stims/complex_12_A_b.gif","","","","",""
"","null","html-keyboard-response","58","443934","0.0-15.0-0.5","SS1619739966649","","","null","","","","","","<p><img src= images/blank.png width =""600"" height = ""600"" style=""position:fixed;top:50%; left:50%; transform: translate(-50%, -50%); border:5px solid black"">","","","","","","","",""
"","5003.9299999990035","sequential-stimulus-presentation-old","59","449452","0.0-15.0-1.5","SS1619739966649","trial","","40","500","5503.9299999990035","images/stimuli/spore_stims/complex_12_A_b.gif","images/stimuli/spore_stims/complex_13_A_a.gif","self_paced","","3","complex_dissimilar","images/stimuli/spore_stims/complex_13_A_a.gif","","","","",""
"","8194.760000002105","survey-multi-choice","60","457657","0.0-16.0","SS1619739966649","math_question","","","","","","","","","","","","{""Q0"":""12""}","[0]","12","",""
"","null","html-keyboard-response","61","458762","0.0-17.0-0.0","SS1619739966649","","","null","","","","","","<p><img src= images/blank.png width =""600"" height = ""600"" style=""position:fixed;top:50%; left:50%; transform: translate(-50%, -50%); border:5px solid black"">","","","","","","","",""
"","3516.394999998738","sequential-stimulus-presentation-old","62","462790","0.0-17.0-1.0","SS1619739966649","trial","","40","500","4016.394999998738","images/stimuli/spore_stims/complex_15_A_a.gif","images/stimuli/spore_stims/complex_03_A_b.gif","forced_short","","4","complex_dissimilar","images/stimuli/spore_stims/complex_03_A_b.gif","","","","",""
"","null","html-keyboard-response","63","463798","0.0-17.0-0.1","SS1619739966649","","","null","","","","","","<p><img src= images/blank.png width =""600"" height = ""600"" style=""position:fixed;top:50%; left:50%; transform: translate(-50%, -50%); border:5px solid black"">","","","","","","","",""
"","6333.5450000013225","sequential-stimulus-presentation-old","64","470643","0.0-17.0-1.1","SS1619739966649","trial","","40","500","6833.5450000013225","images/stimuli/spore_stims/complex_15_A_a.gif","images/stimuli/spore_stims/complex_03_A_b.gif","forced_short","","4","complex_dissimilar","images/stimuli/spore_stims/complex_15_A_a.gif","","","","",""
"","null","html-keyboard-response","65","471786","0.0-17.0-0.2","SS1619739966649","","","null","","","","","","<p><img src= images/blank.png width =""600"" height = ""600"" style=""position:fixed;top:50%; left:50%; transform: translate(-50%, -50%); border:5px solid black"">","","","","","","","",""
"","5907.425000001269","sequential-stimulus-presentation-old","66","478201","0.0-17.0-1.2","SS1619739966649","trial","","40","500","6407.425000001269","images/stimuli/spore_stims/complex_15_A_a.gif","images/stimuli/spore_stims/complex_03_A_b.gif","forced_short","","4","complex_dissimilar","images/stimuli/spore_stims/complex_15_A_a.gif","","","","",""
"","null","html-keyboard-response","67","479508","0.0-17.0-0.3","SS1619739966649","","","null","","","","","","<p><img src= images/blank.png width =""600"" height = ""600"" style=""position:fixed;top:50%; left:50%; transform: translate(-50%, -50%); border:5px solid black"">","","","","","","","",""
"","4867.784999998577","sequential-stimulus-presentation-old","68","484890","0.0-17.0-1.3","SS1619739966649","trial","","40","500","5367.784999998577","images/stimuli/spore_stims/complex_15_A_a.gif","images/stimuli/spore_stims/complex_03_A_b.gif","forced_short","","4","complex_dissimilar","images/stimuli/spore_stims/complex_03_A_b.gif","","","","",""
"","null","html-keyboard-response","69","486004","0.0-17.0-0.4","SS1619739966649","","","null","","","","","","<p><img src= images/blank.png width =""600"" height = ""600"" style=""position:fixed;top:50%; left:50%; transform: translate(-50%, -50%); border:5px solid black"">","","","","","","","",""
"","1208.999999998894","sequential-stimulus-presentation-old","70","487742","0.0-17.0-1.4","SS1619739966649","trial","","40","500","1708.999999998894","images/stimuli/spore_stims/complex_15_A_a.gif","images/stimuli/spore_stims/complex_03_A_b.gif","forced_short","","4","complex_dissimilar","images/stimuli/spore_stims/complex_03_A_b.gif","","","","",""
"","4068.859999999404","survey-multi-choice","71","491816","0.0-18.0","SS1619739966649","math_question","","","","","","","","","","","","{""Q0"":""10""}","[0]","10","",""
"","null","html-keyboard-response","72","492642","0.0-19.0-0.0","SS1619739966649","","","null","","","","","","<p><img src= images/blank.png width =""600"" height = ""600"" style=""position:fixed;top:50%; left:50%; transform: translate(-50%, -50%); border:5px solid black"">","","","","","","","",""
"","2402.0849999979255","sequential-stimulus-presentation-old","73","495561","0.0-19.0-1.0","SS1619739966649","trial","","40","500","2902.0849999979255","images/stimuli/spore_stims/simple_07_A_a.gif","images/stimuli/spore_stims/simple_09_A_b.gif","forced_short","","5","simple_dissimilar","images/stimuli/spore_stims/simple_09_A_b.gif","","","","",""
"","null","html-keyboard-response","74","496406","0.0-19.0-0.1","SS1619739966649","","","null","","","","","","<p><img src= images/blank.png width =""600"" height = ""600"" style=""position:fixed;top:50%; left:50%; transform: translate(-50%, -50%); border:5px solid black"">","","","","","","","",""
"","4805.019999999786","sequential-stimulus-presentation-old","75","501720","0.0-19.0-1.1","SS1619739966649","trial","","40","500","5305.019999999786","images/stimuli/spore_stims/simple_07_A_a.gif","images/stimuli/spore_stims/simple_09_A_b.gif","forced_short","","5","simple_dissimilar","images/stimuli/spore_stims/simple_07_A_a.gif","","","","",""
"","null","html-keyboard-response","76","502953","0.0-19.0-0.2","SS1619739966649","","","null","","","","","","<p><img src= images/blank.png width =""600"" height = ""600"" style=""position:fixed;top:50%; left:50%; transform: translate(-50%, -50%); border:5px solid black"">","","","","","","","",""
"","2422.06499999878","sequential-stimulus-presentation-old","77","505889","0.0-19.0-1.2","SS1619739966649","trial","","40","500","2922.06499999878","images/stimuli/spore_stims/simple_07_A_a.gif","images/stimuli/spore_stims/simple_09_A_b.gif","forced_short","","5","simple_dissimilar","images/stimuli/spore_stims/simple_07_A_a.gif","","","","",""
"","null","html-keyboard-response","78","506985","0.0-19.0-0.3","SS1619739966649","","","null","","","","","","<p><img src= images/blank.png width =""600"" height = ""600"" style=""position:fixed;top:50%; left:50%; transform: translate(-50%, -50%); border:5px solid black"">","","","","","","","",""
"","3395.394999999553","sequential-stimulus-presentation-old","79","510890","0.0-19.0-1.3","SS1619739966649","trial","","40","500","3895.394999999553","images/stimuli/spore_stims/simple_07_A_a.gif","images/stimuli/spore_stims/simple_09_A_b.gif","forced_short","","5","simple_dissimilar","images/stimuli/spore_stims/simple_09_A_b.gif","","","","",""
"","null","html-keyboard-response","80","511963","0.0-19.0-0.4","SS1619739966649","","","null","","","","","","<p><img src= images/blank.png width =""600"" height = ""600"" style=""position:fixed;top:50%; left:50%; transform: translate(-50%, -50%); border:5px solid black"">","","","","","","","",""
"","2001.0849999998463","sequential-stimulus-presentation-old","81","514490","0.0-19.0-1.4","SS1619739966649","trial","","40","500","2501.0849999998463","images/stimuli/spore_stims/simple_07_A_a.gif","images/stimuli/spore_stims/simple_09_A_b.gif","forced_short","","5","simple_dissimilar","images/stimuli/spore_stims/simple_09_A_b.gif","","","","",""
"","3832.0800000001327","survey-multi-choice","82","518328","0.0-20.0","SS1619739966649","math_question","","","","","","","","","","","","{""Q0"":""5""}","[0]","5","",""
"","null","html-keyboard-response","83","519323","0.0-21.0-0.0","SS1619739966649","","","null","","","","","","<p><img src= images/blank.png width =""600"" height = ""600"" style=""position:fixed;top:50%; left:50%; transform: translate(-50%, -50%); border:5px solid black"">","","","","","","","",""
"","2657.564999997616","sequential-stimulus-presentation-old","84","522489","0.0-21.0-1.0","SS1619739966649","trial","","40","500","3157.564999997616","images/stimuli/spore_stims/simple_17_A_a.gif","images/stimuli/spore_stims/simple_07_A_b.gif","self_paced","","6","simple_dissimilar","images/stimuli/spore_stims/simple_07_A_b.gif","","","","",""
"","null","html-keyboard-response","85","523586","0.0-21.0-0.1","SS1619739966649","","","null","","","","","","<p><img src= images/blank.png width =""600"" height = ""600"" style=""position:fixed;top:50%; left:50%; transform: translate(-50%, -50%); border:5px solid black"">","","","","","","","",""
"","1904.7500000015134","sequential-stimulus-presentation-old","86","525999","0.0-21.0-1.1","SS1619739966649","trial","","40","500","2404.7500000015134","images/stimuli/spore_stims/simple_17_A_a.gif","images/stimuli/spore_stims/simple_07_A_b.gif","self_paced","","6","simple_dissimilar","images/stimuli/spore_stims/simple_07_A_b.gif","","","","",""
"","null","html-keyboard-response","87","526896","0.0-21.0-0.2","SS1619739966649","","","null","","","","","","<p><img src= images/blank.png width =""600"" height = ""600"" style=""position:fixed;top:50%; left:50%; transform: translate(-50%, -50%); border:5px solid black"">","","","","","","","",""
"","2676.670000000857","sequential-stimulus-presentation-old","88","530082","0.0-21.0-1.2","SS1619739966649","trial","","40","500","3176.670000000857","images/stimuli/spore_stims/simple_17_A_a.gif","images/stimuli/spore_stims/simple_07_A_b.gif","self_paced","","6","simple_dissimilar","images/stimuli/spore_stims/simple_07_A_b.gif","","","","",""
"","null","html-keyboard-response","89","531351","0.0-21.0-0.3","SS1619739966649","","","null","","","","","","<p><img src= images/blank.png width =""600"" height = ""600"" style=""position:fixed;top:50%; left:50%; transform: translate(-50%, -50%); border:5px solid black"">","","","","","","","",""
"","3190.1199999994133","sequential-stimulus-presentation-old","90","535054","0.0-21.0-1.3","SS1619739966649","trial","","40","500","3690.1199999994133","images/stimuli/spore_stims/simple_17_A_a.gif","images/stimuli/spore_stims/simple_07_A_b.gif","self_paced","","6","simple_dissimilar","images/stimuli/spore_stims/simple_17_A_a.gif","","","","",""
"","null","html-keyboard-response","91","536346","0.0-21.0-0.4","SS1619739966649","","","null","","","","","","<p><img src= images/blank.png width =""600"" height = ""600"" style=""position:fixed;top:50%; left:50%; transform: translate(-50%, -50%); border:5px solid black"">","","","","","","","",""
"","2397.510000002454","sequential-stimulus-presentation-old","92","539260","0.0-21.0-1.4","SS1619739966649","trial","","40","500","2897.510000002454","images/stimuli/spore_stims/simple_17_A_a.gif","images/stimuli/spore_stims/simple_07_A_b.gif","self_paced","","6","simple_dissimilar","images/stimuli/spore_stims/simple_17_A_a.gif","","","","",""
"","null","html-keyboard-response","93","540141","0.0-21.0-0.5","SS1619739966649","","","null","","","","","","<p><img src= images/blank.png width =""600"" height = ""600"" style=""position:fixed;top:50%; left:50%; transform: translate(-50%, -50%); border:5px solid black"">","","","","","","","",""
"","2171.795000002021","sequential-stimulus-presentation-old","94","542836","0.0-21.0-1.5","SS1619739966649","trial","","40","500","2671.795000002021","images/stimuli/spore_stims/simple_17_A_a.gif","images/stimuli/spore_stims/simple_07_A_b.gif","self_paced","","6","simple_dissimilar","images/stimuli/spore_stims/simple_07_A_b.gif","","","","",""
"","3083.7749999992084","survey-multi-choice","95","545926","0.0-22.0","SS1619739966649","math_question","","","","","","","","","","","","{""Q0"":""2""}","[0]","2","",""
"","null","html-keyboard-response","96","546988","0.0-23.0-0.0","SS1619739966649","","","null","","","","","","<p><img src= images/blank.png width =""600"" height = ""600"" style=""position:fixed;top:50%; left:50%; transform: translate(-50%, -50%); border:5px solid black"">","","","","","","","",""
"","577.4049999999115","sequential-stimulus-presentation-old","97","562578","0.0-23.0-1.0","SS1619739966649","trial","","40","500","1077.4049999999115","images/stimuli/spore_stims/complex_01_A_a.gif","images/stimuli/spore_stims/complex_16_A_b.gif","forced_long","","7","complex_dissimilar","images/stimuli/spore_stims/complex_16_A_b.gif","","","","",""
"","null","html-keyboard-response","98","563658","0.0-23.0-0.1","SS1619739966649","","","null","","","","","","<p><img src= images/blank.png width =""600"" height = ""600"" style=""position:fixed;top:50%; left:50%; transform: translate(-50%, -50%); border:5px solid black"">","","","","","","","",""
"","4586.960000000545","sequential-stimulus-presentation-old","99","568759","0.0-23.0-1.1","SS1619739966649","trial","","40","500","5086.960000000545","images/stimuli/spore_stims/complex_01_A_a.gif","images/stimuli/spore_stims/complex_16_A_b.gif","forced_long","","7","complex_dissimilar","images/stimuli/spore_stims/complex_16_A_b.gif","","","","",""
"","null","html-keyboard-response","100","570008","0.0-23.0-0.2","SS1619739966649","","","null","","","","","","<p><img src= images/blank.png width =""600"" height = ""600"" style=""position:fixed;top:50%; left:50%; transform: translate(-50%, -50%); border:5px solid black"">","","","","","","","",""
"","3233.7449999977835","sequential-stimulus-presentation-old","101","573761","0.0-23.0-1.2","SS1619739966649","trial","","40","500","3733.7449999977835","images/stimuli/spore_stims/complex_01_A_a.gif","images/stimuli/spore_stims/complex_16_A_b.gif","forced_long","","7","complex_dissimilar","images/stimuli/spore_stims/complex_16_A_b.gif","","","","",""
"","null","html-keyboard-response","102","575003","0.0-23.0-0.3","SS1619739966649","","","null","","","","","","<p><img src= images/blank.png width =""600"" height = ""600"" style=""position:fixed;top:50%; left:50%; transform: translate(-50%, -50%); border:5px solid black"">","","","","","","","",""
"","6255.785000001197","sequential-stimulus-presentation-old","103","581767","0.0-23.0-1.3","SS1619739966649","trial","","40","500","6755.785000001197","images/stimuli/spore_stims/complex_01_A_a.gif","images/stimuli/spore_stims/complex_16_A_b.gif","forced_long","","7","complex_dissimilar","images/stimuli/spore_stims/complex_01_A_a.gif","","","","",""
"","null","html-keyboard-response","104","582920","0.0-23.0-0.4","SS1619739966649","","","null","","","","","","<p><img src= images/blank.png width =""600"" height = ""600"" style=""position:fixed;top:50%; left:50%; transform: translate(-50%, -50%); border:5px solid black"">","","","","","","","",""
"","1040.7950000007404","sequential-stimulus-presentation-old","105","584474","0.0-23.0-1.4","SS1619739966649","trial","","40","500","1540.7950000007404","images/stimuli/spore_stims/complex_01_A_a.gif","images/stimuli/spore_stims/complex_16_A_b.gif","forced_long","","7","complex_dissimilar","images/stimuli/spore_stims/complex_16_A_b.gif","","","","",""
"","null","html-keyboard-response","106","585681","0.0-23.0-0.5","SS1619739966649","","","null","","","","","","<p><img src= images/blank.png width =""600"" height = ""600"" style=""position:fixed;top:50%; left:50%; transform: translate(-50%, -50%); border:5px solid black"">","","","","","","","",""
"","1203.1449999994365","sequential-stimulus-presentation-old","107","587400","0.0-23.0-1.5","SS1619739966649","trial","","40","500","1703.1449999994365","images/stimuli/spore_stims/complex_01_A_a.gif","images/stimuli/spore_stims/complex_16_A_b.gif","forced_long","","7","complex_dissimilar","images/stimuli/spore_stims/complex_16_A_b.gif","","","","",""
"","3313.659999999916","survey-multi-choice","108","590722","0.0-24.0","SS1619739966649","math_question","","","","","","","","","","","","{""Q0"":""16""}","[0]","16","",""
"","null","html-keyboard-response","109","591587","0.0-25.0-0.0","SS1619739966649","","","null","","","","","","<p><img src= images/blank.png width =""600"" height = ""600"" style=""position:fixed;top:50%; left:50%; transform: translate(-50%, -50%); border:5px solid black"">","","","","","","","",""
"","1148.0599999995902","sequential-stimulus-presentation-old","110","607759","0.0-25.0-1.0","SS1619739966649","trial","","40","500","1648.0599999995902","images/stimuli/spore_stims/simple_04_A_a.gif","images/stimuli/spore_stims/simple_14_A_b.gif","forced_long","","8","simple_dissimilar","images/stimuli/spore_stims/simple_14_A_b.gif","","","","",""
"","null","html-keyboard-response","111","608934","0.0-25.0-0.1","SS1619739966649","","","null","","","","","","<p><img src= images/blank.png width =""600"" height = ""600"" style=""position:fixed;top:50%; left:50%; transform: translate(-50%, -50%); border:5px solid black"">","","","","","","","",""
"","1400.2749999999069","sequential-stimulus-presentation-old","112","610853","0.0-25.0-1.1","SS1619739966649","trial","","40","500","1900.2749999999069","images/stimuli/spore_stims/simple_04_A_a.gif","images/stimuli/spore_stims/simple_14_A_b.gif","forced_long","","8","simple_dissimilar","images/stimuli/spore_stims/simple_14_A_b.gif","","","","",""
"","null","html-keyboard-response","113","612155","0.0-25.0-0.2","SS1619739966649","","","null","","","","","","<p><img src= images/blank.png width =""600"" height = ""600"" style=""position:fixed;top:50%; left:50%; transform: translate(-50%, -50%); border:5px solid black"">","","","","","","","",""
"","1819.7550000004703","sequential-stimulus-presentation-old","114","614489","0.0-25.0-1.2","SS1619739966649","trial","","40","500","2319.7550000004703","images/stimuli/spore_stims/simple_04_A_a.gif","images/stimuli/spore_stims/simple_14_A_b.gif","forced_long","","8","simple_dissimilar","images/stimuli/spore_stims/simple_04_A_a.gif","","","","",""
"","null","html-keyboard-response","115","615562","0.0-25.0-0.3","SS1619739966649","","","null","","","","","","<p><img src= images/blank.png width =""600"" height = ""600"" style=""position:fixed;top:50%; left:50%; transform: translate(-50%, -50%); border:5px solid black"">","","","","","","","",""
"","1825.540000001667","sequential-stimulus-presentation-old","116","617896","0.0-25.0-1.3","SS1619739966649","trial","","40","500","2325.540000001667","images/stimuli/spore_stims/simple_04_A_a.gif","images/stimuli/spore_stims/simple_14_A_b.gif","forced_long","","8","simple_dissimilar","images/stimuli/spore_stims/simple_14_A_b.gif","","","","",""
"","5096.405000000261","survey-multi-choice","117","623001","0.0-26.0","SS1619739966649","math_question","","","","","","","","","","","","{""Q0"":""11""}","[0]","11","",""
"","null","html-keyboard-response","118","624056","0.0-27.0-0.0","SS1619739966649","","","null","","","","","","<p><img src= images/blank.png width =""600"" height = ""600"" style=""position:fixed;top:50%; left:50%; transform: translate(-50%, -50%); border:5px solid black"">","","","","","","","",""
"","447.2700000006007","sequential-stimulus-presentation-old","119","639514","0.0-27.0-1.0","SS1619739966649","trial","","40","500","947.2700000006007","images/stimuli/spore_stims/simple_11_A_a.gif","images/stimuli/spore_stims/simple_03_A_b.gif","forced_long","","9","simple_dissimilar","images/stimuli/spore_stims/simple_03_A_b.gif","","","","",""
"","null","html-keyboard-response","120","640353","0.0-27.0-0.1","SS1619739966649","","","null","","","","","","<p><img src= images/blank.png width =""600"" height = ""600"" style=""position:fixed;top:50%; left:50%; transform: translate(-50%, -50%); border:5px solid black"">","","","","","","","",""
"","3816.0849999985658","sequential-stimulus-presentation-old","121","644685","0.0-27.0-1.1","SS1619739966649","trial","","40","500","4316.084999998566","images/stimuli/spore_stims/simple_11_A_a.gif","images/stimuli/spore_stims/simple_03_A_b.gif","forced_long","","9","simple_dissimilar","images/stimuli/spore_stims/simple_11_A_a.gif","","","","",""
"","null","html-keyboard-response","122","645944","0.0-27.0-0.2","SS1619739966649","","","null","","","","","","<p><img src= images/blank.png width =""600"" height = ""600"" style=""position:fixed;top:50%; left:50%; transform: translate(-50%, -50%); border:5px solid black"">","","","","","","","",""
"","3839.110000000801","sequential-stimulus-presentation-old","123","650303","0.0-27.0-1.2","SS1619739966649","trial","","40","500","4339.110000000801","images/stimuli/spore_stims/simple_11_A_a.gif","images/stimuli/spore_stims/simple_03_A_b.gif","forced_long","","9","simple_dissimilar","images/stimuli/spore_stims/simple_03_A_b.gif","","","","",""
"","null","html-keyboard-response","124","651118","0.0-27.0-0.3","SS1619739966649","","","null","","","","","","<p><img src= images/blank.png width =""600"" height = ""600"" style=""position:fixed;top:50%; left:50%; transform: translate(-50%, -50%); border:5px solid black"">","","","","","","","",""
"","1753.6850000033155","sequential-stimulus-presentation-old","125","653387","0.0-27.0-1.3","SS1619739966649","trial","","40","500","2253.6850000033155","images/stimuli/spore_stims/simple_11_A_a.gif","images/stimuli/spore_stims/simple_03_A_b.gif","forced_long","","9","simple_dissimilar","images/stimuli/spore_stims/simple_03_A_b.gif","","","","",""
"","null","html-keyboard-response","126","654414","0.0-27.0-0.4","SS1619739966649","","","null","","","","","","<p><img src= images/blank.png width =""600"" height = ""600"" style=""position:fixed;top:50%; left:50%; transform: translate(-50%, -50%); border:5px solid black"">","","","","","","","",""
"","1826.590000000666","sequential-stimulus-presentation-old","127","656763","0.0-27.0-1.4","SS1619739966649","trial","","40","500","2326.590000000666","images/stimuli/spore_stims/simple_11_A_a.gif","images/stimuli/spore_stims/simple_03_A_b.gif","forced_long","","9","simple_dissimilar","images/stimuli/spore_stims/simple_03_A_b.gif","","","","",""
"","4580.31000000122","survey-multi-choice","128","661348","0.0-28.0","SS1619739966649","math_question","","","","","","","","","","","","{""Q0"":""10""}","[0]","10","",""
"","null","html-keyboard-response","129","662431","0.0-29.0-0.0","SS1619739966649","","","null","","","","","","<p><img src= images/blank.png width =""600"" height = ""600"" style=""position:fixed;top:50%; left:50%; transform: translate(-50%, -50%); border:5px solid black"">","","","","","","","",""
"","18284.835000002175","sequential-stimulus-presentation-old","130","681230","0.0-29.0-1.0","SS1619739966649","trial","","40","500","18784.835000002175","images/stimuli/spore_stims/complex_11_A_a.gif","images/stimuli/spore_stims/complex_06_A_b.gif","self_paced","","10","complex_dissimilar","images/stimuli/spore_stims/complex_06_A_b.gif","","","","",""
"","null","html-keyboard-response","131","682067","0.0-29.0-0.1","SS1619739966649","","","null","","","","","","<p><img src= images/blank.png width =""600"" height = ""600"" style=""position:fixed;top:50%; left:50%; transform: translate(-50%, -50%); border:5px solid black"">","","","","","","","",""
"","3109.510000002105","sequential-stimulus-presentation-old","132","685690","0.0-29.0-1.1","SS1619739966649","trial","","40","500","3609.510000002105","images/stimuli/spore_stims/complex_11_A_a.gif","images/stimuli/spore_stims/complex_06_A_b.gif","self_paced","","10","complex_dissimilar","images/stimuli/spore_stims/complex_11_A_a.gif","","","","",""
"","null","html-keyboard-response","133","686732","0.0-29.0-0.2","SS1619739966649","","","null","","","","","","<p><img src= images/blank.png width =""600"" height = ""600"" style=""position:fixed;top:50%; left:50%; transform: translate(-50%, -50%); border:5px solid black"">","","","","","","","",""
"","2507.6549999976996","sequential-stimulus-presentation-old","134","689755","0.0-29.0-1.2","SS1619739966649","trial","","40","500","3007.6549999976996","images/stimuli/spore_stims/complex_11_A_a.gif","images/stimuli/spore_stims/complex_06_A_b.gif","self_paced","","10","complex_dissimilar","images/stimuli/spore_stims/complex_06_A_b.gif","","","","",""
"","null","html-keyboard-response","135","690925","0.0-29.0-0.3","SS1619739966649","","","null","","","","","","<p><img src= images/blank.png width =""600"" height = ""600"" style=""position:fixed;top:50%; left:50%; transform: translate(-50%, -50%); border:5px solid black"">","","","","","","","",""
"","2969.424999999348","sequential-stimulus-presentation-old","136","694419","0.0-29.0-1.3","SS1619739966649","trial","","40","500","3469.424999999348","images/stimuli/spore_stims/complex_11_A_a.gif","images/stimuli/spore_stims/complex_06_A_b.gif","self_paced","","10","complex_dissimilar","images/stimuli/spore_stims/complex_11_A_a.gif","","","","",""
"","null","html-keyboard-response","137","695650","0.0-29.0-0.4","SS1619739966649","","","null","","","","","","<p><img src= images/blank.png width =""600"" height = ""600"" style=""position:fixed;top:50%; left:50%; transform: translate(-50%, -50%); border:5px solid black"">","","","","","","","",""
"","1563.6249999988358","sequential-stimulus-presentation-old","138","697726","0.0-29.0-1.4","SS1619739966649","trial","","40","500","2063.624999998836","images/stimuli/spore_stims/complex_11_A_a.gif","images/stimuli/spore_stims/complex_06_A_b.gif","self_paced","","10","complex_dissimilar","images/stimuli/spore_stims/complex_06_A_b.gif","","","","",""
"","null","html-keyboard-response","139","698829","0.0-29.0-0.5","SS1619739966649","","","null","","","","","","<p><img src= images/blank.png width =""600"" height = ""600"" style=""position:fixed;top:50%; left:50%; transform: translate(-50%, -50%); border:5px solid black"">","","","","","","","",""
"","1777.2399999994086","sequential-stimulus-presentation-old","140","701116","0.0-29.0-1.5","SS1619739966649","trial","","40","500","2277.2399999994086","images/stimuli/spore_stims/complex_11_A_a.gif","images/stimuli/spore_stims/complex_06_A_b.gif","self_paced","","10","complex_dissimilar","images/stimuli/spore_stims/complex_06_A_b.gif","","","","",""
"","3460.289999999106","survey-multi-choice","141","704580","0.0-30.0","SS1619739966649","math_question","","","","","","","","","","","","{""Q0"":""9""}","[0]","9","",""
"","null","html-keyboard-response","142","705397","0.0-31.0-0.0","SS1619739966649","","","null","","","","","","<p><img src= images/blank.png width =""600"" height = ""600"" style=""position:fixed;top:50%; left:50%; transform: translate(-50%, -50%); border:5px solid black"">","","","","","","","",""
"","2039.020000000135","sequential-stimulus-presentation-old","143","707947","0.0-31.0-1.0","SS1619739966649","trial","","40","500","2539.020000000135","images/stimuli/spore_stims/simple_15_A_a.gif","images/stimuli/spore_stims/simple_13_A_b.gif","forced_short","","11","simple_dissimilar","images/stimuli/spore_stims/simple_13_A_b.gif","","","","",""
"","null","html-keyboard-response","144","709124","0.0-31.0-0.1","SS1619739966649","","","null","","","","","","<p><img src= images/blank.png width =""600"" height = ""600"" style=""position:fixed;top:50%; left:50%; transform: translate(-50%, -50%); border:5px solid black"">","","","","","","","",""
"","5596.425000003306","sequential-stimulus-presentation-old","145","715230","0.0-31.0-1.1","SS1619739966649","trial","","40","500","6096.425000003306","images/stimuli/spore_stims/simple_15_A_a.gif","images/stimuli/spore_stims/simple_13_A_b.gif","forced_short","","11","simple_dissimilar","images/stimuli/spore_stims/simple_13_A_b.gif","","","","",""
"","null","html-keyboard-response","146","716187","0.0-31.0-0.2","SS1619739966649","","","null","","","","","","<p><img src= images/blank.png width =""600"" height = ""600"" style=""position:fixed;top:50%; left:50%; transform: translate(-50%, -50%); border:5px solid black"">","","","","","","","",""
"","4220.840000001714","sequential-stimulus-presentation-old","147","720921","0.0-31.0-1.2","SS1619739966649","trial","","40","500","4720.840000001714","images/stimuli/spore_stims/simple_15_A_a.gif","images/stimuli/spore_stims/simple_13_A_b.gif","forced_short","","11","simple_dissimilar","images/stimuli/spore_stims/simple_13_A_b.gif","","","","",""
"","null","html-keyboard-response","148","721797","0.0-31.0-0.3","SS1619739966649","","","null","","","","","","<p><img src= images/blank.png width =""600"" height = ""600"" style=""position:fixed;top:50%; left:50%; transform: translate(-50%, -50%); border:5px solid black"">","","","","","","","",""
"","3437.144999999902","sequential-stimulus-presentation-old","149","725749","0.0-31.0-1.3","SS1619739966649","trial","","40","500","3937.144999999902","images/stimuli/spore_stims/simple_15_A_a.gif","images/stimuli/spore_stims/simple_13_A_b.gif","forced_short","","11","simple_dissimilar","images/stimuli/spore_stims/simple_15_A_a.gif","","","","",""
"","null","html-keyboard-response","150","726779","0.0-31.0-0.4","SS1619739966649","","","null","","","","","","<p><img src= images/blank.png width =""600"" height = ""600"" style=""position:fixed;top:50%; left:50%; transform: translate(-50%, -50%); border:5px solid black"">","","","","","","","",""
"","2921.955000001588","sequential-stimulus-presentation-old","151","730228","0.0-31.0-1.4","SS1619739966649","trial","","40","500","3421.955000001588","images/stimuli/spore_stims/simple_15_A_a.gif","images/stimuli/spore_stims/simple_13_A_b.gif","forced_short","","11","simple_dissimilar","images/stimuli/spore_stims/simple_13_A_b.gif","","","","",""
"[{""page_index"":0,""viewing_time"":11728.5200000006}]","11728.940000000875","instructions","152","741970","0.0-32.0","SS1619739966649","instructions","","","","","","","","","","","","","","","",""
"","16439.52000000002","survey-likert","153","758417","0.0-33.0","SS1619739966649","similarity_question","","","","","","","","","","","","{""Q0"":4}","[0]","","images/stimuli/spore_stims/complex_01_A_a.gif","images/stimuli/spore_stims/complex_16_A_b.gif"
"","8385.385000001406","survey-likert","154","766813","0.0-34.0","SS1619739966649","similarity_question","","","","","","","","","","","","{""Q0"":4}","[0]","","images/stimuli/spore_stims/complex_08_A_a.gif","images/stimuli/spore_stims/complex_17_A_b.gif"
"","5018.660000001546","survey-likert","155","771838","0.0-35.0","SS1619739966649","similarity_question","","","","","","","","","","","","{""Q0"":5}","[0]","","images/stimuli/spore_stims/simple_03_A_a.gif","images/stimuli/spore_stims/simple_11_A_b.gif"
"","3338.985000002198","survey-likert","156","775182","0.0-36.0","SS1619739966649","similarity_question","","","","","","","","","","","","{""Q0"":5}","[0]","","images/stimuli/spore_stims/simple_07_A_b.gif","images/stimuli/spore_stims/simple_17_A_a.gif"
"","10175.020000002463","survey-likert","157","785364","0.0-37.0","SS1619739966649","similarity_question","","","","","","","","","","","","{""Q0"":3}","[0]","","images/stimuli/spore_stims/simple_09_A_b.gif","images/stimuli/spore_stims/simple_07_A_a.gif"
"","4612.875000002445","survey-likert","158","789983","0.0-38.0","SS1619739966649","similarity_question","","","","","","","","","","","","{""Q0"":1}","[0]","","images/stimuli/spore_stims/complex_14_A_b.gif","images/stimuli/spore_stims/complex_06_A_a.gif"
"","6753.615000001388","survey-likert","159","796742","0.0-39.0","SS1619739966649","similarity_question","","","","","","","","","","","","{""Q0"":4}","[0]","","images/stimuli/spore_stims/complex_15_A_a.gif","images/stimuli/spore_stims/complex_03_A_b.gif"
"","5865.314999999129","survey-likert","160","802616","0.0-40.0","SS1619739966649","similarity_question","","","","","","","","","","","","{""Q0"":3}","[0]","","images/stimuli/spore_stims/complex_11_A_a.gif","images/stimuli/spore_stims/complex_06_A_b.gif"
"","4237.850000001257","survey-likert","161","806860","0.0-41.0","SS1619739966649","similarity_question","","","","","","","","","","","","{""Q0"":4}","[0]","","images/stimuli/spore_stims/simple_14_A_b.gif","images/stimuli/spore_stims/simple_04_A_a.gif"
"","3954.2900000014342","survey-likert","162","810823","0.0-42.0","SS1619739966649","similarity_question","","","","","","","","","","","","{""Q0"":3}","[0]","","images/stimuli/spore_stims/simple_03_A_b.gif","images/stimuli/spore_stims/simple_11_A_a.gif"
"","7125.159999999567","survey-likert","163","817954","0.0-43.0","SS1619739966649","similarity_question","","","","","","","","","","","","{""Q0"":2}","[0]","","images/stimuli/spore_stims/complex_12_A_b.gif","images/stimuli/spore_stims/complex_13_A_a.gif"
"","6046.229999999981","survey-likert","164","824011","0.0-44.0","SS1619739966649","similarity_question","","","","","","","","","","","","{""Q0"":6}","[0]","","images/stimuli/spore_stims/simple_15_A_a.gif","images/stimuli/spore_stims/simple_13_A_b.gif"
"[{""page_index"":0,""viewing_time"":9240.569999998086}]","9240.87999999756","instructions","165","833256","0.0-45.0","SS1619739966649","instructions","","","","","","","","","","","","","","","",""
"","4303.585000001476","survey-likert","166","837566","0.0-46.0","SS1619739966649","","","","","","","","","images/stimuli/spore_stims/simple_07_A_b.gif","","","","{""Q0"":1}","[0]","","",""
"","2555.624999997206","survey-likert","167","840131","0.0-47.0","SS1619739966649","","","","","","","","","images/stimuli/spore_stims/simple_15_A_a.gif","","","","{""Q0"":1}","[0]","","",""
"","3349.000000001979","survey-likert","168","843489","0.0-48.0","SS1619739966649","","","","","","","","","images/stimuli/spore_stims/simple_03_A_a.gif","","","","{""Q0"":1}","[0]","","",""
"","3532.7350000006845","survey-likert","169","847031","0.0-49.0","SS1619739966649","","","","","","","","","images/stimuli/spore_stims/simple_09_A_b.gif","","","","{""Q0"":1}","[0]","","",""
"","6301.6099999987055","survey-likert","170","853342","0.0-50.0","SS1619739966649","","","","","","","","","images/stimuli/spore_stims/complex_01_A_a.gif","","","","{""Q0"":4}","[0]","","",""
"","4643.589999999735","survey-likert","171","857993","0.0-51.0","SS1619739966649","","","","","","","","","images/stimuli/spore_stims/simple_03_A_b.gif","","","","{""Q0"":1}","[0]","","",""
"","2618.739999998128","survey-likert","172","860618","0.0-52.0","SS1619739966649","","","","","","","","","images/stimuli/spore_stims/simple_14_A_b.gif","","","","{""Q0"":1}","[0]","","",""
"","5366.214999998221","survey-likert","173","865991","0.0-53.0","SS1619739966649","","","","","","","","","images/stimuli/spore_stims/complex_14_A_b.gif","","","","{""Q0"":4}","[0]","","",""
"","2948.4499999999534","survey-likert","174","868945","0.0-54.0","SS1619739966649","","","","","","","","","images/stimuli/spore_stims/complex_17_A_b.gif","","","","{""Q0"":5}","[0]","","",""
"","5452.054999997956","survey-likert","175","874403","0.0-55.0","SS1619739966649","","","","","","","","","images/stimuli/spore_stims/complex_03_A_b.gif","","","","{""Q0"":5}","[0]","","",""
"","3749.794999999809","survey-likert","176","878159","0.0-56.0","SS1619739966649","","","","","","","","","images/stimuli/spore_stims/complex_12_A_b.gif","","","","{""Q0"":5}","[0]","","",""
"","3522.7449999983655","survey-likert","177","881688","0.0-57.0","SS1619739966649","","","","","","","","","images/stimuli/spore_stims/complex_06_A_b.gif","","","","{""Q0"":5}","[0]","","",""
"[{""page_index"":0,""viewing_time"":2924.4299999992363}]","2924.7250000007916","instructions","178","884616","0.0-58.0","SS1619739966649","instructions","","","","","","","","","","","","","","","",""
"","4132.289999997709","demog-age","179","888756","0.0-59.0","SS1619739966649","","","","","","","","","","","","","{""age"":""19""}","","","",""
"","6425.550000000047","demog-ethnic-US","180","895194","0.0-60.0","SS1619739966649","","","","","","","","","","","","","{""ethnicity"":[""White""]}","[0]","","",""
"","22285.540000000736","demog-gender-and-education","181","917486","0.0-61.0","SS1619739966649","","","","","","","","","","","","","{""gender"":""Female"",""education"":""High school diploma""}","[0,1]","","",""
"","13081.444999999832","survey-text","182","930575","0.0-62.0","SS1619739966649","feedback","","","","","","","","","","","","{""Q0"":""no""}","","","",""
"[{""page_index"":0,""viewing_time"":1508.059999996447}]","1508.3999999987427","instructions","183","932089","0.0-63.0","SS1619739966649","instructions","","","","","","","","","","","","","","","",""
