"view_history","rt","trial_type","trial_index","time_elapsed","internal_node_id","subject","stimulus_type","trial_stimulus","key_press","minimum_viewing_duration","trial_looking_time","block_deviant","block_background","exposure_type","stimulus","block_number","block_type","stimulus_displayed","responses","question_order","math_correct_answer","stimulus_left","stimulus_right"
"[{""page_index"":0,""viewing_time"":2056.54499999946}]","2056.909999984782","instructions","0","2058","0.0-0.0","SS1619739512117","","","","","","","","","","","","","","","","",""
"[{""page_index"":0,""viewing_time"":4510.125000029802},{""page_index"":1,""viewing_time"":3659.0500000165775}]","8169.415000011213","instructions","1","12233","0.0-1.0","SS1619739512117","instructions","","","","","","","","","","","","","","","",""
"","4550.58999999892","sequential-stimulus-presentation-old","2","17289","0.0-2.0","SS1619739512117","","","40","500","5050.58999999892","null","null","self_paced","","","","","","","","",""
"","3714.834999991581","sequential-stimulus-presentation-old","3","21506","0.0-3.0","SS1619739512117","","","40","500","4214.834999991581","null","null","self_paced","","","","","","","","",""
"[{""page_index"":0,""viewing_time"":13011.529999959748}]","13011.749999946915","instructions","4","34519","0.0-4.0","SS1619739512117","instructions","","","","","","","","","","","","","","","",""
"","734.5649999915622","sequential-stimulus-presentation-old","5","50260","0.0-5.0","SS1619739512117","","","40","500","1234.5649999915622","null","null","forced_long","","","","","","","","",""
"","459.87999998033047","sequential-stimulus-presentation-old","6","51223","0.0-6.0","SS1619739512117","","","40","500","959.8799999803305","null","null","forced_long","","","","","","","","",""
"[{""page_index"":0,""viewing_time"":2039.6700000273995}]","2039.8500000010245","instructions","7","53264","0.0-7.0","SS1619739512117","instructions","","","","","","","","","","","","","","","",""
"[{""page_index"":0,""viewing_time"":1623.314999975264},{""page_index"":1,""viewing_time"":3877.589999989141},{""page_index"":2,""viewing_time"":1526.2600000132807},{""page_index"":3,""viewing_time"":1406.1550000333227},{""page_index"":4,""viewing_time"":1114.2499999841675}]","9547.789999982342","instructions","8","62813","0.0-8.0","SS1619739512117","instructions","","","","","","","","","","","","","","","",""
"","null","html-keyboard-response","9","64070","0.0-9.0-0.0","SS1619739512117","","","null","","","","","","<p><img src= images/blank.png width =""600"" height = ""600"" style=""position:fixed;top:50%; left:50%; transform: translate(-50%, -50%); border:5px solid black"">","","","","","","","",""
"","549.9050000216812","sequential-stimulus-presentation-old","10","65124","0.0-9.0-1.0","SS1619739512117","trial","","40","500","1049.9050000216812","images/stimuli/spore_stims/simple_06_A_a.gif","images/stimuli/spore_stims/simple_02_A_b.gif","forced_short","","0","simple_dissimilar","images/stimuli/spore_stims/simple_02_A_b.gif","","","","",""
"","null","html-keyboard-response","11","66378","0.0-9.0-0.1","SS1619739512117","","","null","","","","","","<p><img src= images/blank.png width =""600"" height = ""600"" style=""position:fixed;top:50%; left:50%; transform: translate(-50%, -50%); border:5px solid black"">","","","","","","","",""
"","679.6299999696203","sequential-stimulus-presentation-old","12","67561","0.0-9.0-1.1","SS1619739512117","trial","","40","500","1179.6299999696203","images/stimuli/spore_stims/simple_06_A_a.gif","images/stimuli/spore_stims/simple_02_A_b.gif","forced_short","","0","simple_dissimilar","images/stimuli/spore_stims/simple_06_A_a.gif","","","","",""
"","null","html-keyboard-response","13","68857","0.0-9.0-0.2","SS1619739512117","","","null","","","","","","<p><img src= images/blank.png width =""600"" height = ""600"" style=""position:fixed;top:50%; left:50%; transform: translate(-50%, -50%); border:5px solid black"">","","","","","","","",""
"","2336.4050000091083","sequential-stimulus-presentation-old","14","71696","0.0-9.0-1.2","SS1619739512117","trial","","40","500","2836.4050000091083","images/stimuli/spore_stims/simple_06_A_a.gif","images/stimuli/spore_stims/simple_02_A_b.gif","forced_short","","0","simple_dissimilar","images/stimuli/spore_stims/simple_02_A_b.gif","","","","",""
"","null","html-keyboard-response","15","72904","0.0-9.0-0.3","SS1619739512117","","","null","","","","","","<p><img src= images/blank.png width =""600"" height = ""600"" style=""position:fixed;top:50%; left:50%; transform: translate(-50%, -50%); border:5px solid black"">","","","","","","","",""
"","1202.40000000922","sequential-stimulus-presentation-old","16","74611","0.0-9.0-1.3","SS1619739512117","trial","","40","500","1702.40000000922","images/stimuli/spore_stims/simple_06_A_a.gif","images/stimuli/spore_stims/simple_02_A_b.gif","forced_short","","0","simple_dissimilar","images/stimuli/spore_stims/simple_02_A_b.gif","","","","",""
"","2495.6200000015087","survey-multi-choice","17","77109","0.0-10.0","SS1619739512117","math_question","","","","","","","","","","","","{""Q0"":""5""}","[0]","5","",""
"","null","html-keyboard-response","18","78177","0.0-11.0-0.0","SS1619739512117","","","null","","","","","","<p><img src= images/blank.png width =""600"" height = ""600"" style=""position:fixed;top:50%; left:50%; transform: translate(-50%, -50%); border:5px solid black"">","","","","","","","",""
"","200.19000000320375","sequential-stimulus-presentation-old","19","78882","0.0-11.0-1.0","SS1619739512117","trial","","40","500","700.1900000032037","images/stimuli/spore_stims/complex_10_A_a.gif","images/stimuli/spore_stims/complex_20_A_b.gif","forced_short","","1","complex_dissimilar","images/stimuli/spore_stims/complex_20_A_b.gif","","","","",""
"","null","html-keyboard-response","20","79808","0.0-11.0-0.1","SS1619739512117","","","null","","","","","","<p><img src= images/blank.png width =""600"" height = ""600"" style=""position:fixed;top:50%; left:50%; transform: translate(-50%, -50%); border:5px solid black"">","","","","","","","",""
"","908.1000000005588","sequential-stimulus-presentation-old","21","81222","0.0-11.0-1.1","SS1619739512117","trial","","40","500","1408.1000000005588","images/stimuli/spore_stims/complex_10_A_a.gif","images/stimuli/spore_stims/complex_20_A_b.gif","forced_short","","1","complex_dissimilar","images/stimuli/spore_stims/complex_10_A_a.gif","","","","",""
"","null","html-keyboard-response","22","82342","0.0-11.0-0.2","SS1619739512117","","","null","","","","","","<p><img src= images/blank.png width =""600"" height = ""600"" style=""position:fixed;top:50%; left:50%; transform: translate(-50%, -50%); border:5px solid black"">","","","","","","","",""
"","11.279999976977706","sequential-stimulus-presentation-old","23","82857","0.0-11.0-1.2","SS1619739512117","trial","","40","500","511.2799999769777","images/stimuli/spore_stims/complex_10_A_a.gif","images/stimuli/spore_stims/complex_20_A_b.gif","forced_short","","1","complex_dissimilar","images/stimuli/spore_stims/complex_20_A_b.gif","","","","",""
"","null","html-keyboard-response","24","84008","0.0-11.0-0.3","SS1619739512117","","","null","","","","","","<p><img src= images/blank.png width =""600"" height = ""600"" style=""position:fixed;top:50%; left:50%; transform: translate(-50%, -50%); border:5px solid black"">","","","","","","","",""
"","708.4649999742396","sequential-stimulus-presentation-old","25","85219","0.0-11.0-1.3","SS1619739512117","trial","","40","500","1208.4649999742396","images/stimuli/spore_stims/complex_10_A_a.gif","images/stimuli/spore_stims/complex_20_A_b.gif","forced_short","","1","complex_dissimilar","images/stimuli/spore_stims/complex_20_A_b.gif","","","","",""
"","null","html-keyboard-response","26","86061","0.0-11.0-0.4","SS1619739512117","","","null","","","","","","<p><img src= images/blank.png width =""600"" height = ""600"" style=""position:fixed;top:50%; left:50%; transform: translate(-50%, -50%); border:5px solid black"">","","","","","","","",""
"","101.3950000051409","sequential-stimulus-presentation-old","27","86670","0.0-11.0-1.4","SS1619739512117","trial","","40","500","601.3950000051409","images/stimuli/spore_stims/complex_10_A_a.gif","images/stimuli/spore_stims/complex_20_A_b.gif","forced_short","","1","complex_dissimilar","images/stimuli/spore_stims/complex_20_A_b.gif","","","","",""
"","2228.9500000188127","survey-multi-choice","28","88900","0.0-12.0","SS1619739512117","math_question","","","","","","","","","","","","{""Q0"":""4""}","[0]","4","",""
"","null","html-keyboard-response","29","90143","0.0-13.0-0.0","SS1619739512117","","","null","","","","","","<p><img src= images/blank.png width =""600"" height = ""600"" style=""position:fixed;top:50%; left:50%; transform: translate(-50%, -50%); border:5px solid black"">","","","","","","","",""
"","348.9899999694899","sequential-stimulus-presentation-old","30","105496","0.0-13.0-1.0","SS1619739512117","trial","","40","500","848.9899999694899","images/stimuli/spore_stims/complex_01_A_b.gif","images/stimuli/spore_stims/complex_04_A_a.gif","forced_long","","2","complex_dissimilar","images/stimuli/spore_stims/complex_04_A_a.gif","","","","",""
"","null","html-keyboard-response","31","106589","0.0-13.0-0.1","SS1619739512117","","","null","","","","","","<p><img src= images/blank.png width =""600"" height = ""600"" style=""position:fixed;top:50%; left:50%; transform: translate(-50%, -50%); border:5px solid black"">","","","","","","","",""
"","376.64499995298684","sequential-stimulus-presentation-old","32","107476","0.0-13.0-1.1","SS1619739512117","trial","","40","500","876.6449999529868","images/stimuli/spore_stims/complex_01_A_b.gif","images/stimuli/spore_stims/complex_04_A_a.gif","forced_long","","2","complex_dissimilar","images/stimuli/spore_stims/complex_04_A_a.gif","","","","",""
"","null","html-keyboard-response","33","108640","0.0-13.0-0.2","SS1619739512117","","","null","","","","","","<p><img src= images/blank.png width =""600"" height = ""600"" style=""position:fixed;top:50%; left:50%; transform: translate(-50%, -50%); border:5px solid black"">","","","","","","","",""
"","558.7350000278093","sequential-stimulus-presentation-old","34","109704","0.0-13.0-1.2","SS1619739512117","trial","","40","500","1058.7350000278093","images/stimuli/spore_stims/complex_01_A_b.gif","images/stimuli/spore_stims/complex_04_A_a.gif","forced_long","","2","complex_dissimilar","images/stimuli/spore_stims/complex_04_A_a.gif","","","","",""
"","null","html-keyboard-response","35","110610","0.0-13.0-0.3","SS1619739512117","","","null","","","","","","<p><img src= images/blank.png width =""600"" height = ""600"" style=""position:fixed;top:50%; left:50%; transform: translate(-50%, -50%); border:5px solid black"">","","","","","","","",""
"","5322.864999994636","sequential-stimulus-presentation-old","36","116439","0.0-13.0-1.3","SS1619739512117","trial","","40","500","5822.864999994636","images/stimuli/spore_stims/complex_01_A_b.gif","images/stimuli/spore_stims/complex_04_A_a.gif","forced_long","","2","complex_dissimilar","images/stimuli/spore_stims/complex_01_A_b.gif","","","","",""
"","2178.765000018757","survey-multi-choice","37","118620","0.0-14.0","SS1619739512117","math_question","","","","","","","","","","","","{""Q0"":""7""}","[0]","7","",""
"","null","html-keyboard-response","38","119897","0.0-15.0-0.0","SS1619739512117","","","null","","","","","","<p><img src= images/blank.png width =""600"" height = ""600"" style=""position:fixed;top:50%; left:50%; transform: translate(-50%, -50%); border:5px solid black"">","","","","","","","",""
"","5139.384999987669","sequential-stimulus-presentation-old","39","140041","0.0-15.0-1.0","SS1619739512117","trial","","40","500","5639.384999987669","images/stimuli/spore_stims/simple_13_A_a.gif","images/stimuli/spore_stims/simple_10_A_b.gif","forced_long","","3","simple_dissimilar","images/stimuli/spore_stims/simple_10_A_b.gif","","","","",""
"","null","html-keyboard-response","40","141044","0.0-15.0-0.1","SS1619739512117","","","null","","","","","","<p><img src= images/blank.png width =""600"" height = ""600"" style=""position:fixed;top:50%; left:50%; transform: translate(-50%, -50%); border:5px solid black"">","","","","","","","",""
"","558.3500000066124","sequential-stimulus-presentation-old","41","142105","0.0-15.0-1.1","SS1619739512117","trial","","40","500","1058.3500000066124","images/stimuli/spore_stims/simple_13_A_a.gif","images/stimuli/spore_stims/simple_10_A_b.gif","forced_long","","3","simple_dissimilar","images/stimuli/spore_stims/simple_10_A_b.gif","","","","",""
"","null","html-keyboard-response","42","143342","0.0-15.0-0.2","SS1619739512117","","","null","","","","","","<p><img src= images/blank.png width =""600"" height = ""600"" style=""position:fixed;top:50%; left:50%; transform: translate(-50%, -50%); border:5px solid black"">","","","","","","","",""
"","309.63999999221414","sequential-stimulus-presentation-old","43","144155","0.0-15.0-1.2","SS1619739512117","trial","","40","500","809.6399999922141","images/stimuli/spore_stims/simple_13_A_a.gif","images/stimuli/spore_stims/simple_10_A_b.gif","forced_long","","3","simple_dissimilar","images/stimuli/spore_stims/simple_10_A_b.gif","","","","",""
"","null","html-keyboard-response","44","144996","0.0-15.0-0.3","SS1619739512117","","","null","","","","","","<p><img src= images/blank.png width =""600"" height = ""600"" style=""position:fixed;top:50%; left:50%; transform: translate(-50%, -50%); border:5px solid black"">","","","","","","","",""
"","2382.1849999949336","sequential-stimulus-presentation-old","45","147882","0.0-15.0-1.3","SS1619739512117","trial","","40","500","2882.1849999949336","images/stimuli/spore_stims/simple_13_A_a.gif","images/stimuli/spore_stims/simple_10_A_b.gif","forced_long","","3","simple_dissimilar","images/stimuli/spore_stims/simple_13_A_a.gif","","","","",""
"","null","html-keyboard-response","46","148908","0.0-15.0-0.4","SS1619739512117","","","null","","","","","","<p><img src= images/blank.png width =""600"" height = ""600"" style=""position:fixed;top:50%; left:50%; transform: translate(-50%, -50%); border:5px solid black"">","","","","","","","",""
"","107.3949999990873","sequential-stimulus-presentation-old","47","149520","0.0-15.0-1.4","SS1619739512117","trial","","40","500","607.3949999990873","images/stimuli/spore_stims/simple_13_A_a.gif","images/stimuli/spore_stims/simple_10_A_b.gif","forced_long","","3","simple_dissimilar","images/stimuli/spore_stims/simple_13_A_a.gif","","","","",""
"","null","html-keyboard-response","48","150460","0.0-15.0-0.5","SS1619739512117","","","null","","","","","","<p><img src= images/blank.png width =""600"" height = ""600"" style=""position:fixed;top:50%; left:50%; transform: translate(-50%, -50%); border:5px solid black"">","","","","","","","",""
"","1448.8600000040606","sequential-stimulus-presentation-old","49","152411","0.0-15.0-1.5","SS1619739512117","trial","","40","500","1948.8600000040606","images/stimuli/spore_stims/simple_13_A_a.gif","images/stimuli/spore_stims/simple_10_A_b.gif","forced_long","","3","simple_dissimilar","images/stimuli/spore_stims/simple_10_A_b.gif","","","","",""
"","2658.4600000060163","survey-multi-choice","50","155071","0.0-16.0","SS1619739512117","math_question","","","","","","","","","","","","{""Q0"":""12""}","[0]","12","",""
"","null","html-keyboard-response","51","156288","0.0-17.0-0.0","SS1619739512117","","","null","","","","","","<p><img src= images/blank.png width =""600"" height = ""600"" style=""position:fixed;top:50%; left:50%; transform: translate(-50%, -50%); border:5px solid black"">","","","","","","","",""
"","617.1399999875575","sequential-stimulus-presentation-old","52","171908","0.0-17.0-1.0","SS1619739512117","trial","","40","500","1117.1399999875575","images/stimuli/spore_stims/complex_14_A_a.gif","images/stimuli/spore_stims/complex_10_A_b.gif","forced_long","","4","complex_dissimilar","images/stimuli/spore_stims/complex_10_A_b.gif","","","","",""
"","null","html-keyboard-response","53","173123","0.0-17.0-0.1","SS1619739512117","","","null","","","","","","<p><img src= images/blank.png width =""600"" height = ""600"" style=""position:fixed;top:50%; left:50%; transform: translate(-50%, -50%); border:5px solid black"">","","","","","","","",""
"","594.184999994468","sequential-stimulus-presentation-old","54","174220","0.0-17.0-1.1","SS1619739512117","trial","","40","500","1094.184999994468","images/stimuli/spore_stims/complex_14_A_a.gif","images/stimuli/spore_stims/complex_10_A_b.gif","forced_long","","4","complex_dissimilar","images/stimuli/spore_stims/complex_10_A_b.gif","","","","",""
"","null","html-keyboard-response","55","175480","0.0-17.0-0.2","SS1619739512117","","","null","","","","","","<p><img src= images/blank.png width =""600"" height = ""600"" style=""position:fixed;top:50%; left:50%; transform: translate(-50%, -50%); border:5px solid black"">","","","","","","","",""
"","525.1949999947101","sequential-stimulus-presentation-old","56","176508","0.0-17.0-1.2","SS1619739512117","trial","","40","500","1025.19499999471","images/stimuli/spore_stims/complex_14_A_a.gif","images/stimuli/spore_stims/complex_10_A_b.gif","forced_long","","4","complex_dissimilar","images/stimuli/spore_stims/complex_10_A_b.gif","","","","",""
"","null","html-keyboard-response","57","177703","0.0-17.0-0.3","SS1619739512117","","","null","","","","","","<p><img src= images/blank.png width =""600"" height = ""600"" style=""position:fixed;top:50%; left:50%; transform: translate(-50%, -50%); border:5px solid black"">","","","","","","","",""
"","695.8849999937229","sequential-stimulus-presentation-old","58","178903","0.0-17.0-1.3","SS1619739512117","trial","","40","500","1195.8849999937229","images/stimuli/spore_stims/complex_14_A_a.gif","images/stimuli/spore_stims/complex_10_A_b.gif","forced_long","","4","complex_dissimilar","images/stimuli/spore_stims/complex_10_A_b.gif","","","","",""
"","null","html-keyboard-response","59","180064","0.0-17.0-0.4","SS1619739512117","","","null","","","","","","<p><img src= images/blank.png width =""600"" height = ""600"" style=""position:fixed;top:50%; left:50%; transform: translate(-50%, -50%); border:5px solid black"">","","","","","","","",""
"","12830.57499997085","sequential-stimulus-presentation-old","60","193399","0.0-17.0-1.4","SS1619739512117","trial","","40","500","13330.57499997085","images/stimuli/spore_stims/complex_14_A_a.gif","images/stimuli/spore_stims/complex_10_A_b.gif","forced_long","","4","complex_dissimilar","images/stimuli/spore_stims/complex_14_A_a.gif","","","","",""
"","2394.404999969993","survey-multi-choice","61","195797","0.0-18.0","SS1619739512117","math_question","","","","","","","","","","","","{""Q0"":""10""}","[0]","10","",""
"","null","html-keyboard-response","62","196861","0.0-19.0-0.0","SS1619739512117","","","null","","","","","","<p><img src= images/blank.png width =""600"" height = ""600"" style=""position:fixed;top:50%; left:50%; transform: translate(-50%, -50%); border:5px solid black"">","","","","","","","",""
"","434.3250000383705","sequential-stimulus-presentation-old","63","197800","0.0-19.0-1.0","SS1619739512117","trial","","40","500","934.3250000383705","images/stimuli/spore_stims/simple_01_A_b.gif","images/stimuli/spore_stims/simple_16_A_a.gif","self_paced","","5","simple_dissimilar","images/stimuli/spore_stims/simple_16_A_a.gif","","","","",""
"","null","html-keyboard-response","64","198623","0.0-19.0-0.1","SS1619739512117","","","null","","","","","","<p><img src= images/blank.png width =""600"" height = ""600"" style=""position:fixed;top:50%; left:50%; transform: translate(-50%, -50%); border:5px solid black"">","","","","","","","",""
"","1482.350000005681","sequential-stimulus-presentation-old","65","200610","0.0-19.0-1.1","SS1619739512117","trial","","40","500","1982.350000005681","images/stimuli/spore_stims/simple_01_A_b.gif","images/stimuli/spore_stims/simple_16_A_a.gif","self_paced","","5","simple_dissimilar","images/stimuli/spore_stims/simple_01_A_b.gif","","","","",""
"","null","html-keyboard-response","66","201653","0.0-19.0-0.2","SS1619739512117","","","null","","","","","","<p><img src= images/blank.png width =""600"" height = ""600"" style=""position:fixed;top:50%; left:50%; transform: translate(-50%, -50%); border:5px solid black"">","","","","","","","",""
"","479.51999999349937","sequential-stimulus-presentation-old","67","202636","0.0-19.0-1.2","SS1619739512117","trial","","40","500","979.5199999934994","images/stimuli/spore_stims/simple_01_A_b.gif","images/stimuli/spore_stims/simple_16_A_a.gif","self_paced","","5","simple_dissimilar","images/stimuli/spore_stims/simple_16_A_a.gif","","","","",""
"","null","html-keyboard-response","68","203609","0.0-19.0-0.3","SS1619739512117","","","null","","","","","","<p><img src= images/blank.png width =""600"" height = ""600"" style=""position:fixed;top:50%; left:50%; transform: translate(-50%, -50%); border:5px solid black"">","","","","","","","",""
"","1297.7950000204146","sequential-stimulus-presentation-old","69","205411","0.0-19.0-1.3","SS1619739512117","trial","","40","500","1797.7950000204146","images/stimuli/spore_stims/simple_01_A_b.gif","images/stimuli/spore_stims/simple_16_A_a.gif","self_paced","","5","simple_dissimilar","images/stimuli/spore_stims/simple_16_A_a.gif","","","","",""
"","null","html-keyboard-response","70","206296","0.0-19.0-0.4","SS1619739512117","","","null","","","","","","<p><img src= images/blank.png width =""600"" height = ""600"" style=""position:fixed;top:50%; left:50%; transform: translate(-50%, -50%); border:5px solid black"">","","","","","","","",""
"","479.3649999774061","sequential-stimulus-presentation-old","71","207282","0.0-19.0-1.4","SS1619739512117","trial","","40","500","979.3649999774061","images/stimuli/spore_stims/simple_01_A_b.gif","images/stimuli/spore_stims/simple_16_A_a.gif","self_paced","","5","simple_dissimilar","images/stimuli/spore_stims/simple_01_A_b.gif","","","","",""
"","2786.6000000503846","survey-multi-choice","72","210070","0.0-20.0","SS1619739512117","math_question","","","","","","","","","","","","{""Q0"":""7""}","[0]","7","",""
"","null","html-keyboard-response","73","211265","0.0-21.0-0.0","SS1619739512117","","","null","","","","","","<p><img src= images/blank.png width =""600"" height = ""600"" style=""position:fixed;top:50%; left:50%; transform: translate(-50%, -50%); border:5px solid black"">","","","","","","","",""
"","95.88999999687076","sequential-stimulus-presentation-old","74","211866","0.0-21.0-1.0","SS1619739512117","trial","","40","500","595.8899999968708","images/stimuli/spore_stims/complex_15_A_b.gif","images/stimuli/spore_stims/complex_09_A_a.gif","forced_short","","6","complex_dissimilar","images/stimuli/spore_stims/complex_09_A_a.gif","","","","",""
"","null","html-keyboard-response","75","212678","0.0-21.0-0.1","SS1619739512117","","","null","","","","","","<p><img src= images/blank.png width =""600"" height = ""600"" style=""position:fixed;top:50%; left:50%; transform: translate(-50%, -50%); border:5px solid black"">","","","","","","","",""
"","707.5499999918975","sequential-stimulus-presentation-old","76","213888","0.0-21.0-1.1","SS1619739512117","trial","","40","500","1207.5499999918975","images/stimuli/spore_stims/complex_15_A_b.gif","images/stimuli/spore_stims/complex_09_A_a.gif","forced_short","","6","complex_dissimilar","images/stimuli/spore_stims/complex_09_A_a.gif","","","","",""
"","null","html-keyboard-response","77","214801","0.0-21.0-0.2","SS1619739512117","","","null","","","","","","<p><img src= images/blank.png width =""600"" height = ""600"" style=""position:fixed;top:50%; left:50%; transform: translate(-50%, -50%); border:5px solid black"">","","","","","","","",""
"","474.8099999851547","sequential-stimulus-presentation-old","78","215781","0.0-21.0-1.2","SS1619739512117","trial","","40","500","974.8099999851547","images/stimuli/spore_stims/complex_15_A_b.gif","images/stimuli/spore_stims/complex_09_A_a.gif","forced_short","","6","complex_dissimilar","images/stimuli/spore_stims/complex_09_A_a.gif","","","","",""
"","null","html-keyboard-response","79","217027","0.0-21.0-0.3","SS1619739512117","","","null","","","","","","<p><img src= images/blank.png width =""600"" height = ""600"" style=""position:fixed;top:50%; left:50%; transform: translate(-50%, -50%); border:5px solid black"">","","","","","","","",""
"","5529.660000000149","sequential-stimulus-presentation-old","80","223060","0.0-21.0-1.3","SS1619739512117","trial","","40","500","6029.660000000149","images/stimuli/spore_stims/complex_15_A_b.gif","images/stimuli/spore_stims/complex_09_A_a.gif","forced_short","","6","complex_dissimilar","images/stimuli/spore_stims/complex_15_A_b.gif","","","","",""
"","1971.285000036005","survey-multi-choice","81","225033","0.0-22.0","SS1619739512117","math_question","","","","","","","","","","","","{""Q0"":""6""}","[0]","6","",""
"","null","html-keyboard-response","82","226291","0.0-23.0-0.0","SS1619739512117","","","null","","","","","","<p><img src= images/blank.png width =""600"" height = ""600"" style=""position:fixed;top:50%; left:50%; transform: translate(-50%, -50%); border:5px solid black"">","","","","","","","",""
"","794.3749999976717","sequential-stimulus-presentation-old","83","227589","0.0-23.0-1.0","SS1619739512117","trial","","40","500","1294.3749999976717","images/stimuli/spore_stims/complex_15_A_a.gif","images/stimuli/spore_stims/complex_07_A_b.gif","self_paced","","7","complex_dissimilar","images/stimuli/spore_stims/complex_07_A_b.gif","","","","",""
"","null","html-keyboard-response","84","228443","0.0-23.0-0.1","SS1619739512117","","","null","","","","","","<p><img src= images/blank.png width =""600"" height = ""600"" style=""position:fixed;top:50%; left:50%; transform: translate(-50%, -50%); border:5px solid black"">","","","","","","","",""
"","758.6049999808893","sequential-stimulus-presentation-old","85","229706","0.0-23.0-1.1","SS1619739512117","trial","","40","500","1258.6049999808893","images/stimuli/spore_stims/complex_15_A_a.gif","images/stimuli/spore_stims/complex_07_A_b.gif","self_paced","","7","complex_dissimilar","images/stimuli/spore_stims/complex_07_A_b.gif","","","","",""
"","null","html-keyboard-response","86","230989","0.0-23.0-0.2","SS1619739512117","","","null","","","","","","<p><img src= images/blank.png width =""600"" height = ""600"" style=""position:fixed;top:50%; left:50%; transform: translate(-50%, -50%); border:5px solid black"">","","","","","","","",""
"","930.6399999768473","sequential-stimulus-presentation-old","87","232425","0.0-23.0-1.2","SS1619739512117","trial","","40","500","1430.6399999768473","images/stimuli/spore_stims/complex_15_A_a.gif","images/stimuli/spore_stims/complex_07_A_b.gif","self_paced","","7","complex_dissimilar","images/stimuli/spore_stims/complex_15_A_a.gif","","","","",""
"","null","html-keyboard-response","88","233432","0.0-23.0-0.3","SS1619739512117","","","null","","","","","","<p><img src= images/blank.png width =""600"" height = ""600"" style=""position:fixed;top:50%; left:50%; transform: translate(-50%, -50%); border:5px solid black"">","","","","","","","",""
"","35.284999990835786","sequential-stimulus-presentation-old","89","233972","0.0-23.0-1.3","SS1619739512117","trial","","40","500","535.2849999908358","images/stimuli/spore_stims/complex_15_A_a.gif","images/stimuli/spore_stims/complex_07_A_b.gif","self_paced","","7","complex_dissimilar","images/stimuli/spore_stims/complex_07_A_b.gif","","","","",""
"","null","html-keyboard-response","90","235191","0.0-23.0-0.4","SS1619739512117","","","null","","","","","","<p><img src= images/blank.png width =""600"" height = ""600"" style=""position:fixed;top:50%; left:50%; transform: translate(-50%, -50%); border:5px solid black"">","","","","","","","",""
"","290.70499999215826","sequential-stimulus-presentation-old","91","235989","0.0-23.0-1.4","SS1619739512117","trial","","40","500","790.7049999921583","images/stimuli/spore_stims/complex_15_A_a.gif","images/stimuli/spore_stims/complex_07_A_b.gif","self_paced","","7","complex_dissimilar","images/stimuli/spore_stims/complex_07_A_b.gif","","","","",""
"","null","html-keyboard-response","92","237078","0.0-23.0-0.5","SS1619739512117","","","null","","","","","","<p><img src= images/blank.png width =""600"" height = ""600"" style=""position:fixed;top:50%; left:50%; transform: translate(-50%, -50%); border:5px solid black"">","","","","","","","",""
"","370.8950000000186","sequential-stimulus-presentation-old","93","237954","0.0-23.0-1.5","SS1619739512117","trial","","40","500","870.8950000000186","images/stimuli/spore_stims/complex_15_A_a.gif","images/stimuli/spore_stims/complex_07_A_b.gif","self_paced","","7","complex_dissimilar","images/stimuli/spore_stims/complex_15_A_a.gif","","","","",""
"","4186.95000000298","survey-multi-choice","94","242143","0.0-24.0","SS1619739512117","math_question","","","","","","","","","","","","{""Q0"":""15""}","[0]","15","",""
"","null","html-keyboard-response","95","242949","0.0-25.0-0.0","SS1619739512117","","","null","","","","","","<p><img src= images/blank.png width =""600"" height = ""600"" style=""position:fixed;top:50%; left:50%; transform: translate(-50%, -50%); border:5px solid black"">","","","","","","","",""
"","499.71000000368804","sequential-stimulus-presentation-old","96","243952","0.0-25.0-1.0","SS1619739512117","trial","","40","500","999.710000003688","images/stimuli/spore_stims/simple_11_A_a.gif","images/stimuli/spore_stims/simple_03_A_b.gif","forced_short","","8","simple_dissimilar","images/stimuli/spore_stims/simple_03_A_b.gif","","","","",""
"","null","html-keyboard-response","97","244917","0.0-25.0-0.1","SS1619739512117","","","null","","","","","","<p><img src= images/blank.png width =""600"" height = ""600"" style=""position:fixed;top:50%; left:50%; transform: translate(-50%, -50%); border:5px solid black"">","","","","","","","",""
"","373.3850000426173","sequential-stimulus-presentation-old","98","245796","0.0-25.0-1.1","SS1619739512117","trial","","40","500","873.3850000426173","images/stimuli/spore_stims/simple_11_A_a.gif","images/stimuli/spore_stims/simple_03_A_b.gif","forced_short","","8","simple_dissimilar","images/stimuli/spore_stims/simple_03_A_b.gif","","","","",""
"","null","html-keyboard-response","99","246955","0.0-25.0-0.2","SS1619739512117","","","null","","","","","","<p><img src= images/blank.png width =""600"" height = ""600"" style=""position:fixed;top:50%; left:50%; transform: translate(-50%, -50%); border:5px solid black"">","","","","","","","",""
"","1675.48999999417","sequential-stimulus-presentation-old","100","249134","0.0-25.0-1.2","SS1619739512117","trial","","40","500","2175.48999999417","images/stimuli/spore_stims/simple_11_A_a.gif","images/stimuli/spore_stims/simple_03_A_b.gif","forced_short","","8","simple_dissimilar","images/stimuli/spore_stims/simple_03_A_b.gif","","","","",""
"","null","html-keyboard-response","101","250247","0.0-25.0-0.3","SS1619739512117","","","null","","","","","","<p><img src= images/blank.png width =""600"" height = ""600"" style=""position:fixed;top:50%; left:50%; transform: translate(-50%, -50%); border:5px solid black"">","","","","","","","",""
"","363.42499998863786","sequential-stimulus-presentation-old","102","251114","0.0-25.0-1.3","SS1619739512117","trial","","40","500","863.4249999886379","images/stimuli/spore_stims/simple_11_A_a.gif","images/stimuli/spore_stims/simple_03_A_b.gif","forced_short","","8","simple_dissimilar","images/stimuli/spore_stims/simple_11_A_a.gif","","","","",""
"","null","html-keyboard-response","103","252262","0.0-25.0-0.4","SS1619739512117","","","null","","","","","","<p><img src= images/blank.png width =""600"" height = ""600"" style=""position:fixed;top:50%; left:50%; transform: translate(-50%, -50%); border:5px solid black"">","","","","","","","",""
"","174.3249999708496","sequential-stimulus-presentation-old","104","252945","0.0-25.0-1.4","SS1619739512117","trial","","40","500","674.3249999708496","images/stimuli/spore_stims/simple_11_A_a.gif","images/stimuli/spore_stims/simple_03_A_b.gif","forced_short","","8","simple_dissimilar","images/stimuli/spore_stims/simple_11_A_a.gif","","","","",""
"","2472.8699999977835","survey-multi-choice","105","255420","0.0-26.0","SS1619739512117","math_question","","","","","","","","","","","","{""Q0"":""12""}","[0]","12","",""
"","null","html-keyboard-response","106","256429","0.0-27.0-0.0","SS1619739512117","","","null","","","","","","<p><img src= images/blank.png width =""600"" height = ""600"" style=""position:fixed;top:50%; left:50%; transform: translate(-50%, -50%); border:5px solid black"">","","","","","","","",""
"","790.404999977909","sequential-stimulus-presentation-old","107","257724","0.0-27.0-1.0","SS1619739512117","trial","","40","500","1290.404999977909","images/stimuli/spore_stims/simple_20_A_a.gif","images/stimuli/spore_stims/simple_16_A_b.gif","self_paced","","9","simple_dissimilar","images/stimuli/spore_stims/simple_16_A_b.gif","","","","",""
"","null","html-keyboard-response","108","258971","0.0-27.0-0.1","SS1619739512117","","","null","","","","","","<p><img src= images/blank.png width =""600"" height = ""600"" style=""position:fixed;top:50%; left:50%; transform: translate(-50%, -50%); border:5px solid black"">","","","","","","","",""
"","623.9849999547005","sequential-stimulus-presentation-old","109","260100","0.0-27.0-1.1","SS1619739512117","trial","","40","500","1123.9849999547005","images/stimuli/spore_stims/simple_20_A_a.gif","images/stimuli/spore_stims/simple_16_A_b.gif","self_paced","","9","simple_dissimilar","images/stimuli/spore_stims/simple_16_A_b.gif","","","","",""
"","null","html-keyboard-response","110","261081","0.0-27.0-0.2","SS1619739512117","","","null","","","","","","<p><img src= images/blank.png width =""600"" height = ""600"" style=""position:fixed;top:50%; left:50%; transform: translate(-50%, -50%); border:5px solid black"">","","","","","","","",""
"","236.96499998914078","sequential-stimulus-presentation-old","111","261824","0.0-27.0-1.2","SS1619739512117","trial","","40","500","736.9649999891408","images/stimuli/spore_stims/simple_20_A_a.gif","images/stimuli/spore_stims/simple_16_A_b.gif","self_paced","","9","simple_dissimilar","images/stimuli/spore_stims/simple_16_A_b.gif","","","","",""
"","null","html-keyboard-response","112","263096","0.0-27.0-0.3","SS1619739512117","","","null","","","","","","<p><img src= images/blank.png width =""600"" height = ""600"" style=""position:fixed;top:50%; left:50%; transform: translate(-50%, -50%); border:5px solid black"">","","","","","","","",""
"","745.1149999978952","sequential-stimulus-presentation-old","113","264349","0.0-27.0-1.3","SS1619739512117","trial","","40","500","1245.1149999978952","images/stimuli/spore_stims/simple_20_A_a.gif","images/stimuli/spore_stims/simple_16_A_b.gif","self_paced","","9","simple_dissimilar","images/stimuli/spore_stims/simple_16_A_b.gif","","","","",""
"","2124.4799999985844","survey-multi-choice","114","266476","0.0-28.0","SS1619739512117","math_question","","","","","","","","","","","","{""Q0"":""10""}","[0]","10","",""
"","null","html-keyboard-response","115","267290","0.0-29.0-0.0","SS1619739512117","","","null","","","","","","<p><img src= images/blank.png width =""600"" height = ""600"" style=""position:fixed;top:50%; left:50%; transform: translate(-50%, -50%); border:5px solid black"">","","","","","","","",""
"","1480.1449999795295","sequential-stimulus-presentation-old","116","269274","0.0-29.0-1.0","SS1619739512117","trial","","40","500","1980.1449999795295","images/stimuli/spore_stims/complex_09_A_b.gif","images/stimuli/spore_stims/complex_11_A_a.gif","self_paced","","10","complex_dissimilar","images/stimuli/spore_stims/complex_11_A_a.gif","","","","",""
"","null","html-keyboard-response","117","270466","0.0-29.0-0.1","SS1619739512117","","","null","","","","","","<p><img src= images/blank.png width =""600"" height = ""600"" style=""position:fixed;top:50%; left:50%; transform: translate(-50%, -50%); border:5px solid black"">","","","","","","","",""
"","1105.9999999706633","sequential-stimulus-presentation-old","118","272077","0.0-29.0-1.1","SS1619739512117","trial","","40","500","1605.9999999706633","images/stimuli/spore_stims/complex_09_A_b.gif","images/stimuli/spore_stims/complex_11_A_a.gif","self_paced","","10","complex_dissimilar","images/stimuli/spore_stims/complex_11_A_a.gif","","","","",""
"","null","html-keyboard-response","119","273017","0.0-29.0-0.2","SS1619739512117","","","null","","","","","","<p><img src= images/blank.png width =""600"" height = ""600"" style=""position:fixed;top:50%; left:50%; transform: translate(-50%, -50%); border:5px solid black"">","","","","","","","",""
"","641.8800000101328","sequential-stimulus-presentation-old","120","274163","0.0-29.0-1.2","SS1619739512117","trial","","40","500","1141.8800000101328","images/stimuli/spore_stims/complex_09_A_b.gif","images/stimuli/spore_stims/complex_11_A_a.gif","self_paced","","10","complex_dissimilar","images/stimuli/spore_stims/complex_11_A_a.gif","","","","",""
"","null","html-keyboard-response","121","275223","0.0-29.0-0.3","SS1619739512117","","","null","","","","","","<p><img src= images/blank.png width =""600"" height = ""600"" style=""position:fixed;top:50%; left:50%; transform: translate(-50%, -50%); border:5px solid black"">","","","","","","","",""
"","534.0500000165775","sequential-stimulus-presentation-old","122","276261","0.0-29.0-1.3","SS1619739512117","trial","","40","500","1034.0500000165775","images/stimuli/spore_stims/complex_09_A_b.gif","images/stimuli/spore_stims/complex_11_A_a.gif","self_paced","","10","complex_dissimilar","images/stimuli/spore_stims/complex_09_A_b.gif","","","","",""
"","null","html-keyboard-response","123","277290","0.0-29.0-0.4","SS1619739512117","","","null","","","","","","<p><img src= images/blank.png width =""600"" height = ""600"" style=""position:fixed;top:50%; left:50%; transform: translate(-50%, -50%); border:5px solid black"">","","","","","","","",""
"","1519.399999990128","sequential-stimulus-presentation-old","124","279317","0.0-29.0-1.4","SS1619739512117","trial","","40","500","2019.399999990128","images/stimuli/spore_stims/complex_09_A_b.gif","images/stimuli/spore_stims/complex_11_A_a.gif","self_paced","","10","complex_dissimilar","images/stimuli/spore_stims/complex_11_A_a.gif","","","","",""
"","null","html-keyboard-response","125","280578","0.0-29.0-0.5","SS1619739512117","","","null","","","","","","<p><img src= images/blank.png width =""600"" height = ""600"" style=""position:fixed;top:50%; left:50%; transform: translate(-50%, -50%); border:5px solid black"">","","","","","","","",""
"","527.6850000373088","sequential-stimulus-presentation-old","126","281612","0.0-29.0-1.5","SS1619739512117","trial","","40","500","1027.6850000373088","images/stimuli/spore_stims/complex_09_A_b.gif","images/stimuli/spore_stims/complex_11_A_a.gif","self_paced","","10","complex_dissimilar","images/stimuli/spore_stims/complex_11_A_a.gif","","","","",""
"","6999.180000042543","survey-multi-choice","127","288613","0.0-30.0","SS1619739512117","math_question","","","","","","","","","","","","{""Q0"":""13""}","[0]","13","",""
"","null","html-keyboard-response","128","289687","0.0-31.0-0.0","SS1619739512117","","","null","","","","","","<p><img src= images/blank.png width =""600"" height = ""600"" style=""position:fixed;top:50%; left:50%; transform: translate(-50%, -50%); border:5px solid black"">","","","","","","","",""
"","536.5500000189058","sequential-stimulus-presentation-old","129","305232","0.0-31.0-1.0","SS1619739512117","trial","","40","500","1036.5500000189058","images/stimuli/spore_stims/simple_05_A_b.gif","images/stimuli/spore_stims/simple_08_A_a.gif","forced_long","","11","simple_dissimilar","images/stimuli/spore_stims/simple_08_A_a.gif","","","","",""
"","null","html-keyboard-response","130","306270","0.0-31.0-0.1","SS1619739512117","","","null","","","","","","<p><img src= images/blank.png width =""600"" height = ""600"" style=""position:fixed;top:50%; left:50%; transform: translate(-50%, -50%); border:5px solid black"">","","","","","","","",""
"","166.2600000272505","sequential-stimulus-presentation-old","131","306943","0.0-31.0-1.1","SS1619739512117","trial","","40","500","666.2600000272505","images/stimuli/spore_stims/simple_05_A_b.gif","images/stimuli/spore_stims/simple_08_A_a.gif","forced_long","","11","simple_dissimilar","images/stimuli/spore_stims/simple_05_A_b.gif","","","","",""
"","null","html-keyboard-response","132","307925","0.0-31.0-0.2","SS1619739512117","","","null","","","","","","<p><img src= images/blank.png width =""600"" height = ""600"" style=""position:fixed;top:50%; left:50%; transform: translate(-50%, -50%); border:5px solid black"">","","","","","","","",""
"","235.79000000609085","sequential-stimulus-presentation-old","133","308666","0.0-31.0-1.2","SS1619739512117","trial","","40","500","735.7900000060908","images/stimuli/spore_stims/simple_05_A_b.gif","images/stimuli/spore_stims/simple_08_A_a.gif","forced_long","","11","simple_dissimilar","images/stimuli/spore_stims/simple_08_A_a.gif","","","","",""
"","null","html-keyboard-response","134","309599","0.0-31.0-0.3","SS1619739512117","","","null","","","","","","<p><img src= images/blank.png width =""600"" height = ""600"" style=""position:fixed;top:50%; left:50%; transform: translate(-50%, -50%); border:5px solid black"">","","","","","","","",""
"","806.8499999935739","sequential-stimulus-presentation-old","135","310912","0.0-31.0-1.3","SS1619739512117","trial","","40","500","1306.8499999935739","images/stimuli/spore_stims/simple_05_A_b.gif","images/stimuli/spore_stims/simple_08_A_a.gif","forced_long","","11","simple_dissimilar","images/stimuli/spore_stims/simple_05_A_b.gif","","","","",""
"","null","html-keyboard-response","136","311913","0.0-31.0-0.4","SS1619739512117","","","null","","","","","","<p><img src= images/blank.png width =""600"" height = ""600"" style=""position:fixed;top:50%; left:50%; transform: translate(-50%, -50%); border:5px solid black"">","","","","","","","",""
"","1439.475000021048","sequential-stimulus-presentation-old","137","313861","0.0-31.0-1.4","SS1619739512117","trial","","40","500","1939.475000021048","images/stimuli/spore_stims/simple_05_A_b.gif","images/stimuli/spore_stims/simple_08_A_a.gif","forced_long","","11","simple_dissimilar","images/stimuli/spore_stims/simple_08_A_a.gif","","","","",""
"[{""page_index"":0,""viewing_time"":3456.384999968577}]","3456.629999971483","instructions","138","317320","0.0-32.0","SS1619739512117","instructions","","","","","","","","","","","","","","","",""
"","5008.640000014566","survey-likert","139","322332","0.0-33.0","SS1619739512117","similarity_question","","","","","","","","","","","","{""Q0"":4}","[0]","","images/stimuli/spore_stims/complex_11_A_a.gif","images/stimuli/spore_stims/complex_09_A_b.gif"
"","3854.090000037104","survey-likert","140","326191","0.0-34.0","SS1619739512117","similarity_question","","","","","","","","","","","","{""Q0"":6}","[0]","","images/stimuli/spore_stims/simple_05_A_b.gif","images/stimuli/spore_stims/simple_08_A_a.gif"
"","2613.629999978002","survey-likert","141","328808","0.0-35.0","SS1619739512117","similarity_question","","","","","","","","","","","","{""Q0"":5}","[0]","","images/stimuli/spore_stims/simple_11_A_a.gif","images/stimuli/spore_stims/simple_03_A_b.gif"
"","2235.4250000207685","survey-likert","142","331048","0.0-36.0","SS1619739512117","similarity_question","","","","","","","","","","","","{""Q0"":2}","[0]","","images/stimuli/spore_stims/complex_15_A_a.gif","images/stimuli/spore_stims/complex_07_A_b.gif"
"","3120.9099999978207","survey-likert","143","334173","0.0-37.0","SS1619739512117","similarity_question","","","","","","","","","","","","{""Q0"":4}","[0]","","images/stimuli/spore_stims/complex_10_A_a.gif","images/stimuli/spore_stims/complex_20_A_b.gif"
"","2904.9600000143982","survey-likert","144","337081","0.0-38.0","SS1619739512117","similarity_question","","","","","","","","","","","","{""Q0"":5}","[0]","","images/stimuli/spore_stims/simple_06_A_a.gif","images/stimuli/spore_stims/simple_02_A_b.gif"
"","2509.0300000156276","survey-likert","145","339594","0.0-39.0","SS1619739512117","similarity_question","","","","","","","","","","","","{""Q0"":6}","[0]","","images/stimuli/spore_stims/simple_10_A_b.gif","images/stimuli/spore_stims/simple_13_A_a.gif"
"","2126.2749999877997","survey-likert","146","341726","0.0-40.0","SS1619739512117","similarity_question","","","","","","","","","","","","{""Q0"":4}","[0]","","images/stimuli/spore_stims/complex_01_A_b.gif","images/stimuli/spore_stims/complex_04_A_a.gif"
"","2581.2800000421703","survey-likert","147","344311","0.0-41.0","SS1619739512117","similarity_question","","","","","","","","","","","","{""Q0"":3}","[0]","","images/stimuli/spore_stims/simple_16_A_a.gif","images/stimuli/spore_stims/simple_01_A_b.gif"
"","2744.6600000257604","survey-likert","148","347059","0.0-42.0","SS1619739512117","similarity_question","","","","","","","","","","","","{""Q0"":3}","[0]","","images/stimuli/spore_stims/complex_14_A_a.gif","images/stimuli/spore_stims/complex_10_A_b.gif"
"","2183.7850000010803","survey-likert","149","349248","0.0-43.0","SS1619739512117","similarity_question","","","","","","","","","","","","{""Q0"":4}","[0]","","images/stimuli/spore_stims/complex_09_A_a.gif","images/stimuli/spore_stims/complex_15_A_b.gif"
"","2757.8750000102445","survey-likert","150","352011","0.0-44.0","SS1619739512117","similarity_question","","","","","","","","","","","","{""Q0"":2}","[0]","","images/stimuli/spore_stims/simple_20_A_a.gif","images/stimuli/spore_stims/simple_16_A_b.gif"
"[{""page_index"":0,""viewing_time"":1232.4500000104308}]","1232.7250000089407","instructions","151","353246","0.0-45.0","SS1619739512117","instructions","","","","","","","","","","","","","","","",""
"","3939.1999999643303","survey-likert","152","357189","0.0-46.0","SS1619739512117","","","","","","","","","images/stimuli/spore_stims/simple_05_A_b.gif","","","","{""Q0"":1}","[0]","","",""
"","2395.4650000086986","survey-likert","153","359588","0.0-47.0","SS1619739512117","","","","","","","","","images/stimuli/spore_stims/complex_10_A_a.gif","","","","{""Q0"":5}","[0]","","",""
"","1997.9099999764003","survey-likert","154","361591","0.0-48.0","SS1619739512117","","","","","","","","","images/stimuli/spore_stims/complex_04_A_a.gif","","","","{""Q0"":6}","[0]","","",""
"","2693.0699999793433","survey-likert","155","364288","0.0-49.0","SS1619739512117","","","","","","","","","images/stimuli/spore_stims/simple_13_A_a.gif","","","","{""Q0"":0}","[0]","","",""
"","1798.529999970924","survey-likert","156","366090","0.0-50.0","SS1619739512117","","","","","","","","","images/stimuli/spore_stims/complex_10_A_b.gif","","","","{""Q0"":5}","[0]","","",""
"","1895.1550000347197","survey-likert","157","367989","0.0-51.0","SS1619739512117","","","","","","","","","images/stimuli/spore_stims/simple_03_A_b.gif","","","","{""Q0"":1}","[0]","","",""
"","2183.5699999937788","survey-likert","158","370178","0.0-52.0","SS1619739512117","","","","","","","","","images/stimuli/spore_stims/complex_07_A_b.gif","","","","{""Q0"":6}","[0]","","",""
"","2548.8100000075065","survey-likert","159","372731","0.0-53.0","SS1619739512117","","","","","","","","","images/stimuli/spore_stims/complex_11_A_a.gif","","","","{""Q0"":4}","[0]","","",""
"","1991.219999967143","survey-likert","160","374727","0.0-54.0","SS1619739512117","","","","","","","","","images/stimuli/spore_stims/complex_09_A_a.gif","","","","{""Q0"":4}","[0]","","",""
"","2201.6099999891594","survey-likert","161","376932","0.0-55.0","SS1619739512117","","","","","","","","","images/stimuli/spore_stims/simple_01_A_b.gif","","","","{""Q0"":1}","[0]","","",""
"","1708.4850000101142","survey-likert","162","378645","0.0-56.0","SS1619739512117","","","","","","","","","images/stimuli/spore_stims/simple_16_A_b.gif","","","","{""Q0"":1}","[0]","","",""
"","1974.1500000236556","survey-likert","163","380624","0.0-57.0","SS1619739512117","","","","","","","","","images/stimuli/spore_stims/simple_06_A_a.gif","","","","{""Q0"":1}","[0]","","",""
"[{""page_index"":0,""viewing_time"":1337.8449999727309}]","1338.0749999778345","instructions","164","381965","0.0-58.0","SS1619739512117","instructions","","","","","","","","","","","","","","","",""
"","1928.6250000004657","demog-age","165","383902","0.0-59.0","SS1619739512117","","","","","","","","","","","","","{""age"":""21""}","","","",""
"","2670.6300000078045","demog-ethnic-US","166","386578","0.0-60.0","SS1619739512117","","","","","","","","","","","","","{""ethnicity"":[""White""]}","[0]","","",""
"","5392.5150000141","demog-gender-and-education","167","391975","0.0-61.0","SS1619739512117","","","","","","","","","","","","","{""gender"":""Female"",""education"":""Bachelor's Degree""}","[0,1]","","",""
"","4474.975000019185","survey-text","168","396455","0.0-62.0","SS1619739512117","feedback","","","","","","","","","","","","{""Q0"":""no""}","","","",""
"[{""page_index"":0,""viewing_time"":1290.015000035055}]","1290.2400000020862","instructions","169","397749","0.0-63.0","SS1619739512117","instructions","","","","","","","","","","","","","","","",""
