"view_history","rt","trial_type","trial_index","time_elapsed","internal_node_id","subject","stimulus_type","trial_stimulus","key_press","minimum_viewing_duration","trial_looking_time","block_deviant","block_background","exposure_type","stimulus","block_number","block_type","stimulus_displayed","responses","question_order","math_correct_answer","stimulus_left","stimulus_right"
"[{""page_index"":0,""viewing_time"":282273.2050000923}]","282278.58500008006","instructions","0","282286","0.0-0.0","SS1619739847224","","","","","","","","","","","","","","","","",""
"[{""page_index"":0,""viewing_time"":38053.249999997206},{""page_index"":1,""viewing_time"":8270.280000055209}]","46328.89999996405","instructions","1","330631","0.0-1.0","SS1619739847224","instructions","","","","","","","","","","","","","","","",""
"","9950.804999913089","sequential-stimulus-presentation-old","2","341107","0.0-2.0","SS1619739847224","","","40","500","10450.804999913089","null","null","self_paced","","","","","","","","",""
"","6699.985000072047","sequential-stimulus-presentation-old","3","348321","0.0-3.0","SS1619739847224","","","40","500","7199.985000072047","null","null","self_paced","","","","","","","","",""
"[{""page_index"":0,""viewing_time"":40326.26500003971}]","40330.56500006933","instructions","4","388657","0.0-4.0","SS1619739847224","instructions","","","","","","","","","","","","","","","",""
"","1383.4049999713898","sequential-stimulus-presentation-old","5","405064","0.0-5.0","SS1619739847224","","","40","500","1883.4049999713898","null","null","forced_long","","","","","","","","",""
"","5449.614999932237","sequential-stimulus-presentation-old","6","411025","0.0-6.0","SS1619739847224","","","40","500","5949.614999932237","null","null","forced_long","","","","","","","","",""
"[{""page_index"":0,""viewing_time"":6133.360000094399}]","6136.870000045747","instructions","7","417168","0.0-7.0","SS1619739847224","instructions","","","","","","","","","","","","","","","",""
"[{""page_index"":0,""viewing_time"":38930.54000008851},{""page_index"":1,""viewing_time"":26842.274999944493},{""page_index"":2,""viewing_time"":40785.59500002302},{""page_index"":3,""viewing_time"":2395.9849999519065},{""page_index"":4,""viewing_time"":3664.865000057034}]","112622.90499999654","instructions","8","529803","0.0-8.0","SS1619739847224","instructions","","","","","","","","","","","","","","","",""
"","null","html-keyboard-response","9","530945","0.0-9.0-0.0","SS1619739847224","","","null","","","","","","<p><img src= images/blank.png width =""600"" height = ""600"" style=""position:fixed;top:50%; left:50%; transform: translate(-50%, -50%); border:5px solid black"">","","","","","","","",""
"","8642.970000044443","sequential-stimulus-presentation-old","10","540115","0.0-9.0-1.0","SS1619739847224","trial","","40","500","9142.970000044443","images/stimuli/spore_stims/complex_12_A_a.gif","images/stimuli/spore_stims/complex_05_A_b.gif","self_paced","","0","complex_dissimilar","images/stimuli/spore_stims/complex_05_A_b.gif","","","","",""
"","null","html-keyboard-response","11","541368","0.0-9.0-0.1","SS1619739847224","","","null","","","","","","<p><img src= images/blank.png width =""600"" height = ""600"" style=""position:fixed;top:50%; left:50%; transform: translate(-50%, -50%); border:5px solid black"">","","","","","","","",""
"","11456.16499998141","sequential-stimulus-presentation-old","12","553343","0.0-9.0-1.1","SS1619739847224","trial","","40","500","11956.16499998141","images/stimuli/spore_stims/complex_12_A_a.gif","images/stimuli/spore_stims/complex_05_A_b.gif","self_paced","","0","complex_dissimilar","images/stimuli/spore_stims/complex_05_A_b.gif","","","","",""
"","null","html-keyboard-response","13","554568","0.0-9.0-0.2","SS1619739847224","","","null","","","","","","<p><img src= images/blank.png width =""600"" height = ""600"" style=""position:fixed;top:50%; left:50%; transform: translate(-50%, -50%); border:5px solid black"">","","","","","","","",""
"","15173.970000003465","sequential-stimulus-presentation-old","14","570260","0.0-9.0-1.2","SS1619739847224","trial","","40","500","15673.970000003465","images/stimuli/spore_stims/complex_12_A_a.gif","images/stimuli/spore_stims/complex_05_A_b.gif","self_paced","","0","complex_dissimilar","images/stimuli/spore_stims/complex_05_A_b.gif","","","","",""
"","null","html-keyboard-response","15","571563","0.0-9.0-0.3","SS1619739847224","","","null","","","","","","<p><img src= images/blank.png width =""600"" height = ""600"" style=""position:fixed;top:50%; left:50%; transform: translate(-50%, -50%); border:5px solid black"">","","","","","","","",""
"","6381.730000022799","sequential-stimulus-presentation-old","16","578469","0.0-9.0-1.3","SS1619739847224","trial","","40","500","6881.730000022799","images/stimuli/spore_stims/complex_12_A_a.gif","images/stimuli/spore_stims/complex_05_A_b.gif","self_paced","","0","complex_dissimilar","images/stimuli/spore_stims/complex_05_A_b.gif","","","","",""
"","null","html-keyboard-response","17","579492","0.0-9.0-0.4","SS1619739847224","","","null","","","","","","<p><img src= images/blank.png width =""600"" height = ""600"" style=""position:fixed;top:50%; left:50%; transform: translate(-50%, -50%); border:5px solid black"">","","","","","","","",""
"","6027.384999906644","sequential-stimulus-presentation-old","18","586038","0.0-9.0-1.4","SS1619739847224","trial","","40","500","6527.384999906644","images/stimuli/spore_stims/complex_12_A_a.gif","images/stimuli/spore_stims/complex_05_A_b.gif","self_paced","","0","complex_dissimilar","images/stimuli/spore_stims/complex_05_A_b.gif","","","","",""
"","5394.994999980554","survey-multi-choice","19","591493","0.0-10.0","SS1619739847224","math_question","","","","","","","","","","","","{""Q0"":""6""}","[0]","6","",""
"","null","html-keyboard-response","20","592659","0.0-11.0-0.0","SS1619739847224","","","null","","","","","","<p><img src= images/blank.png width =""600"" height = ""600"" style=""position:fixed;top:50%; left:50%; transform: translate(-50%, -50%); border:5px solid black"">","","","","","","","",""
"","3573.5950000816956","sequential-stimulus-presentation-old","21","596763","0.0-11.0-1.0","SS1619739847224","trial","","40","500","4073.5950000816956","images/stimuli/spore_stims/complex_06_A_a.gif","images/stimuli/spore_stims/complex_03_A_b.gif","forced_short","","1","complex_dissimilar","images/stimuli/spore_stims/complex_03_A_b.gif","","","","",""
"","null","html-keyboard-response","22","597855","0.0-11.0-0.1","SS1619739847224","","","null","","","","","","<p><img src= images/blank.png width =""600"" height = ""600"" style=""position:fixed;top:50%; left:50%; transform: translate(-50%, -50%); border:5px solid black"">","","","","","","","",""
"","10533.66499999538","sequential-stimulus-presentation-old","23","608907","0.0-11.0-1.1","SS1619739847224","trial","","40","500","11033.66499999538","images/stimuli/spore_stims/complex_06_A_a.gif","images/stimuli/spore_stims/complex_03_A_b.gif","forced_short","","1","complex_dissimilar","images/stimuli/spore_stims/complex_06_A_a.gif","","","","",""
"","null","html-keyboard-response","24","609925","0.0-11.0-0.2","SS1619739847224","","","null","","","","","","<p><img src= images/blank.png width =""600"" height = ""600"" style=""position:fixed;top:50%; left:50%; transform: translate(-50%, -50%); border:5px solid black"">","","","","","","","",""
"","4394.254999933764","sequential-stimulus-presentation-old","25","614837","0.0-11.0-1.2","SS1619739847224","trial","","40","500","4894.254999933764","images/stimuli/spore_stims/complex_06_A_a.gif","images/stimuli/spore_stims/complex_03_A_b.gif","forced_short","","1","complex_dissimilar","images/stimuli/spore_stims/complex_06_A_a.gif","","","","",""
"","null","html-keyboard-response","26","616064","0.0-11.0-0.3","SS1619739847224","","","null","","","","","","<p><img src= images/blank.png width =""600"" height = ""600"" style=""position:fixed;top:50%; left:50%; transform: translate(-50%, -50%); border:5px solid black"">","","","","","","","",""
"","8323.70000006631","sequential-stimulus-presentation-old","27","624905","0.0-11.0-1.3","SS1619739847224","trial","","40","500","8823.70000006631","images/stimuli/spore_stims/complex_06_A_a.gif","images/stimuli/spore_stims/complex_03_A_b.gif","forced_short","","1","complex_dissimilar","images/stimuli/spore_stims/complex_03_A_b.gif","","","","",""
"","4981.604999979027","survey-multi-choice","28","629912","0.0-12.0","SS1619739847224","math_question","","","","","","","","","","","","{""Q0"":""10""}","[0]","10","",""
"","null","html-keyboard-response","29","631047","0.0-13.0-0.0","SS1619739847224","","","null","","","","","","<p><img src= images/blank.png width =""600"" height = ""600"" style=""position:fixed;top:50%; left:50%; transform: translate(-50%, -50%); border:5px solid black"">","","","","","","","",""
"","1509.02999995742","sequential-stimulus-presentation-old","30","633093","0.0-13.0-1.0","SS1619739847224","trial","","40","500","2009.02999995742","images/stimuli/spore_stims/complex_16_A_a.gif","images/stimuli/spore_stims/complex_11_A_b.gif","forced_short","","2","complex_dissimilar","images/stimuli/spore_stims/complex_11_A_b.gif","","","","",""
"","null","html-keyboard-response","31","634132","0.0-13.0-0.1","SS1619739847224","","","null","","","","","","<p><img src= images/blank.png width =""600"" height = ""600"" style=""position:fixed;top:50%; left:50%; transform: translate(-50%, -50%); border:5px solid black"">","","","","","","","",""
"","5145.385000039823","sequential-stimulus-presentation-old","32","639794","0.0-13.0-1.1","SS1619739847224","trial","","40","500","5645.385000039823","images/stimuli/spore_stims/complex_16_A_a.gif","images/stimuli/spore_stims/complex_11_A_b.gif","forced_short","","2","complex_dissimilar","images/stimuli/spore_stims/complex_11_A_b.gif","","","","",""
"","null","html-keyboard-response","33","640769","0.0-13.0-0.2","SS1619739847224","","","null","","","","","","<p><img src= images/blank.png width =""600"" height = ""600"" style=""position:fixed;top:50%; left:50%; transform: translate(-50%, -50%); border:5px solid black"">","","","","","","","",""
"","3298.1800000416115","sequential-stimulus-presentation-old","34","644591","0.0-13.0-1.2","SS1619739847224","trial","","40","500","3798.1800000416115","images/stimuli/spore_stims/complex_16_A_a.gif","images/stimuli/spore_stims/complex_11_A_b.gif","forced_short","","2","complex_dissimilar","images/stimuli/spore_stims/complex_11_A_b.gif","","","","",""
"","null","html-keyboard-response","35","645744","0.0-13.0-0.3","SS1619739847224","","","null","","","","","","<p><img src= images/blank.png width =""600"" height = ""600"" style=""position:fixed;top:50%; left:50%; transform: translate(-50%, -50%); border:5px solid black"">","","","","","","","",""
"","6904.53499997966","sequential-stimulus-presentation-old","36","653167","0.0-13.0-1.3","SS1619739847224","trial","","40","500","7404.53499997966","images/stimuli/spore_stims/complex_16_A_a.gif","images/stimuli/spore_stims/complex_11_A_b.gif","forced_short","","2","complex_dissimilar","images/stimuli/spore_stims/complex_11_A_b.gif","","","","",""
"","null","html-keyboard-response","37","654409","0.0-13.0-0.4","SS1619739847224","","","null","","","","","","<p><img src= images/blank.png width =""600"" height = ""600"" style=""position:fixed;top:50%; left:50%; transform: translate(-50%, -50%); border:5px solid black"">","","","","","","","",""
"","5301.350000081584","sequential-stimulus-presentation-old","38","660229","0.0-13.0-1.4","SS1619739847224","trial","","40","500","5801.350000081584","images/stimuli/spore_stims/complex_16_A_a.gif","images/stimuli/spore_stims/complex_11_A_b.gif","forced_short","","2","complex_dissimilar","images/stimuli/spore_stims/complex_11_A_b.gif","","","","",""
"","null","html-keyboard-response","39","661435","0.0-13.0-0.5","SS1619739847224","","","null","","","","","","<p><img src= images/blank.png width =""600"" height = ""600"" style=""position:fixed;top:50%; left:50%; transform: translate(-50%, -50%); border:5px solid black"">","","","","","","","",""
"","2438.454999937676","sequential-stimulus-presentation-old","40","664392","0.0-13.0-1.5","SS1619739847224","trial","","40","500","2938.454999937676","images/stimuli/spore_stims/complex_16_A_a.gif","images/stimuli/spore_stims/complex_11_A_b.gif","forced_short","","2","complex_dissimilar","images/stimuli/spore_stims/complex_11_A_b.gif","","","","",""
"","3665.569999953732","survey-multi-choice","41","668073","0.0-14.0","SS1619739847224","math_question","","","","","","","","","","","","{""Q0"":""8""}","[0]","8","",""
"","null","html-keyboard-response","42","669395","0.0-15.0-0.0","SS1619739847224","","","null","","","","","","<p><img src= images/blank.png width =""600"" height = ""600"" style=""position:fixed;top:50%; left:50%; transform: translate(-50%, -50%); border:5px solid black"">","","","","","","","",""
"","12365.200000000186","sequential-stimulus-presentation-old","43","682295","0.0-15.0-1.0","SS1619739847224","trial","","40","500","12865.200000000186","images/stimuli/spore_stims/simple_04_A_a.gif","images/stimuli/spore_stims/simple_11_A_b.gif","self_paced","","3","simple_dissimilar","images/stimuli/spore_stims/simple_11_A_b.gif","","","","",""
"","null","html-keyboard-response","44","683478","0.0-15.0-0.1","SS1619739847224","","","null","","","","","","<p><img src= images/blank.png width =""600"" height = ""600"" style=""position:fixed;top:50%; left:50%; transform: translate(-50%, -50%); border:5px solid black"">","","","","","","","",""
"","2668.0649999761954","sequential-stimulus-presentation-old","45","686668","0.0-15.0-1.1","SS1619739847224","trial","","40","500","3168.0649999761954","images/stimuli/spore_stims/simple_04_A_a.gif","images/stimuli/spore_stims/simple_11_A_b.gif","self_paced","","3","simple_dissimilar","images/stimuli/spore_stims/simple_11_A_b.gif","","","","",""
"","null","html-keyboard-response","46","687745","0.0-15.0-0.2","SS1619739847224","","","null","","","","","","<p><img src= images/blank.png width =""600"" height = ""600"" style=""position:fixed;top:50%; left:50%; transform: translate(-50%, -50%); border:5px solid black"">","","","","","","","",""
"","4684.60000003688","sequential-stimulus-presentation-old","47","692951","0.0-15.0-1.2","SS1619739847224","trial","","40","500","5184.60000003688","images/stimuli/spore_stims/simple_04_A_a.gif","images/stimuli/spore_stims/simple_11_A_b.gif","self_paced","","3","simple_dissimilar","images/stimuli/spore_stims/simple_11_A_b.gif","","","","",""
"","null","html-keyboard-response","48","694212","0.0-15.0-0.3","SS1619739847224","","","null","","","","","","<p><img src= images/blank.png width =""600"" height = ""600"" style=""position:fixed;top:50%; left:50%; transform: translate(-50%, -50%); border:5px solid black"">","","","","","","","",""
"","4315.794999944046","sequential-stimulus-presentation-old","49","699049","0.0-15.0-1.3","SS1619739847224","trial","","40","500","4815.794999944046","images/stimuli/spore_stims/simple_04_A_a.gif","images/stimuli/spore_stims/simple_11_A_b.gif","self_paced","","3","simple_dissimilar","images/stimuli/spore_stims/simple_11_A_b.gif","","","","",""
"","null","html-keyboard-response","50","699883","0.0-15.0-0.4","SS1619739847224","","","null","","","","","","<p><img src= images/blank.png width =""600"" height = ""600"" style=""position:fixed;top:50%; left:50%; transform: translate(-50%, -50%); border:5px solid black"">","","","","","","","",""
"","9552.750000031665","sequential-stimulus-presentation-old","51","709956","0.0-15.0-1.4","SS1619739847224","trial","","40","500","10052.750000031665","images/stimuli/spore_stims/simple_04_A_a.gif","images/stimuli/spore_stims/simple_11_A_b.gif","self_paced","","3","simple_dissimilar","images/stimuli/spore_stims/simple_04_A_a.gif","","","","",""
"","4249.479999998584","survey-multi-choice","52","714221","0.0-16.0","SS1619739847224","math_question","","","","","","","","","","","","{""Q0"":""14""}","[0]","14","",""
"","null","html-keyboard-response","53","715365","0.0-17.0-0.0","SS1619739847224","","","null","","","","","","<p><img src= images/blank.png width =""600"" height = ""600"" style=""position:fixed;top:50%; left:50%; transform: translate(-50%, -50%); border:5px solid black"">","","","","","","","",""
"","4039.489999995567","sequential-stimulus-presentation-old","54","719927","0.0-17.0-1.0","SS1619739847224","trial","","40","500","4539.489999995567","images/stimuli/spore_stims/simple_17_A_a.gif","images/stimuli/spore_stims/simple_12_A_b.gif","self_paced","","4","simple_dissimilar","images/stimuli/spore_stims/simple_12_A_b.gif","","","","",""
"","null","html-keyboard-response","55","721032","0.0-17.0-0.1","SS1619739847224","","","null","","","","","","<p><img src= images/blank.png width =""600"" height = ""600"" style=""position:fixed;top:50%; left:50%; transform: translate(-50%, -50%); border:5px solid black"">","","","","","","","",""
"","3194.1400000359863","sequential-stimulus-presentation-old","56","724745","0.0-17.0-1.1","SS1619739847224","trial","","40","500","3694.1400000359863","images/stimuli/spore_stims/simple_17_A_a.gif","images/stimuli/spore_stims/simple_12_A_b.gif","self_paced","","4","simple_dissimilar","images/stimuli/spore_stims/simple_17_A_a.gif","","","","",""
"","null","html-keyboard-response","57","725570","0.0-17.0-0.2","SS1619739847224","","","null","","","","","","<p><img src= images/blank.png width =""600"" height = ""600"" style=""position:fixed;top:50%; left:50%; transform: translate(-50%, -50%); border:5px solid black"">","","","","","","","",""
"","1569.5300000952557","sequential-stimulus-presentation-old","58","727659","0.0-17.0-1.2","SS1619739847224","trial","","40","500","2069.5300000952557","images/stimuli/spore_stims/simple_17_A_a.gif","images/stimuli/spore_stims/simple_12_A_b.gif","self_paced","","4","simple_dissimilar","images/stimuli/spore_stims/simple_12_A_b.gif","","","","",""
"","null","html-keyboard-response","59","728806","0.0-17.0-0.3","SS1619739847224","","","null","","","","","","<p><img src= images/blank.png width =""600"" height = ""600"" style=""position:fixed;top:50%; left:50%; transform: translate(-50%, -50%); border:5px solid black"">","","","","","","","",""
"","1245.5850000260398","sequential-stimulus-presentation-old","60","730571","0.0-17.0-1.3","SS1619739847224","trial","","40","500","1745.5850000260398","images/stimuli/spore_stims/simple_17_A_a.gif","images/stimuli/spore_stims/simple_12_A_b.gif","self_paced","","4","simple_dissimilar","images/stimuli/spore_stims/simple_17_A_a.gif","","","","",""
"","5176.3499999651685","survey-multi-choice","61","735766","0.0-18.0","SS1619739847224","math_question","","","","","","","","","","","","{""Q0"":""11""}","[0]","11","",""
"","null","html-keyboard-response","62","736873","0.0-19.0-0.0","SS1619739847224","","","null","","","","","","<p><img src= images/blank.png width =""600"" height = ""600"" style=""position:fixed;top:50%; left:50%; transform: translate(-50%, -50%); border:5px solid black"">","","","","","","","",""
"","3115.8249999862164","sequential-stimulus-presentation-old","63","755024","0.0-19.0-1.0","SS1619739847224","trial","","40","500","3615.8249999862164","images/stimuli/spore_stims/simple_13_A_b.gif","images/stimuli/spore_stims/simple_16_A_a.gif","forced_long","","5","simple_dissimilar","images/stimuli/spore_stims/simple_16_A_a.gif","","","","",""
"","null","html-keyboard-response","64","756054","0.0-19.0-0.1","SS1619739847224","","","null","","","","","","<p><img src= images/blank.png width =""600"" height = ""600"" style=""position:fixed;top:50%; left:50%; transform: translate(-50%, -50%); border:5px solid black"">","","","","","","","",""
"","16630.18999993801","sequential-stimulus-presentation-old","65","773205","0.0-19.0-1.1","SS1619739847224","trial","","40","500","17130.18999993801","images/stimuli/spore_stims/simple_13_A_b.gif","images/stimuli/spore_stims/simple_16_A_a.gif","forced_long","","5","simple_dissimilar","images/stimuli/spore_stims/simple_13_A_b.gif","","","","",""
"","null","html-keyboard-response","66","774502","0.0-19.0-0.2","SS1619739847224","","","null","","","","","","<p><img src= images/blank.png width =""600"" height = ""600"" style=""position:fixed;top:50%; left:50%; transform: translate(-50%, -50%); border:5px solid black"">","","","","","","","",""
"","3780.4849999956787","sequential-stimulus-presentation-old","67","778806","0.0-19.0-1.2","SS1619739847224","trial","","40","500","4280.484999995679","images/stimuli/spore_stims/simple_13_A_b.gif","images/stimuli/spore_stims/simple_16_A_a.gif","forced_long","","5","simple_dissimilar","images/stimuli/spore_stims/simple_16_A_a.gif","","","","",""
"","null","html-keyboard-response","68","779703","0.0-19.0-0.3","SS1619739847224","","","null","","","","","","<p><img src= images/blank.png width =""600"" height = ""600"" style=""position:fixed;top:50%; left:50%; transform: translate(-50%, -50%); border:5px solid black"">","","","","","","","",""
"","4612.700000056066","sequential-stimulus-presentation-old","69","784839","0.0-19.0-1.3","SS1619739847224","trial","","40","500","5112.700000056066","images/stimuli/spore_stims/simple_13_A_b.gif","images/stimuli/spore_stims/simple_16_A_a.gif","forced_long","","5","simple_dissimilar","images/stimuli/spore_stims/simple_13_A_b.gif","","","","",""
"","5954.885000013746","survey-multi-choice","70","790812","0.0-20.0","SS1619739847224","math_question","","","","","","","","","","","","{""Q0"":""12""}","[0]","13","",""
"","null","html-keyboard-response","71","792091","0.0-21.0-0.0","SS1619739847224","","","null","","","","","","<p><img src= images/blank.png width =""600"" height = ""600"" style=""position:fixed;top:50%; left:50%; transform: translate(-50%, -50%); border:5px solid black"">","","","","","","","",""
"","982.6100000645965","sequential-stimulus-presentation-old","72","808097","0.0-21.0-1.0","SS1619739847224","trial","","40","500","1482.6100000645965","images/stimuli/spore_stims/simple_08_A_a.gif","images/stimuli/spore_stims/simple_19_A_b.gif","forced_long","","6","simple_dissimilar","images/stimuli/spore_stims/simple_19_A_b.gif","","","","",""
"","null","html-keyboard-response","73","808978","0.0-21.0-0.1","SS1619739847224","","","null","","","","","","<p><img src= images/blank.png width =""600"" height = ""600"" style=""position:fixed;top:50%; left:50%; transform: translate(-50%, -50%); border:5px solid black"">","","","","","","","",""
"","3607.5800000689924","sequential-stimulus-presentation-old","74","813108","0.0-21.0-1.1","SS1619739847224","trial","","40","500","4107.580000068992","images/stimuli/spore_stims/simple_08_A_a.gif","images/stimuli/spore_stims/simple_19_A_b.gif","forced_long","","6","simple_dissimilar","images/stimuli/spore_stims/simple_19_A_b.gif","","","","",""
"","null","html-keyboard-response","75","814366","0.0-21.0-0.2","SS1619739847224","","","null","","","","","","<p><img src= images/blank.png width =""600"" height = ""600"" style=""position:fixed;top:50%; left:50%; transform: translate(-50%, -50%); border:5px solid black"">","","","","","","","",""
"","5278.934999951161","sequential-stimulus-presentation-old","76","820168","0.0-21.0-1.2","SS1619739847224","trial","","40","500","5778.934999951161","images/stimuli/spore_stims/simple_08_A_a.gif","images/stimuli/spore_stims/simple_19_A_b.gif","forced_long","","6","simple_dissimilar","images/stimuli/spore_stims/simple_08_A_a.gif","","","","",""
"","null","html-keyboard-response","77","821024","0.0-21.0-0.3","SS1619739847224","","","null","","","","","","<p><img src= images/blank.png width =""600"" height = ""600"" style=""position:fixed;top:50%; left:50%; transform: translate(-50%, -50%); border:5px solid black"">","","","","","","","",""
"","3649.1600000299513","sequential-stimulus-presentation-old","78","825196","0.0-21.0-1.3","SS1619739847224","trial","","40","500","4149.160000029951","images/stimuli/spore_stims/simple_08_A_a.gif","images/stimuli/spore_stims/simple_19_A_b.gif","forced_long","","6","simple_dissimilar","images/stimuli/spore_stims/simple_19_A_b.gif","","","","",""
"","null","html-keyboard-response","79","826241","0.0-21.0-0.4","SS1619739847224","","","null","","","","","","<p><img src= images/blank.png width =""600"" height = ""600"" style=""position:fixed;top:50%; left:50%; transform: translate(-50%, -50%); border:5px solid black"">","","","","","","","",""
"","3478.564999997616","sequential-stimulus-presentation-old","80","830243","0.0-21.0-1.4","SS1619739847224","trial","","40","500","3978.564999997616","images/stimuli/spore_stims/simple_08_A_a.gif","images/stimuli/spore_stims/simple_19_A_b.gif","forced_long","","6","simple_dissimilar","images/stimuli/spore_stims/simple_08_A_a.gif","","","","",""
"","6894.354999996722","survey-multi-choice","81","837156","0.0-22.0","SS1619739847224","math_question","","","","","","","","","","","","{""Q0"":""14""}","[0]","14","",""
"","null","html-keyboard-response","82","838314","0.0-23.0-0.0","SS1619739847224","","","null","","","","","","<p><img src= images/blank.png width =""600"" height = ""600"" style=""position:fixed;top:50%; left:50%; transform: translate(-50%, -50%); border:5px solid black"">","","","","","","","",""
"","14333.634999929927","sequential-stimulus-presentation-old","83","853195","0.0-23.0-1.0","SS1619739847224","trial","","40","500","14833.634999929927","images/stimuli/spore_stims/complex_20_A_b.gif","images/stimuli/spore_stims/complex_03_A_a.gif","self_paced","","7","complex_dissimilar","images/stimuli/spore_stims/complex_03_A_a.gif","","","","",""
"","null","html-keyboard-response","84","854450","0.0-23.0-0.1","SS1619739847224","","","null","","","","","","<p><img src= images/blank.png width =""600"" height = ""600"" style=""position:fixed;top:50%; left:50%; transform: translate(-50%, -50%); border:5px solid black"">","","","","","","","",""
"","2488.3050000062212","sequential-stimulus-presentation-old","85","857464","0.0-23.0-1.1","SS1619739847224","trial","","40","500","2988.3050000062212","images/stimuli/spore_stims/complex_20_A_b.gif","images/stimuli/spore_stims/complex_03_A_a.gif","self_paced","","7","complex_dissimilar","images/stimuli/spore_stims/complex_03_A_a.gif","","","","",""
"","null","html-keyboard-response","86","858560","0.0-23.0-0.2","SS1619739847224","","","null","","","","","","<p><img src= images/blank.png width =""600"" height = ""600"" style=""position:fixed;top:50%; left:50%; transform: translate(-50%, -50%); border:5px solid black"">","","","","","","","",""
"","1130.8950000675395","sequential-stimulus-presentation-old","87","860212","0.0-23.0-1.2","SS1619739847224","trial","","40","500","1630.8950000675395","images/stimuli/spore_stims/complex_20_A_b.gif","images/stimuli/spore_stims/complex_03_A_a.gif","self_paced","","7","complex_dissimilar","images/stimuli/spore_stims/complex_20_A_b.gif","","","","",""
"","null","html-keyboard-response","88","861050","0.0-23.0-0.3","SS1619739847224","","","null","","","","","","<p><img src= images/blank.png width =""600"" height = ""600"" style=""position:fixed;top:50%; left:50%; transform: translate(-50%, -50%); border:5px solid black"">","","","","","","","",""
"","1310.0249998969957","sequential-stimulus-presentation-old","89","862879","0.0-23.0-1.3","SS1619739847224","trial","","40","500","1810.0249998969957","images/stimuli/spore_stims/complex_20_A_b.gif","images/stimuli/spore_stims/complex_03_A_a.gif","self_paced","","7","complex_dissimilar","images/stimuli/spore_stims/complex_20_A_b.gif","","","","",""
"","null","html-keyboard-response","90","864059","0.0-23.0-0.4","SS1619739847224","","","null","","","","","","<p><img src= images/blank.png width =""600"" height = ""600"" style=""position:fixed;top:50%; left:50%; transform: translate(-50%, -50%); border:5px solid black"">","","","","","","","",""
"","2665.47000000719","sequential-stimulus-presentation-old","91","867249","0.0-23.0-1.4","SS1619739847224","trial","","40","500","3165.47000000719","images/stimuli/spore_stims/complex_20_A_b.gif","images/stimuli/spore_stims/complex_03_A_a.gif","self_paced","","7","complex_dissimilar","images/stimuli/spore_stims/complex_03_A_a.gif","","","","",""
"","6034.420000039972","survey-multi-choice","92","873303","0.0-24.0","SS1619739847224","math_question","","","","","","","","","","","","{""Q0"":""5""}","[0]","5","",""
"","null","html-keyboard-response","93","874167","0.0-25.0-0.0","SS1619739847224","","","null","","","","","","<p><img src= images/blank.png width =""600"" height = ""600"" style=""position:fixed;top:50%; left:50%; transform: translate(-50%, -50%); border:5px solid black"">","","","","","","","",""
"","1727.584999985993","sequential-stimulus-presentation-old","94","890932","0.0-25.0-1.0","SS1619739847224","trial","","40","500","2227.584999985993","images/stimuli/spore_stims/complex_19_A_a.gif","images/stimuli/spore_stims/complex_15_A_b.gif","forced_long","","8","complex_dissimilar","images/stimuli/spore_stims/complex_15_A_b.gif","","","","",""
"","null","html-keyboard-response","95","892178","0.0-25.0-0.1","SS1619739847224","","","null","","","","","","<p><img src= images/blank.png width =""600"" height = ""600"" style=""position:fixed;top:50%; left:50%; transform: translate(-50%, -50%); border:5px solid black"">","","","","","","","",""
"","15582.214999943972","sequential-stimulus-presentation-old","96","908284","0.0-25.0-1.1","SS1619739847224","trial","","40","500","16082.214999943972","images/stimuli/spore_stims/complex_19_A_a.gif","images/stimuli/spore_stims/complex_15_A_b.gif","forced_long","","8","complex_dissimilar","images/stimuli/spore_stims/complex_15_A_b.gif","","","","",""
"","null","html-keyboard-response","97","909269","0.0-25.0-0.2","SS1619739847224","","","null","","","","","","<p><img src= images/blank.png width =""600"" height = ""600"" style=""position:fixed;top:50%; left:50%; transform: translate(-50%, -50%); border:5px solid black"">","","","","","","","",""
"","859.2850000131875","sequential-stimulus-presentation-old","98","910674","0.0-25.0-1.2","SS1619739847224","trial","","40","500","1359.2850000131875","images/stimuli/spore_stims/complex_19_A_a.gif","images/stimuli/spore_stims/complex_15_A_b.gif","forced_long","","8","complex_dissimilar","images/stimuli/spore_stims/complex_15_A_b.gif","","","","",""
"","null","html-keyboard-response","99","911650","0.0-25.0-0.3","SS1619739847224","","","null","","","","","","<p><img src= images/blank.png width =""600"" height = ""600"" style=""position:fixed;top:50%; left:50%; transform: translate(-50%, -50%); border:5px solid black"">","","","","","","","",""
"","2479.6799999894574","sequential-stimulus-presentation-old","100","914651","0.0-25.0-1.3","SS1619739847224","trial","","40","500","2979.6799999894574","images/stimuli/spore_stims/complex_19_A_a.gif","images/stimuli/spore_stims/complex_15_A_b.gif","forced_long","","8","complex_dissimilar","images/stimuli/spore_stims/complex_15_A_b.gif","","","","",""
"","null","html-keyboard-response","101","915601","0.0-25.0-0.4","SS1619739847224","","","null","","","","","","<p><img src= images/blank.png width =""600"" height = ""600"" style=""position:fixed;top:50%; left:50%; transform: translate(-50%, -50%); border:5px solid black"">","","","","","","","",""
"","2381.649999995716","sequential-stimulus-presentation-old","102","918512","0.0-25.0-1.4","SS1619739847224","trial","","40","500","2881.649999995716","images/stimuli/spore_stims/complex_19_A_a.gif","images/stimuli/spore_stims/complex_15_A_b.gif","forced_long","","8","complex_dissimilar","images/stimuli/spore_stims/complex_19_A_a.gif","","","","",""
"","10441.760000074282","survey-multi-choice","103","928979","0.0-26.0","SS1619739847224","math_question","","","","","","","","","","","","{""Q0"":""15""}","[0]","15","",""
"","null","html-keyboard-response","104","930149","0.0-27.0-0.0","SS1619739847224","","","null","","","","","","<p><img src= images/blank.png width =""600"" height = ""600"" style=""position:fixed;top:50%; left:50%; transform: translate(-50%, -50%); border:5px solid black"">","","","","","","","",""
"","1152.3800001014024","sequential-stimulus-presentation-old","105","946331","0.0-27.0-1.0","SS1619739847224","trial","","40","500","1652.3800001014024","images/stimuli/spore_stims/complex_09_A_b.gif","images/stimuli/spore_stims/complex_10_A_a.gif","forced_long","","9","complex_dissimilar","images/stimuli/spore_stims/complex_10_A_a.gif","","","","",""
"","null","html-keyboard-response","106","947325","0.0-27.0-0.1","SS1619739847224","","","null","","","","","","<p><img src= images/blank.png width =""600"" height = ""600"" style=""position:fixed;top:50%; left:50%; transform: translate(-50%, -50%); border:5px solid black"">","","","","","","","",""
"","3663.5800000512972","sequential-stimulus-presentation-old","107","951516","0.0-27.0-1.1","SS1619739847224","trial","","40","500","4163.580000051297","images/stimuli/spore_stims/complex_09_A_b.gif","images/stimuli/spore_stims/complex_10_A_a.gif","forced_long","","9","complex_dissimilar","images/stimuli/spore_stims/complex_10_A_a.gif","","","","",""
"","null","html-keyboard-response","108","952636","0.0-27.0-0.2","SS1619739847224","","","null","","","","","","<p><img src= images/blank.png width =""600"" height = ""600"" style=""position:fixed;top:50%; left:50%; transform: translate(-50%, -50%); border:5px solid black"">","","","","","","","",""
"","3160.6800000881776","sequential-stimulus-presentation-old","109","956322","0.0-27.0-1.2","SS1619739847224","trial","","40","500","3660.6800000881776","images/stimuli/spore_stims/complex_09_A_b.gif","images/stimuli/spore_stims/complex_10_A_a.gif","forced_long","","9","complex_dissimilar","images/stimuli/spore_stims/complex_10_A_a.gif","","","","",""
"","null","html-keyboard-response","110","957466","0.0-27.0-0.3","SS1619739847224","","","null","","","","","","<p><img src= images/blank.png width =""600"" height = ""600"" style=""position:fixed;top:50%; left:50%; transform: translate(-50%, -50%); border:5px solid black"">","","","","","","","",""
"","778.1350000295788","sequential-stimulus-presentation-old","111","958768","0.0-27.0-1.3","SS1619739847224","trial","","40","500","1278.1350000295788","images/stimuli/spore_stims/complex_09_A_b.gif","images/stimuli/spore_stims/complex_10_A_a.gif","forced_long","","9","complex_dissimilar","images/stimuli/spore_stims/complex_10_A_a.gif","","","","",""
"","6870.880000060424","survey-multi-choice","112","965654","0.0-28.0","SS1619739847224","math_question","","","","","","","","","","","","{""Q0"":""12""}","[0]","12","",""
"","null","html-keyboard-response","113","966670","0.0-29.0-0.0","SS1619739847224","","","null","","","","","","<p><img src= images/blank.png width =""600"" height = ""600"" style=""position:fixed;top:50%; left:50%; transform: translate(-50%, -50%); border:5px solid black"">","","","","","","","",""
"","2165.125000057742","sequential-stimulus-presentation-old","114","969366","0.0-29.0-1.0","SS1619739847224","trial","","40","500","2665.125000057742","images/stimuli/spore_stims/simple_06_A_b.gif","images/stimuli/spore_stims/simple_15_A_a.gif","forced_short","","10","simple_dissimilar","images/stimuli/spore_stims/simple_15_A_a.gif","","","","",""
"","null","html-keyboard-response","115","970193","0.0-29.0-0.1","SS1619739847224","","","null","","","","","","<p><img src= images/blank.png width =""600"" height = ""600"" style=""position:fixed;top:50%; left:50%; transform: translate(-50%, -50%); border:5px solid black"">","","","","","","","",""
"","9383.199999923818","sequential-stimulus-presentation-old","116","980103","0.0-29.0-1.1","SS1619739847224","trial","","40","500","9883.199999923818","images/stimuli/spore_stims/simple_06_A_b.gif","images/stimuli/spore_stims/simple_15_A_a.gif","forced_short","","10","simple_dissimilar","images/stimuli/spore_stims/simple_15_A_a.gif","","","","",""
"","null","html-keyboard-response","117","980952","0.0-29.0-0.2","SS1619739847224","","","null","","","","","","<p><img src= images/blank.png width =""600"" height = ""600"" style=""position:fixed;top:50%; left:50%; transform: translate(-50%, -50%); border:5px solid black"">","","","","","","","",""
"","5858.9549999451265","sequential-stimulus-presentation-old","118","987338","0.0-29.0-1.2","SS1619739847224","trial","","40","500","6358.9549999451265","images/stimuli/spore_stims/simple_06_A_b.gif","images/stimuli/spore_stims/simple_15_A_a.gif","forced_short","","10","simple_dissimilar","images/stimuli/spore_stims/simple_15_A_a.gif","","","","",""
"","null","html-keyboard-response","119","988185","0.0-29.0-0.3","SS1619739847224","","","null","","","","","","<p><img src= images/blank.png width =""600"" height = ""600"" style=""position:fixed;top:50%; left:50%; transform: translate(-50%, -50%); border:5px solid black"">","","","","","","","",""
"","5994.560000021011","sequential-stimulus-presentation-old","120","994709","0.0-29.0-1.3","SS1619739847224","trial","","40","500","6494.560000021011","images/stimuli/spore_stims/simple_06_A_b.gif","images/stimuli/spore_stims/simple_15_A_a.gif","forced_short","","10","simple_dissimilar","images/stimuli/spore_stims/simple_15_A_a.gif","","","","",""
"","null","html-keyboard-response","121","995922","0.0-29.0-0.4","SS1619739847224","","","null","","","","","","<p><img src= images/blank.png width =""600"" height = ""600"" style=""position:fixed;top:50%; left:50%; transform: translate(-50%, -50%); border:5px solid black"">","","","","","","","",""
"","7602.735000080429","sequential-stimulus-presentation-old","122","1004057","0.0-29.0-1.4","SS1619739847224","trial","","40","500","8102.735000080429","images/stimuli/spore_stims/simple_06_A_b.gif","images/stimuli/spore_stims/simple_15_A_a.gif","forced_short","","10","simple_dissimilar","images/stimuli/spore_stims/simple_15_A_a.gif","","","","",""
"","5646.415000082925","survey-multi-choice","123","1009728","0.0-30.0","SS1619739847224","math_question","","","","","","","","","","","","{""Q0"":""11""}","[0]","11","",""
"","null","html-keyboard-response","124","1010972","0.0-31.0-0.0","SS1619739847224","","","null","","","","","","<p><img src= images/blank.png width =""600"" height = ""600"" style=""position:fixed;top:50%; left:50%; transform: translate(-50%, -50%); border:5px solid black"">","","","","","","","",""
"","6125.609999988228","sequential-stimulus-presentation-old","125","1017630","0.0-31.0-1.0","SS1619739847224","trial","","40","500","6625.609999988228","images/stimuli/spore_stims/simple_20_A_b.gif","images/stimuli/spore_stims/simple_19_A_a.gif","forced_short","","11","simple_dissimilar","images/stimuli/spore_stims/simple_19_A_a.gif","","","","",""
"","null","html-keyboard-response","126","1018938","0.0-31.0-0.1","SS1619739847224","","","null","","","","","","<p><img src= images/blank.png width =""600"" height = ""600"" style=""position:fixed;top:50%; left:50%; transform: translate(-50%, -50%); border:5px solid black"">","","","","","","","",""
"","6856.0799999395385","sequential-stimulus-presentation-old","127","1026336","0.0-31.0-1.1","SS1619739847224","trial","","40","500","7356.0799999395385","images/stimuli/spore_stims/simple_20_A_b.gif","images/stimuli/spore_stims/simple_19_A_a.gif","forced_short","","11","simple_dissimilar","images/stimuli/spore_stims/simple_19_A_a.gif","","","","",""
"","null","html-keyboard-response","128","1027339","0.0-31.0-0.2","SS1619739847224","","","null","","","","","","<p><img src= images/blank.png width =""600"" height = ""600"" style=""position:fixed;top:50%; left:50%; transform: translate(-50%, -50%); border:5px solid black"">","","","","","","","",""
"","3258.990000002086","sequential-stimulus-presentation-old","129","1031130","0.0-31.0-1.2","SS1619739847224","trial","","40","500","3758.990000002086","images/stimuli/spore_stims/simple_20_A_b.gif","images/stimuli/spore_stims/simple_19_A_a.gif","forced_short","","11","simple_dissimilar","images/stimuli/spore_stims/simple_19_A_a.gif","","","","",""
"","null","html-keyboard-response","130","1032121","0.0-31.0-0.3","SS1619739847224","","","null","","","","","","<p><img src= images/blank.png width =""600"" height = ""600"" style=""position:fixed;top:50%; left:50%; transform: translate(-50%, -50%); border:5px solid black"">","","","","","","","",""
"","2956.1600000597537","sequential-stimulus-presentation-old","131","1035599","0.0-31.0-1.3","SS1619739847224","trial","","40","500","3456.1600000597537","images/stimuli/spore_stims/simple_20_A_b.gif","images/stimuli/spore_stims/simple_19_A_a.gif","forced_short","","11","simple_dissimilar","images/stimuli/spore_stims/simple_19_A_a.gif","","","","",""
"","null","html-keyboard-response","132","1036648","0.0-31.0-0.4","SS1619739847224","","","null","","","","","","<p><img src= images/blank.png width =""600"" height = ""600"" style=""position:fixed;top:50%; left:50%; transform: translate(-50%, -50%); border:5px solid black"">","","","","","","","",""
"","6718.55999995023","sequential-stimulus-presentation-old","133","1043894","0.0-31.0-1.4","SS1619739847224","trial","","40","500","7218.55999995023","images/stimuli/spore_stims/simple_20_A_b.gif","images/stimuli/spore_stims/simple_19_A_a.gif","forced_short","","11","simple_dissimilar","images/stimuli/spore_stims/simple_19_A_a.gif","","","","",""
"","null","html-keyboard-response","134","1044716","0.0-31.0-0.5","SS1619739847224","","","null","","","","","","<p><img src= images/blank.png width =""600"" height = ""600"" style=""position:fixed;top:50%; left:50%; transform: translate(-50%, -50%); border:5px solid black"">","","","","","","","",""
"","20553.944999934174","sequential-stimulus-presentation-old","135","1065798","0.0-31.0-1.5","SS1619739847224","trial","","40","500","21053.944999934174","images/stimuli/spore_stims/simple_20_A_b.gif","images/stimuli/spore_stims/simple_19_A_a.gif","forced_short","","11","simple_dissimilar","images/stimuli/spore_stims/simple_20_A_b.gif","","","","",""
"[{""page_index"":0,""viewing_time"":6426.550000091083}]","6432.7350000385195","instructions","136","1072251","0.0-32.0","SS1619739847224","instructions","","","","","","","","","","","","","","","",""
"","12146.799999987707","survey-likert","137","1084433","0.0-33.0","SS1619739847224","similarity_question","","","","","","","","","","","","{""Q0"":2}","[0]","","images/stimuli/spore_stims/complex_15_A_b.gif","images/stimuli/spore_stims/complex_19_A_a.gif"
"","15499.509999994189","survey-likert","138","1099999","0.0-34.0","SS1619739847224","similarity_question","","","","","","","","","","","","{""Q0"":1}","[0]","","images/stimuli/spore_stims/complex_06_A_a.gif","images/stimuli/spore_stims/complex_03_A_b.gif"
"","9221.7149999924","survey-likert","139","1109283","0.0-35.0","SS1619739847224","similarity_question","","","","","","","","","","","","{""Q0"":4}","[0]","","images/stimuli/spore_stims/complex_05_A_b.gif","images/stimuli/spore_stims/complex_12_A_a.gif"
"","21781.859999988228","survey-likert","140","1131118","0.0-36.0","SS1619739847224","similarity_question","","","","","","","","","","","","{""Q0"":3}","[0]","","images/stimuli/spore_stims/simple_19_A_b.gif","images/stimuli/spore_stims/simple_08_A_a.gif"
"","12579.014999908395","survey-likert","141","1143737","0.0-37.0","SS1619739847224","similarity_question","","","","","","","","","","","","{""Q0"":1}","[0]","","images/stimuli/spore_stims/complex_11_A_b.gif","images/stimuli/spore_stims/complex_16_A_a.gif"
"","9132.660000002943","survey-likert","142","1152922","0.0-38.0","SS1619739847224","similarity_question","","","","","","","","","","","","{""Q0"":2}","[0]","","images/stimuli/spore_stims/simple_04_A_a.gif","images/stimuli/spore_stims/simple_11_A_b.gif"
"","8313.730000052601","survey-likert","143","1161270","0.0-39.0","SS1619739847224","similarity_question","","","","","","","","","","","","{""Q0"":2}","[0]","","images/stimuli/spore_stims/simple_06_A_b.gif","images/stimuli/spore_stims/simple_15_A_a.gif"
"","5992.024999926798","survey-likert","144","1167304","0.0-40.0","SS1619739847224","similarity_question","","","","","","","","","","","","{""Q0"":2}","[0]","","images/stimuli/spore_stims/simple_13_A_b.gif","images/stimuli/spore_stims/simple_16_A_a.gif"
"","8786.874999990687","survey-likert","145","1176134","0.0-41.0","SS1619739847224","similarity_question","","","","","","","","","","","","{""Q0"":0}","[0]","","images/stimuli/spore_stims/complex_03_A_a.gif","images/stimuli/spore_stims/complex_20_A_b.gif"
"","11135.795000009239","survey-likert","146","1187317","0.0-42.0","SS1619739847224","similarity_question","","","","","","","","","","","","{""Q0"":4}","[0]","","images/stimuli/spore_stims/simple_17_A_a.gif","images/stimuli/spore_stims/simple_12_A_b.gif"
"","5560.924999997951","survey-likert","147","1192918","0.0-43.0","SS1619739847224","similarity_question","","","","","","","","","","","","{""Q0"":4}","[0]","","images/stimuli/spore_stims/simple_19_A_a.gif","images/stimuli/spore_stims/simple_20_A_b.gif"
"","9413.854999933392","survey-likert","148","1202369","0.0-44.0","SS1619739847224","similarity_question","","","","","","","","","","","","{""Q0"":1}","[0]","","images/stimuli/spore_stims/complex_09_A_b.gif","images/stimuli/spore_stims/complex_10_A_a.gif"
"[{""page_index"":0,""viewing_time"":7197.180000017397}]","7199.889999930747","instructions","149","1209603","0.0-45.0","SS1619739847224","instructions","","","","","","","","","","","","","","","",""
"","10750.705000013113","survey-likert","150","1220389","0.0-46.0","SS1619739847224","","","","","","","","","images/stimuli/spore_stims/complex_16_A_a.gif","","","","{""Q0"":5}","[0]","","",""
"","9826.88499998767","survey-likert","151","1230268","0.0-47.0","SS1619739847224","","","","","","","","","images/stimuli/spore_stims/complex_03_A_b.gif","","","","{""Q0"":4}","[0]","","",""
"","28345.184999983758","survey-likert","152","1258654","0.0-48.0","SS1619739847224","","","","","","","","","images/stimuli/spore_stims/simple_12_A_b.gif","","","","{""Q0"":2}","[0]","","",""
"","5074.114999966696","survey-likert","153","1263773","0.0-49.0","SS1619739847224","","","","","","","","","images/stimuli/spore_stims/simple_04_A_a.gif","","","","{""Q0"":2}","[0]","","",""
"","8213.52999994997","survey-likert","154","1272025","0.0-50.0","SS1619739847224","","","","","","","","","images/stimuli/spore_stims/complex_19_A_a.gif","","","","{""Q0"":4}","[0]","","",""
"","8820.549999945797","survey-likert","155","1280898","0.0-51.0","SS1619739847224","","","","","","","","","images/stimuli/spore_stims/complex_09_A_b.gif","","","","{""Q0"":5}","[0]","","",""
"","8455.299999914132","survey-likert","156","1289394","0.0-52.0","SS1619739847224","","","","","","","","","images/stimuli/spore_stims/simple_19_A_a.gif","","","","{""Q0"":3}","[0]","","",""
"","5112.375000026077","survey-likert","157","1294547","0.0-53.0","SS1619739847224","","","","","","","","","images/stimuli/spore_stims/complex_12_A_a.gif","","","","{""Q0"":6}","[0]","","",""
"","7927.10500000976","survey-likert","158","1302511","0.0-54.0","SS1619739847224","","","","","","","","","images/stimuli/spore_stims/simple_19_A_b.gif","","","","{""Q0"":3}","[0]","","",""
"","16980.10000004433","survey-likert","159","1319533","0.0-55.0","SS1619739847224","","","","","","","","","images/stimuli/spore_stims/complex_03_A_a.gif","","","","{""Q0"":5}","[0]","","",""
"","4578.570000012405","survey-likert","160","1324151","0.0-56.0","SS1619739847224","","","","","","","","","images/stimuli/spore_stims/simple_15_A_a.gif","","","","{""Q0"":2}","[0]","","",""
"","6154.8600000096485","survey-likert","161","1330347","0.0-57.0","SS1619739847224","","","","","","","","","images/stimuli/spore_stims/simple_13_A_b.gif","","","","{""Q0"":1}","[0]","","",""
"[{""page_index"":0,""viewing_time"":2907.854999997653}]","2910.785000072792","instructions","162","1333303","0.0-58.0","SS1619739847224","instructions","","","","","","","","","","","","","","","",""
"","3548.3300000196323","demog-age","163","1336912","0.0-59.0","SS1619739847224","","","","","","","","","","","","","{""age"":""27""}","","","",""
"","6843.800000031479","demog-ethnic-US","164","1343800","0.0-60.0","SS1619739847224","","","","","","","","","","","","","{""ethnicity"":[""Hispanic or Latino""]}","[0]","","",""
"","12178.160000010394","demog-gender-and-education","165","1356011","0.0-61.0","SS1619739847224","","","","","","","","","","","","","{""gender"":""Female"",""education"":""Bachelor's Degree""}","[0,1]","","",""
"","207175.83999992348","survey-text","166","1563248","0.0-62.0","SS1619739847224","feedback","","","","","","","","","","","","{""Q0"":""I haven't problems with the animation. The anomation played correctly. ""}","","","",""
"[{""page_index"":0,""viewing_time"":2864.575000014156}]","2867.7049999823794","instructions","167","1566172","0.0-63.0","SS1619739847224","instructions","","","","","","","","","","","","","","","",""
