"view_history","rt","trial_type","trial_index","time_elapsed","internal_node_id","subject","stimulus_type","trial_stimulus","key_press","minimum_viewing_duration","trial_looking_time","block_deviant","block_background","exposure_type","stimulus","block_number","block_type","stimulus_displayed","responses","question_order","math_correct_answer","stimulus_left","stimulus_right"
"[{""page_index"":0,""viewing_time"":3916.09499999322}]","3916.810000082478","instructions","0","3919","0.0-0.0","SS1619739307054","","","","","","","","","","","","","","","","",""
"[{""page_index"":0,""viewing_time"":10556.495000026189},{""page_index"":1,""viewing_time"":4212.775000021793}]","14769.504999974743","instructions","1","20690","0.0-1.0","SS1619739307054","instructions","","","","","","","","","","","","","","","",""
"","6309.514999971725","sequential-stimulus-presentation-old","2","27503","0.0-2.0","SS1619739307054","","","40","500","6809.514999971725","null","null","self_paced","","","","","","","","",""
"","3216.924999956973","sequential-stimulus-presentation-old","3","31222","0.0-3.0","SS1619739307054","","","40","500","3716.924999956973","null","null","self_paced","","","","","","","","",""
"[{""page_index"":0,""viewing_time"":12990.985000040382}]","12991.225000005215","instructions","4","44214","0.0-4.0","SS1619739307054","instructions","","","","","","","","","","","","","","","",""
"","1448.9899999462068","sequential-stimulus-presentation-old","5","60666","0.0-5.0","SS1619739307054","","","40","500","1948.9899999462068","null","null","forced_long","","","","","","","","",""
"","2446.17000001017","sequential-stimulus-presentation-old","6","63615","0.0-6.0","SS1619739307054","","","40","500","2946.17000001017","null","null","forced_long","","","","","","","","",""
"[{""page_index"":0,""viewing_time"":3734.1200000373647}]","3734.334999928251","instructions","7","67350","0.0-7.0","SS1619739307054","instructions","","","","","","","","","","","","","","","",""
"[{""page_index"":0,""viewing_time"":8027.095000026748},{""page_index"":1,""viewing_time"":11993.93500003498},{""page_index"":2,""viewing_time"":4364.5299999043345},{""page_index"":3,""viewing_time"":1849.8850000323728},{""page_index"":4,""viewing_time"":1418.1249999674037}]","27653.76999997534","instructions","8","95005","0.0-8.0","SS1619739307054","instructions","","","","","","","","","","","","","","","",""
"","null","html-keyboard-response","9","96287","0.0-9.0-0.0","SS1619739307054","","","null","","","","","","<p><img src= images/blank.png width =""600"" height = ""600"" style=""position:fixed;top:50%; left:50%; transform: translate(-50%, -50%); border:5px solid black"">","","","","","","","",""
"","2029.9950001062825","sequential-stimulus-presentation-old","10","98820","0.0-9.0-1.0","SS1619739307054","trial","","40","500","2529.9950001062825","images/stimuli/spore_stims/complex_04_A_a.gif","images/stimuli/spore_stims/complex_06_A_b.gif","forced_short","","0","complex_dissimilar","images/stimuli/spore_stims/complex_06_A_b.gif","","","","",""
"","null","html-keyboard-response","11","100077","0.0-9.0-0.1","SS1619739307054","","","null","","","","","","<p><img src= images/blank.png width =""600"" height = ""600"" style=""position:fixed;top:50%; left:50%; transform: translate(-50%, -50%); border:5px solid black"">","","","","","","","",""
"","4473.240000079386","sequential-stimulus-presentation-old","12","105054","0.0-9.0-1.1","SS1619739307054","trial","","40","500","4973.240000079386","images/stimuli/spore_stims/complex_04_A_a.gif","images/stimuli/spore_stims/complex_06_A_b.gif","forced_short","","0","complex_dissimilar","images/stimuli/spore_stims/complex_06_A_b.gif","","","","",""
"","null","html-keyboard-response","13","105975","0.0-9.0-0.2","SS1619739307054","","","null","","","","","","<p><img src= images/blank.png width =""600"" height = ""600"" style=""position:fixed;top:50%; left:50%; transform: translate(-50%, -50%); border:5px solid black"">","","","","","","","",""
"","9584.904999937862","sequential-stimulus-presentation-old","14","116064","0.0-9.0-1.2","SS1619739307054","trial","","40","500","10084.904999937862","images/stimuli/spore_stims/complex_04_A_a.gif","images/stimuli/spore_stims/complex_06_A_b.gif","forced_short","","0","complex_dissimilar","images/stimuli/spore_stims/complex_04_A_a.gif","","","","",""
"","null","html-keyboard-response","15","117100","0.0-9.0-0.3","SS1619739307054","","","null","","","","","","<p><img src= images/blank.png width =""600"" height = ""600"" style=""position:fixed;top:50%; left:50%; transform: translate(-50%, -50%); border:5px solid black"">","","","","","","","",""
"","6585.4749999707565","sequential-stimulus-presentation-old","16","124190","0.0-9.0-1.3","SS1619739307054","trial","","40","500","7085.4749999707565","images/stimuli/spore_stims/complex_04_A_a.gif","images/stimuli/spore_stims/complex_06_A_b.gif","forced_short","","0","complex_dissimilar","images/stimuli/spore_stims/complex_06_A_b.gif","","","","",""
"","null","html-keyboard-response","17","125319","0.0-9.0-0.4","SS1619739307054","","","null","","","","","","<p><img src= images/blank.png width =""600"" height = ""600"" style=""position:fixed;top:50%; left:50%; transform: translate(-50%, -50%); border:5px solid black"">","","","","","","","",""
"","1715.9149999497458","sequential-stimulus-presentation-old","18","127537","0.0-9.0-1.4","SS1619739307054","trial","","40","500","2215.914999949746","images/stimuli/spore_stims/complex_04_A_a.gif","images/stimuli/spore_stims/complex_06_A_b.gif","forced_short","","0","complex_dissimilar","images/stimuli/spore_stims/complex_06_A_b.gif","","","","",""
"","null","html-keyboard-response","19","128500","0.0-9.0-0.5","SS1619739307054","","","null","","","","","","<p><img src= images/blank.png width =""600"" height = ""600"" style=""position:fixed;top:50%; left:50%; transform: translate(-50%, -50%); border:5px solid black"">","","","","","","","",""
"","2117.439999943599","sequential-stimulus-presentation-old","20","131120","0.0-9.0-1.5","SS1619739307054","trial","","40","500","2617.439999943599","images/stimuli/spore_stims/complex_04_A_a.gif","images/stimuli/spore_stims/complex_06_A_b.gif","forced_short","","0","complex_dissimilar","images/stimuli/spore_stims/complex_04_A_a.gif","","","","",""
"","5438.059999956749","survey-multi-choice","21","136562","0.0-10.0","SS1619739307054","math_question","","","","","","","","","","","","{""Q0"":""17""}","[0]","17","",""
"","null","html-keyboard-response","22","137818","0.0-11.0-0.0","SS1619739307054","","","null","","","","","","<p><img src= images/blank.png width =""600"" height = ""600"" style=""position:fixed;top:50%; left:50%; transform: translate(-50%, -50%); border:5px solid black"">","","","","","","","",""
"","5162.649999954738","sequential-stimulus-presentation-old","23","143483","0.0-11.0-1.0","SS1619739307054","trial","","40","500","5662.649999954738","images/stimuli/spore_stims/complex_17_A_b.gif","images/stimuli/spore_stims/complex_16_A_a.gif","self_paced","","1","complex_dissimilar","images/stimuli/spore_stims/complex_16_A_a.gif","","","","",""
"","null","html-keyboard-response","24","144751","0.0-11.0-0.1","SS1619739307054","","","null","","","","","","<p><img src= images/blank.png width =""600"" height = ""600"" style=""position:fixed;top:50%; left:50%; transform: translate(-50%, -50%); border:5px solid black"">","","","","","","","",""
"","4768.51500000339","sequential-stimulus-presentation-old","25","150022","0.0-11.0-1.1","SS1619739307054","trial","","40","500","5268.51500000339","images/stimuli/spore_stims/complex_17_A_b.gif","images/stimuli/spore_stims/complex_16_A_a.gif","self_paced","","1","complex_dissimilar","images/stimuli/spore_stims/complex_16_A_a.gif","","","","",""
"","null","html-keyboard-response","26","151044","0.0-11.0-0.2","SS1619739307054","","","null","","","","","","<p><img src= images/blank.png width =""600"" height = ""600"" style=""position:fixed;top:50%; left:50%; transform: translate(-50%, -50%); border:5px solid black"">","","","","","","","",""
"","5546.894999919459","sequential-stimulus-presentation-old","27","157093","0.0-11.0-1.2","SS1619739307054","trial","","40","500","6046.894999919459","images/stimuli/spore_stims/complex_17_A_b.gif","images/stimuli/spore_stims/complex_16_A_a.gif","self_paced","","1","complex_dissimilar","images/stimuli/spore_stims/complex_16_A_a.gif","","","","",""
"","null","html-keyboard-response","28","158149","0.0-11.0-0.3","SS1619739307054","","","null","","","","","","<p><img src= images/blank.png width =""600"" height = ""600"" style=""position:fixed;top:50%; left:50%; transform: translate(-50%, -50%); border:5px solid black"">","","","","","","","",""
"","1098.809999995865","sequential-stimulus-presentation-old","29","159750","0.0-11.0-1.3","SS1619739307054","trial","","40","500","1598.809999995865","images/stimuli/spore_stims/complex_17_A_b.gif","images/stimuli/spore_stims/complex_16_A_a.gif","self_paced","","1","complex_dissimilar","images/stimuli/spore_stims/complex_16_A_a.gif","","","","",""
"","null","html-keyboard-response","30","160606","0.0-11.0-0.4","SS1619739307054","","","null","","","","","","<p><img src= images/blank.png width =""600"" height = ""600"" style=""position:fixed;top:50%; left:50%; transform: translate(-50%, -50%); border:5px solid black"">","","","","","","","",""
"","3674.5250000385568","sequential-stimulus-presentation-old","31","164783","0.0-11.0-1.4","SS1619739307054","trial","","40","500","4174.525000038557","images/stimuli/spore_stims/complex_17_A_b.gif","images/stimuli/spore_stims/complex_16_A_a.gif","self_paced","","1","complex_dissimilar","images/stimuli/spore_stims/complex_17_A_b.gif","","","","",""
"","null","html-keyboard-response","32","165769","0.0-11.0-0.5","SS1619739307054","","","null","","","","","","<p><img src= images/blank.png width =""600"" height = ""600"" style=""position:fixed;top:50%; left:50%; transform: translate(-50%, -50%); border:5px solid black"">","","","","","","","",""
"","14515.510000055656","sequential-stimulus-presentation-old","33","180789","0.0-11.0-1.5","SS1619739307054","trial","","40","500","15015.510000055656","images/stimuli/spore_stims/complex_17_A_b.gif","images/stimuli/spore_stims/complex_16_A_a.gif","self_paced","","1","complex_dissimilar","images/stimuli/spore_stims/complex_16_A_a.gif","","","","",""
"","3159.7799999872223","survey-multi-choice","34","183950","0.0-12.0","SS1619739307054","math_question","","","","","","","","","","","","{""Q0"":""10""}","[0]","10","",""
"","null","html-keyboard-response","35","184962","0.0-13.0-0.0","SS1619739307054","","","null","","","","","","<p><img src= images/blank.png width =""600"" height = ""600"" style=""position:fixed;top:50%; left:50%; transform: translate(-50%, -50%); border:5px solid black"">","","","","","","","",""
"","1755.2799999248236","sequential-stimulus-presentation-old","36","187220","0.0-13.0-1.0","SS1619739307054","trial","","40","500","2255.2799999248236","images/stimuli/spore_stims/simple_03_A_a.gif","images/stimuli/spore_stims/simple_11_A_b.gif","self_paced","","2","simple_dissimilar","images/stimuli/spore_stims/simple_11_A_b.gif","","","","",""
"","null","html-keyboard-response","37","188189","0.0-13.0-0.1","SS1619739307054","","","null","","","","","","<p><img src= images/blank.png width =""600"" height = ""600"" style=""position:fixed;top:50%; left:50%; transform: translate(-50%, -50%); border:5px solid black"">","","","","","","","",""
"","796.8949999194592","sequential-stimulus-presentation-old","38","189489","0.0-13.0-1.1","SS1619739307054","trial","","40","500","1296.8949999194592","images/stimuli/spore_stims/simple_03_A_a.gif","images/stimuli/spore_stims/simple_11_A_b.gif","self_paced","","2","simple_dissimilar","images/stimuli/spore_stims/simple_11_A_b.gif","","","","",""
"","null","html-keyboard-response","39","190703","0.0-13.0-0.2","SS1619739307054","","","null","","","","","","<p><img src= images/blank.png width =""600"" height = ""600"" style=""position:fixed;top:50%; left:50%; transform: translate(-50%, -50%); border:5px solid black"">","","","","","","","",""
"","848.4000000171363","sequential-stimulus-presentation-old","40","192054","0.0-13.0-1.2","SS1619739307054","trial","","40","500","1348.4000000171363","images/stimuli/spore_stims/simple_03_A_a.gif","images/stimuli/spore_stims/simple_11_A_b.gif","self_paced","","2","simple_dissimilar","images/stimuli/spore_stims/simple_11_A_b.gif","","","","",""
"","null","html-keyboard-response","41","192901","0.0-13.0-0.3","SS1619739307054","","","null","","","","","","<p><img src= images/blank.png width =""600"" height = ""600"" style=""position:fixed;top:50%; left:50%; transform: translate(-50%, -50%); border:5px solid black"">","","","","","","","",""
"","876.6550000291318","sequential-stimulus-presentation-old","42","194281","0.0-13.0-1.3","SS1619739307054","trial","","40","500","1376.6550000291318","images/stimuli/spore_stims/simple_03_A_a.gif","images/stimuli/spore_stims/simple_11_A_b.gif","self_paced","","2","simple_dissimilar","images/stimuli/spore_stims/simple_11_A_b.gif","","","","",""
"","null","html-keyboard-response","43","195108","0.0-13.0-0.4","SS1619739307054","","","null","","","","","","<p><img src= images/blank.png width =""600"" height = ""600"" style=""position:fixed;top:50%; left:50%; transform: translate(-50%, -50%); border:5px solid black"">","","","","","","","",""
"","2304.050000035204","sequential-stimulus-presentation-old","44","197916","0.0-13.0-1.4","SS1619739307054","trial","","40","500","2804.050000035204","images/stimuli/spore_stims/simple_03_A_a.gif","images/stimuli/spore_stims/simple_11_A_b.gif","self_paced","","2","simple_dissimilar","images/stimuli/spore_stims/simple_03_A_a.gif","","","","",""
"","7630.894999951124","survey-multi-choice","45","205548","0.0-14.0","SS1619739307054","math_question","","","","","","","","","","","","{""Q0"":""13""}","[0]","13","",""
"","null","html-keyboard-response","46","206572","0.0-15.0-0.0","SS1619739307054","","","null","","","","","","<p><img src= images/blank.png width =""600"" height = ""600"" style=""position:fixed;top:50%; left:50%; transform: translate(-50%, -50%); border:5px solid black"">","","","","","","","",""
"","2185.524999978952","sequential-stimulus-presentation-old","47","209261","0.0-15.0-1.0","SS1619739307054","trial","","40","500","2685.524999978952","images/stimuli/spore_stims/complex_11_A_a.gif","images/stimuli/spore_stims/complex_18_A_b.gif","self_paced","","3","complex_dissimilar","images/stimuli/spore_stims/complex_18_A_b.gif","","","","",""
"","null","html-keyboard-response","48","210153","0.0-15.0-0.1","SS1619739307054","","","null","","","","","","<p><img src= images/blank.png width =""600"" height = ""600"" style=""position:fixed;top:50%; left:50%; transform: translate(-50%, -50%); border:5px solid black"">","","","","","","","",""
"","323.85000004433095","sequential-stimulus-presentation-old","49","210980","0.0-15.0-1.1","SS1619739307054","trial","","40","500","823.850000044331","images/stimuli/spore_stims/complex_11_A_a.gif","images/stimuli/spore_stims/complex_18_A_b.gif","self_paced","","3","complex_dissimilar","images/stimuli/spore_stims/complex_18_A_b.gif","","","","",""
"","null","html-keyboard-response","50","212202","0.0-15.0-0.2","SS1619739307054","","","null","","","","","","<p><img src= images/blank.png width =""600"" height = ""600"" style=""position:fixed;top:50%; left:50%; transform: translate(-50%, -50%); border:5px solid black"">","","","","","","","",""
"","940.0449999375269","sequential-stimulus-presentation-old","51","213645","0.0-15.0-1.2","SS1619739307054","trial","","40","500","1440.0449999375269","images/stimuli/spore_stims/complex_11_A_a.gif","images/stimuli/spore_stims/complex_18_A_b.gif","self_paced","","3","complex_dissimilar","images/stimuli/spore_stims/complex_18_A_b.gif","","","","",""
"","null","html-keyboard-response","52","214487","0.0-15.0-0.3","SS1619739307054","","","null","","","","","","<p><img src= images/blank.png width =""600"" height = ""600"" style=""position:fixed;top:50%; left:50%; transform: translate(-50%, -50%); border:5px solid black"">","","","","","","","",""
"","1018.5700000729412","sequential-stimulus-presentation-old","53","216009","0.0-15.0-1.3","SS1619739307054","trial","","40","500","1518.5700000729412","images/stimuli/spore_stims/complex_11_A_a.gif","images/stimuli/spore_stims/complex_18_A_b.gif","self_paced","","3","complex_dissimilar","images/stimuli/spore_stims/complex_18_A_b.gif","","","","",""
"","null","html-keyboard-response","54","216823","0.0-15.0-0.4","SS1619739307054","","","null","","","","","","<p><img src= images/blank.png width =""600"" height = ""600"" style=""position:fixed;top:50%; left:50%; transform: translate(-50%, -50%); border:5px solid black"">","","","","","","","",""
"","1173.2400000328198","sequential-stimulus-presentation-old","55","218499","0.0-15.0-1.4","SS1619739307054","trial","","40","500","1673.2400000328198","images/stimuli/spore_stims/complex_11_A_a.gif","images/stimuli/spore_stims/complex_18_A_b.gif","self_paced","","3","complex_dissimilar","images/stimuli/spore_stims/complex_18_A_b.gif","","","","",""
"","null","html-keyboard-response","56","219700","0.0-15.0-0.5","SS1619739307054","","","null","","","","","","<p><img src= images/blank.png width =""600"" height = ""600"" style=""position:fixed;top:50%; left:50%; transform: translate(-50%, -50%); border:5px solid black"">","","","","","","","",""
"","3134.2050000093877","sequential-stimulus-presentation-old","57","223338","0.0-15.0-1.5","SS1619739307054","trial","","40","500","3634.2050000093877","images/stimuli/spore_stims/complex_11_A_a.gif","images/stimuli/spore_stims/complex_18_A_b.gif","self_paced","","3","complex_dissimilar","images/stimuli/spore_stims/complex_11_A_a.gif","","","","",""
"","3704.354999936186","survey-multi-choice","58","227044","0.0-16.0","SS1619739307054","math_question","","","","","","","","","","","","{""Q0"":""8""}","[0]","8","",""
"","null","html-keyboard-response","59","228325","0.0-17.0-0.0","SS1619739307054","","","null","","","","","","<p><img src= images/blank.png width =""600"" height = ""600"" style=""position:fixed;top:50%; left:50%; transform: translate(-50%, -50%); border:5px solid black"">","","","","","","","",""
"","1199.309999938123","sequential-stimulus-presentation-old","60","244528","0.0-17.0-1.0","SS1619739307054","trial","","40","500","1699.309999938123","images/stimuli/spore_stims/complex_11_A_b.gif","images/stimuli/spore_stims/complex_13_A_a.gif","forced_long","","4","complex_dissimilar","images/stimuli/spore_stims/complex_13_A_a.gif","","","","",""
"","null","html-keyboard-response","61","245363","0.0-17.0-0.1","SS1619739307054","","","null","","","","","","<p><img src= images/blank.png width =""600"" height = ""600"" style=""position:fixed;top:50%; left:50%; transform: translate(-50%, -50%); border:5px solid black"">","","","","","","","",""
"","105405.29000002425","sequential-stimulus-presentation-old","62","351271","0.0-17.0-1.1","SS1619739307054","trial","","40","500","105905.29000002425","images/stimuli/spore_stims/complex_11_A_b.gif","images/stimuli/spore_stims/complex_13_A_a.gif","forced_long","","4","complex_dissimilar","images/stimuli/spore_stims/complex_13_A_a.gif","","","","",""
"","null","html-keyboard-response","63","352461","0.0-17.0-0.2","SS1619739307054","","","null","","","","","","<p><img src= images/blank.png width =""600"" height = ""600"" style=""position:fixed;top:50%; left:50%; transform: translate(-50%, -50%); border:5px solid black"">","","","","","","","",""
"","648.8750000717118","sequential-stimulus-presentation-old","64","353613","0.0-17.0-1.2","SS1619739307054","trial","","40","500","1148.8750000717118","images/stimuli/spore_stims/complex_11_A_b.gif","images/stimuli/spore_stims/complex_13_A_a.gif","forced_long","","4","complex_dissimilar","images/stimuli/spore_stims/complex_11_A_b.gif","","","","",""
"","null","html-keyboard-response","65","354905","0.0-17.0-0.3","SS1619739307054","","","null","","","","","","<p><img src= images/blank.png width =""600"" height = ""600"" style=""position:fixed;top:50%; left:50%; transform: translate(-50%, -50%); border:5px solid black"">","","","","","","","",""
"","2511.0850000055507","sequential-stimulus-presentation-old","66","357919","0.0-17.0-1.3","SS1619739307054","trial","","40","500","3011.0850000055507","images/stimuli/spore_stims/complex_11_A_b.gif","images/stimuli/spore_stims/complex_13_A_a.gif","forced_long","","4","complex_dissimilar","images/stimuli/spore_stims/complex_13_A_a.gif","","","","",""
"","null","html-keyboard-response","67","358789","0.0-17.0-0.4","SS1619739307054","","","null","","","","","","<p><img src= images/blank.png width =""600"" height = ""600"" style=""position:fixed;top:50%; left:50%; transform: translate(-50%, -50%); border:5px solid black"">","","","","","","","",""
"","1883.4049999713898","sequential-stimulus-presentation-old","68","361177","0.0-17.0-1.4","SS1619739307054","trial","","40","500","2383.4049999713898","images/stimuli/spore_stims/complex_11_A_b.gif","images/stimuli/spore_stims/complex_13_A_a.gif","forced_long","","4","complex_dissimilar","images/stimuli/spore_stims/complex_13_A_a.gif","","","","",""
"","3050.084999995306","survey-multi-choice","69","364229","0.0-18.0","SS1619739307054","math_question","","","","","","","","","","","","{""Q0"":""9""}","[0]","9","",""
"","null","html-keyboard-response","70","365293","0.0-19.0-0.0","SS1619739307054","","","null","","","","","","<p><img src= images/blank.png width =""600"" height = ""600"" style=""position:fixed;top:50%; left:50%; transform: translate(-50%, -50%); border:5px solid black"">","","","","","","","",""
"","426.2950000120327","sequential-stimulus-presentation-old","71","380723","0.0-19.0-1.0","SS1619739307054","trial","","40","500","926.2950000120327","images/stimuli/spore_stims/complex_02_A_b.gif","images/stimuli/spore_stims/complex_18_A_a.gif","forced_long","","5","complex_dissimilar","images/stimuli/spore_stims/complex_18_A_a.gif","","","","",""
"","null","html-keyboard-response","72","381586","0.0-19.0-0.1","SS1619739307054","","","null","","","","","","<p><img src= images/blank.png width =""600"" height = ""600"" style=""position:fixed;top:50%; left:50%; transform: translate(-50%, -50%); border:5px solid black"">","","","","","","","",""
"","211.39499999117106","sequential-stimulus-presentation-old","73","382301","0.0-19.0-1.1","SS1619739307054","trial","","40","500","711.3949999911711","images/stimuli/spore_stims/complex_02_A_b.gif","images/stimuli/spore_stims/complex_18_A_a.gif","forced_long","","5","complex_dissimilar","images/stimuli/spore_stims/complex_18_A_a.gif","","","","",""
"","null","html-keyboard-response","74","383122","0.0-19.0-0.2","SS1619739307054","","","null","","","","","","<p><img src= images/blank.png width =""600"" height = ""600"" style=""position:fixed;top:50%; left:50%; transform: translate(-50%, -50%); border:5px solid black"">","","","","","","","",""
"","316.3449999410659","sequential-stimulus-presentation-old","75","383942","0.0-19.0-1.2","SS1619739307054","trial","","40","500","816.3449999410659","images/stimuli/spore_stims/complex_02_A_b.gif","images/stimuli/spore_stims/complex_18_A_a.gif","forced_long","","5","complex_dissimilar","images/stimuli/spore_stims/complex_18_A_a.gif","","","","",""
"","null","html-keyboard-response","76","384818","0.0-19.0-0.3","SS1619739307054","","","null","","","","","","<p><img src= images/blank.png width =""600"" height = ""600"" style=""position:fixed;top:50%; left:50%; transform: translate(-50%, -50%); border:5px solid black"">","","","","","","","",""
"","229.60500000044703","sequential-stimulus-presentation-old","77","385551","0.0-19.0-1.3","SS1619739307054","trial","","40","500","729.605000000447","images/stimuli/spore_stims/complex_02_A_b.gif","images/stimuli/spore_stims/complex_18_A_a.gif","forced_long","","5","complex_dissimilar","images/stimuli/spore_stims/complex_18_A_a.gif","","","","",""
"","null","html-keyboard-response","78","386719","0.0-19.0-0.4","SS1619739307054","","","null","","","","","","<p><img src= images/blank.png width =""600"" height = ""600"" style=""position:fixed;top:50%; left:50%; transform: translate(-50%, -50%); border:5px solid black"">","","","","","","","",""
"","2839.1400000546128","sequential-stimulus-presentation-old","79","390061","0.0-19.0-1.4","SS1619739307054","trial","","40","500","3339.1400000546128","images/stimuli/spore_stims/complex_02_A_b.gif","images/stimuli/spore_stims/complex_18_A_a.gif","forced_long","","5","complex_dissimilar","images/stimuli/spore_stims/complex_02_A_b.gif","","","","",""
"","null","html-keyboard-response","80","391128","0.0-19.0-0.5","SS1619739307054","","","null","","","","","","<p><img src= images/blank.png width =""600"" height = ""600"" style=""position:fixed;top:50%; left:50%; transform: translate(-50%, -50%); border:5px solid black"">","","","","","","","",""
"","267.6450000144541","sequential-stimulus-presentation-old","81","391899","0.0-19.0-1.5","SS1619739307054","trial","","40","500","767.6450000144541","images/stimuli/spore_stims/complex_02_A_b.gif","images/stimuli/spore_stims/complex_18_A_a.gif","forced_long","","5","complex_dissimilar","images/stimuli/spore_stims/complex_18_A_a.gif","","","","",""
"","3936.0449999803677","survey-multi-choice","82","395837","0.0-20.0","SS1619739307054","math_question","","","","","","","","","","","","{""Q0"":""13""}","[0]","13","",""
"","null","html-keyboard-response","83","396945","0.0-21.0-0.0","SS1619739307054","","","null","","","","","","<p><img src= images/blank.png width =""600"" height = ""600"" style=""position:fixed;top:50%; left:50%; transform: translate(-50%, -50%); border:5px solid black"">","","","","","","","",""
"","1740.6950000440702","sequential-stimulus-presentation-old","84","399189","0.0-21.0-1.0","SS1619739307054","trial","","40","500","2240.69500004407","images/stimuli/spore_stims/complex_12_A_b.gif","images/stimuli/spore_stims/complex_09_A_a.gif","forced_short","","6","complex_dissimilar","images/stimuli/spore_stims/complex_09_A_a.gif","","","","",""
"","null","html-keyboard-response","85","400017","0.0-21.0-0.1","SS1619739307054","","","null","","","","","","<p><img src= images/blank.png width =""600"" height = ""600"" style=""position:fixed;top:50%; left:50%; transform: translate(-50%, -50%); border:5px solid black"">","","","","","","","",""
"","1967.259999946691","sequential-stimulus-presentation-old","86","402488","0.0-21.0-1.1","SS1619739307054","trial","","40","500","2467.259999946691","images/stimuli/spore_stims/complex_12_A_b.gif","images/stimuli/spore_stims/complex_09_A_a.gif","forced_short","","6","complex_dissimilar","images/stimuli/spore_stims/complex_09_A_a.gif","","","","",""
"","null","html-keyboard-response","87","403421","0.0-21.0-0.2","SS1619739307054","","","null","","","","","","<p><img src= images/blank.png width =""600"" height = ""600"" style=""position:fixed;top:50%; left:50%; transform: translate(-50%, -50%); border:5px solid black"">","","","","","","","",""
"","5480.645000003278","sequential-stimulus-presentation-old","88","409406","0.0-21.0-1.2","SS1619739307054","trial","","40","500","5980.645000003278","images/stimuli/spore_stims/complex_12_A_b.gif","images/stimuli/spore_stims/complex_09_A_a.gif","forced_short","","6","complex_dissimilar","images/stimuli/spore_stims/complex_09_A_a.gif","","","","",""
"","null","html-keyboard-response","89","410482","0.0-21.0-0.3","SS1619739307054","","","null","","","","","","<p><img src= images/blank.png width =""600"" height = ""600"" style=""position:fixed;top:50%; left:50%; transform: translate(-50%, -50%); border:5px solid black"">","","","","","","","",""
"","428.2749999547377","sequential-stimulus-presentation-old","90","411416","0.0-21.0-1.3","SS1619739307054","trial","","40","500","928.2749999547377","images/stimuli/spore_stims/complex_12_A_b.gif","images/stimuli/spore_stims/complex_09_A_a.gif","forced_short","","6","complex_dissimilar","images/stimuli/spore_stims/complex_09_A_a.gif","","","","",""
"","null","html-keyboard-response","91","412223","0.0-21.0-0.4","SS1619739307054","","","null","","","","","","<p><img src= images/blank.png width =""600"" height = ""600"" style=""position:fixed;top:50%; left:50%; transform: translate(-50%, -50%); border:5px solid black"">","","","","","","","",""
"","299.62499998509884","sequential-stimulus-presentation-old","92","413025","0.0-21.0-1.4","SS1619739307054","trial","","40","500","799.6249999850988","images/stimuli/spore_stims/complex_12_A_b.gif","images/stimuli/spore_stims/complex_09_A_a.gif","forced_short","","6","complex_dissimilar","images/stimuli/spore_stims/complex_09_A_a.gif","","","","",""
"","null","html-keyboard-response","93","413976","0.0-21.0-0.5","SS1619739307054","","","null","","","","","","<p><img src= images/blank.png width =""600"" height = ""600"" style=""position:fixed;top:50%; left:50%; transform: translate(-50%, -50%); border:5px solid black"">","","","","","","","",""
"","1947.054999996908","sequential-stimulus-presentation-old","94","416427","0.0-21.0-1.5","SS1619739307054","trial","","40","500","2447.054999996908","images/stimuli/spore_stims/complex_12_A_b.gif","images/stimuli/spore_stims/complex_09_A_a.gif","forced_short","","6","complex_dissimilar","images/stimuli/spore_stims/complex_12_A_b.gif","","","","",""
"","4101.410000002943","survey-multi-choice","95","420531","0.0-22.0","SS1619739307054","math_question","","","","","","","","","","","","{""Q0"":""13""}","[0]","13","",""
"","null","html-keyboard-response","96","421796","0.0-23.0-0.0","SS1619739307054","","","null","","","","","","<p><img src= images/blank.png width =""600"" height = ""600"" style=""position:fixed;top:50%; left:50%; transform: translate(-50%, -50%); border:5px solid black"">","","","","","","","",""
"","2999.5850000996143","sequential-stimulus-presentation-old","97","425300","0.0-23.0-1.0","SS1619739307054","trial","","40","500","3499.5850000996143","images/stimuli/spore_stims/simple_19_A_a.gif","images/stimuli/spore_stims/simple_20_A_b.gif","forced_short","","7","simple_dissimilar","images/stimuli/spore_stims/simple_20_A_b.gif","","","","",""
"","null","html-keyboard-response","98","426286","0.0-23.0-0.1","SS1619739307054","","","null","","","","","","<p><img src= images/blank.png width =""600"" height = ""600"" style=""position:fixed;top:50%; left:50%; transform: translate(-50%, -50%); border:5px solid black"">","","","","","","","",""
"","355.57000001426786","sequential-stimulus-presentation-old","99","427146","0.0-23.0-1.1","SS1619739307054","trial","","40","500","855.5700000142679","images/stimuli/spore_stims/simple_19_A_a.gif","images/stimuli/spore_stims/simple_20_A_b.gif","forced_short","","7","simple_dissimilar","images/stimuli/spore_stims/simple_19_A_a.gif","","","","",""
"","null","html-keyboard-response","100","428017","0.0-23.0-0.2","SS1619739307054","","","null","","","","","","<p><img src= images/blank.png width =""600"" height = ""600"" style=""position:fixed;top:50%; left:50%; transform: translate(-50%, -50%); border:5px solid black"">","","","","","","","",""
"","432.7350000385195","sequential-stimulus-presentation-old","101","428953","0.0-23.0-1.2","SS1619739307054","trial","","40","500","932.7350000385195","images/stimuli/spore_stims/simple_19_A_a.gif","images/stimuli/spore_stims/simple_20_A_b.gif","forced_short","","7","simple_dissimilar","images/stimuli/spore_stims/simple_20_A_b.gif","","","","",""
"","null","html-keyboard-response","102","430109","0.0-23.0-0.3","SS1619739307054","","","null","","","","","","<p><img src= images/blank.png width =""600"" height = ""600"" style=""position:fixed;top:50%; left:50%; transform: translate(-50%, -50%); border:5px solid black"">","","","","","","","",""
"","473.0049999197945","sequential-stimulus-presentation-old","103","431085","0.0-23.0-1.3","SS1619739307054","trial","","40","500","973.0049999197945","images/stimuli/spore_stims/simple_19_A_a.gif","images/stimuli/spore_stims/simple_20_A_b.gif","forced_short","","7","simple_dissimilar","images/stimuli/spore_stims/simple_20_A_b.gif","","","","",""
"","null","html-keyboard-response","104","432143","0.0-23.0-0.4","SS1619739307054","","","null","","","","","","<p><img src= images/blank.png width =""600"" height = ""600"" style=""position:fixed;top:50%; left:50%; transform: translate(-50%, -50%); border:5px solid black"">","","","","","","","",""
"","736.185000045225","sequential-stimulus-presentation-old","105","433383","0.0-23.0-1.4","SS1619739307054","trial","","40","500","1236.185000045225","images/stimuli/spore_stims/simple_19_A_a.gif","images/stimuli/spore_stims/simple_20_A_b.gif","forced_short","","7","simple_dissimilar","images/stimuli/spore_stims/simple_20_A_b.gif","","","","",""
"","null","html-keyboard-response","106","434668","0.0-23.0-0.5","SS1619739307054","","","null","","","","","","<p><img src= images/blank.png width =""600"" height = ""600"" style=""position:fixed;top:50%; left:50%; transform: translate(-50%, -50%); border:5px solid black"">","","","","","","","",""
"","42.320000007748604","sequential-stimulus-presentation-old","107","435213","0.0-23.0-1.5","SS1619739307054","trial","","40","500","542.3200000077486","images/stimuli/spore_stims/simple_19_A_a.gif","images/stimuli/spore_stims/simple_20_A_b.gif","forced_short","","7","simple_dissimilar","images/stimuli/spore_stims/simple_20_A_b.gif","","","","",""
"","3781.580000068061","survey-multi-choice","108","438997","0.0-24.0","SS1619739307054","math_question","","","","","","","","","","","","{""Q0"":""8""}","[0]","8","",""
"","null","html-keyboard-response","109","439897","0.0-25.0-0.0","SS1619739307054","","","null","","","","","","<p><img src= images/blank.png width =""600"" height = ""600"" style=""position:fixed;top:50%; left:50%; transform: translate(-50%, -50%); border:5px solid black"">","","","","","","","",""
"","309.52499993145466","sequential-stimulus-presentation-old","110","455211","0.0-25.0-1.0","SS1619739307054","trial","","40","500","809.5249999314547","images/stimuli/spore_stims/simple_13_A_b.gif","images/stimuli/spore_stims/simple_01_A_a.gif","forced_long","","8","simple_dissimilar","images/stimuli/spore_stims/simple_01_A_a.gif","","","","",""
"","null","html-keyboard-response","111","456326","0.0-25.0-0.1","SS1619739307054","","","null","","","","","","<p><img src= images/blank.png width =""600"" height = ""600"" style=""position:fixed;top:50%; left:50%; transform: translate(-50%, -50%); border:5px solid black"">","","","","","","","",""
"","60.27000001631677","sequential-stimulus-presentation-old","112","456890","0.0-25.0-1.1","SS1619739307054","trial","","40","500","560.2700000163168","images/stimuli/spore_stims/simple_13_A_b.gif","images/stimuli/spore_stims/simple_01_A_a.gif","forced_long","","8","simple_dissimilar","images/stimuli/spore_stims/simple_01_A_a.gif","","","","",""
"","null","html-keyboard-response","113","458182","0.0-25.0-0.2","SS1619739307054","","","null","","","","","","<p><img src= images/blank.png width =""600"" height = ""600"" style=""position:fixed;top:50%; left:50%; transform: translate(-50%, -50%); border:5px solid black"">","","","","","","","",""
"","130.69500005804002","sequential-stimulus-presentation-old","114","458816","0.0-25.0-1.2","SS1619739307054","trial","","40","500","630.69500005804","images/stimuli/spore_stims/simple_13_A_b.gif","images/stimuli/spore_stims/simple_01_A_a.gif","forced_long","","8","simple_dissimilar","images/stimuli/spore_stims/simple_01_A_a.gif","","","","",""
"","null","html-keyboard-response","115","460008","0.0-25.0-0.3","SS1619739307054","","","null","","","","","","<p><img src= images/blank.png width =""600"" height = ""600"" style=""position:fixed;top:50%; left:50%; transform: translate(-50%, -50%); border:5px solid black"">","","","","","","","",""
"","633.6799999698997","sequential-stimulus-presentation-old","116","461146","0.0-25.0-1.3","SS1619739307054","trial","","40","500","1133.6799999698997","images/stimuli/spore_stims/simple_13_A_b.gif","images/stimuli/spore_stims/simple_01_A_a.gif","forced_long","","8","simple_dissimilar","images/stimuli/spore_stims/simple_01_A_a.gif","","","","",""
"","null","html-keyboard-response","117","461983","0.0-25.0-0.4","SS1619739307054","","","null","","","","","","<p><img src= images/blank.png width =""600"" height = ""600"" style=""position:fixed;top:50%; left:50%; transform: translate(-50%, -50%); border:5px solid black"">","","","","","","","",""
"","356.6399998962879","sequential-stimulus-presentation-old","118","462843","0.0-25.0-1.4","SS1619739307054","trial","","40","500","856.6399998962879","images/stimuli/spore_stims/simple_13_A_b.gif","images/stimuli/spore_stims/simple_01_A_a.gif","forced_long","","8","simple_dissimilar","images/stimuli/spore_stims/simple_13_A_b.gif","","","","",""
"","6420.249999966472","survey-multi-choice","119","469266","0.0-26.0","SS1619739307054","math_question","","","","","","","","","","","","{""Q0"":""15""}","[0]","15","",""
"","null","html-keyboard-response","120","470112","0.0-27.0-0.0","SS1619739307054","","","null","","","","","","<p><img src= images/blank.png width =""600"" height = ""600"" style=""position:fixed;top:50%; left:50%; transform: translate(-50%, -50%); border:5px solid black"">","","","","","","","",""
"","1034.4599999953061","sequential-stimulus-presentation-old","121","471652","0.0-27.0-1.0","SS1619739307054","trial","","40","500","1534.4599999953061","images/stimuli/spore_stims/simple_04_A_a.gif","images/stimuli/spore_stims/simple_16_A_b.gif","forced_short","","9","simple_dissimilar","images/stimuli/spore_stims/simple_16_A_b.gif","","","","",""
"","null","html-keyboard-response","122","472675","0.0-27.0-0.1","SS1619739307054","","","null","","","","","","<p><img src= images/blank.png width =""600"" height = ""600"" style=""position:fixed;top:50%; left:50%; transform: translate(-50%, -50%); border:5px solid black"">","","","","","","","",""
"","34.45000003557652","sequential-stimulus-presentation-old","123","473214","0.0-27.0-1.1","SS1619739307054","trial","","40","500","534.4500000355765","images/stimuli/spore_stims/simple_04_A_a.gif","images/stimuli/spore_stims/simple_16_A_b.gif","forced_short","","9","simple_dissimilar","images/stimuli/spore_stims/simple_16_A_b.gif","","","","",""
"","null","html-keyboard-response","124","474373","0.0-27.0-0.2","SS1619739307054","","","null","","","","","","<p><img src= images/blank.png width =""600"" height = ""600"" style=""position:fixed;top:50%; left:50%; transform: translate(-50%, -50%); border:5px solid black"">","","","","","","","",""
"","682.7000000048429","sequential-stimulus-presentation-old","125","475559","0.0-27.0-1.2","SS1619739307054","trial","","40","500","1182.7000000048429","images/stimuli/spore_stims/simple_04_A_a.gif","images/stimuli/spore_stims/simple_16_A_b.gif","forced_short","","9","simple_dissimilar","images/stimuli/spore_stims/simple_16_A_b.gif","","","","",""
"","null","html-keyboard-response","126","476512","0.0-27.0-0.3","SS1619739307054","","","null","","","","","","<p><img src= images/blank.png width =""600"" height = ""600"" style=""position:fixed;top:50%; left:50%; transform: translate(-50%, -50%); border:5px solid black"">","","","","","","","",""
"","88.31000002101064","sequential-stimulus-presentation-old","127","477104","0.0-27.0-1.3","SS1619739307054","trial","","40","500","588.3100000210106","images/stimuli/spore_stims/simple_04_A_a.gif","images/stimuli/spore_stims/simple_16_A_b.gif","forced_short","","9","simple_dissimilar","images/stimuli/spore_stims/simple_16_A_b.gif","","","","",""
"","null","html-keyboard-response","128","478154","0.0-27.0-0.4","SS1619739307054","","","null","","","","","","<p><img src= images/blank.png width =""600"" height = ""600"" style=""position:fixed;top:50%; left:50%; transform: translate(-50%, -50%); border:5px solid black"">","","","","","","","",""
"","400.22499999031425","sequential-stimulus-presentation-old","129","479058","0.0-27.0-1.4","SS1619739307054","trial","","40","500","900.2249999903142","images/stimuli/spore_stims/simple_04_A_a.gif","images/stimuli/spore_stims/simple_16_A_b.gif","forced_short","","9","simple_dissimilar","images/stimuli/spore_stims/simple_16_A_b.gif","","","","",""
"","null","html-keyboard-response","130","480046","0.0-27.0-0.5","SS1619739307054","","","null","","","","","","<p><img src= images/blank.png width =""600"" height = ""600"" style=""position:fixed;top:50%; left:50%; transform: translate(-50%, -50%); border:5px solid black"">","","","","","","","",""
"","302.62499989476055","sequential-stimulus-presentation-old","131","480853","0.0-27.0-1.5","SS1619739307054","trial","","40","500","802.6249998947605","images/stimuli/spore_stims/simple_04_A_a.gif","images/stimuli/spore_stims/simple_16_A_b.gif","forced_short","","9","simple_dissimilar","images/stimuli/spore_stims/simple_16_A_b.gif","","","","",""
"","3868.8149999361485","survey-multi-choice","132","484725","0.0-28.0","SS1619739307054","math_question","","","","","","","","","","","","{""Q0"":""11""}","[0]","11","",""
"","null","html-keyboard-response","133","486032","0.0-29.0-0.0","SS1619739307054","","","null","","","","","","<p><img src= images/blank.png width =""600"" height = ""600"" style=""position:fixed;top:50%; left:50%; transform: translate(-50%, -50%); border:5px solid black"">","","","","","","","",""
"","1503.2599999103695","sequential-stimulus-presentation-old","134","488039","0.0-29.0-1.0","SS1619739307054","trial","","40","500","2003.2599999103695","images/stimuli/spore_stims/simple_06_A_b.gif","images/stimuli/spore_stims/simple_15_A_a.gif","self_paced","","10","simple_dissimilar","images/stimuli/spore_stims/simple_15_A_a.gif","","","","",""
"","null","html-keyboard-response","135","488865","0.0-29.0-0.1","SS1619739307054","","","null","","","","","","<p><img src= images/blank.png width =""600"" height = ""600"" style=""position:fixed;top:50%; left:50%; transform: translate(-50%, -50%); border:5px solid black"">","","","","","","","",""
"","287.1700000250712","sequential-stimulus-presentation-old","136","489658","0.0-29.0-1.1","SS1619739307054","trial","","40","500","787.1700000250712","images/stimuli/spore_stims/simple_06_A_b.gif","images/stimuli/spore_stims/simple_15_A_a.gif","self_paced","","10","simple_dissimilar","images/stimuli/spore_stims/simple_15_A_a.gif","","","","",""
"","null","html-keyboard-response","137","490723","0.0-29.0-0.2","SS1619739307054","","","null","","","","","","<p><img src= images/blank.png width =""600"" height = ""600"" style=""position:fixed;top:50%; left:50%; transform: translate(-50%, -50%); border:5px solid black"">","","","","","","","",""
"","747.8450000053272","sequential-stimulus-presentation-old","138","491975","0.0-29.0-1.2","SS1619739307054","trial","","40","500","1247.8450000053272","images/stimuli/spore_stims/simple_06_A_b.gif","images/stimuli/spore_stims/simple_15_A_a.gif","self_paced","","10","simple_dissimilar","images/stimuli/spore_stims/simple_06_A_b.gif","","","","",""
"","null","html-keyboard-response","139","492887","0.0-29.0-0.3","SS1619739307054","","","null","","","","","","<p><img src= images/blank.png width =""600"" height = ""600"" style=""position:fixed;top:50%; left:50%; transform: translate(-50%, -50%); border:5px solid black"">","","","","","","","",""
"","243.7449999852106","sequential-stimulus-presentation-old","140","493635","0.0-29.0-1.3","SS1619739307054","trial","","40","500","743.7449999852106","images/stimuli/spore_stims/simple_06_A_b.gif","images/stimuli/spore_stims/simple_15_A_a.gif","self_paced","","10","simple_dissimilar","images/stimuli/spore_stims/simple_15_A_a.gif","","","","",""
"","3512.6199999358505","survey-multi-choice","141","497151","0.0-30.0","SS1619739307054","math_question","","","","","","","","","","","","{""Q0"":""11""}","[0]","11","",""
"","null","html-keyboard-response","142","498310","0.0-31.0-0.0","SS1619739307054","","","null","","","","","","<p><img src= images/blank.png width =""600"" height = ""600"" style=""position:fixed;top:50%; left:50%; transform: translate(-50%, -50%); border:5px solid black"">","","","","","","","",""
"","13856.12500004936","sequential-stimulus-presentation-old","143","527171","0.0-31.0-1.0","SS1619739307054","trial","","40","500","14356.12500004936","images/stimuli/spore_stims/simple_08_A_b.gif","images/stimuli/spore_stims/simple_12_A_a.gif","forced_long","","11","simple_dissimilar","images/stimuli/spore_stims/simple_12_A_a.gif","","","","",""
"","null","html-keyboard-response","144","528088","0.0-31.0-0.1","SS1619739307054","","","null","","","","","","<p><img src= images/blank.png width =""600"" height = ""600"" style=""position:fixed;top:50%; left:50%; transform: translate(-50%, -50%); border:5px solid black"">","","","","","","","",""
"","317.6750000566244","sequential-stimulus-presentation-old","145","528910","0.0-31.0-1.1","SS1619739307054","trial","","40","500","817.6750000566244","images/stimuli/spore_stims/simple_08_A_b.gif","images/stimuli/spore_stims/simple_12_A_a.gif","forced_long","","11","simple_dissimilar","images/stimuli/spore_stims/simple_08_A_b.gif","","","","",""
"","null","html-keyboard-response","146","530202","0.0-31.0-0.2","SS1619739307054","","","null","","","","","","<p><img src= images/blank.png width =""600"" height = ""600"" style=""position:fixed;top:50%; left:50%; transform: translate(-50%, -50%); border:5px solid black"">","","","","","","","",""
"","792.5399999367073","sequential-stimulus-presentation-old","147","531499","0.0-31.0-1.2","SS1619739307054","trial","","40","500","1292.5399999367073","images/stimuli/spore_stims/simple_08_A_b.gif","images/stimuli/spore_stims/simple_12_A_a.gif","forced_long","","11","simple_dissimilar","images/stimuli/spore_stims/simple_12_A_a.gif","","","","",""
"","null","html-keyboard-response","148","532702","0.0-31.0-0.3","SS1619739307054","","","null","","","","","","<p><img src= images/blank.png width =""600"" height = ""600"" style=""position:fixed;top:50%; left:50%; transform: translate(-50%, -50%); border:5px solid black"">","","","","","","","",""
"","1050.7350000552833","sequential-stimulus-presentation-old","149","534257","0.0-31.0-1.3","SS1619739307054","trial","","40","500","1550.7350000552833","images/stimuli/spore_stims/simple_08_A_b.gif","images/stimuli/spore_stims/simple_12_A_a.gif","forced_long","","11","simple_dissimilar","images/stimuli/spore_stims/simple_12_A_a.gif","","","","",""
"","null","html-keyboard-response","150","535389","0.0-31.0-0.4","SS1619739307054","","","null","","","","","","<p><img src= images/blank.png width =""600"" height = ""600"" style=""position:fixed;top:50%; left:50%; transform: translate(-50%, -50%); border:5px solid black"">","","","","","","","",""
"","81.22499997261912","sequential-stimulus-presentation-old","151","535974","0.0-31.0-1.4","SS1619739307054","trial","","40","500","581.2249999726191","images/stimuli/spore_stims/simple_08_A_b.gif","images/stimuli/spore_stims/simple_12_A_a.gif","forced_long","","11","simple_dissimilar","images/stimuli/spore_stims/simple_12_A_a.gif","","","","",""
"","null","html-keyboard-response","152","536940","0.0-31.0-0.5","SS1619739307054","","","null","","","","","","<p><img src= images/blank.png width =""600"" height = ""600"" style=""position:fixed;top:50%; left:50%; transform: translate(-50%, -50%); border:5px solid black"">","","","","","","","",""
"","431.4399999566376","sequential-stimulus-presentation-old","153","537875","0.0-31.0-1.5","SS1619739307054","trial","","40","500","931.4399999566376","images/stimuli/spore_stims/simple_08_A_b.gif","images/stimuli/spore_stims/simple_12_A_a.gif","forced_long","","11","simple_dissimilar","images/stimuli/spore_stims/simple_08_A_b.gif","","","","",""
"[{""page_index"":0,""viewing_time"":3904.285000055097}]","3904.655000078492","instructions","154","541783","0.0-32.0","SS1619739307054","instructions","","","","","","","","","","","","","","","",""
"","6112.97499993816","survey-likert","155","547900","0.0-33.0","SS1619739307054","similarity_question","","","","","","","","","","","","{""Q0"":6}","[0]","","images/stimuli/spore_stims/simple_15_A_a.gif","images/stimuli/spore_stims/simple_06_A_b.gif"
"","7041.885000071488","survey-likert","156","554950","0.0-34.0","SS1619739307054","similarity_question","","","","","","","","","","","","{""Q0"":4}","[0]","","images/stimuli/spore_stims/complex_17_A_b.gif","images/stimuli/spore_stims/complex_16_A_a.gif"
"","5330.650000018068","survey-likert","157","560290","0.0-35.0","SS1619739307054","similarity_question","","","","","","","","","","","","{""Q0"":2}","[0]","","images/stimuli/spore_stims/complex_11_A_b.gif","images/stimuli/spore_stims/complex_13_A_a.gif"
"","5854.799999971874","survey-likert","158","566153","0.0-36.0","SS1619739307054","similarity_question","","","","","","","","","","","","{""Q0"":6}","[0]","","images/stimuli/spore_stims/simple_01_A_a.gif","images/stimuli/spore_stims/simple_13_A_b.gif"
"","5465.980000095442","survey-likert","159","571628","0.0-37.0","SS1619739307054","similarity_question","","","","","","","","","","","","{""Q0"":5}","[0]","","images/stimuli/spore_stims/complex_06_A_b.gif","images/stimuli/spore_stims/complex_04_A_a.gif"
"","4933.764999965206","survey-likert","160","576569","0.0-38.0","SS1619739307054","similarity_question","","","","","","","","","","","","{""Q0"":4}","[0]","","images/stimuli/spore_stims/simple_11_A_b.gif","images/stimuli/spore_stims/simple_03_A_a.gif"
"","6966.955000068992","survey-likert","161","583545","0.0-39.0","SS1619739307054","similarity_question","","","","","","","","","","","","{""Q0"":6}","[0]","","images/stimuli/spore_stims/simple_20_A_b.gif","images/stimuli/spore_stims/simple_19_A_a.gif"
"","4878.484999993816","survey-likert","162","588431","0.0-40.0","SS1619739307054","similarity_question","","","","","","","","","","","","{""Q0"":1}","[0]","","images/stimuli/spore_stims/complex_18_A_b.gif","images/stimuli/spore_stims/complex_11_A_a.gif"
"","4986.29000002984","survey-likert","163","593425","0.0-41.0","SS1619739307054","similarity_question","","","","","","","","","","","","{""Q0"":4}","[0]","","images/stimuli/spore_stims/simple_08_A_b.gif","images/stimuli/spore_stims/simple_12_A_a.gif"
"","5608.585000038147","survey-likert","164","599043","0.0-42.0","SS1619739307054","similarity_question","","","","","","","","","","","","{""Q0"":4}","[0]","","images/stimuli/spore_stims/simple_16_A_b.gif","images/stimuli/spore_stims/simple_04_A_a.gif"
"","5626.1699999449775","survey-likert","165","604677","0.0-43.0","SS1619739307054","similarity_question","","","","","","","","","","","","{""Q0"":1}","[0]","","images/stimuli/spore_stims/complex_09_A_a.gif","images/stimuli/spore_stims/complex_12_A_b.gif"
"","4544.605000060983","survey-likert","166","609231","0.0-44.0","SS1619739307054","similarity_question","","","","","","","","","","","","{""Q0"":4}","[0]","","images/stimuli/spore_stims/complex_02_A_b.gif","images/stimuli/spore_stims/complex_18_A_a.gif"
"[{""page_index"":0,""viewing_time"":3134.9949999712408}]","3135.2800000458956","instructions","167","612374","0.0-45.0","SS1619739307054","instructions","","","","","","","","","","","","","","","",""
"","4708.91499996651","survey-likert","168","617086","0.0-46.0","SS1619739307054","","","","","","","","","images/stimuli/spore_stims/simple_13_A_b.gif","","","","{""Q0"":0}","[0]","","",""
"","4232.460000086576","survey-likert","169","621327","0.0-47.0","SS1619739307054","","","","","","","","","images/stimuli/spore_stims/complex_12_A_b.gif","","","","{""Q0"":5}","[0]","","",""
"","4316.789999953471","survey-likert","170","625652","0.0-48.0","SS1619739307054","","","","","","","","","images/stimuli/spore_stims/simple_12_A_a.gif","","","","{""Q0"":0}","[0]","","",""
"","3083.570000017062","survey-likert","171","628745","0.0-49.0","SS1619739307054","","","","","","","","","images/stimuli/spore_stims/simple_15_A_a.gif","","","","{""Q0"":0}","[0]","","",""
"","3701.204999932088","survey-likert","172","632455","0.0-50.0","SS1619739307054","","","","","","","","","images/stimuli/spore_stims/complex_06_A_b.gif","","","","{""Q0"":4}","[0]","","",""
"","4146.4100000448525","survey-likert","173","636611","0.0-51.0","SS1619739307054","","","","","","","","","images/stimuli/spore_stims/complex_18_A_b.gif","","","","{""Q0"":4}","[0]","","",""
"","3502.905000001192","survey-likert","174","640123","0.0-52.0","SS1619739307054","","","","","","","","","images/stimuli/spore_stims/complex_11_A_b.gif","","","","{""Q0"":5}","[0]","","",""
"","3336.944999988191","survey-likert","175","643469","0.0-53.0","SS1619739307054","","","","","","","","","images/stimuli/spore_stims/simple_11_A_b.gif","","","","{""Q0"":1}","[0]","","",""
"","3825.620000017807","survey-likert","176","647305","0.0-54.0","SS1619739307054","","","","","","","","","images/stimuli/spore_stims/complex_16_A_a.gif","","","","{""Q0"":6}","[0]","","",""
"","3950.1049999380484","survey-likert","177","651263","0.0-55.0","SS1619739307054","","","","","","","","","images/stimuli/spore_stims/complex_18_A_a.gif","","","","{""Q0"":6}","[0]","","",""
"","3108.929999987595","survey-likert","178","654380","0.0-56.0","SS1619739307054","","","","","","","","","images/stimuli/spore_stims/simple_04_A_a.gif","","","","{""Q0"":0}","[0]","","",""
"","2687.834999989718","survey-likert","179","657077","0.0-57.0","SS1619739307054","","","","","","","","","images/stimuli/spore_stims/simple_20_A_b.gif","","","","{""Q0"":0}","[0]","","",""
"[{""page_index"":0,""viewing_time"":1877.695000031963}]","1877.9499999945983","instructions","180","658963","0.0-58.0","SS1619739307054","instructions","","","","","","","","","","","","","","","",""
"","3426.5850000083447","demog-age","181","662398","0.0-59.0","SS1619739307054","","","","","","","","","","","","","{""age"":""20""}","","","",""
"","2996.614999952726","demog-ethnic-US","182","665402","0.0-60.0","SS1619739307054","","","","","","","","","","","","","{""ethnicity"":[""White""]}","[0]","","",""
"","13467.285000020638","demog-gender-and-education","183","678878","0.0-61.0","SS1619739307054","","","","","","","","","","","","","{""gender"":""Female"",""education"":""High school diploma""}","[0,1]","","",""
"","9705.299999914132","survey-text","184","688595","0.0-62.0","SS1619739307054","feedback","","","","","","","","","","","","{""Q0"":""no lag, good job""}","","","",""
"[{""page_index"":0,""viewing_time"":1671.0350000066683}]","1671.280000009574","instructions","185","690272","0.0-63.0","SS1619739307054","instructions","","","","","","","","","","","","","","","",""
