"view_history","rt","trial_type","trial_index","time_elapsed","internal_node_id","subject","stimulus_type","trial_stimulus","key_press","minimum_viewing_duration","trial_looking_time","block_deviant","block_background","exposure_type","stimulus","block_number","block_type","stimulus_displayed","responses","question_order","math_correct_answer","stimulus_left","stimulus_right"
"[{""page_index"":0,""viewing_time"":5766.150000039488}]","5766.900000162423","instructions","0","5768","0.0-0.0","SS1619740029888","","","","","","","","","","","","","","","","",""
"[{""page_index"":0,""viewing_time"":5255.859999917448},{""page_index"":1,""viewing_time"":3078.9850000292063}]","8335.08999994956","instructions","1","16119","0.0-1.0","SS1619740029888","instructions","","","","","","","","","","","","","","","",""
"","6042.4250001087785","sequential-stimulus-presentation-old","2","22663","0.0-2.0","SS1619740029888","","","40","500","6542.4250001087785","null","null","self_paced","","","","","","","","",""
"","4074.6349999681115","sequential-stimulus-presentation-old","3","27239","0.0-3.0","SS1619740029888","","","40","500","4574.6349999681115","null","null","self_paced","","","","","","","","",""
"[{""page_index"":0,""viewing_time"":13918.53000014089}]","13918.795000063255","instructions","4","41159","0.0-4.0","SS1619740029888","instructions","","","","","","","","","","","","","","","",""
"","2890.269999857992","sequential-stimulus-presentation-old","5","59053","0.0-5.0","SS1619740029888","","","40","500","3390.269999857992","null","null","forced_long","","","","","","","","",""
"","4076.1200000997633","sequential-stimulus-presentation-old","6","63639","0.0-6.0","SS1619740029888","","","40","500","4576.120000099763","null","null","forced_long","","","","","","","","",""
"[{""page_index"":0,""viewing_time"":3471.330000087619}]","3471.655000001192","instructions","7","67111","0.0-7.0","SS1619740029888","instructions","","","","","","","","","","","","","","","",""
"[{""page_index"":0,""viewing_time"":7302.519999910146},{""page_index"":1,""viewing_time"":4856.275000143796},{""page_index"":2,""viewing_time"":3096.35499981232},{""page_index"":3,""viewing_time"":1159.3100000172853},{""page_index"":4,""viewing_time"":1831.8900000303984}]","18246.58999987878","instructions","8","85359","0.0-8.0","SS1619740029888","instructions","","","","","","","","","","","","","","","",""
"","null","html-keyboard-response","9","86433","0.0-9.0-0.0","SS1619740029888","","","null","","","","","","<p><img src= images/blank.png width =""600"" height = ""600"" style=""position:fixed;top:50%; left:50%; transform: translate(-50%, -50%); border:5px solid black"">","","","","","","","",""
"","49349.60999991745","sequential-stimulus-presentation-old","10","136286","0.0-9.0-1.0","SS1619740029888","trial","","40","500","49849.60999991745","images/stimuli/spore_stims/simple_14_A_a.gif","images/stimuli/spore_stims/simple_06_A_b.gif","self_paced","","0","simple_dissimilar","images/stimuli/spore_stims/simple_06_A_b.gif","","","","",""
"","null","html-keyboard-response","11","137551","0.0-9.0-0.1","SS1619740029888","","","null","","","","","","<p><img src= images/blank.png width =""600"" height = ""600"" style=""position:fixed;top:50%; left:50%; transform: translate(-50%, -50%); border:5px solid black"">","","","","","","","",""
"","11905.585000058636","sequential-stimulus-presentation-old","12","149959","0.0-9.0-1.1","SS1619740029888","trial","","40","500","12405.585000058636","images/stimuli/spore_stims/simple_14_A_a.gif","images/stimuli/spore_stims/simple_06_A_b.gif","self_paced","","0","simple_dissimilar","images/stimuli/spore_stims/simple_06_A_b.gif","","","","",""
"","null","html-keyboard-response","13","151207","0.0-9.0-0.2","SS1619740029888","","","null","","","","","","<p><img src= images/blank.png width =""600"" height = ""600"" style=""position:fixed;top:50%; left:50%; transform: translate(-50%, -50%); border:5px solid black"">","","","","","","","",""
"","17338.89999985695","sequential-stimulus-presentation-old","14","169048","0.0-9.0-1.2","SS1619740029888","trial","","40","500","17838.89999985695","images/stimuli/spore_stims/simple_14_A_a.gif","images/stimuli/spore_stims/simple_06_A_b.gif","self_paced","","0","simple_dissimilar","images/stimuli/spore_stims/simple_06_A_b.gif","","","","",""
"","null","html-keyboard-response","15","170343","0.0-9.0-0.3","SS1619740029888","","","null","","","","","","<p><img src= images/blank.png width =""600"" height = ""600"" style=""position:fixed;top:50%; left:50%; transform: translate(-50%, -50%); border:5px solid black"">","","","","","","","",""
"","23156.044999836013","sequential-stimulus-presentation-old","16","194003","0.0-9.0-1.3","SS1619740029888","trial","","40","500","23656.044999836013","images/stimuli/spore_stims/simple_14_A_a.gif","images/stimuli/spore_stims/simple_06_A_b.gif","self_paced","","0","simple_dissimilar","images/stimuli/spore_stims/simple_14_A_a.gif","","","","",""
"","null","html-keyboard-response","17","194835","0.0-9.0-0.4","SS1619740029888","","","null","","","","","","<p><img src= images/blank.png width =""600"" height = ""600"" style=""position:fixed;top:50%; left:50%; transform: translate(-50%, -50%); border:5px solid black"">","","","","","","","",""
"","4195.924999890849","sequential-stimulus-presentation-old","18","199533","0.0-9.0-1.4","SS1619740029888","trial","","40","500","4695.924999890849","images/stimuli/spore_stims/simple_14_A_a.gif","images/stimuli/spore_stims/simple_06_A_b.gif","self_paced","","0","simple_dissimilar","images/stimuli/spore_stims/simple_06_A_b.gif","","","","",""
"","9030.969999963418","survey-multi-choice","19","208567","0.0-10.0","SS1619740029888","math_question","","","","","","","","","","","","{""Q0"":""16""}","[0]","16","",""
"","null","html-keyboard-response","20","209621","0.0-11.0-0.0","SS1619740029888","","","null","","","","","","<p><img src= images/blank.png width =""600"" height = ""600"" style=""position:fixed;top:50%; left:50%; transform: translate(-50%, -50%); border:5px solid black"">","","","","","","","",""
"","728.7749999668449","sequential-stimulus-presentation-old","21","210853","0.0-11.0-1.0","SS1619740029888","trial","","40","500","1228.774999966845","images/stimuli/spore_stims/simple_17_A_a.gif","images/stimuli/spore_stims/simple_16_A_b.gif","forced_short","","1","simple_dissimilar","images/stimuli/spore_stims/simple_16_A_b.gif","","","","",""
"","null","html-keyboard-response","22","211898","0.0-11.0-0.1","SS1619740029888","","","null","","","","","","<p><img src= images/blank.png width =""600"" height = ""600"" style=""position:fixed;top:50%; left:50%; transform: translate(-50%, -50%); border:5px solid black"">","","","","","","","",""
"","13406.554999994114","sequential-stimulus-presentation-old","23","225818","0.0-11.0-1.1","SS1619740029888","trial","","40","500","13906.554999994114","images/stimuli/spore_stims/simple_17_A_a.gif","images/stimuli/spore_stims/simple_16_A_b.gif","forced_short","","1","simple_dissimilar","images/stimuli/spore_stims/simple_16_A_b.gif","","","","",""
"","null","html-keyboard-response","24","226975","0.0-11.0-0.2","SS1619740029888","","","null","","","","","","<p><img src= images/blank.png width =""600"" height = ""600"" style=""position:fixed;top:50%; left:50%; transform: translate(-50%, -50%); border:5px solid black"">","","","","","","","",""
"","10281.379999825731","sequential-stimulus-presentation-old","25","237759","0.0-11.0-1.2","SS1619740029888","trial","","40","500","10781.379999825731","images/stimuli/spore_stims/simple_17_A_a.gif","images/stimuli/spore_stims/simple_16_A_b.gif","forced_short","","1","simple_dissimilar","images/stimuli/spore_stims/simple_17_A_a.gif","","","","",""
"","null","html-keyboard-response","26","238725","0.0-11.0-0.3","SS1619740029888","","","null","","","","","","<p><img src= images/blank.png width =""600"" height = ""600"" style=""position:fixed;top:50%; left:50%; transform: translate(-50%, -50%); border:5px solid black"">","","","","","","","",""
"","9825.345000019297","sequential-stimulus-presentation-old","27","249060","0.0-11.0-1.3","SS1619740029888","trial","","40","500","10325.345000019297","images/stimuli/spore_stims/simple_17_A_a.gif","images/stimuli/spore_stims/simple_16_A_b.gif","forced_short","","1","simple_dissimilar","images/stimuli/spore_stims/simple_16_A_b.gif","","","","",""
"","null","html-keyboard-response","28","250095","0.0-11.0-0.4","SS1619740029888","","","null","","","","","","<p><img src= images/blank.png width =""600"" height = ""600"" style=""position:fixed;top:50%; left:50%; transform: translate(-50%, -50%); border:5px solid black"">","","","","","","","",""
"","6697.870000032708","sequential-stimulus-presentation-old","29","257298","0.0-11.0-1.4","SS1619740029888","trial","","40","500","7197.870000032708","images/stimuli/spore_stims/simple_17_A_a.gif","images/stimuli/spore_stims/simple_16_A_b.gif","forced_short","","1","simple_dissimilar","images/stimuli/spore_stims/simple_16_A_b.gif","","","","",""
"","null","html-keyboard-response","30","258480","0.0-11.0-0.5","SS1619740029888","","","null","","","","","","<p><img src= images/blank.png width =""600"" height = ""600"" style=""position:fixed;top:50%; left:50%; transform: translate(-50%, -50%); border:5px solid black"">","","","","","","","",""
"","9428.75500000082","sequential-stimulus-presentation-old","31","268412","0.0-11.0-1.5","SS1619740029888","trial","","40","500","9928.75500000082","images/stimuli/spore_stims/simple_17_A_a.gif","images/stimuli/spore_stims/simple_16_A_b.gif","forced_short","","1","simple_dissimilar","images/stimuli/spore_stims/simple_17_A_a.gif","","","","",""
"","2378.1749999616295","survey-multi-choice","32","270792","0.0-12.0","SS1619740029888","math_question","","","","","","","","","","","","{""Q0"":""8""}","[0]","8","",""
"","null","html-keyboard-response","33","271747","0.0-13.0-0.0","SS1619740029888","","","null","","","","","","<p><img src= images/blank.png width =""600"" height = ""600"" style=""position:fixed;top:50%; left:50%; transform: translate(-50%, -50%); border:5px solid black"">","","","","","","","",""
"","10604.049999965355","sequential-stimulus-presentation-old","34","282854","0.0-13.0-1.0","SS1619740029888","trial","","40","500","11104.049999965355","images/stimuli/spore_stims/complex_15_A_a.gif","images/stimuli/spore_stims/complex_20_A_b.gif","self_paced","","2","complex_dissimilar","images/stimuli/spore_stims/complex_20_A_b.gif","","","","",""
"","null","html-keyboard-response","35","283757","0.0-13.0-0.1","SS1619740029888","","","null","","","","","","<p><img src= images/blank.png width =""600"" height = ""600"" style=""position:fixed;top:50%; left:50%; transform: translate(-50%, -50%); border:5px solid black"">","","","","","","","",""
"","6241.239999886602","sequential-stimulus-presentation-old","36","290503","0.0-13.0-1.1","SS1619740029888","trial","","40","500","6741.239999886602","images/stimuli/spore_stims/complex_15_A_a.gif","images/stimuli/spore_stims/complex_20_A_b.gif","self_paced","","2","complex_dissimilar","images/stimuli/spore_stims/complex_15_A_a.gif","","","","",""
"","null","html-keyboard-response","37","291489","0.0-13.0-0.2","SS1619740029888","","","null","","","","","","<p><img src= images/blank.png width =""600"" height = ""600"" style=""position:fixed;top:50%; left:50%; transform: translate(-50%, -50%); border:5px solid black"">","","","","","","","",""
"","4424.894999945536","sequential-stimulus-presentation-old","38","296417","0.0-13.0-1.2","SS1619740029888","trial","","40","500","4924.894999945536","images/stimuli/spore_stims/complex_15_A_a.gif","images/stimuli/spore_stims/complex_20_A_b.gif","self_paced","","2","complex_dissimilar","images/stimuli/spore_stims/complex_20_A_b.gif","","","","",""
"","null","html-keyboard-response","39","297463","0.0-13.0-0.3","SS1619740029888","","","null","","","","","","<p><img src= images/blank.png width =""600"" height = ""600"" style=""position:fixed;top:50%; left:50%; transform: translate(-50%, -50%); border:5px solid black"">","","","","","","","",""
"","3904.6799999196082","sequential-stimulus-presentation-old","40","301870","0.0-13.0-1.3","SS1619740029888","trial","","40","500","4404.679999919608","images/stimuli/spore_stims/complex_15_A_a.gif","images/stimuli/spore_stims/complex_20_A_b.gif","self_paced","","2","complex_dissimilar","images/stimuli/spore_stims/complex_20_A_b.gif","","","","",""
"","null","html-keyboard-response","41","303165","0.0-13.0-0.4","SS1619740029888","","","null","","","","","","<p><img src= images/blank.png width =""600"" height = ""600"" style=""position:fixed;top:50%; left:50%; transform: translate(-50%, -50%); border:5px solid black"">","","","","","","","",""
"","4387.645000126213","sequential-stimulus-presentation-old","42","308059","0.0-13.0-1.4","SS1619740029888","trial","","40","500","4887.645000126213","images/stimuli/spore_stims/complex_15_A_a.gif","images/stimuli/spore_stims/complex_20_A_b.gif","self_paced","","2","complex_dissimilar","images/stimuli/spore_stims/complex_15_A_a.gif","","","","",""
"","3058.5050000809133","survey-multi-choice","43","311119","0.0-14.0","SS1619740029888","math_question","","","","","","","","","","","","{""Q0"":""11""}","[0]","11","",""
"","null","html-keyboard-response","44","311941","0.0-15.0-0.0","SS1619740029888","","","null","","","","","","<p><img src= images/blank.png width =""600"" height = ""600"" style=""position:fixed;top:50%; left:50%; transform: translate(-50%, -50%); border:5px solid black"">","","","","","","","",""
"","510.465000057593","sequential-stimulus-presentation-old","45","327458","0.0-15.0-1.0","SS1619740029888","trial","","40","500","1010.465000057593","images/stimuli/spore_stims/complex_15_A_b.gif","images/stimuli/spore_stims/complex_05_A_a.gif","forced_long","","3","complex_dissimilar","images/stimuli/spore_stims/complex_05_A_a.gif","","","","",""
"","null","html-keyboard-response","46","328387","0.0-15.0-0.1","SS1619740029888","","","null","","","","","","<p><img src= images/blank.png width =""600"" height = ""600"" style=""position:fixed;top:50%; left:50%; transform: translate(-50%, -50%); border:5px solid black"">","","","","","","","",""
"","9205.964999971911","sequential-stimulus-presentation-old","47","338097","0.0-15.0-1.1","SS1619740029888","trial","","40","500","9705.964999971911","images/stimuli/spore_stims/complex_15_A_b.gif","images/stimuli/spore_stims/complex_05_A_a.gif","forced_long","","3","complex_dissimilar","images/stimuli/spore_stims/complex_05_A_a.gif","","","","",""
"","null","html-keyboard-response","48","339049","0.0-15.0-0.2","SS1619740029888","","","null","","","","","","<p><img src= images/blank.png width =""600"" height = ""600"" style=""position:fixed;top:50%; left:50%; transform: translate(-50%, -50%); border:5px solid black"">","","","","","","","",""
"","9166.489999974146","sequential-stimulus-presentation-old","49","348718","0.0-15.0-1.2","SS1619740029888","trial","","40","500","9666.489999974146","images/stimuli/spore_stims/complex_15_A_b.gif","images/stimuli/spore_stims/complex_05_A_a.gif","forced_long","","3","complex_dissimilar","images/stimuli/spore_stims/complex_05_A_a.gif","","","","",""
"","null","html-keyboard-response","50","349544","0.0-15.0-0.3","SS1619740029888","","","null","","","","","","<p><img src= images/blank.png width =""600"" height = ""600"" style=""position:fixed;top:50%; left:50%; transform: translate(-50%, -50%); border:5px solid black"">","","","","","","","",""
"","5990.4650000389665","sequential-stimulus-presentation-old","51","356037","0.0-15.0-1.3","SS1619740029888","trial","","40","500","6490.4650000389665","images/stimuli/spore_stims/complex_15_A_b.gif","images/stimuli/spore_stims/complex_05_A_a.gif","forced_long","","3","complex_dissimilar","images/stimuli/spore_stims/complex_05_A_a.gif","","","","",""
"","null","html-keyboard-response","52","356959","0.0-15.0-0.4","SS1619740029888","","","null","","","","","","<p><img src= images/blank.png width =""600"" height = ""600"" style=""position:fixed;top:50%; left:50%; transform: translate(-50%, -50%); border:5px solid black"">","","","","","","","",""
"","5736.210000002757","sequential-stimulus-presentation-old","53","363199","0.0-15.0-1.4","SS1619740029888","trial","","40","500","6236.210000002757","images/stimuli/spore_stims/complex_15_A_b.gif","images/stimuli/spore_stims/complex_05_A_a.gif","forced_long","","3","complex_dissimilar","images/stimuli/spore_stims/complex_05_A_a.gif","","","","",""
"","3029.9700000323355","survey-multi-choice","54","366231","0.0-16.0","SS1619740029888","math_question","","","","","","","","","","","","{""Q0"":""9""}","[0]","9","",""
"","null","html-keyboard-response","55","367040","0.0-17.0-0.0","SS1619740029888","","","null","","","","","","<p><img src= images/blank.png width =""600"" height = ""600"" style=""position:fixed;top:50%; left:50%; transform: translate(-50%, -50%); border:5px solid black"">","","","","","","","",""
"","393.3100001886487","sequential-stimulus-presentation-old","56","382439","0.0-17.0-1.0","SS1619740029888","trial","","40","500","893.3100001886487","images/stimuli/spore_stims/simple_13_A_b.gif","images/stimuli/spore_stims/simple_03_A_a.gif","forced_long","","4","simple_dissimilar","images/stimuli/spore_stims/simple_03_A_a.gif","","","","",""
"","null","html-keyboard-response","57","383471","0.0-17.0-0.1","SS1619740029888","","","null","","","","","","<p><img src= images/blank.png width =""600"" height = ""600"" style=""position:fixed;top:50%; left:50%; transform: translate(-50%, -50%); border:5px solid black"">","","","","","","","",""
"","7896.090000169352","sequential-stimulus-presentation-old","58","391870","0.0-17.0-1.1","SS1619740029888","trial","","40","500","8396.090000169352","images/stimuli/spore_stims/simple_13_A_b.gif","images/stimuli/spore_stims/simple_03_A_a.gif","forced_long","","4","simple_dissimilar","images/stimuli/spore_stims/simple_03_A_a.gif","","","","",""
"","null","html-keyboard-response","59","393090","0.0-17.0-0.2","SS1619740029888","","","null","","","","","","<p><img src= images/blank.png width =""600"" height = ""600"" style=""position:fixed;top:50%; left:50%; transform: translate(-50%, -50%); border:5px solid black"">","","","","","","","",""
"","6066.214999882504","sequential-stimulus-presentation-old","60","399659","0.0-17.0-1.2","SS1619740029888","trial","","40","500","6566.214999882504","images/stimuli/spore_stims/simple_13_A_b.gif","images/stimuli/spore_stims/simple_03_A_a.gif","forced_long","","4","simple_dissimilar","images/stimuli/spore_stims/simple_13_A_b.gif","","","","",""
"","null","html-keyboard-response","61","400553","0.0-17.0-0.3","SS1619740029888","","","null","","","","","","<p><img src= images/blank.png width =""600"" height = ""600"" style=""position:fixed;top:50%; left:50%; transform: translate(-50%, -50%); border:5px solid black"">","","","","","","","",""
"","3863.8550001196563","sequential-stimulus-presentation-old","62","404922","0.0-17.0-1.3","SS1619740029888","trial","","40","500","4363.855000119656","images/stimuli/spore_stims/simple_13_A_b.gif","images/stimuli/spore_stims/simple_03_A_a.gif","forced_long","","4","simple_dissimilar","images/stimuli/spore_stims/simple_03_A_a.gif","","","","",""
"","null","html-keyboard-response","63","405806","0.0-17.0-0.4","SS1619740029888","","","null","","","","","","<p><img src= images/blank.png width =""600"" height = ""600"" style=""position:fixed;top:50%; left:50%; transform: translate(-50%, -50%); border:5px solid black"">","","","","","","","",""
"","4746.034999843687","sequential-stimulus-presentation-old","64","411056","0.0-17.0-1.4","SS1619740029888","trial","","40","500","5246.034999843687","images/stimuli/spore_stims/simple_13_A_b.gif","images/stimuli/spore_stims/simple_03_A_a.gif","forced_long","","4","simple_dissimilar","images/stimuli/spore_stims/simple_13_A_b.gif","","","","",""
"","3877.2050000261515","survey-multi-choice","65","414935","0.0-18.0","SS1619740029888","math_question","","","","","","","","","","","","{""Q0"":""10""}","[0]","10","",""
"","null","html-keyboard-response","66","415932","0.0-19.0-0.0","SS1619740029888","","","null","","","","","","<p><img src= images/blank.png width =""600"" height = ""600"" style=""position:fixed;top:50%; left:50%; transform: translate(-50%, -50%); border:5px solid black"">","","","","","","","",""
"","897.6650000549853","sequential-stimulus-presentation-old","67","417333","0.0-19.0-1.0","SS1619740029888","trial","","40","500","1397.6650000549853","images/stimuli/spore_stims/simple_09_A_a.gif","images/stimuli/spore_stims/simple_14_A_b.gif","forced_short","","5","simple_dissimilar","images/stimuli/spore_stims/simple_14_A_b.gif","","","","",""
"","null","html-keyboard-response","68","418481","0.0-19.0-0.1","SS1619740029888","","","null","","","","","","<p><img src= images/blank.png width =""600"" height = ""600"" style=""position:fixed;top:50%; left:50%; transform: translate(-50%, -50%); border:5px solid black"">","","","","","","","",""
"","4964.979999931529","sequential-stimulus-presentation-old","69","423958","0.0-19.0-1.1","SS1619740029888","trial","","40","500","5464.979999931529","images/stimuli/spore_stims/simple_09_A_a.gif","images/stimuli/spore_stims/simple_14_A_b.gif","forced_short","","5","simple_dissimilar","images/stimuli/spore_stims/simple_14_A_b.gif","","","","",""
"","null","html-keyboard-response","70","425086","0.0-19.0-0.2","SS1619740029888","","","null","","","","","","<p><img src= images/blank.png width =""600"" height = ""600"" style=""position:fixed;top:50%; left:50%; transform: translate(-50%, -50%); border:5px solid black"">","","","","","","","",""
"","5033.0149999354035","sequential-stimulus-presentation-old","71","430628","0.0-19.0-1.2","SS1619740029888","trial","","40","500","5533.0149999354035","images/stimuli/spore_stims/simple_09_A_a.gif","images/stimuli/spore_stims/simple_14_A_b.gif","forced_short","","5","simple_dissimilar","images/stimuli/spore_stims/simple_09_A_a.gif","","","","",""
"","null","html-keyboard-response","72","431666","0.0-19.0-0.3","SS1619740029888","","","null","","","","","","<p><img src= images/blank.png width =""600"" height = ""600"" style=""position:fixed;top:50%; left:50%; transform: translate(-50%, -50%); border:5px solid black"">","","","","","","","",""
"","4341.454999987036","sequential-stimulus-presentation-old","73","436511","0.0-19.0-1.3","SS1619740029888","trial","","40","500","4841.454999987036","images/stimuli/spore_stims/simple_09_A_a.gif","images/stimuli/spore_stims/simple_14_A_b.gif","forced_short","","5","simple_dissimilar","images/stimuli/spore_stims/simple_09_A_a.gif","","","","",""
"","3295.0550001114607","survey-multi-choice","74","439808","0.0-20.0","SS1619740029888","math_question","","","","","","","","","","","","{""Q0"":""7""}","[0]","7","",""
"","null","html-keyboard-response","75","440786","0.0-21.0-0.0","SS1619740029888","","","null","","","","","","<p><img src= images/blank.png width =""600"" height = ""600"" style=""position:fixed;top:50%; left:50%; transform: translate(-50%, -50%); border:5px solid black"">","","","","","","","",""
"","5594.504999928176","sequential-stimulus-presentation-old","76","446884","0.0-21.0-1.0","SS1619740029888","trial","","40","500","6094.504999928176","images/stimuli/spore_stims/complex_03_A_b.gif","images/stimuli/spore_stims/complex_18_A_a.gif","self_paced","","6","complex_dissimilar","images/stimuli/spore_stims/complex_18_A_a.gif","","","","",""
"","null","html-keyboard-response","77","448183","0.0-21.0-0.1","SS1619740029888","","","null","","","","","","<p><img src= images/blank.png width =""600"" height = ""600"" style=""position:fixed;top:50%; left:50%; transform: translate(-50%, -50%); border:5px solid black"">","","","","","","","",""
"","3804.0150001179427","sequential-stimulus-presentation-old","78","452498","0.0-21.0-1.1","SS1619740029888","trial","","40","500","4304.015000117943","images/stimuli/spore_stims/complex_03_A_b.gif","images/stimuli/spore_stims/complex_18_A_a.gif","self_paced","","6","complex_dissimilar","images/stimuli/spore_stims/complex_18_A_a.gif","","","","",""
"","null","html-keyboard-response","79","453367","0.0-21.0-0.2","SS1619740029888","","","null","","","","","","<p><img src= images/blank.png width =""600"" height = ""600"" style=""position:fixed;top:50%; left:50%; transform: translate(-50%, -50%); border:5px solid black"">","","","","","","","",""
"","3938.215000089258","sequential-stimulus-presentation-old","80","457817","0.0-21.0-1.2","SS1619740029888","trial","","40","500","4438.215000089258","images/stimuli/spore_stims/complex_03_A_b.gif","images/stimuli/spore_stims/complex_18_A_a.gif","self_paced","","6","complex_dissimilar","images/stimuli/spore_stims/complex_18_A_a.gif","","","","",""
"","null","html-keyboard-response","81","458800","0.0-21.0-0.3","SS1619740029888","","","null","","","","","","<p><img src= images/blank.png width =""600"" height = ""600"" style=""position:fixed;top:50%; left:50%; transform: translate(-50%, -50%); border:5px solid black"">","","","","","","","",""
"","3234.415000071749","sequential-stimulus-presentation-old","82","462546","0.0-21.0-1.3","SS1619740029888","trial","","40","500","3734.415000071749","images/stimuli/spore_stims/complex_03_A_b.gif","images/stimuli/spore_stims/complex_18_A_a.gif","self_paced","","6","complex_dissimilar","images/stimuli/spore_stims/complex_18_A_a.gif","","","","",""
"","null","html-keyboard-response","83","463412","0.0-21.0-0.4","SS1619740029888","","","null","","","","","","<p><img src= images/blank.png width =""600"" height = ""600"" style=""position:fixed;top:50%; left:50%; transform: translate(-50%, -50%); border:5px solid black"">","","","","","","","",""
"","4573.755000019446","sequential-stimulus-presentation-old","84","468490","0.0-21.0-1.4","SS1619740029888","trial","","40","500","5073.755000019446","images/stimuli/spore_stims/complex_03_A_b.gif","images/stimuli/spore_stims/complex_18_A_a.gif","self_paced","","6","complex_dissimilar","images/stimuli/spore_stims/complex_18_A_a.gif","","","","",""
"","null","html-keyboard-response","85","469537","0.0-21.0-0.5","SS1619740029888","","","null","","","","","","<p><img src= images/blank.png width =""600"" height = ""600"" style=""position:fixed;top:50%; left:50%; transform: translate(-50%, -50%); border:5px solid black"">","","","","","","","",""
"","2884.2900001909584","sequential-stimulus-presentation-old","86","472924","0.0-21.0-1.5","SS1619740029888","trial","","40","500","3384.2900001909584","images/stimuli/spore_stims/complex_03_A_b.gif","images/stimuli/spore_stims/complex_18_A_a.gif","self_paced","","6","complex_dissimilar","images/stimuli/spore_stims/complex_18_A_a.gif","","","","",""
"","3784.484999952838","survey-multi-choice","87","476711","0.0-22.0","SS1619740029888","math_question","","","","","","","","","","","","{""Q0"":""15""}","[0]","15","",""
"","null","html-keyboard-response","88","477805","0.0-23.0-0.0","SS1619740029888","","","null","","","","","","<p><img src= images/blank.png width =""600"" height = ""600"" style=""position:fixed;top:50%; left:50%; transform: translate(-50%, -50%); border:5px solid black"">","","","","","","","",""
"","2685.4249997995794","sequential-stimulus-presentation-old","89","481002","0.0-23.0-1.0","SS1619740029888","trial","","40","500","3185.4249997995794","images/stimuli/spore_stims/simple_18_A_a.gif","images/stimuli/spore_stims/simple_10_A_b.gif","self_paced","","7","simple_dissimilar","images/stimuli/spore_stims/simple_10_A_b.gif","","","","",""
"","null","html-keyboard-response","90","482296","0.0-23.0-0.1","SS1619740029888","","","null","","","","","","<p><img src= images/blank.png width =""600"" height = ""600"" style=""position:fixed;top:50%; left:50%; transform: translate(-50%, -50%); border:5px solid black"">","","","","","","","",""
"","3280.3199999034405","sequential-stimulus-presentation-old","91","486083","0.0-23.0-1.1","SS1619740029888","trial","","40","500","3780.3199999034405","images/stimuli/spore_stims/simple_18_A_a.gif","images/stimuli/spore_stims/simple_10_A_b.gif","self_paced","","7","simple_dissimilar","images/stimuli/spore_stims/simple_10_A_b.gif","","","","",""
"","null","html-keyboard-response","92","486900","0.0-23.0-0.2","SS1619740029888","","","null","","","","","","<p><img src= images/blank.png width =""600"" height = ""600"" style=""position:fixed;top:50%; left:50%; transform: translate(-50%, -50%); border:5px solid black"">","","","","","","","",""
"","2949.219999834895","sequential-stimulus-presentation-old","93","490353","0.0-23.0-1.2","SS1619740029888","trial","","40","500","3449.219999834895","images/stimuli/spore_stims/simple_18_A_a.gif","images/stimuli/spore_stims/simple_10_A_b.gif","self_paced","","7","simple_dissimilar","images/stimuli/spore_stims/simple_18_A_a.gif","","","","",""
"","null","html-keyboard-response","94","491371","0.0-23.0-0.3","SS1619740029888","","","null","","","","","","<p><img src= images/blank.png width =""600"" height = ""600"" style=""position:fixed;top:50%; left:50%; transform: translate(-50%, -50%); border:5px solid black"">","","","","","","","",""
"","3047.6599999237806","sequential-stimulus-presentation-old","95","494922","0.0-23.0-1.3","SS1619740029888","trial","","40","500","3547.6599999237806","images/stimuli/spore_stims/simple_18_A_a.gif","images/stimuli/spore_stims/simple_10_A_b.gif","self_paced","","7","simple_dissimilar","images/stimuli/spore_stims/simple_10_A_b.gif","","","","",""
"","4402.864999836311","survey-multi-choice","96","499328","0.0-24.0","SS1619740029888","math_question","","","","","","","","","","","","{""Q0"":""16""}","[0]","16","",""
"","null","html-keyboard-response","97","500547","0.0-25.0-0.0","SS1619740029888","","","null","","","","","","<p><img src= images/blank.png width =""600"" height = ""600"" style=""position:fixed;top:50%; left:50%; transform: translate(-50%, -50%); border:5px solid black"">","","","","","","","",""
"","477.4650000035763","sequential-stimulus-presentation-old","98","516031","0.0-25.0-1.0","SS1619740029888","trial","","40","500","977.4650000035763","images/stimuli/spore_stims/simple_09_A_b.gif","images/stimuli/spore_stims/simple_10_A_a.gif","forced_long","","8","simple_dissimilar","images/stimuli/spore_stims/simple_10_A_a.gif","","","","",""
"","null","html-keyboard-response","99","516955","0.0-25.0-0.1","SS1619740029888","","","null","","","","","","<p><img src= images/blank.png width =""600"" height = ""600"" style=""position:fixed;top:50%; left:50%; transform: translate(-50%, -50%); border:5px solid black"">","","","","","","","",""
"","3239.79500005953","sequential-stimulus-presentation-old","100","520699","0.0-25.0-1.1","SS1619740029888","trial","","40","500","3739.79500005953","images/stimuli/spore_stims/simple_09_A_b.gif","images/stimuli/spore_stims/simple_10_A_a.gif","forced_long","","8","simple_dissimilar","images/stimuli/spore_stims/simple_09_A_b.gif","","","","",""
"","null","html-keyboard-response","101","521532","0.0-25.0-0.2","SS1619740029888","","","null","","","","","","<p><img src= images/blank.png width =""600"" height = ""600"" style=""position:fixed;top:50%; left:50%; transform: translate(-50%, -50%); border:5px solid black"">","","","","","","","",""
"","675.1899998635054","sequential-stimulus-presentation-old","102","522710","0.0-25.0-1.2","SS1619740029888","trial","","40","500","1175.1899998635054","images/stimuli/spore_stims/simple_09_A_b.gif","images/stimuli/spore_stims/simple_10_A_a.gif","forced_long","","8","simple_dissimilar","images/stimuli/spore_stims/simple_10_A_a.gif","","","","",""
"","null","html-keyboard-response","103","523613","0.0-25.0-0.3","SS1619740029888","","","null","","","","","","<p><img src= images/blank.png width =""600"" height = ""600"" style=""position:fixed;top:50%; left:50%; transform: translate(-50%, -50%); border:5px solid black"">","","","","","","","",""
"","492.01499996706843","sequential-stimulus-presentation-old","104","524609","0.0-25.0-1.3","SS1619740029888","trial","","40","500","992.0149999670684","images/stimuli/spore_stims/simple_09_A_b.gif","images/stimuli/spore_stims/simple_10_A_a.gif","forced_long","","8","simple_dissimilar","images/stimuli/spore_stims/simple_10_A_a.gif","","","","",""
"","null","html-keyboard-response","105","525752","0.0-25.0-0.4","SS1619740029888","","","null","","","","","","<p><img src= images/blank.png width =""600"" height = ""600"" style=""position:fixed;top:50%; left:50%; transform: translate(-50%, -50%); border:5px solid black"">","","","","","","","",""
"","1004.8699998296797","sequential-stimulus-presentation-old","106","527260","0.0-25.0-1.4","SS1619740029888","trial","","40","500","1504.8699998296797","images/stimuli/spore_stims/simple_09_A_b.gif","images/stimuli/spore_stims/simple_10_A_a.gif","forced_long","","8","simple_dissimilar","images/stimuli/spore_stims/simple_10_A_a.gif","","","","",""
"","null","html-keyboard-response","107","528100","0.0-25.0-0.5","SS1619740029888","","","null","","","","","","<p><img src= images/blank.png width =""600"" height = ""600"" style=""position:fixed;top:50%; left:50%; transform: translate(-50%, -50%); border:5px solid black"">","","","","","","","",""
"","694.1800001077354","sequential-stimulus-presentation-old","108","529298","0.0-25.0-1.5","SS1619740029888","trial","","40","500","1194.1800001077354","images/stimuli/spore_stims/simple_09_A_b.gif","images/stimuli/spore_stims/simple_10_A_a.gif","forced_long","","8","simple_dissimilar","images/stimuli/spore_stims/simple_10_A_a.gif","","","","",""
"","2355.3899999242276","survey-multi-choice","109","531655","0.0-26.0","SS1619740029888","math_question","","","","","","","","","","","","{""Q0"":""4""}","[0]","4","",""
"","null","html-keyboard-response","110","532487","0.0-27.0-0.0","SS1619740029888","","","null","","","","","","<p><img src= images/blank.png width =""600"" height = ""600"" style=""position:fixed;top:50%; left:50%; transform: translate(-50%, -50%); border:5px solid black"">","","","","","","","",""
"","582.640000153333","sequential-stimulus-presentation-old","111","533576","0.0-27.0-1.0","SS1619740029888","trial","","40","500","1082.640000153333","images/stimuli/spore_stims/complex_14_A_a.gif","images/stimuli/spore_stims/complex_18_A_b.gif","forced_short","","9","complex_dissimilar","images/stimuli/spore_stims/complex_18_A_b.gif","","","","",""
"","null","html-keyboard-response","112","534788","0.0-27.0-0.1","SS1619740029888","","","null","","","","","","<p><img src= images/blank.png width =""600"" height = ""600"" style=""position:fixed;top:50%; left:50%; transform: translate(-50%, -50%); border:5px solid black"">","","","","","","","",""
"","1966.010000091046","sequential-stimulus-presentation-old","113","537264","0.0-27.0-1.1","SS1619740029888","trial","","40","500","2466.010000091046","images/stimuli/spore_stims/complex_14_A_a.gif","images/stimuli/spore_stims/complex_18_A_b.gif","forced_short","","9","complex_dissimilar","images/stimuli/spore_stims/complex_18_A_b.gif","","","","",""
"","null","html-keyboard-response","114","538274","0.0-27.0-0.2","SS1619740029888","","","null","","","","","","<p><img src= images/blank.png width =""600"" height = ""600"" style=""position:fixed;top:50%; left:50%; transform: translate(-50%, -50%); border:5px solid black"">","","","","","","","",""
"","1972.5999999791384","sequential-stimulus-presentation-old","115","540750","0.0-27.0-1.2","SS1619740029888","trial","","40","500","2472.5999999791384","images/stimuli/spore_stims/complex_14_A_a.gif","images/stimuli/spore_stims/complex_18_A_b.gif","forced_short","","9","complex_dissimilar","images/stimuli/spore_stims/complex_18_A_b.gif","","","","",""
"","null","html-keyboard-response","116","541745","0.0-27.0-0.3","SS1619740029888","","","null","","","","","","<p><img src= images/blank.png width =""600"" height = ""600"" style=""position:fixed;top:50%; left:50%; transform: translate(-50%, -50%); border:5px solid black"">","","","","","","","",""
"","2096.5999998152256","sequential-stimulus-presentation-old","117","544348","0.0-27.0-1.3","SS1619740029888","trial","","40","500","2596.5999998152256","images/stimuli/spore_stims/complex_14_A_a.gif","images/stimuli/spore_stims/complex_18_A_b.gif","forced_short","","9","complex_dissimilar","images/stimuli/spore_stims/complex_18_A_b.gif","","","","",""
"","2952.494999859482","survey-multi-choice","118","547303","0.0-28.0","SS1619740029888","math_question","","","","","","","","","","","","{""Q0"":""6""}","[0]","6","",""
"","null","html-keyboard-response","119","548575","0.0-29.0-0.0","SS1619740029888","","","null","","","","","","<p><img src= images/blank.png width =""600"" height = ""600"" style=""position:fixed;top:50%; left:50%; transform: translate(-50%, -50%); border:5px solid black"">","","","","","","","",""
"","461.9400000665337","sequential-stimulus-presentation-old","120","549541","0.0-29.0-1.0","SS1619740029888","trial","","40","500","961.9400000665337","images/stimuli/spore_stims/complex_10_A_a.gif","images/stimuli/spore_stims/complex_05_A_b.gif","forced_short","","10","complex_dissimilar","images/stimuli/spore_stims/complex_05_A_b.gif","","","","",""
"","null","html-keyboard-response","121","550579","0.0-29.0-0.1","SS1619740029888","","","null","","","","","","<p><img src= images/blank.png width =""600"" height = ""600"" style=""position:fixed;top:50%; left:50%; transform: translate(-50%, -50%); border:5px solid black"">","","","","","","","",""
"","1782.7099999412894","sequential-stimulus-presentation-old","122","552873","0.0-29.0-1.1","SS1619740029888","trial","","40","500","2282.7099999412894","images/stimuli/spore_stims/complex_10_A_a.gif","images/stimuli/spore_stims/complex_05_A_b.gif","forced_short","","10","complex_dissimilar","images/stimuli/spore_stims/complex_05_A_b.gif","","","","",""
"","null","html-keyboard-response","123","554098","0.0-29.0-0.2","SS1619740029888","","","null","","","","","","<p><img src= images/blank.png width =""600"" height = ""600"" style=""position:fixed;top:50%; left:50%; transform: translate(-50%, -50%); border:5px solid black"">","","","","","","","",""
"","1141.5550000965595","sequential-stimulus-presentation-old","124","555743","0.0-29.0-1.2","SS1619740029888","trial","","40","500","1641.5550000965595","images/stimuli/spore_stims/complex_10_A_a.gif","images/stimuli/spore_stims/complex_05_A_b.gif","forced_short","","10","complex_dissimilar","images/stimuli/spore_stims/complex_05_A_b.gif","","","","",""
"","null","html-keyboard-response","125","556703","0.0-29.0-0.3","SS1619740029888","","","null","","","","","","<p><img src= images/blank.png width =""600"" height = ""600"" style=""position:fixed;top:50%; left:50%; transform: translate(-50%, -50%); border:5px solid black"">","","","","","","","",""
"","820.0449999421835","sequential-stimulus-presentation-old","126","558026","0.0-29.0-1.3","SS1619740029888","trial","","40","500","1320.0449999421835","images/stimuli/spore_stims/complex_10_A_a.gif","images/stimuli/spore_stims/complex_05_A_b.gif","forced_short","","10","complex_dissimilar","images/stimuli/spore_stims/complex_05_A_b.gif","","","","",""
"","null","html-keyboard-response","127","558967","0.0-29.0-0.4","SS1619740029888","","","null","","","","","","<p><img src= images/blank.png width =""600"" height = ""600"" style=""position:fixed;top:50%; left:50%; transform: translate(-50%, -50%); border:5px solid black"">","","","","","","","",""
"","892.3699997831136","sequential-stimulus-presentation-old","128","560365","0.0-29.0-1.4","SS1619740029888","trial","","40","500","1392.3699997831136","images/stimuli/spore_stims/complex_10_A_a.gif","images/stimuli/spore_stims/complex_05_A_b.gif","forced_short","","10","complex_dissimilar","images/stimuli/spore_stims/complex_05_A_b.gif","","","","",""
"","null","html-keyboard-response","129","561597","0.0-29.0-0.5","SS1619740029888","","","null","","","","","","<p><img src= images/blank.png width =""600"" height = ""600"" style=""position:fixed;top:50%; left:50%; transform: translate(-50%, -50%); border:5px solid black"">","","","","","","","",""
"","894.8399999644607","sequential-stimulus-presentation-old","130","562996","0.0-29.0-1.5","SS1619740029888","trial","","40","500","1394.8399999644607","images/stimuli/spore_stims/complex_10_A_a.gif","images/stimuli/spore_stims/complex_05_A_b.gif","forced_short","","10","complex_dissimilar","images/stimuli/spore_stims/complex_05_A_b.gif","","","","",""
"","7271.085000131279","survey-multi-choice","131","570272","0.0-30.0","SS1619740029888","math_question","","","","","","","","","","","","{""Q0"":""14""}","[0]","14","",""
"","null","html-keyboard-response","132","571154","0.0-31.0-0.0","SS1619740029888","","","null","","","","","","<p><img src= images/blank.png width =""600"" height = ""600"" style=""position:fixed;top:50%; left:50%; transform: translate(-50%, -50%); border:5px solid black"">","","","","","","","",""
"","206.91499998793006","sequential-stimulus-presentation-old","133","586365","0.0-31.0-1.0","SS1619740029888","trial","","40","500","706.9149999879301","images/stimuli/spore_stims/complex_08_A_a.gif","images/stimuli/spore_stims/complex_01_A_b.gif","forced_long","","11","complex_dissimilar","images/stimuli/spore_stims/complex_01_A_b.gif","","","","",""
"","null","html-keyboard-response","134","587648","0.0-31.0-0.1","SS1619740029888","","","null","","","","","","<p><img src= images/blank.png width =""600"" height = ""600"" style=""position:fixed;top:50%; left:50%; transform: translate(-50%, -50%); border:5px solid black"">","","","","","","","",""
"","891.7799999471754","sequential-stimulus-presentation-old","135","589045","0.0-31.0-1.1","SS1619740029888","trial","","40","500","1391.7799999471754","images/stimuli/spore_stims/complex_08_A_a.gif","images/stimuli/spore_stims/complex_01_A_b.gif","forced_long","","11","complex_dissimilar","images/stimuli/spore_stims/complex_01_A_b.gif","","","","",""
"","null","html-keyboard-response","136","589891","0.0-31.0-0.2","SS1619740029888","","","null","","","","","","<p><img src= images/blank.png width =""600"" height = ""600"" style=""position:fixed;top:50%; left:50%; transform: translate(-50%, -50%); border:5px solid black"">","","","","","","","",""
"","1502.7749999426305","sequential-stimulus-presentation-old","137","591904","0.0-31.0-1.2","SS1619740029888","trial","","40","500","2002.7749999426305","images/stimuli/spore_stims/complex_08_A_a.gif","images/stimuli/spore_stims/complex_01_A_b.gif","forced_long","","11","complex_dissimilar","images/stimuli/spore_stims/complex_01_A_b.gif","","","","",""
"","null","html-keyboard-response","138","593105","0.0-31.0-0.3","SS1619740029888","","","null","","","","","","<p><img src= images/blank.png width =""600"" height = ""600"" style=""position:fixed;top:50%; left:50%; transform: translate(-50%, -50%); border:5px solid black"">","","","","","","","",""
"","1003.1050001271069","sequential-stimulus-presentation-old","139","594613","0.0-31.0-1.3","SS1619740029888","trial","","40","500","1503.105000127107","images/stimuli/spore_stims/complex_08_A_a.gif","images/stimuli/spore_stims/complex_01_A_b.gif","forced_long","","11","complex_dissimilar","images/stimuli/spore_stims/complex_01_A_b.gif","","","","",""
"","null","html-keyboard-response","140","595498","0.0-31.0-0.4","SS1619740029888","","","null","","","","","","<p><img src= images/blank.png width =""600"" height = ""600"" style=""position:fixed;top:50%; left:50%; transform: translate(-50%, -50%); border:5px solid black"">","","","","","","","",""
"","853.3149999566376","sequential-stimulus-presentation-old","141","596864","0.0-31.0-1.4","SS1619740029888","trial","","40","500","1353.3149999566376","images/stimuli/spore_stims/complex_08_A_a.gif","images/stimuli/spore_stims/complex_01_A_b.gif","forced_long","","11","complex_dissimilar","images/stimuli/spore_stims/complex_01_A_b.gif","","","","",""
"","null","html-keyboard-response","142","598128","0.0-31.0-0.5","SS1619740029888","","","null","","","","","","<p><img src= images/blank.png width =""600"" height = ""600"" style=""position:fixed;top:50%; left:50%; transform: translate(-50%, -50%); border:5px solid black"">","","","","","","","",""
"","746.9000001437962","sequential-stimulus-presentation-old","143","599378","0.0-31.0-1.5","SS1619740029888","trial","","40","500","1246.9000001437962","images/stimuli/spore_stims/complex_08_A_a.gif","images/stimuli/spore_stims/complex_01_A_b.gif","forced_long","","11","complex_dissimilar","images/stimuli/spore_stims/complex_01_A_b.gif","","","","",""
"[{""page_index"":0,""viewing_time"":3907.6650000642985}]","3908.735000062734","instructions","144","603288","0.0-32.0","SS1619740029888","instructions","","","","","","","","","","","","","","","",""
"","7587.509999983013","survey-likert","145","610880","0.0-33.0","SS1619740029888","similarity_question","","","","","","","","","","","","{""Q0"":1}","[0]","","images/stimuli/spore_stims/simple_10_A_b.gif","images/stimuli/spore_stims/simple_18_A_a.gif"
"","6548.650000011548","survey-likert","146","617432","0.0-34.0","SS1619740029888","similarity_question","","","","","","","","","","","","{""Q0"":2}","[0]","","images/stimuli/spore_stims/complex_10_A_a.gif","images/stimuli/spore_stims/complex_05_A_b.gif"
"","4083.5449998266995","survey-likert","147","621519","0.0-35.0","SS1619740029888","similarity_question","","","","","","","","","","","","{""Q0"":2}","[0]","","images/stimuli/spore_stims/complex_05_A_a.gif","images/stimuli/spore_stims/complex_15_A_b.gif"
"","5661.390000022948","survey-likert","148","627184","0.0-36.0","SS1619740029888","similarity_question","","","","","","","","","","","","{""Q0"":5}","[0]","","images/stimuli/spore_stims/simple_13_A_b.gif","images/stimuli/spore_stims/simple_03_A_a.gif"
"","6372.974999947473","survey-likert","149","633560","0.0-37.0","SS1619740029888","similarity_question","","","","","","","","","","","","{""Q0"":5}","[0]","","images/stimuli/spore_stims/simple_17_A_a.gif","images/stimuli/spore_stims/simple_16_A_b.gif"
"","4323.834999930114","survey-likert","150","637888","0.0-38.0","SS1619740029888","similarity_question","","","","","","","","","","","","{""Q0"":6}","[0]","","images/stimuli/spore_stims/simple_09_A_b.gif","images/stimuli/spore_stims/simple_10_A_a.gif"
"","4996.810000156984","survey-likert","151","642888","0.0-39.0","SS1619740029888","similarity_question","","","","","","","","","","","","{""Q0"":5}","[0]","","images/stimuli/spore_stims/complex_08_A_a.gif","images/stimuli/spore_stims/complex_01_A_b.gif"
"","4435.680000111461","survey-likert","152","647327","0.0-40.0","SS1619740029888","similarity_question","","","","","","","","","","","","{""Q0"":5}","[0]","","images/stimuli/spore_stims/complex_20_A_b.gif","images/stimuli/spore_stims/complex_15_A_a.gif"
"","3300.9249998722225","survey-likert","153","650631","0.0-41.0","SS1619740029888","similarity_question","","","","","","","","","","","","{""Q0"":2}","[0]","","images/stimuli/spore_stims/simple_14_A_b.gif","images/stimuli/spore_stims/simple_09_A_a.gif"
"","2725.7050001062453","survey-likert","154","653360","0.0-42.0","SS1619740029888","similarity_question","","","","","","","","","","","","{""Q0"":0}","[0]","","images/stimuli/spore_stims/complex_03_A_b.gif","images/stimuli/spore_stims/complex_18_A_a.gif"
"","6900.66000004299","survey-likert","155","660264","0.0-43.0","SS1619740029888","similarity_question","","","","","","","","","","","","{""Q0"":5}","[0]","","images/stimuli/spore_stims/complex_18_A_b.gif","images/stimuli/spore_stims/complex_14_A_a.gif"
"","3403.9000000339","survey-likert","156","663671","0.0-44.0","SS1619740029888","similarity_question","","","","","","","","","","","","{""Q0"":5}","[0]","","images/stimuli/spore_stims/simple_06_A_b.gif","images/stimuli/spore_stims/simple_14_A_a.gif"
"[{""page_index"":0,""viewing_time"":4443.2349998969585}]","4443.504999857396","instructions","157","668119","0.0-45.0","SS1619740029888","instructions","","","","","","","","","","","","","","","",""
"","4596.774999983609","survey-likert","158","672721","0.0-46.0","SS1619740029888","","","","","","","","","images/stimuli/spore_stims/complex_15_A_a.gif","","","","{""Q0"":5}","[0]","","",""
"","3027.009999845177","survey-likert","159","675751","0.0-47.0","SS1619740029888","","","","","","","","","images/stimuli/spore_stims/simple_16_A_b.gif","","","","{""Q0"":2}","[0]","","",""
"","3396.334999939427","survey-likert","160","679151","0.0-48.0","SS1619740029888","","","","","","","","","images/stimuli/spore_stims/complex_10_A_a.gif","","","","{""Q0"":4}","[0]","","",""
"","2628.7249999586493","survey-likert","161","681783","0.0-49.0","SS1619740029888","","","","","","","","","images/stimuli/spore_stims/simple_09_A_a.gif","","","","{""Q0"":1}","[0]","","",""
"","2429.380000103265","survey-likert","162","684215","0.0-50.0","SS1619740029888","","","","","","","","","images/stimuli/spore_stims/simple_09_A_b.gif","","","","{""Q0"":1}","[0]","","",""
"","2637.119999853894","survey-likert","163","686856","0.0-51.0","SS1619740029888","","","","","","","","","images/stimuli/spore_stims/complex_15_A_b.gif","","","","{""Q0"":5}","[0]","","",""
"","3683.2500000018626","survey-likert","164","690544","0.0-52.0","SS1619740029888","","","","","","","","","images/stimuli/spore_stims/simple_10_A_b.gif","","","","{""Q0"":1}","[0]","","",""
"","2930.0949999596924","survey-likert","165","693479","0.0-53.0","SS1619740029888","","","","","","","","","images/stimuli/spore_stims/complex_18_A_a.gif","","","","{""Q0"":6}","[0]","","",""
"","2163.175000110641","survey-likert","166","695648","0.0-54.0","SS1619740029888","","","","","","","","","images/stimuli/spore_stims/complex_08_A_a.gif","","","","{""Q0"":6}","[0]","","",""
"","2251.88499991782","survey-likert","167","697903","0.0-55.0","SS1619740029888","","","","","","","","","images/stimuli/spore_stims/complex_14_A_a.gif","","","","{""Q0"":5}","[0]","","",""
"","2405.8449999429286","survey-likert","168","700312","0.0-56.0","SS1619740029888","","","","","","","","","images/stimuli/spore_stims/simple_14_A_a.gif","","","","{""Q0"":2}","[0]","","",""
"","3529.8649999313056","survey-likert","169","703848","0.0-57.0","SS1619740029888","","","","","","","","","images/stimuli/spore_stims/simple_13_A_b.gif","","","","{""Q0"":0}","[0]","","",""
"[{""page_index"":0,""viewing_time"":1756.2199998646975}]","1756.6599999554455","instructions","170","705608","0.0-58.0","SS1619740029888","instructions","","","","","","","","","","","","","","","",""
"","2617.0550000388175","demog-age","171","708232","0.0-59.0","SS1619740029888","","","","","","","","","","","","","{""age"":""24""}","","","",""
"","2816.499999957159","demog-ethnic-US","172","711056","0.0-60.0","SS1619740029888","","","","","","","","","","","","","{""ethnicity"":[""White""]}","[0]","","",""
"","4876.159999985248","demog-gender-and-education","173","715936","0.0-61.0","SS1619740029888","","","","","","","","","","","","","{""gender"":""Male"",""education"":""Associate Degree/Technical certification""}","[0,1]","","",""
"","20748.019999824464","survey-text","174","736688","0.0-62.0","SS1619740029888","feedback","","","","","","","","","","","","{""Q0"":""No issue whatsoever""}","","","",""
"[{""page_index"":0,""viewing_time"":1444.385000038892}]","1444.6250000037253","instructions","175","738136","0.0-63.0","SS1619740029888","instructions","","","","","","","","","","","","","","","",""
