"view_history","rt","trial_type","trial_index","time_elapsed","internal_node_id","subject","stimulus_type","trial_stimulus","key_press","minimum_viewing_duration","trial_looking_time","block_deviant","block_background","exposure_type","stimulus","block_number","block_type","stimulus_displayed","responses","question_order","math_correct_answer","stimulus_left","stimulus_right"
"[{""page_index"":0,""viewing_time"":7253.834999864921}]","7254.779999842867","instructions","0","7256","0.0-0.0","SS1619739450868","","","","","","","","","","","","","","","","",""
"[{""page_index"":0,""viewing_time"":7725.390000035986},{""page_index"":1,""viewing_time"":5807.310000061989}]","13533.079999964684","instructions","1","22792","0.0-1.0","SS1619739450868","instructions","","","","","","","","","","","","","","","",""
"","6961.810000007972","sequential-stimulus-presentation-old","2","30262","0.0-2.0","SS1619739450868","","","40","500","7461.810000007972","null","null","self_paced","","","","","","","","",""
"","5569.744999986142","sequential-stimulus-presentation-old","3","36334","0.0-3.0","SS1619739450868","","","40","500","6069.744999986142","null","null","self_paced","","","","","","","","",""
"[{""page_index"":0,""viewing_time"":55898.53999996558}]","55898.74999993481","instructions","4","92234","0.0-4.0","SS1619739450868","instructions","","","","","","","","","","","","","","","",""
"","2332.499999785796","sequential-stimulus-presentation-old","5","109569","0.0-5.0","SS1619739450868","","","40","500","2832.499999785796","null","null","forced_long","","","","","","","","",""
"","2137.0600000955164","sequential-stimulus-presentation-old","6","112210","0.0-6.0","SS1619739450868","","","40","500","2637.0600000955164","null","null","forced_long","","","","","","","","",""
"[{""page_index"":0,""viewing_time"":3881.210000021383}]","3881.444999948144","instructions","7","116093","0.0-7.0","SS1619739450868","instructions","","","","","","","","","","","","","","","",""
"[{""page_index"":0,""viewing_time"":10283.51500001736},{""page_index"":1,""viewing_time"":6361.7249999661},{""page_index"":2,""viewing_time"":7137.8399999812245},{""page_index"":3,""viewing_time"":1428.6700000520796},{""page_index"":4,""viewing_time"":1319.1849999129772}]","26531.139999860898","instructions","8","142625","0.0-8.0","SS1619739450868","instructions","","","","","","","","","","","","","","","",""
"","null","html-keyboard-response","9","143574","0.0-9.0-0.0","SS1619739450868","","","null","","","","","","<p><img src= images/blank.png width =""600"" height = ""600"" style=""position:fixed;top:50%; left:50%; transform: translate(-50%, -50%); border:5px solid black"">","","","","","","","",""
"","87491.1050000228","sequential-stimulus-presentation-old","10","231572","0.0-9.0-1.0","SS1619739450868","trial","","40","500","87991.1050000228","images/stimuli/spore_stims/simple_17_A_a.gif","images/stimuli/spore_stims/simple_08_A_b.gif","self_paced","","0","simple_dissimilar","images/stimuli/spore_stims/simple_08_A_b.gif","","","","",""
"","null","html-keyboard-response","11","232516","0.0-9.0-0.1","SS1619739450868","","","null","","","","","","<p><img src= images/blank.png width =""600"" height = ""600"" style=""position:fixed;top:50%; left:50%; transform: translate(-50%, -50%); border:5px solid black"">","","","","","","","",""
"","36300.81500019878","sequential-stimulus-presentation-old","12","269323","0.0-9.0-1.1","SS1619739450868","trial","","40","500","36800.81500019878","images/stimuli/spore_stims/simple_17_A_a.gif","images/stimuli/spore_stims/simple_08_A_b.gif","self_paced","","0","simple_dissimilar","images/stimuli/spore_stims/simple_17_A_a.gif","","","","",""
"","null","html-keyboard-response","13","270175","0.0-9.0-0.2","SS1619739450868","","","null","","","","","","<p><img src= images/blank.png width =""600"" height = ""600"" style=""position:fixed;top:50%; left:50%; transform: translate(-50%, -50%); border:5px solid black"">","","","","","","","",""
"","5776.100000133738","sequential-stimulus-presentation-old","14","276459","0.0-9.0-1.2","SS1619739450868","trial","","40","500","6276.100000133738","images/stimuli/spore_stims/simple_17_A_a.gif","images/stimuli/spore_stims/simple_08_A_b.gif","self_paced","","0","simple_dissimilar","images/stimuli/spore_stims/simple_08_A_b.gif","","","","",""
"","null","html-keyboard-response","15","277483","0.0-9.0-0.3","SS1619739450868","","","null","","","","","","<p><img src= images/blank.png width =""600"" height = ""600"" style=""position:fixed;top:50%; left:50%; transform: translate(-50%, -50%); border:5px solid black"">","","","","","","","",""
"","5374.599999981001","sequential-stimulus-presentation-old","16","283366","0.0-9.0-1.3","SS1619739450868","trial","","40","500","5874.599999981001","images/stimuli/spore_stims/simple_17_A_a.gif","images/stimuli/spore_stims/simple_08_A_b.gif","self_paced","","0","simple_dissimilar","images/stimuli/spore_stims/simple_08_A_b.gif","","","","",""
"","null","html-keyboard-response","17","284566","0.0-9.0-0.4","SS1619739450868","","","null","","","","","","<p><img src= images/blank.png width =""600"" height = ""600"" style=""position:fixed;top:50%; left:50%; transform: translate(-50%, -50%); border:5px solid black"">","","","","","","","",""
"","12839.184999931604","sequential-stimulus-presentation-old","18","297913","0.0-9.0-1.4","SS1619739450868","trial","","40","500","13339.184999931604","images/stimuli/spore_stims/simple_17_A_a.gif","images/stimuli/spore_stims/simple_08_A_b.gif","self_paced","","0","simple_dissimilar","images/stimuli/spore_stims/simple_08_A_b.gif","","","","",""
"","null","html-keyboard-response","19","298854","0.0-9.0-0.5","SS1619739450868","","","null","","","","","","<p><img src= images/blank.png width =""600"" height = ""600"" style=""position:fixed;top:50%; left:50%; transform: translate(-50%, -50%); border:5px solid black"">","","","","","","","",""
"","16383.019999833778","sequential-stimulus-presentation-old","20","315741","0.0-9.0-1.5","SS1619739450868","trial","","40","500","16883.019999833778","images/stimuli/spore_stims/simple_17_A_a.gif","images/stimuli/spore_stims/simple_08_A_b.gif","self_paced","","0","simple_dissimilar","images/stimuli/spore_stims/simple_17_A_a.gif","","","","",""
"","2758.254999993369","survey-multi-choice","21","318505","0.0-10.0","SS1619739450868","math_question","","","","","","","","","","","","{""Q0"":""8""}","[0]","8","",""
"","null","html-keyboard-response","22","319631","0.0-11.0-0.0","SS1619739450868","","","null","","","","","","<p><img src= images/blank.png width =""600"" height = ""600"" style=""position:fixed;top:50%; left:50%; transform: translate(-50%, -50%); border:5px solid black"">","","","","","","","",""
"","785.7100002001971","sequential-stimulus-presentation-old","23","335422","0.0-11.0-1.0","SS1619739450868","trial","","40","500","1285.710000200197","images/stimuli/spore_stims/complex_18_A_b.gif","images/stimuli/spore_stims/complex_02_A_a.gif","forced_long","","1","complex_dissimilar","images/stimuli/spore_stims/complex_02_A_a.gif","","","","",""
"","null","html-keyboard-response","24","336242","0.0-11.0-0.1","SS1619739450868","","","null","","","","","","<p><img src= images/blank.png width =""600"" height = ""600"" style=""position:fixed;top:50%; left:50%; transform: translate(-50%, -50%); border:5px solid black"">","","","","","","","",""
"","6240.325000137091","sequential-stimulus-presentation-old","25","342989","0.0-11.0-1.1","SS1619739450868","trial","","40","500","6740.325000137091","images/stimuli/spore_stims/complex_18_A_b.gif","images/stimuli/spore_stims/complex_02_A_a.gif","forced_long","","1","complex_dissimilar","images/stimuli/spore_stims/complex_02_A_a.gif","","","","",""
"","null","html-keyboard-response","26","344234","0.0-11.0-0.2","SS1619739450868","","","null","","","","","","<p><img src= images/blank.png width =""600"" height = ""600"" style=""position:fixed;top:50%; left:50%; transform: translate(-50%, -50%); border:5px solid black"">","","","","","","","",""
"","6294.3549999035895","sequential-stimulus-presentation-old","27","351034","0.0-11.0-1.2","SS1619739450868","trial","","40","500","6794.3549999035895","images/stimuli/spore_stims/complex_18_A_b.gif","images/stimuli/spore_stims/complex_02_A_a.gif","forced_long","","1","complex_dissimilar","images/stimuli/spore_stims/complex_02_A_a.gif","","","","",""
"","null","html-keyboard-response","28","351998","0.0-11.0-0.3","SS1619739450868","","","null","","","","","","<p><img src= images/blank.png width =""600"" height = ""600"" style=""position:fixed;top:50%; left:50%; transform: translate(-50%, -50%); border:5px solid black"">","","","","","","","",""
"","8399.659999879077","sequential-stimulus-presentation-old","29","360906","0.0-11.0-1.3","SS1619739450868","trial","","40","500","8899.659999879077","images/stimuli/spore_stims/complex_18_A_b.gif","images/stimuli/spore_stims/complex_02_A_a.gif","forced_long","","1","complex_dissimilar","images/stimuli/spore_stims/complex_02_A_a.gif","","","","",""
"","null","html-keyboard-response","30","362169","0.0-11.0-0.4","SS1619739450868","","","null","","","","","","<p><img src= images/blank.png width =""600"" height = ""600"" style=""position:fixed;top:50%; left:50%; transform: translate(-50%, -50%); border:5px solid black"">","","","","","","","",""
"","3929.804999846965","sequential-stimulus-presentation-old","31","366606","0.0-11.0-1.4","SS1619739450868","trial","","40","500","4429.804999846965","images/stimuli/spore_stims/complex_18_A_b.gif","images/stimuli/spore_stims/complex_02_A_a.gif","forced_long","","1","complex_dissimilar","images/stimuli/spore_stims/complex_02_A_a.gif","","","","",""
"","null","html-keyboard-response","32","367787","0.0-11.0-0.5","SS1619739450868","","","null","","","","","","<p><img src= images/blank.png width =""600"" height = ""600"" style=""position:fixed;top:50%; left:50%; transform: translate(-50%, -50%); border:5px solid black"">","","","","","","","",""
"","4545.355000067502","sequential-stimulus-presentation-old","33","372840","0.0-11.0-1.5","SS1619739450868","trial","","40","500","5045.355000067502","images/stimuli/spore_stims/complex_18_A_b.gif","images/stimuli/spore_stims/complex_02_A_a.gif","forced_long","","1","complex_dissimilar","images/stimuli/spore_stims/complex_02_A_a.gif","","","","",""
"","2717.4499998800457","survey-multi-choice","34","375560","0.0-12.0","SS1619739450868","math_question","","","","","","","","","","","","{""Q0"":""2""}","[0]","2","",""
"","null","html-keyboard-response","35","376772","0.0-13.0-0.0","SS1619739450868","","","null","","","","","","<p><img src= images/blank.png width =""600"" height = ""600"" style=""position:fixed;top:50%; left:50%; transform: translate(-50%, -50%); border:5px solid black"">","","","","","","","",""
"","2554.299999959767","sequential-stimulus-presentation-old","36","379831","0.0-13.0-1.0","SS1619739450868","trial","","40","500","3054.299999959767","images/stimuli/spore_stims/simple_12_A_b.gif","images/stimuli/spore_stims/simple_06_A_a.gif","forced_short","","2","simple_dissimilar","images/stimuli/spore_stims/simple_06_A_a.gif","","","","",""
"","null","html-keyboard-response","37","380642","0.0-13.0-0.1","SS1619739450868","","","null","","","","","","<p><img src= images/blank.png width =""600"" height = ""600"" style=""position:fixed;top:50%; left:50%; transform: translate(-50%, -50%); border:5px solid black"">","","","","","","","",""
"","4277.479999931529","sequential-stimulus-presentation-old","38","385425","0.0-13.0-1.1","SS1619739450868","trial","","40","500","4777.479999931529","images/stimuli/spore_stims/simple_12_A_b.gif","images/stimuli/spore_stims/simple_06_A_a.gif","forced_short","","2","simple_dissimilar","images/stimuli/spore_stims/simple_12_A_b.gif","","","","",""
"","null","html-keyboard-response","39","386366","0.0-13.0-0.2","SS1619739450868","","","null","","","","","","<p><img src= images/blank.png width =""600"" height = ""600"" style=""position:fixed;top:50%; left:50%; transform: translate(-50%, -50%); border:5px solid black"">","","","","","","","",""
"","4032.545000081882","sequential-stimulus-presentation-old","40","390904","0.0-13.0-1.2","SS1619739450868","trial","","40","500","4532.545000081882","images/stimuli/spore_stims/simple_12_A_b.gif","images/stimuli/spore_stims/simple_06_A_a.gif","forced_short","","2","simple_dissimilar","images/stimuli/spore_stims/simple_12_A_b.gif","","","","",""
"","null","html-keyboard-response","41","391999","0.0-13.0-0.3","SS1619739450868","","","null","","","","","","<p><img src= images/blank.png width =""600"" height = ""600"" style=""position:fixed;top:50%; left:50%; transform: translate(-50%, -50%); border:5px solid black"">","","","","","","","",""
"","5972.360000014305","sequential-stimulus-presentation-old","42","398478","0.0-13.0-1.3","SS1619739450868","trial","","40","500","6472.360000014305","images/stimuli/spore_stims/simple_12_A_b.gif","images/stimuli/spore_stims/simple_06_A_a.gif","forced_short","","2","simple_dissimilar","images/stimuli/spore_stims/simple_06_A_a.gif","","","","",""
"","null","html-keyboard-response","43","399352","0.0-13.0-0.4","SS1619739450868","","","null","","","","","","<p><img src= images/blank.png width =""600"" height = ""600"" style=""position:fixed;top:50%; left:50%; transform: translate(-50%, -50%); border:5px solid black"">","","","","","","","",""
"","6600.594999967143","sequential-stimulus-presentation-old","44","406458","0.0-13.0-1.4","SS1619739450868","trial","","40","500","7100.594999967143","images/stimuli/spore_stims/simple_12_A_b.gif","images/stimuli/spore_stims/simple_06_A_a.gif","forced_short","","2","simple_dissimilar","images/stimuli/spore_stims/simple_06_A_a.gif","","","","",""
"","null","html-keyboard-response","45","407468","0.0-13.0-0.5","SS1619739450868","","","null","","","","","","<p><img src= images/blank.png width =""600"" height = ""600"" style=""position:fixed;top:50%; left:50%; transform: translate(-50%, -50%); border:5px solid black"">","","","","","","","",""
"","4443.165000062436","sequential-stimulus-presentation-old","46","412416","0.0-13.0-1.5","SS1619739450868","trial","","40","500","4943.165000062436","images/stimuli/spore_stims/simple_12_A_b.gif","images/stimuli/spore_stims/simple_06_A_a.gif","forced_short","","2","simple_dissimilar","images/stimuli/spore_stims/simple_06_A_a.gif","","","","",""
"","2587.444999953732","survey-multi-choice","47","415005","0.0-14.0","SS1619739450868","math_question","","","","","","","","","","","","{""Q0"":""10""}","[0]","10","",""
"","null","html-keyboard-response","48","415903","0.0-15.0-0.0","SS1619739450868","","","null","","","","","","<p><img src= images/blank.png width =""600"" height = ""600"" style=""position:fixed;top:50%; left:50%; transform: translate(-50%, -50%); border:5px solid black"">","","","","","","","",""
"","9523.259999928996","sequential-stimulus-presentation-old","49","425928","0.0-15.0-1.0","SS1619739450868","trial","","40","500","10023.259999928996","images/stimuli/spore_stims/complex_19_A_b.gif","images/stimuli/spore_stims/complex_15_A_a.gif","self_paced","","3","complex_dissimilar","images/stimuli/spore_stims/complex_15_A_a.gif","","","","",""
"","null","html-keyboard-response","50","426908","0.0-15.0-0.1","SS1619739450868","","","null","","","","","","<p><img src= images/blank.png width =""600"" height = ""600"" style=""position:fixed;top:50%; left:50%; transform: translate(-50%, -50%); border:5px solid black"">","","","","","","","",""
"","2989.415000192821","sequential-stimulus-presentation-old","51","430403","0.0-15.0-1.1","SS1619739450868","trial","","40","500","3489.415000192821","images/stimuli/spore_stims/complex_19_A_b.gif","images/stimuli/spore_stims/complex_15_A_a.gif","self_paced","","3","complex_dissimilar","images/stimuli/spore_stims/complex_15_A_a.gif","","","","",""
"","null","html-keyboard-response","52","431450","0.0-15.0-0.2","SS1619739450868","","","null","","","","","","<p><img src= images/blank.png width =""600"" height = ""600"" style=""position:fixed;top:50%; left:50%; transform: translate(-50%, -50%); border:5px solid black"">","","","","","","","",""
"","2911.979999858886","sequential-stimulus-presentation-old","53","434870","0.0-15.0-1.2","SS1619739450868","trial","","40","500","3411.979999858886","images/stimuli/spore_stims/complex_19_A_b.gif","images/stimuli/spore_stims/complex_15_A_a.gif","self_paced","","3","complex_dissimilar","images/stimuli/spore_stims/complex_15_A_a.gif","","","","",""
"","null","html-keyboard-response","54","436131","0.0-15.0-0.3","SS1619739450868","","","null","","","","","","<p><img src= images/blank.png width =""600"" height = ""600"" style=""position:fixed;top:50%; left:50%; transform: translate(-50%, -50%); border:5px solid black"">","","","","","","","",""
"","3424.1750000510365","sequential-stimulus-presentation-old","55","440061","0.0-15.0-1.3","SS1619739450868","trial","","40","500","3924.1750000510365","images/stimuli/spore_stims/complex_19_A_b.gif","images/stimuli/spore_stims/complex_15_A_a.gif","self_paced","","3","complex_dissimilar","images/stimuli/spore_stims/complex_19_A_b.gif","","","","",""
"","2034.769999794662","survey-multi-choice","56","442098","0.0-16.0","SS1619739450868","math_question","","","","","","","","","","","","{""Q0"":""7""}","[0]","7","",""
"","null","html-keyboard-response","57","443266","0.0-17.0-0.0","SS1619739450868","","","null","","","","","","<p><img src= images/blank.png width =""600"" height = ""600"" style=""position:fixed;top:50%; left:50%; transform: translate(-50%, -50%); border:5px solid black"">","","","","","","","",""
"","2506.370000075549","sequential-stimulus-presentation-old","58","446279","0.0-17.0-1.0","SS1619739450868","trial","","40","500","3006.370000075549","images/stimuli/spore_stims/complex_07_A_b.gif","images/stimuli/spore_stims/complex_16_A_a.gif","forced_short","","4","complex_dissimilar","images/stimuli/spore_stims/complex_16_A_a.gif","","","","",""
"","null","html-keyboard-response","59","447284","0.0-17.0-0.1","SS1619739450868","","","null","","","","","","<p><img src= images/blank.png width =""600"" height = ""600"" style=""position:fixed;top:50%; left:50%; transform: translate(-50%, -50%); border:5px solid black"">","","","","","","","",""
"","3013.180000009015","sequential-stimulus-presentation-old","60","450806","0.0-17.0-1.1","SS1619739450868","trial","","40","500","3513.180000009015","images/stimuli/spore_stims/complex_07_A_b.gif","images/stimuli/spore_stims/complex_16_A_a.gif","forced_short","","4","complex_dissimilar","images/stimuli/spore_stims/complex_16_A_a.gif","","","","",""
"","null","html-keyboard-response","61","452048","0.0-17.0-0.2","SS1619739450868","","","null","","","","","","<p><img src= images/blank.png width =""600"" height = ""600"" style=""position:fixed;top:50%; left:50%; transform: translate(-50%, -50%); border:5px solid black"">","","","","","","","",""
"","7438.319999957457","sequential-stimulus-presentation-old","62","459995","0.0-17.0-1.2","SS1619739450868","trial","","40","500","7938.319999957457","images/stimuli/spore_stims/complex_07_A_b.gif","images/stimuli/spore_stims/complex_16_A_a.gif","forced_short","","4","complex_dissimilar","images/stimuli/spore_stims/complex_16_A_a.gif","","","","",""
"","null","html-keyboard-response","63","461079","0.0-17.0-0.3","SS1619739450868","","","null","","","","","","<p><img src= images/blank.png width =""600"" height = ""600"" style=""position:fixed;top:50%; left:50%; transform: translate(-50%, -50%); border:5px solid black"">","","","","","","","",""
"","5189.325000159442","sequential-stimulus-presentation-old","64","466777","0.0-17.0-1.3","SS1619739450868","trial","","40","500","5689.325000159442","images/stimuli/spore_stims/complex_07_A_b.gif","images/stimuli/spore_stims/complex_16_A_a.gif","forced_short","","4","complex_dissimilar","images/stimuli/spore_stims/complex_16_A_a.gif","","","","",""
"","2885.2399999741465","survey-multi-choice","65","469665","0.0-18.0","SS1619739450868","math_question","","","","","","","","","","","","{""Q0"":""14""}","[0]","14","",""
"","null","html-keyboard-response","66","470930","0.0-19.0-0.0","SS1619739450868","","","null","","","","","","<p><img src= images/blank.png width =""600"" height = ""600"" style=""position:fixed;top:50%; left:50%; transform: translate(-50%, -50%); border:5px solid black"">","","","","","","","",""
"","4049.495000159368","sequential-stimulus-presentation-old","67","475486","0.0-19.0-1.0","SS1619739450868","trial","","40","500","4549.495000159368","images/stimuli/spore_stims/complex_14_A_a.gif","images/stimuli/spore_stims/complex_01_A_b.gif","self_paced","","5","complex_dissimilar","images/stimuli/spore_stims/complex_01_A_b.gif","","","","",""
"","null","html-keyboard-response","68","476656","0.0-19.0-0.1","SS1619739450868","","","null","","","","","","<p><img src= images/blank.png width =""600"" height = ""600"" style=""position:fixed;top:50%; left:50%; transform: translate(-50%, -50%); border:5px solid black"">","","","","","","","",""
"","4745.995000004768","sequential-stimulus-presentation-old","69","481910","0.0-19.0-1.1","SS1619739450868","trial","","40","500","5245.995000004768","images/stimuli/spore_stims/complex_14_A_a.gif","images/stimuli/spore_stims/complex_01_A_b.gif","self_paced","","5","complex_dissimilar","images/stimuli/spore_stims/complex_01_A_b.gif","","","","",""
"","null","html-keyboard-response","70","483039","0.0-19.0-0.2","SS1619739450868","","","null","","","","","","<p><img src= images/blank.png width =""600"" height = ""600"" style=""position:fixed;top:50%; left:50%; transform: translate(-50%, -50%); border:5px solid black"">","","","","","","","",""
"","5730.50000006333","sequential-stimulus-presentation-old","71","489275","0.0-19.0-1.2","SS1619739450868","trial","","40","500","6230.50000006333","images/stimuli/spore_stims/complex_14_A_a.gif","images/stimuli/spore_stims/complex_01_A_b.gif","self_paced","","5","complex_dissimilar","images/stimuli/spore_stims/complex_01_A_b.gif","","","","",""
"","null","html-keyboard-response","72","490463","0.0-19.0-0.3","SS1619739450868","","","null","","","","","","<p><img src= images/blank.png width =""600"" height = ""600"" style=""position:fixed;top:50%; left:50%; transform: translate(-50%, -50%); border:5px solid black"">","","","","","","","",""
"","2628.565000137314","sequential-stimulus-presentation-old","73","493598","0.0-19.0-1.3","SS1619739450868","trial","","40","500","3128.565000137314","images/stimuli/spore_stims/complex_14_A_a.gif","images/stimuli/spore_stims/complex_01_A_b.gif","self_paced","","5","complex_dissimilar","images/stimuli/spore_stims/complex_01_A_b.gif","","","","",""
"","null","html-keyboard-response","74","494585","0.0-19.0-0.4","SS1619739450868","","","null","","","","","","<p><img src= images/blank.png width =""600"" height = ""600"" style=""position:fixed;top:50%; left:50%; transform: translate(-50%, -50%); border:5px solid black"">","","","","","","","",""
"","1343.2099998462945","sequential-stimulus-presentation-old","75","496433","0.0-19.0-1.4","SS1619739450868","trial","","40","500","1843.2099998462945","images/stimuli/spore_stims/complex_14_A_a.gif","images/stimuli/spore_stims/complex_01_A_b.gif","self_paced","","5","complex_dissimilar","images/stimuli/spore_stims/complex_01_A_b.gif","","","","",""
"","null","html-keyboard-response","76","497682","0.0-19.0-0.5","SS1619739450868","","","null","","","","","","<p><img src= images/blank.png width =""600"" height = ""600"" style=""position:fixed;top:50%; left:50%; transform: translate(-50%, -50%); border:5px solid black"">","","","","","","","",""
"","2039.3449999392033","sequential-stimulus-presentation-old","77","500228","0.0-19.0-1.5","SS1619739450868","trial","","40","500","2539.3449999392033","images/stimuli/spore_stims/complex_14_A_a.gif","images/stimuli/spore_stims/complex_01_A_b.gif","self_paced","","5","complex_dissimilar","images/stimuli/spore_stims/complex_01_A_b.gif","","","","",""
"","2694.829999934882","survey-multi-choice","78","502925","0.0-20.0","SS1619739450868","math_question","","","","","","","","","","","","{""Q0"":""7""}","[0]","7","",""
"","null","html-keyboard-response","79","503928","0.0-21.0-0.0","SS1619739450868","","","null","","","","","","<p><img src= images/blank.png width =""600"" height = ""600"" style=""position:fixed;top:50%; left:50%; transform: translate(-50%, -50%); border:5px solid black"">","","","","","","","",""
"","7880.174999823794","sequential-stimulus-presentation-old","80","512316","0.0-21.0-1.0","SS1619739450868","trial","","40","500","8380.174999823794","images/stimuli/spore_stims/complex_16_A_b.gif","images/stimuli/spore_stims/complex_11_A_a.gif","forced_short","","6","complex_dissimilar","images/stimuli/spore_stims/complex_11_A_a.gif","","","","",""
"","null","html-keyboard-response","81","513371","0.0-21.0-0.1","SS1619739450868","","","null","","","","","","<p><img src= images/blank.png width =""600"" height = ""600"" style=""position:fixed;top:50%; left:50%; transform: translate(-50%, -50%); border:5px solid black"">","","","","","","","",""
"","5491.690000053495","sequential-stimulus-presentation-old","82","519367","0.0-21.0-1.1","SS1619739450868","trial","","40","500","5991.690000053495","images/stimuli/spore_stims/complex_16_A_b.gif","images/stimuli/spore_stims/complex_11_A_a.gif","forced_short","","6","complex_dissimilar","images/stimuli/spore_stims/complex_11_A_a.gif","","","","",""
"","null","html-keyboard-response","83","520532","0.0-21.0-0.2","SS1619739450868","","","null","","","","","","<p><img src= images/blank.png width =""600"" height = ""600"" style=""position:fixed;top:50%; left:50%; transform: translate(-50%, -50%); border:5px solid black"">","","","","","","","",""
"","3039.264999795705","sequential-stimulus-presentation-old","84","524078","0.0-21.0-1.2","SS1619739450868","trial","","40","500","3539.264999795705","images/stimuli/spore_stims/complex_16_A_b.gif","images/stimuli/spore_stims/complex_11_A_a.gif","forced_short","","6","complex_dissimilar","images/stimuli/spore_stims/complex_11_A_a.gif","","","","",""
"","null","html-keyboard-response","85","525282","0.0-21.0-0.3","SS1619739450868","","","null","","","","","","<p><img src= images/blank.png width =""600"" height = ""600"" style=""position:fixed;top:50%; left:50%; transform: translate(-50%, -50%); border:5px solid black"">","","","","","","","",""
"","3789.2899999860674","sequential-stimulus-presentation-old","86","529580","0.0-21.0-1.3","SS1619739450868","trial","","40","500","4289.289999986067","images/stimuli/spore_stims/complex_16_A_b.gif","images/stimuli/spore_stims/complex_11_A_a.gif","forced_short","","6","complex_dissimilar","images/stimuli/spore_stims/complex_11_A_a.gif","","","","",""
"","null","html-keyboard-response","87","530820","0.0-21.0-0.4","SS1619739450868","","","null","","","","","","<p><img src= images/blank.png width =""600"" height = ""600"" style=""position:fixed;top:50%; left:50%; transform: translate(-50%, -50%); border:5px solid black"">","","","","","","","",""
"","3327.100000111386","sequential-stimulus-presentation-old","88","534657","0.0-21.0-1.4","SS1619739450868","trial","","40","500","3827.100000111386","images/stimuli/spore_stims/complex_16_A_b.gif","images/stimuli/spore_stims/complex_11_A_a.gif","forced_short","","6","complex_dissimilar","images/stimuli/spore_stims/complex_11_A_a.gif","","","","",""
"","null","html-keyboard-response","89","535579","0.0-21.0-0.5","SS1619739450868","","","null","","","","","","<p><img src= images/blank.png width =""600"" height = ""600"" style=""position:fixed;top:50%; left:50%; transform: translate(-50%, -50%); border:5px solid black"">","","","","","","","",""
"","4665.174999972805","sequential-stimulus-presentation-old","90","540751","0.0-21.0-1.5","SS1619739450868","trial","","40","500","5165.174999972805","images/stimuli/spore_stims/complex_16_A_b.gif","images/stimuli/spore_stims/complex_11_A_a.gif","forced_short","","6","complex_dissimilar","images/stimuli/spore_stims/complex_16_A_b.gif","","","","",""
"","2438.319999957457","survey-multi-choice","91","543193","0.0-22.0","SS1619739450868","math_question","","","","","","","","","","","","{""Q0"":""4""}","[0]","4","",""
"","null","html-keyboard-response","92","544202","0.0-23.0-0.0","SS1619739450868","","","null","","","","","","<p><img src= images/blank.png width =""600"" height = ""600"" style=""position:fixed;top:50%; left:50%; transform: translate(-50%, -50%); border:5px solid black"">","","","","","","","",""
"","6832.2699998971075","sequential-stimulus-presentation-old","93","566042","0.0-23.0-1.0","SS1619739450868","trial","","40","500","7332.2699998971075","images/stimuli/spore_stims/simple_14_A_b.gif","images/stimuli/spore_stims/simple_13_A_a.gif","forced_long","","7","simple_dissimilar","images/stimuli/spore_stims/simple_13_A_a.gif","","","","",""
"","null","html-keyboard-response","94","566897","0.0-23.0-0.1","SS1619739450868","","","null","","","","","","<p><img src= images/blank.png width =""600"" height = ""600"" style=""position:fixed;top:50%; left:50%; transform: translate(-50%, -50%); border:5px solid black"">","","","","","","","",""
"","795.6099999137223","sequential-stimulus-presentation-old","95","568199","0.0-23.0-1.1","SS1619739450868","trial","","40","500","1295.6099999137223","images/stimuli/spore_stims/simple_14_A_b.gif","images/stimuli/spore_stims/simple_13_A_a.gif","forced_long","","7","simple_dissimilar","images/stimuli/spore_stims/simple_13_A_a.gif","","","","",""
"","null","html-keyboard-response","96","569460","0.0-23.0-0.2","SS1619739450868","","","null","","","","","","<p><img src= images/blank.png width =""600"" height = ""600"" style=""position:fixed;top:50%; left:50%; transform: translate(-50%, -50%); border:5px solid black"">","","","","","","","",""
"","3966.075000120327","sequential-stimulus-presentation-old","97","573933","0.0-23.0-1.2","SS1619739450868","trial","","40","500","4466.075000120327","images/stimuli/spore_stims/simple_14_A_b.gif","images/stimuli/spore_stims/simple_13_A_a.gif","forced_long","","7","simple_dissimilar","images/stimuli/spore_stims/simple_13_A_a.gif","","","","",""
"","null","html-keyboard-response","98","574744","0.0-23.0-0.3","SS1619739450868","","","null","","","","","","<p><img src= images/blank.png width =""600"" height = ""600"" style=""position:fixed;top:50%; left:50%; transform: translate(-50%, -50%); border:5px solid black"">","","","","","","","",""
"","1618.2550000958145","sequential-stimulus-presentation-old","99","576870","0.0-23.0-1.3","SS1619739450868","trial","","40","500","2118.2550000958145","images/stimuli/spore_stims/simple_14_A_b.gif","images/stimuli/spore_stims/simple_13_A_a.gif","forced_long","","7","simple_dissimilar","images/stimuli/spore_stims/simple_13_A_a.gif","","","","",""
"","null","html-keyboard-response","100","578088","0.0-23.0-0.4","SS1619739450868","","","null","","","","","","<p><img src= images/blank.png width =""600"" height = ""600"" style=""position:fixed;top:50%; left:50%; transform: translate(-50%, -50%); border:5px solid black"">","","","","","","","",""
"","1954.5400000642985","sequential-stimulus-presentation-old","101","580547","0.0-23.0-1.4","SS1619739450868","trial","","40","500","2454.5400000642985","images/stimuli/spore_stims/simple_14_A_b.gif","images/stimuli/spore_stims/simple_13_A_a.gif","forced_long","","7","simple_dissimilar","images/stimuli/spore_stims/simple_14_A_b.gif","","","","",""
"","2833.82000005804","survey-multi-choice","102","583384","0.0-24.0","SS1619739450868","math_question","","","","","","","","","","","","{""Q0"":""13""}","[0]","13","",""
"","null","html-keyboard-response","103","584341","0.0-25.0-0.0","SS1619739450868","","","null","","","","","","<p><img src= images/blank.png width =""600"" height = ""600"" style=""position:fixed;top:50%; left:50%; transform: translate(-50%, -50%); border:5px solid black"">","","","","","","","",""
"","1066.5700000245124","sequential-stimulus-presentation-old","104","600414","0.0-25.0-1.0","SS1619739450868","trial","","40","500","1566.5700000245124","images/stimuli/spore_stims/simple_19_A_a.gif","images/stimuli/spore_stims/simple_17_A_b.gif","forced_long","","8","simple_dissimilar","images/stimuli/spore_stims/simple_17_A_b.gif","","","","",""
"","null","html-keyboard-response","105","601501","0.0-25.0-0.1","SS1619739450868","","","null","","","","","","<p><img src= images/blank.png width =""600"" height = ""600"" style=""position:fixed;top:50%; left:50%; transform: translate(-50%, -50%); border:5px solid black"">","","","","","","","",""
"","1009.6549999434501","sequential-stimulus-presentation-old","106","603021","0.0-25.0-1.1","SS1619739450868","trial","","40","500","1509.65499994345","images/stimuli/spore_stims/simple_19_A_a.gif","images/stimuli/spore_stims/simple_17_A_b.gif","forced_long","","8","simple_dissimilar","images/stimuli/spore_stims/simple_17_A_b.gif","","","","",""
"","null","html-keyboard-response","107","604150","0.0-25.0-0.2","SS1619739450868","","","null","","","","","","<p><img src= images/blank.png width =""600"" height = ""600"" style=""position:fixed;top:50%; left:50%; transform: translate(-50%, -50%); border:5px solid black"">","","","","","","","",""
"","2023.4149999450892","sequential-stimulus-presentation-old","108","606679","0.0-25.0-1.2","SS1619739450868","trial","","40","500","2523.414999945089","images/stimuli/spore_stims/simple_19_A_a.gif","images/stimuli/spore_stims/simple_17_A_b.gif","forced_long","","8","simple_dissimilar","images/stimuli/spore_stims/simple_17_A_b.gif","","","","",""
"","null","html-keyboard-response","109","607976","0.0-25.0-0.3","SS1619739450868","","","null","","","","","","<p><img src= images/blank.png width =""600"" height = ""600"" style=""position:fixed;top:50%; left:50%; transform: translate(-50%, -50%); border:5px solid black"">","","","","","","","",""
"","1751.6099999193102","sequential-stimulus-presentation-old","110","610235","0.0-25.0-1.3","SS1619739450868","trial","","40","500","2251.60999991931","images/stimuli/spore_stims/simple_19_A_a.gif","images/stimuli/spore_stims/simple_17_A_b.gif","forced_long","","8","simple_dissimilar","images/stimuli/spore_stims/simple_19_A_a.gif","","","","",""
"","null","html-keyboard-response","111","611486","0.0-25.0-0.4","SS1619739450868","","","null","","","","","","<p><img src= images/blank.png width =""600"" height = ""600"" style=""position:fixed;top:50%; left:50%; transform: translate(-50%, -50%); border:5px solid black"">","","","","","","","",""
"","2048.7049999646842","sequential-stimulus-presentation-old","112","614044","0.0-25.0-1.4","SS1619739450868","trial","","40","500","2548.7049999646842","images/stimuli/spore_stims/simple_19_A_a.gif","images/stimuli/spore_stims/simple_17_A_b.gif","forced_long","","8","simple_dissimilar","images/stimuli/spore_stims/simple_17_A_b.gif","","","","",""
"","null","html-keyboard-response","113","615073","0.0-25.0-0.5","SS1619739450868","","","null","","","","","","<p><img src= images/blank.png width =""600"" height = ""600"" style=""position:fixed;top:50%; left:50%; transform: translate(-50%, -50%); border:5px solid black"">","","","","","","","",""
"","2958.4550000727177","sequential-stimulus-presentation-old","114","618541","0.0-25.0-1.5","SS1619739450868","trial","","40","500","3458.4550000727177","images/stimuli/spore_stims/simple_19_A_a.gif","images/stimuli/spore_stims/simple_17_A_b.gif","forced_long","","8","simple_dissimilar","images/stimuli/spore_stims/simple_17_A_b.gif","","","","",""
"","3489.019999979064","survey-multi-choice","115","622033","0.0-26.0","SS1619739450868","math_question","","","","","","","","","","","","{""Q0"":""2""}","[0]","2","",""
"","null","html-keyboard-response","116","623184","0.0-27.0-0.0","SS1619739450868","","","null","","","","","","<p><img src= images/blank.png width =""600"" height = ""600"" style=""position:fixed;top:50%; left:50%; transform: translate(-50%, -50%); border:5px solid black"">","","","","","","","",""
"","6185.305000049993","sequential-stimulus-presentation-old","117","644378","0.0-27.0-1.0","SS1619739450868","trial","","40","500","6685.305000049993","images/stimuli/spore_stims/complex_19_A_a.gif","images/stimuli/spore_stims/complex_08_A_b.gif","forced_long","","9","complex_dissimilar","images/stimuli/spore_stims/complex_08_A_b.gif","","","","",""
"","null","html-keyboard-response","118","645530","0.0-27.0-0.1","SS1619739450868","","","null","","","","","","<p><img src= images/blank.png width =""600"" height = ""600"" style=""position:fixed;top:50%; left:50%; transform: translate(-50%, -50%); border:5px solid black"">","","","","","","","",""
"","1351.24500002712","sequential-stimulus-presentation-old","119","647397","0.0-27.0-1.1","SS1619739450868","trial","","40","500","1851.24500002712","images/stimuli/spore_stims/complex_19_A_a.gif","images/stimuli/spore_stims/complex_08_A_b.gif","forced_long","","9","complex_dissimilar","images/stimuli/spore_stims/complex_08_A_b.gif","","","","",""
"","null","html-keyboard-response","120","648280","0.0-27.0-0.2","SS1619739450868","","","null","","","","","","<p><img src= images/blank.png width =""600"" height = ""600"" style=""position:fixed;top:50%; left:50%; transform: translate(-50%, -50%); border:5px solid black"">","","","","","","","",""
"","403.7700002081692","sequential-stimulus-presentation-old","121","649190","0.0-27.0-1.2","SS1619739450868","trial","","40","500","903.7700002081692","images/stimuli/spore_stims/complex_19_A_a.gif","images/stimuli/spore_stims/complex_08_A_b.gif","forced_long","","9","complex_dissimilar","images/stimuli/spore_stims/complex_08_A_b.gif","","","","",""
"","null","html-keyboard-response","122","650162","0.0-27.0-0.3","SS1619739450868","","","null","","","","","","<p><img src= images/blank.png width =""600"" height = ""600"" style=""position:fixed;top:50%; left:50%; transform: translate(-50%, -50%); border:5px solid black"">","","","","","","","",""
"","8618.889999808744","sequential-stimulus-presentation-old","123","659290","0.0-27.0-1.3","SS1619739450868","trial","","40","500","9118.889999808744","images/stimuli/spore_stims/complex_19_A_a.gif","images/stimuli/spore_stims/complex_08_A_b.gif","forced_long","","9","complex_dissimilar","images/stimuli/spore_stims/complex_08_A_b.gif","","","","",""
"","2618.7449998687953","survey-multi-choice","124","661910","0.0-28.0","SS1619739450868","math_question","","","","","","","","","","","","{""Q0"":""7""}","[0]","7","",""
"","null","html-keyboard-response","125","663218","0.0-29.0-0.0","SS1619739450868","","","null","","","","","","<p><img src= images/blank.png width =""600"" height = ""600"" style=""position:fixed;top:50%; left:50%; transform: translate(-50%, -50%); border:5px solid black"">","","","","","","","",""
"","4533.24000001885","sequential-stimulus-presentation-old","126","668256","0.0-29.0-1.0","SS1619739450868","trial","","40","500","5033.24000001885","images/stimuli/spore_stims/simple_05_A_a.gif","images/stimuli/spore_stims/simple_13_A_b.gif","self_paced","","10","simple_dissimilar","images/stimuli/spore_stims/simple_13_A_b.gif","","","","",""
"","null","html-keyboard-response","127","669317","0.0-29.0-0.1","SS1619739450868","","","null","","","","","","<p><img src= images/blank.png width =""600"" height = ""600"" style=""position:fixed;top:50%; left:50%; transform: translate(-50%, -50%); border:5px solid black"">","","","","","","","",""
"","1017.1600000467151","sequential-stimulus-presentation-old","128","670840","0.0-29.0-1.1","SS1619739450868","trial","","40","500","1517.1600000467151","images/stimuli/spore_stims/simple_05_A_a.gif","images/stimuli/spore_stims/simple_13_A_b.gif","self_paced","","10","simple_dissimilar","images/stimuli/spore_stims/simple_13_A_b.gif","","","","",""
"","null","html-keyboard-response","129","671757","0.0-29.0-0.2","SS1619739450868","","","null","","","","","","<p><img src= images/blank.png width =""600"" height = ""600"" style=""position:fixed;top:50%; left:50%; transform: translate(-50%, -50%); border:5px solid black"">","","","","","","","",""
"","884.5899999141693","sequential-stimulus-presentation-old","130","673149","0.0-29.0-1.2","SS1619739450868","trial","","40","500","1384.5899999141693","images/stimuli/spore_stims/simple_05_A_a.gif","images/stimuli/spore_stims/simple_13_A_b.gif","self_paced","","10","simple_dissimilar","images/stimuli/spore_stims/simple_13_A_b.gif","","","","",""
"","null","html-keyboard-response","131","674367","0.0-29.0-0.3","SS1619739450868","","","null","","","","","","<p><img src= images/blank.png width =""600"" height = ""600"" style=""position:fixed;top:50%; left:50%; transform: translate(-50%, -50%); border:5px solid black"">","","","","","","","",""
"","629.3099999893457","sequential-stimulus-presentation-old","132","675504","0.0-29.0-1.3","SS1619739450868","trial","","40","500","1129.3099999893457","images/stimuli/spore_stims/simple_05_A_a.gif","images/stimuli/spore_stims/simple_13_A_b.gif","self_paced","","10","simple_dissimilar","images/stimuli/spore_stims/simple_13_A_b.gif","","","","",""
"","null","html-keyboard-response","133","676734","0.0-29.0-0.4","SS1619739450868","","","null","","","","","","<p><img src= images/blank.png width =""600"" height = ""600"" style=""position:fixed;top:50%; left:50%; transform: translate(-50%, -50%); border:5px solid black"">","","","","","","","",""
"","874.4799999985844","sequential-stimulus-presentation-old","134","678113","0.0-29.0-1.4","SS1619739450868","trial","","40","500","1374.4799999985844","images/stimuli/spore_stims/simple_05_A_a.gif","images/stimuli/spore_stims/simple_13_A_b.gif","self_paced","","10","simple_dissimilar","images/stimuli/spore_stims/simple_13_A_b.gif","","","","",""
"","2354.160000104457","survey-multi-choice","135","680470","0.0-30.0","SS1619739450868","math_question","","","","","","","","","","","","{""Q0"":""6""}","[0]","6","",""
"","null","html-keyboard-response","136","681471","0.0-31.0-0.0","SS1619739450868","","","null","","","","","","<p><img src= images/blank.png width =""600"" height = ""600"" style=""position:fixed;top:50%; left:50%; transform: translate(-50%, -50%); border:5px solid black"">","","","","","","","",""
"","1995.1299999374896","sequential-stimulus-presentation-old","137","683973","0.0-31.0-1.0","SS1619739450868","trial","","40","500","2495.1299999374896","images/stimuli/spore_stims/simple_10_A_b.gif","images/stimuli/spore_stims/simple_16_A_a.gif","forced_short","","11","simple_dissimilar","images/stimuli/spore_stims/simple_16_A_a.gif","","","","",""
"","null","html-keyboard-response","138","685052","0.0-31.0-0.1","SS1619739450868","","","null","","","","","","<p><img src= images/blank.png width =""600"" height = ""600"" style=""position:fixed;top:50%; left:50%; transform: translate(-50%, -50%); border:5px solid black"">","","","","","","","",""
"","5456.590000074357","sequential-stimulus-presentation-old","139","691014","0.0-31.0-1.1","SS1619739450868","trial","","40","500","5956.590000074357","images/stimuli/spore_stims/simple_10_A_b.gif","images/stimuli/spore_stims/simple_16_A_a.gif","forced_short","","11","simple_dissimilar","images/stimuli/spore_stims/simple_16_A_a.gif","","","","",""
"","null","html-keyboard-response","140","692285","0.0-31.0-0.2","SS1619739450868","","","null","","","","","","<p><img src= images/blank.png width =""600"" height = ""600"" style=""position:fixed;top:50%; left:50%; transform: translate(-50%, -50%); border:5px solid black"">","","","","","","","",""
"","632.6399999670684","sequential-stimulus-presentation-old","141","693423","0.0-31.0-1.2","SS1619739450868","trial","","40","500","1132.6399999670684","images/stimuli/spore_stims/simple_10_A_b.gif","images/stimuli/spore_stims/simple_16_A_a.gif","forced_short","","11","simple_dissimilar","images/stimuli/spore_stims/simple_16_A_a.gif","","","","",""
"","null","html-keyboard-response","142","694342","0.0-31.0-0.3","SS1619739450868","","","null","","","","","","<p><img src= images/blank.png width =""600"" height = ""600"" style=""position:fixed;top:50%; left:50%; transform: translate(-50%, -50%); border:5px solid black"">","","","","","","","",""
"","401.49000007659197","sequential-stimulus-presentation-old","143","695249","0.0-31.0-1.3","SS1619739450868","trial","","40","500","901.490000076592","images/stimuli/spore_stims/simple_10_A_b.gif","images/stimuli/spore_stims/simple_16_A_a.gif","forced_short","","11","simple_dissimilar","images/stimuli/spore_stims/simple_16_A_a.gif","","","","",""
"","null","html-keyboard-response","144","696473","0.0-31.0-0.4","SS1619739450868","","","null","","","","","","<p><img src= images/blank.png width =""600"" height = ""600"" style=""position:fixed;top:50%; left:50%; transform: translate(-50%, -50%); border:5px solid black"">","","","","","","","",""
"","252.96000018715858","sequential-stimulus-presentation-old","145","697231","0.0-31.0-1.4","SS1619739450868","trial","","40","500","752.9600001871586","images/stimuli/spore_stims/simple_10_A_b.gif","images/stimuli/spore_stims/simple_16_A_a.gif","forced_short","","11","simple_dissimilar","images/stimuli/spore_stims/simple_10_A_b.gif","","","","",""
"[{""page_index"":0,""viewing_time"":5663.330000126734}]","5663.570000091568","instructions","146","702898","0.0-32.0","SS1619739450868","instructions","","","","","","","","","","","","","","","",""
"","6376.124999951571","survey-likert","147","709278","0.0-33.0","SS1619739450868","similarity_question","","","","","","","","","","","","{""Q0"":4}","[0]","","images/stimuli/spore_stims/simple_05_A_a.gif","images/stimuli/spore_stims/simple_13_A_b.gif"
"","7255.390000063926","survey-likert","148","716543","0.0-34.0","SS1619739450868","similarity_question","","","","","","","","","","","","{""Q0"":1}","[0]","","images/stimuli/spore_stims/complex_11_A_a.gif","images/stimuli/spore_stims/complex_16_A_b.gif"
"","5726.714999880642","survey-likert","149","722279","0.0-35.0","SS1619739450868","similarity_question","","","","","","","","","","","","{""Q0"":0}","[0]","","images/stimuli/spore_stims/complex_19_A_b.gif","images/stimuli/spore_stims/complex_15_A_a.gif"
"","7337.96999999322","survey-likert","150","729626","0.0-36.0","SS1619739450868","similarity_question","","","","","","","","","","","","{""Q0"":2}","[0]","","images/stimuli/spore_stims/complex_08_A_b.gif","images/stimuli/spore_stims/complex_19_A_a.gif"
"","9552.829999942333","survey-likert","151","739187","0.0-37.0","SS1619739450868","similarity_question","","","","","","","","","","","","{""Q0"":2}","[0]","","images/stimuli/spore_stims/complex_07_A_b.gif","images/stimuli/spore_stims/complex_16_A_a.gif"
"","4226.814999943599","survey-likert","152","743421","0.0-38.0","SS1619739450868","similarity_question","","","","","","","","","","","","{""Q0"":4}","[0]","","images/stimuli/spore_stims/simple_19_A_a.gif","images/stimuli/spore_stims/simple_17_A_b.gif"
"","3308.3150000311434","survey-likert","153","746738","0.0-39.0","SS1619739450868","similarity_question","","","","","","","","","","","","{""Q0"":4}","[0]","","images/stimuli/spore_stims/simple_14_A_b.gif","images/stimuli/spore_stims/simple_13_A_a.gif"
"","4185.1500000339","survey-likert","154","750930","0.0-40.0","SS1619739450868","similarity_question","","","","","","","","","","","","{""Q0"":2}","[0]","","images/stimuli/spore_stims/simple_10_A_b.gif","images/stimuli/spore_stims/simple_16_A_a.gif"
"","8140.104999998584","survey-likert","155","759080","0.0-41.0","SS1619739450868","similarity_question","","","","","","","","","","","","{""Q0"":2}","[0]","","images/stimuli/spore_stims/complex_01_A_b.gif","images/stimuli/spore_stims/complex_14_A_a.gif"
"","3635.179999982938","survey-likert","156","762725","0.0-42.0","SS1619739450868","similarity_question","","","","","","","","","","","","{""Q0"":4}","[0]","","images/stimuli/spore_stims/simple_08_A_b.gif","images/stimuli/spore_stims/simple_17_A_a.gif"
"","2595.5149999354035","survey-likert","157","765328","0.0-43.0","SS1619739450868","similarity_question","","","","","","","","","","","","{""Q0"":5}","[0]","","images/stimuli/spore_stims/simple_12_A_b.gif","images/stimuli/spore_stims/simple_06_A_a.gif"
"","3937.1599999722093","survey-likert","158","769276","0.0-44.0","SS1619739450868","similarity_question","","","","","","","","","","","","{""Q0"":1}","[0]","","images/stimuli/spore_stims/complex_02_A_a.gif","images/stimuli/spore_stims/complex_18_A_b.gif"
"[{""page_index"":0,""viewing_time"":4216.719999909401}]","4216.9850000645965","instructions","159","773501","0.0-45.0","SS1619739450868","instructions","","","","","","","","","","","","","","","",""
"","6169.4050000514835","survey-likert","160","779675","0.0-46.0","SS1619739450868","","","","","","","","","images/stimuli/spore_stims/simple_19_A_a.gif","","","","{""Q0"":1}","[0]","","",""
"","4420.7400002051145","survey-likert","161","784104","0.0-47.0","SS1619739450868","","","","","","","","","images/stimuli/spore_stims/simple_17_A_a.gif","","","","{""Q0"":0}","[0]","","",""
"","4152.4549999739975","survey-likert","162","788264","0.0-48.0","SS1619739450868","","","","","","","","","images/stimuli/spore_stims/complex_01_A_b.gif","","","","{""Q0"":4}","[0]","","",""
"","2278.290000045672","survey-likert","163","790550","0.0-49.0","SS1619739450868","","","","","","","","","images/stimuli/spore_stims/simple_05_A_a.gif","","","","{""Q0"":0}","[0]","","",""
"","4214.619999984279","survey-likert","164","794774","0.0-50.0","SS1619739450868","","","","","","","","","images/stimuli/spore_stims/complex_08_A_b.gif","","","","{""Q0"":4}","[0]","","",""
"","2526.0349998716265","survey-likert","165","797308","0.0-51.0","SS1619739450868","","","","","","","","","images/stimuli/spore_stims/complex_16_A_a.gif","","","","{""Q0"":5}","[0]","","",""
"","3189.1600000672042","survey-likert","166","800505","0.0-52.0","SS1619739450868","","","","","","","","","images/stimuli/spore_stims/simple_16_A_a.gif","","","","{""Q0"":1}","[0]","","",""
"","2263.5250000748783","survey-likert","167","802776","0.0-53.0","SS1619739450868","","","","","","","","","images/stimuli/spore_stims/simple_13_A_a.gif","","","","{""Q0"":0}","[0]","","",""
"","2789.3099999055266","survey-likert","168","805573","0.0-54.0","SS1619739450868","","","","","","","","","images/stimuli/spore_stims/complex_16_A_b.gif","","","","{""Q0"":5}","[0]","","",""
"","3496.169999940321","survey-likert","169","809077","0.0-55.0","SS1619739450868","","","","","","","","","images/stimuli/spore_stims/simple_06_A_a.gif","","","","{""Q0"":0}","[0]","","",""
"","3398.829999845475","survey-likert","170","812485","0.0-56.0","SS1619739450868","","","","","","","","","images/stimuli/spore_stims/complex_19_A_b.gif","","","","{""Q0"":4}","[0]","","",""
"","3106.584999943152","survey-likert","171","815599","0.0-57.0","SS1619739450868","","","","","","","","","images/stimuli/spore_stims/complex_18_A_b.gif","","","","{""Q0"":5}","[0]","","",""
"[{""page_index"":0,""viewing_time"":1939.5950001198798}]","1939.9800000246614","instructions","172","817548","0.0-58.0","SS1619739450868","instructions","","","","","","","","","","","","","","","",""
"","2702.694999985397","demog-age","173","820258","0.0-59.0","SS1619739450868","","","","","","","","","","","","","{""age"":""19""}","","","",""
"","4830.00999991782","demog-ethnic-US","174","825095","0.0-60.0","SS1619739450868","","","","","","","","","","","","","{""ethnicity"":[""Asian""]}","[0]","","",""
"","20208.48000003025","demog-gender-and-education","175","845315","0.0-61.0","SS1619739450868","","","","","","","","","","","","","{""gender"":""Female"",""education"":""High school diploma""}","[0,1]","","",""
"","38093.77499995753","survey-text","176","883421","0.0-62.0","SS1619739450868","feedback","","","","","","","","","","","","{""Q0"":""I think that some of the creatures look quite scary (not very appropriate for babies)""}","","","",""
"[{""page_index"":0,""viewing_time"":1269.0200000070035}]","1269.2350000143051","instructions","177","884693","0.0-63.0","SS1619739450868","instructions","","","","","","","","","","","","","","","",""
