"view_history","rt","trial_type","trial_index","time_elapsed","internal_node_id","subject","stimulus_type","trial_stimulus","key_press","minimum_viewing_duration","trial_looking_time","block_deviant","block_background","exposure_type","stimulus","block_number","block_type","stimulus_displayed","responses","question_order","math_correct_answer","stimulus_left","stimulus_right"
"[{""page_index"":0,""viewing_time"":5917.979999998352}]","5918.554999996559","instructions","0","5920","0.0-0.0","SS1619740105161","","","","","","","","","","","","","","","","",""
"[{""page_index"":0,""viewing_time"":26553.17500000092},{""page_index"":1,""viewing_time"":6281.79999999702}]","32835.22500000254","instructions","1","40758","0.0-1.0","SS1619740105161","instructions","","","","","","","","","","","","","","","",""
"","8169.099999999162","sequential-stimulus-presentation-old","2","49430","0.0-2.0","SS1619740105161","","","40","500","8669.099999999162","null","null","self_paced","","","","","","","","",""
"","8822.159999996074","sequential-stimulus-presentation-old","3","58755","0.0-3.0","SS1619740105161","","","40","500","9322.159999996074","null","null","self_paced","","","","","","","","",""
"[{""page_index"":0,""viewing_time"":14175.604999996722}]","14176.175000000512","instructions","4","72932","0.0-4.0","SS1619740105161","instructions","","","","","","","","","","","","","","","",""
"","1503.3999999941443","sequential-stimulus-presentation-old","5","89440","0.0-5.0","SS1619740105161","","","40","500","2003.3999999941443","null","null","forced_long","","","","","","","","",""
"","2886.8399999992107","sequential-stimulus-presentation-old","6","92830","0.0-6.0","SS1619740105161","","","40","500","3386.8399999992107","null","null","forced_long","","","","","","","","",""
"[{""page_index"":0,""viewing_time"":4149.78500000143}]","4150.190000000293","instructions","7","96981","0.0-7.0","SS1619740105161","instructions","","","","","","","","","","","","","","","",""
"[{""page_index"":0,""viewing_time"":7276.195000005828},{""page_index"":1,""viewing_time"":10331.344999998691},{""page_index"":2,""viewing_time"":5014.579999995476},{""page_index"":3,""viewing_time"":4376.0200000033365},{""page_index"":4,""viewing_time"":1281.2950000006822}]","28279.840000002878","instructions","8","125262","0.0-8.0","SS1619740105161","instructions","","","","","","","","","","","","","","","",""
"","null","html-keyboard-response","9","126084","0.0-9.0-0.0","SS1619740105161","","","null","","","","","","<p><img src= images/blank.png width =""600"" height = ""600"" style=""position:fixed;top:50%; left:50%; transform: translate(-50%, -50%); border:5px solid black"">","","","","","","","",""
"","24259.595000003173","sequential-stimulus-presentation-old","10","150848","0.0-9.0-1.0","SS1619740105161","trial","","40","500","24759.595000003173","images/stimuli/spore_stims/simple_01_A_b.gif","images/stimuli/spore_stims/simple_03_A_a.gif","self_paced","","0","simple_dissimilar","images/stimuli/spore_stims/simple_03_A_a.gif","","","","",""
"","null","html-keyboard-response","11","152099","0.0-9.0-0.1","SS1619740105161","","","null","","","","","","<p><img src= images/blank.png width =""600"" height = ""600"" style=""position:fixed;top:50%; left:50%; transform: translate(-50%, -50%); border:5px solid black"">","","","","","","","",""
"","19400.14499999961","sequential-stimulus-presentation-old","12","172004","0.0-9.0-1.1","SS1619740105161","trial","","40","500","19900.14499999961","images/stimuli/spore_stims/simple_01_A_b.gif","images/stimuli/spore_stims/simple_03_A_a.gif","self_paced","","0","simple_dissimilar","images/stimuli/spore_stims/simple_03_A_a.gif","","","","",""
"","null","html-keyboard-response","13","172975","0.0-9.0-0.2","SS1619740105161","","","null","","","","","","<p><img src= images/blank.png width =""600"" height = ""600"" style=""position:fixed;top:50%; left:50%; transform: translate(-50%, -50%); border:5px solid black"">","","","","","","","",""
"","4537.804999999935","sequential-stimulus-presentation-old","14","178017","0.0-9.0-1.2","SS1619740105161","trial","","40","500","5037.804999999935","images/stimuli/spore_stims/simple_01_A_b.gif","images/stimuli/spore_stims/simple_03_A_a.gif","self_paced","","0","simple_dissimilar","images/stimuli/spore_stims/simple_03_A_a.gif","","","","",""
"","null","html-keyboard-response","15","179180","0.0-9.0-0.3","SS1619740105161","","","null","","","","","","<p><img src= images/blank.png width =""600"" height = ""600"" style=""position:fixed;top:50%; left:50%; transform: translate(-50%, -50%); border:5px solid black"">","","","","","","","",""
"","6382.890000000771","sequential-stimulus-presentation-old","16","186068","0.0-9.0-1.3","SS1619740105161","trial","","40","500","6882.890000000771","images/stimuli/spore_stims/simple_01_A_b.gif","images/stimuli/spore_stims/simple_03_A_a.gif","self_paced","","0","simple_dissimilar","images/stimuli/spore_stims/simple_01_A_b.gif","","","","",""
"","null","html-keyboard-response","17","187210","0.0-9.0-0.4","SS1619740105161","","","null","","","","","","<p><img src= images/blank.png width =""600"" height = ""600"" style=""position:fixed;top:50%; left:50%; transform: translate(-50%, -50%); border:5px solid black"">","","","","","","","",""
"","4976.180000005115","sequential-stimulus-presentation-old","18","192690","0.0-9.0-1.4","SS1619740105161","trial","","40","500","5476.180000005115","images/stimuli/spore_stims/simple_01_A_b.gif","images/stimuli/spore_stims/simple_03_A_a.gif","self_paced","","0","simple_dissimilar","images/stimuli/spore_stims/simple_01_A_b.gif","","","","",""
"","5489.704999999958","survey-multi-choice","19","198184","0.0-10.0","SS1619740105161","math_question","","","","","","","","","","","","{""Q0"":""13""}","[0]","13","",""
"","null","html-keyboard-response","20","199009","0.0-11.0-0.0","SS1619740105161","","","null","","","","","","<p><img src= images/blank.png width =""600"" height = ""600"" style=""position:fixed;top:50%; left:50%; transform: translate(-50%, -50%); border:5px solid black"">","","","","","","","",""
"","1859.3499999988126","sequential-stimulus-presentation-old","21","201373","0.0-11.0-1.0","SS1619740105161","trial","","40","500","2359.3499999988126","images/stimuli/spore_stims/simple_02_A_b.gif","images/stimuli/spore_stims/simple_16_A_a.gif","forced_short","","1","simple_dissimilar","images/stimuli/spore_stims/simple_16_A_a.gif","","","","",""
"","null","html-keyboard-response","22","202210","0.0-11.0-0.1","SS1619740105161","","","null","","","","","","<p><img src= images/blank.png width =""600"" height = ""600"" style=""position:fixed;top:50%; left:50%; transform: translate(-50%, -50%); border:5px solid black"">","","","","","","","",""
"","7584.790000000794","sequential-stimulus-presentation-old","23","210300","0.0-11.0-1.1","SS1619740105161","trial","","40","500","8084.790000000794","images/stimuli/spore_stims/simple_02_A_b.gif","images/stimuli/spore_stims/simple_16_A_a.gif","forced_short","","1","simple_dissimilar","images/stimuli/spore_stims/simple_02_A_b.gif","","","","",""
"","null","html-keyboard-response","24","211122","0.0-11.0-0.2","SS1619740105161","","","null","","","","","","<p><img src= images/blank.png width =""600"" height = ""600"" style=""position:fixed;top:50%; left:50%; transform: translate(-50%, -50%); border:5px solid black"">","","","","","","","",""
"","7523.4700000000885","sequential-stimulus-presentation-old","25","219150","0.0-11.0-1.2","SS1619740105161","trial","","40","500","8023.4700000000885","images/stimuli/spore_stims/simple_02_A_b.gif","images/stimuli/spore_stims/simple_16_A_a.gif","forced_short","","1","simple_dissimilar","images/stimuli/spore_stims/simple_16_A_a.gif","","","","",""
"","null","html-keyboard-response","26","219998","0.0-11.0-0.3","SS1619740105161","","","null","","","","","","<p><img src= images/blank.png width =""600"" height = ""600"" style=""position:fixed;top:50%; left:50%; transform: translate(-50%, -50%); border:5px solid black"">","","","","","","","",""
"","4104.034999996657","sequential-stimulus-presentation-old","27","224608","0.0-11.0-1.3","SS1619740105161","trial","","40","500","4604.034999996657","images/stimuli/spore_stims/simple_02_A_b.gif","images/stimuli/spore_stims/simple_16_A_a.gif","forced_short","","1","simple_dissimilar","images/stimuli/spore_stims/simple_16_A_a.gif","","","","",""
"","3932.984999999462","survey-multi-choice","28","228543","0.0-12.0","SS1619740105161","math_question","","","","","","","","","","","","{""Q0"":""10""}","[0]","10","",""
"","null","html-keyboard-response","29","229611","0.0-13.0-0.0","SS1619740105161","","","null","","","","","","<p><img src= images/blank.png width =""600"" height = ""600"" style=""position:fixed;top:50%; left:50%; transform: translate(-50%, -50%); border:5px solid black"">","","","","","","","",""
"","2993.9550000053714","sequential-stimulus-presentation-old","30","233110","0.0-13.0-1.0","SS1619740105161","trial","","40","500","3493.9550000053714","images/stimuli/spore_stims/complex_10_A_a.gif","images/stimuli/spore_stims/complex_03_A_b.gif","forced_short","","2","complex_dissimilar","images/stimuli/spore_stims/complex_03_A_b.gif","","","","",""
"","null","html-keyboard-response","31","234016","0.0-13.0-0.1","SS1619740105161","","","null","","","","","","<p><img src= images/blank.png width =""600"" height = ""600"" style=""position:fixed;top:50%; left:50%; transform: translate(-50%, -50%); border:5px solid black"">","","","","","","","",""
"","10891.905000004044","sequential-stimulus-presentation-old","32","245413","0.0-13.0-1.1","SS1619740105161","trial","","40","500","11391.905000004044","images/stimuli/spore_stims/complex_10_A_a.gif","images/stimuli/spore_stims/complex_03_A_b.gif","forced_short","","2","complex_dissimilar","images/stimuli/spore_stims/complex_10_A_a.gif","","","","",""
"","null","html-keyboard-response","33","246267","0.0-13.0-0.2","SS1619740105161","","","null","","","","","","<p><img src= images/blank.png width =""600"" height = ""600"" style=""position:fixed;top:50%; left:50%; transform: translate(-50%, -50%); border:5px solid black"">","","","","","","","",""
"","3674.8099999967963","sequential-stimulus-presentation-old","34","250447","0.0-13.0-1.2","SS1619740105161","trial","","40","500","4174.809999996796","images/stimuli/spore_stims/complex_10_A_a.gif","images/stimuli/spore_stims/complex_03_A_b.gif","forced_short","","2","complex_dissimilar","images/stimuli/spore_stims/complex_10_A_a.gif","","","","",""
"","null","html-keyboard-response","35","251370","0.0-13.0-0.3","SS1619740105161","","","null","","","","","","<p><img src= images/blank.png width =""600"" height = ""600"" style=""position:fixed;top:50%; left:50%; transform: translate(-50%, -50%); border:5px solid black"">","","","","","","","",""
"","7629.645000000892","sequential-stimulus-presentation-old","36","259504","0.0-13.0-1.3","SS1619740105161","trial","","40","500","8129.645000000892","images/stimuli/spore_stims/complex_10_A_a.gif","images/stimuli/spore_stims/complex_03_A_b.gif","forced_short","","2","complex_dissimilar","images/stimuli/spore_stims/complex_03_A_b.gif","","","","",""
"","null","html-keyboard-response","37","260607","0.0-13.0-0.4","SS1619740105161","","","null","","","","","","<p><img src= images/blank.png width =""600"" height = ""600"" style=""position:fixed;top:50%; left:50%; transform: translate(-50%, -50%); border:5px solid black"">","","","","","","","",""
"","3730.4850000000442","sequential-stimulus-presentation-old","38","264843","0.0-13.0-1.4","SS1619740105161","trial","","40","500","4230.485000000044","images/stimuli/spore_stims/complex_10_A_a.gif","images/stimuli/spore_stims/complex_03_A_b.gif","forced_short","","2","complex_dissimilar","images/stimuli/spore_stims/complex_03_A_b.gif","","","","",""
"","null","html-keyboard-response","39","265657","0.0-13.0-0.5","SS1619740105161","","","null","","","","","","<p><img src= images/blank.png width =""600"" height = ""600"" style=""position:fixed;top:50%; left:50%; transform: translate(-50%, -50%); border:5px solid black"">","","","","","","","",""
"","3484.1250000026776","sequential-stimulus-presentation-old","40","269646","0.0-13.0-1.5","SS1619740105161","trial","","40","500","3984.1250000026776","images/stimuli/spore_stims/complex_10_A_a.gif","images/stimuli/spore_stims/complex_03_A_b.gif","forced_short","","2","complex_dissimilar","images/stimuli/spore_stims/complex_03_A_b.gif","","","","",""
"","3772.125000003143","survey-multi-choice","41","273421","0.0-14.0","SS1619740105161","math_question","","","","","","","","","","","","{""Q0"":""12""}","[0]","12","",""
"","null","html-keyboard-response","42","274718","0.0-15.0-0.0","SS1619740105161","","","null","","","","","","<p><img src= images/blank.png width =""600"" height = ""600"" style=""position:fixed;top:50%; left:50%; transform: translate(-50%, -50%); border:5px solid black"">","","","","","","","",""
"","1459.62999999756","sequential-stimulus-presentation-old","43","276684","0.0-15.0-1.0","SS1619740105161","trial","","40","500","1959.62999999756","images/stimuli/spore_stims/simple_04_A_a.gif","images/stimuli/spore_stims/simple_13_A_b.gif","forced_short","","3","simple_dissimilar","images/stimuli/spore_stims/simple_13_A_b.gif","","","","",""
"","null","html-keyboard-response","44","277550","0.0-15.0-0.1","SS1619740105161","","","null","","","","","","<p><img src= images/blank.png width =""600"" height = ""600"" style=""position:fixed;top:50%; left:50%; transform: translate(-50%, -50%); border:5px solid black"">","","","","","","","",""
"","2882.3000000047614","sequential-stimulus-presentation-old","45","280937","0.0-15.0-1.1","SS1619740105161","trial","","40","500","3382.3000000047614","images/stimuli/spore_stims/simple_04_A_a.gif","images/stimuli/spore_stims/simple_13_A_b.gif","forced_short","","3","simple_dissimilar","images/stimuli/spore_stims/simple_04_A_a.gif","","","","",""
"","null","html-keyboard-response","46","281805","0.0-15.0-0.2","SS1619740105161","","","null","","","","","","<p><img src= images/blank.png width =""600"" height = ""600"" style=""position:fixed;top:50%; left:50%; transform: translate(-50%, -50%); border:5px solid black"">","","","","","","","",""
"","2987.860000001092","sequential-stimulus-presentation-old","47","285298","0.0-15.0-1.2","SS1619740105161","trial","","40","500","3487.860000001092","images/stimuli/spore_stims/simple_04_A_a.gif","images/stimuli/spore_stims/simple_13_A_b.gif","forced_short","","3","simple_dissimilar","images/stimuli/spore_stims/simple_13_A_b.gif","","","","",""
"","null","html-keyboard-response","48","286581","0.0-15.0-0.3","SS1619740105161","","","null","","","","","","<p><img src= images/blank.png width =""600"" height = ""600"" style=""position:fixed;top:50%; left:50%; transform: translate(-50%, -50%); border:5px solid black"">","","","","","","","",""
"","3980.984999994689","sequential-stimulus-presentation-old","49","291068","0.0-15.0-1.3","SS1619740105161","trial","","40","500","4480.984999994689","images/stimuli/spore_stims/simple_04_A_a.gif","images/stimuli/spore_stims/simple_13_A_b.gif","forced_short","","3","simple_dissimilar","images/stimuli/spore_stims/simple_13_A_b.gif","","","","",""
"","null","html-keyboard-response","50","292108","0.0-15.0-0.4","SS1619740105161","","","null","","","","","","<p><img src= images/blank.png width =""600"" height = ""600"" style=""position:fixed;top:50%; left:50%; transform: translate(-50%, -50%); border:5px solid black"">","","","","","","","",""
"","3743.945000001986","sequential-stimulus-presentation-old","51","296361","0.0-15.0-1.4","SS1619740105161","trial","","40","500","4243.945000001986","images/stimuli/spore_stims/simple_04_A_a.gif","images/stimuli/spore_stims/simple_13_A_b.gif","forced_short","","3","simple_dissimilar","images/stimuli/spore_stims/simple_04_A_a.gif","","","","",""
"","3030.989999999292","survey-multi-choice","52","299395","0.0-16.0","SS1619740105161","math_question","","","","","","","","","","","","{""Q0"":""7""}","[0]","7","",""
"","null","html-keyboard-response","53","300325","0.0-17.0-0.0","SS1619740105161","","","null","","","","","","<p><img src= images/blank.png width =""600"" height = ""600"" style=""position:fixed;top:50%; left:50%; transform: translate(-50%, -50%); border:5px solid black"">","","","","","","","",""
"","5909.679999997024","sequential-stimulus-presentation-old","54","306740","0.0-17.0-1.0","SS1619740105161","trial","","40","500","6409.679999997024","images/stimuli/spore_stims/simple_14_A_b.gif","images/stimuli/spore_stims/simple_15_A_a.gif","self_paced","","4","simple_dissimilar","images/stimuli/spore_stims/simple_15_A_a.gif","","","","",""
"","null","html-keyboard-response","55","307879","0.0-17.0-0.1","SS1619740105161","","","null","","","","","","<p><img src= images/blank.png width =""600"" height = ""600"" style=""position:fixed;top:50%; left:50%; transform: translate(-50%, -50%); border:5px solid black"">","","","","","","","",""
"","2388.395000001765","sequential-stimulus-presentation-old","56","310774","0.0-17.0-1.1","SS1619740105161","trial","","40","500","2888.395000001765","images/stimuli/spore_stims/simple_14_A_b.gif","images/stimuli/spore_stims/simple_15_A_a.gif","self_paced","","4","simple_dissimilar","images/stimuli/spore_stims/simple_15_A_a.gif","","","","",""
"","null","html-keyboard-response","57","311783","0.0-17.0-0.2","SS1619740105161","","","null","","","","","","<p><img src= images/blank.png width =""600"" height = ""600"" style=""position:fixed;top:50%; left:50%; transform: translate(-50%, -50%); border:5px solid black"">","","","","","","","",""
"","3239.6200000002864","sequential-stimulus-presentation-old","58","315530","0.0-17.0-1.2","SS1619740105161","trial","","40","500","3739.6200000002864","images/stimuli/spore_stims/simple_14_A_b.gif","images/stimuli/spore_stims/simple_15_A_a.gif","self_paced","","4","simple_dissimilar","images/stimuli/spore_stims/simple_15_A_a.gif","","","","",""
"","null","html-keyboard-response","59","316733","0.0-17.0-0.3","SS1619740105161","","","null","","","","","","<p><img src= images/blank.png width =""600"" height = ""600"" style=""position:fixed;top:50%; left:50%; transform: translate(-50%, -50%); border:5px solid black"">","","","","","","","",""
"","2714.475000000675","sequential-stimulus-presentation-old","60","319955","0.0-17.0-1.3","SS1619740105161","trial","","40","500","3214.475000000675","images/stimuli/spore_stims/simple_14_A_b.gif","images/stimuli/spore_stims/simple_15_A_a.gif","self_paced","","4","simple_dissimilar","images/stimuli/spore_stims/simple_15_A_a.gif","","","","",""
"","3202.6649999970687","survey-multi-choice","61","323162","0.0-18.0","SS1619740105161","math_question","","","","","","","","","","","","{""Q0"":""12""}","[0]","12","",""
"","null","html-keyboard-response","62","324100","0.0-19.0-0.0","SS1619740105161","","","null","","","","","","<p><img src= images/blank.png width =""600"" height = ""600"" style=""position:fixed;top:50%; left:50%; transform: translate(-50%, -50%); border:5px solid black"">","","","","","","","",""
"","1675.3200000021025","sequential-stimulus-presentation-old","63","340783","0.0-19.0-1.0","SS1619740105161","trial","","40","500","2175.3200000021025","images/stimuli/spore_stims/simple_14_A_a.gif","images/stimuli/spore_stims/simple_08_A_b.gif","forced_long","","5","simple_dissimilar","images/stimuli/spore_stims/simple_08_A_b.gif","","","","",""
"","null","html-keyboard-response","64","341708","0.0-19.0-0.1","SS1619740105161","","","null","","","","","","<p><img src= images/blank.png width =""600"" height = ""600"" style=""position:fixed;top:50%; left:50%; transform: translate(-50%, -50%); border:5px solid black"">","","","","","","","",""
"","5896.460000003572","sequential-stimulus-presentation-old","65","348110","0.0-19.0-1.1","SS1619740105161","trial","","40","500","6396.460000003572","images/stimuli/spore_stims/simple_14_A_a.gif","images/stimuli/spore_stims/simple_08_A_b.gif","forced_long","","5","simple_dissimilar","images/stimuli/spore_stims/simple_08_A_b.gif","","","","",""
"","null","html-keyboard-response","66","349174","0.0-19.0-0.2","SS1619740105161","","","null","","","","","","<p><img src= images/blank.png width =""600"" height = ""600"" style=""position:fixed;top:50%; left:50%; transform: translate(-50%, -50%); border:5px solid black"">","","","","","","","",""
"","2645.235000003595","sequential-stimulus-presentation-old","67","352325","0.0-19.0-1.2","SS1619740105161","trial","","40","500","3145.235000003595","images/stimuli/spore_stims/simple_14_A_a.gif","images/stimuli/spore_stims/simple_08_A_b.gif","forced_long","","5","simple_dissimilar","images/stimuli/spore_stims/simple_08_A_b.gif","","","","",""
"","null","html-keyboard-response","68","353486","0.0-19.0-0.3","SS1619740105161","","","null","","","","","","<p><img src= images/blank.png width =""600"" height = ""600"" style=""position:fixed;top:50%; left:50%; transform: translate(-50%, -50%); border:5px solid black"">","","","","","","","",""
"","4459.029999998165","sequential-stimulus-presentation-old","69","358452","0.0-19.0-1.3","SS1619740105161","trial","","40","500","4959.029999998165","images/stimuli/spore_stims/simple_14_A_a.gif","images/stimuli/spore_stims/simple_08_A_b.gif","forced_long","","5","simple_dissimilar","images/stimuli/spore_stims/simple_08_A_b.gif","","","","",""
"","null","html-keyboard-response","70","359449","0.0-19.0-0.4","SS1619740105161","","","null","","","","","","<p><img src= images/blank.png width =""600"" height = ""600"" style=""position:fixed;top:50%; left:50%; transform: translate(-50%, -50%); border:5px solid black"">","","","","","","","",""
"","3448.035000001255","sequential-stimulus-presentation-old","71","363405","0.0-19.0-1.4","SS1619740105161","trial","","40","500","3948.035000001255","images/stimuli/spore_stims/simple_14_A_a.gif","images/stimuli/spore_stims/simple_08_A_b.gif","forced_long","","5","simple_dissimilar","images/stimuli/spore_stims/simple_08_A_b.gif","","","","",""
"","3564.879999998084","survey-multi-choice","72","366974","0.0-20.0","SS1619740105161","math_question","","","","","","","","","","","","{""Q0"":""6""}","[0]","6","",""
"","null","html-keyboard-response","73","368127","0.0-21.0-0.0","SS1619740105161","","","null","","","","","","<p><img src= images/blank.png width =""600"" height = ""600"" style=""position:fixed;top:50%; left:50%; transform: translate(-50%, -50%); border:5px solid black"">","","","","","","","",""
"","10309.634999997797","sequential-stimulus-presentation-old","74","378944","0.0-21.0-1.0","SS1619740105161","trial","","40","500","10809.634999997797","images/stimuli/spore_stims/complex_08_A_b.gif","images/stimuli/spore_stims/complex_16_A_a.gif","self_paced","","6","complex_dissimilar","images/stimuli/spore_stims/complex_16_A_a.gif","","","","",""
"","null","html-keyboard-response","75","380087","0.0-21.0-0.1","SS1619740105161","","","null","","","","","","<p><img src= images/blank.png width =""600"" height = ""600"" style=""position:fixed;top:50%; left:50%; transform: translate(-50%, -50%); border:5px solid black"">","","","","","","","",""
"","4869.749999998021","sequential-stimulus-presentation-old","76","385463","0.0-21.0-1.1","SS1619740105161","trial","","40","500","5369.749999998021","images/stimuli/spore_stims/complex_08_A_b.gif","images/stimuli/spore_stims/complex_16_A_a.gif","self_paced","","6","complex_dissimilar","images/stimuli/spore_stims/complex_16_A_a.gif","","","","",""
"","null","html-keyboard-response","77","386486","0.0-21.0-0.2","SS1619740105161","","","null","","","","","","<p><img src= images/blank.png width =""600"" height = ""600"" style=""position:fixed;top:50%; left:50%; transform: translate(-50%, -50%); border:5px solid black"">","","","","","","","",""
"","6335.85000000312","sequential-stimulus-presentation-old","78","393330","0.0-21.0-1.2","SS1619740105161","trial","","40","500","6835.85000000312","images/stimuli/spore_stims/complex_08_A_b.gif","images/stimuli/spore_stims/complex_16_A_a.gif","self_paced","","6","complex_dissimilar","images/stimuli/spore_stims/complex_16_A_a.gif","","","","",""
"","null","html-keyboard-response","79","394308","0.0-21.0-0.3","SS1619740105161","","","null","","","","","","<p><img src= images/blank.png width =""600"" height = ""600"" style=""position:fixed;top:50%; left:50%; transform: translate(-50%, -50%); border:5px solid black"">","","","","","","","",""
"","5645.609999999579","sequential-stimulus-presentation-old","80","400460","0.0-21.0-1.3","SS1619740105161","trial","","40","500","6145.609999999579","images/stimuli/spore_stims/complex_08_A_b.gif","images/stimuli/spore_stims/complex_16_A_a.gif","self_paced","","6","complex_dissimilar","images/stimuli/spore_stims/complex_16_A_a.gif","","","","",""
"","null","html-keyboard-response","81","401625","0.0-21.0-0.4","SS1619740105161","","","null","","","","","","<p><img src= images/blank.png width =""600"" height = ""600"" style=""position:fixed;top:50%; left:50%; transform: translate(-50%, -50%); border:5px solid black"">","","","","","","","",""
"","3830.289999998058","sequential-stimulus-presentation-old","82","405961","0.0-21.0-1.4","SS1619740105161","trial","","40","500","4330.289999998058","images/stimuli/spore_stims/complex_08_A_b.gif","images/stimuli/spore_stims/complex_16_A_a.gif","self_paced","","6","complex_dissimilar","images/stimuli/spore_stims/complex_16_A_a.gif","","","","",""
"","5596.280000005208","survey-multi-choice","83","411562","0.0-22.0","SS1619740105161","math_question","","","","","","","","","","","","{""Q0"":""13""}","[0]","13","",""
"","null","html-keyboard-response","84","412702","0.0-23.0-0.0","SS1619740105161","","","null","","","","","","<p><img src= images/blank.png width =""600"" height = ""600"" style=""position:fixed;top:50%; left:50%; transform: translate(-50%, -50%); border:5px solid black"">","","","","","","","",""
"","6301.390000000538","sequential-stimulus-presentation-old","85","419511","0.0-23.0-1.0","SS1619740105161","trial","","40","500","6801.390000000538","images/stimuli/spore_stims/complex_15_A_a.gif","images/stimuli/spore_stims/complex_18_A_b.gif","self_paced","","7","complex_dissimilar","images/stimuli/spore_stims/complex_18_A_b.gif","","","","",""
"","null","html-keyboard-response","86","420708","0.0-23.0-0.1","SS1619740105161","","","null","","","","","","<p><img src= images/blank.png width =""600"" height = ""600"" style=""position:fixed;top:50%; left:50%; transform: translate(-50%, -50%); border:5px solid black"">","","","","","","","",""
"","6929.760000006354","sequential-stimulus-presentation-old","87","428146","0.0-23.0-1.1","SS1619740105161","trial","","40","500","7429.760000006354","images/stimuli/spore_stims/complex_15_A_a.gif","images/stimuli/spore_stims/complex_18_A_b.gif","self_paced","","7","complex_dissimilar","images/stimuli/spore_stims/complex_15_A_a.gif","","","","",""
"","null","html-keyboard-response","88","429167","0.0-23.0-0.2","SS1619740105161","","","null","","","","","","<p><img src= images/blank.png width =""600"" height = ""600"" style=""position:fixed;top:50%; left:50%; transform: translate(-50%, -50%); border:5px solid black"">","","","","","","","",""
"","2522.2350000040024","sequential-stimulus-presentation-old","89","432197","0.0-23.0-1.2","SS1619740105161","trial","","40","500","3022.2350000040024","images/stimuli/spore_stims/complex_15_A_a.gif","images/stimuli/spore_stims/complex_18_A_b.gif","self_paced","","7","complex_dissimilar","images/stimuli/spore_stims/complex_15_A_a.gif","","","","",""
"","null","html-keyboard-response","90","433458","0.0-23.0-0.3","SS1619740105161","","","null","","","","","","<p><img src= images/blank.png width =""600"" height = ""600"" style=""position:fixed;top:50%; left:50%; transform: translate(-50%, -50%); border:5px solid black"">","","","","","","","",""
"","2287.1200000008685","sequential-stimulus-presentation-old","91","436251","0.0-23.0-1.3","SS1619740105161","trial","","40","500","2787.1200000008685","images/stimuli/spore_stims/complex_15_A_a.gif","images/stimuli/spore_stims/complex_18_A_b.gif","self_paced","","7","complex_dissimilar","images/stimuli/spore_stims/complex_18_A_b.gif","","","","",""
"","null","html-keyboard-response","92","437467","0.0-23.0-0.4","SS1619740105161","","","null","","","","","","<p><img src= images/blank.png width =""600"" height = ""600"" style=""position:fixed;top:50%; left:50%; transform: translate(-50%, -50%); border:5px solid black"">","","","","","","","",""
"","2670.705000004091","sequential-stimulus-presentation-old","93","440646","0.0-23.0-1.4","SS1619740105161","trial","","40","500","3170.705000004091","images/stimuli/spore_stims/complex_15_A_a.gif","images/stimuli/spore_stims/complex_18_A_b.gif","self_paced","","7","complex_dissimilar","images/stimuli/spore_stims/complex_18_A_b.gif","","","","",""
"","null","html-keyboard-response","94","441733","0.0-23.0-0.5","SS1619740105161","","","null","","","","","","<p><img src= images/blank.png width =""600"" height = ""600"" style=""position:fixed;top:50%; left:50%; transform: translate(-50%, -50%); border:5px solid black"">","","","","","","","",""
"","2516.750000002503","sequential-stimulus-presentation-old","95","444758","0.0-23.0-1.5","SS1619740105161","trial","","40","500","3016.750000002503","images/stimuli/spore_stims/complex_15_A_a.gif","images/stimuli/spore_stims/complex_18_A_b.gif","self_paced","","7","complex_dissimilar","images/stimuli/spore_stims/complex_18_A_b.gif","","","","",""
"","3298.7450000000536","survey-multi-choice","96","448062","0.0-24.0","SS1619740105161","math_question","","","","","","","","","","","","{""Q0"":""15""}","[0]","15","",""
"","null","html-keyboard-response","97","449203","0.0-25.0-0.0","SS1619740105161","","","null","","","","","","<p><img src= images/blank.png width =""600"" height = ""600"" style=""position:fixed;top:50%; left:50%; transform: translate(-50%, -50%); border:5px solid black"">","","","","","","","",""
"","1251.154999998107","sequential-stimulus-presentation-old","98","450962","0.0-25.0-1.0","SS1619740105161","trial","","40","500","1751.154999998107","images/stimuli/spore_stims/complex_06_A_b.gif","images/stimuli/spore_stims/complex_03_A_a.gif","forced_short","","8","complex_dissimilar","images/stimuli/spore_stims/complex_03_A_a.gif","","","","",""
"","null","html-keyboard-response","99","451840","0.0-25.0-0.1","SS1619740105161","","","null","","","","","","<p><img src= images/blank.png width =""600"" height = ""600"" style=""position:fixed;top:50%; left:50%; transform: translate(-50%, -50%); border:5px solid black"">","","","","","","","",""
"","6353.750000002037","sequential-stimulus-presentation-old","100","458701","0.0-25.0-1.1","SS1619740105161","trial","","40","500","6853.750000002037","images/stimuli/spore_stims/complex_06_A_b.gif","images/stimuli/spore_stims/complex_03_A_a.gif","forced_short","","8","complex_dissimilar","images/stimuli/spore_stims/complex_03_A_a.gif","","","","",""
"","null","html-keyboard-response","101","459964","0.0-25.0-0.2","SS1619740105161","","","null","","","","","","<p><img src= images/blank.png width =""600"" height = ""600"" style=""position:fixed;top:50%; left:50%; transform: translate(-50%, -50%); border:5px solid black"">","","","","","","","",""
"","3250.179999995453","sequential-stimulus-presentation-old","102","463722","0.0-25.0-1.2","SS1619740105161","trial","","40","500","3750.179999995453","images/stimuli/spore_stims/complex_06_A_b.gif","images/stimuli/spore_stims/complex_03_A_a.gif","forced_short","","8","complex_dissimilar","images/stimuli/spore_stims/complex_03_A_a.gif","","","","",""
"","null","html-keyboard-response","103","464545","0.0-25.0-0.3","SS1619740105161","","","null","","","","","","<p><img src= images/blank.png width =""600"" height = ""600"" style=""position:fixed;top:50%; left:50%; transform: translate(-50%, -50%); border:5px solid black"">","","","","","","","",""
"","1600.0100000019302","sequential-stimulus-presentation-old","104","466653","0.0-25.0-1.3","SS1619740105161","trial","","40","500","2100.01000000193","images/stimuli/spore_stims/complex_06_A_b.gif","images/stimuli/spore_stims/complex_03_A_a.gif","forced_short","","8","complex_dissimilar","images/stimuli/spore_stims/complex_03_A_a.gif","","","","",""
"","2829.525000001013","survey-multi-choice","105","469488","0.0-26.0","SS1619740105161","math_question","","","","","","","","","","","","{""Q0"":""14""}","[0]","14","",""
"","null","html-keyboard-response","106","470484","0.0-27.0-0.0","SS1619740105161","","","null","","","","","","<p><img src= images/blank.png width =""600"" height = ""600"" style=""position:fixed;top:50%; left:50%; transform: translate(-50%, -50%); border:5px solid black"">","","","","","","","",""
"","1404.4649999996182","sequential-stimulus-presentation-old","107","486897","0.0-27.0-1.0","SS1619740105161","trial","","40","500","1904.4649999996182","images/stimuli/spore_stims/simple_19_A_b.gif","images/stimuli/spore_stims/simple_13_A_a.gif","forced_long","","9","simple_dissimilar","images/stimuli/spore_stims/simple_13_A_a.gif","","","","",""
"","null","html-keyboard-response","108","487785","0.0-27.0-0.1","SS1619740105161","","","null","","","","","","<p><img src= images/blank.png width =""600"" height = ""600"" style=""position:fixed;top:50%; left:50%; transform: translate(-50%, -50%); border:5px solid black"">","","","","","","","",""
"","6016.520000004675","sequential-stimulus-presentation-old","109","494309","0.0-27.0-1.1","SS1619740105161","trial","","40","500","6516.520000004675","images/stimuli/spore_stims/simple_19_A_b.gif","images/stimuli/spore_stims/simple_13_A_a.gif","forced_long","","9","simple_dissimilar","images/stimuli/spore_stims/simple_13_A_a.gif","","","","",""
"","null","html-keyboard-response","110","495209","0.0-27.0-0.2","SS1619740105161","","","null","","","","","","<p><img src= images/blank.png width =""600"" height = ""600"" style=""position:fixed;top:50%; left:50%; transform: translate(-50%, -50%); border:5px solid black"">","","","","","","","",""
"","4540.000000000873","sequential-stimulus-presentation-old","111","500266","0.0-27.0-1.2","SS1619740105161","trial","","40","500","5040.000000000873","images/stimuli/spore_stims/simple_19_A_b.gif","images/stimuli/spore_stims/simple_13_A_a.gif","forced_long","","9","simple_dissimilar","images/stimuli/spore_stims/simple_13_A_a.gif","","","","",""
"","null","html-keyboard-response","112","501503","0.0-27.0-0.3","SS1619740105161","","","null","","","","","","<p><img src= images/blank.png width =""600"" height = ""600"" style=""position:fixed;top:50%; left:50%; transform: translate(-50%, -50%); border:5px solid black"">","","","","","","","",""
"","5832.855000000563","sequential-stimulus-presentation-old","113","507844","0.0-27.0-1.3","SS1619740105161","trial","","40","500","6332.855000000563","images/stimuli/spore_stims/simple_19_A_b.gif","images/stimuli/spore_stims/simple_13_A_a.gif","forced_long","","9","simple_dissimilar","images/stimuli/spore_stims/simple_19_A_b.gif","","","","",""
"","null","html-keyboard-response","114","509017","0.0-27.0-0.4","SS1619740105161","","","null","","","","","","<p><img src= images/blank.png width =""600"" height = ""600"" style=""position:fixed;top:50%; left:50%; transform: translate(-50%, -50%); border:5px solid black"">","","","","","","","",""
"","3717.6949999993667","sequential-stimulus-presentation-old","115","513243","0.0-27.0-1.4","SS1619740105161","trial","","40","500","4217.694999999367","images/stimuli/spore_stims/simple_19_A_b.gif","images/stimuli/spore_stims/simple_13_A_a.gif","forced_long","","9","simple_dissimilar","images/stimuli/spore_stims/simple_13_A_a.gif","","","","",""
"","null","html-keyboard-response","116","514303","0.0-27.0-0.5","SS1619740105161","","","null","","","","","","<p><img src= images/blank.png width =""600"" height = ""600"" style=""position:fixed;top:50%; left:50%; transform: translate(-50%, -50%); border:5px solid black"">","","","","","","","",""
"","2583.180000001448","sequential-stimulus-presentation-old","117","517395","0.0-27.0-1.5","SS1619740105161","trial","","40","500","3083.180000001448","images/stimuli/spore_stims/simple_19_A_b.gif","images/stimuli/spore_stims/simple_13_A_a.gif","forced_long","","9","simple_dissimilar","images/stimuli/spore_stims/simple_13_A_a.gif","","","","",""
"","3007.6649999973597","survey-multi-choice","118","520409","0.0-28.0","SS1619740105161","math_question","","","","","","","","","","","","{""Q0"":""3""}","[0]","3","",""
"","null","html-keyboard-response","119","521486","0.0-29.0-0.0","SS1619740105161","","","null","","","","","","<p><img src= images/blank.png width =""600"" height = ""600"" style=""position:fixed;top:50%; left:50%; transform: translate(-50%, -50%); border:5px solid black"">","","","","","","","",""
"","2844.1099999981234","sequential-stimulus-presentation-old","120","539340","0.0-29.0-1.0","SS1619740105161","trial","","40","500","3344.1099999981234","images/stimuli/spore_stims/complex_11_A_b.gif","images/stimuli/spore_stims/complex_09_A_a.gif","forced_long","","10","complex_dissimilar","images/stimuli/spore_stims/complex_09_A_a.gif","","","","",""
"","null","html-keyboard-response","121","540342","0.0-29.0-0.1","SS1619740105161","","","null","","","","","","<p><img src= images/blank.png width =""600"" height = ""600"" style=""position:fixed;top:50%; left:50%; transform: translate(-50%, -50%); border:5px solid black"">","","","","","","","",""
"","9027.305000003194","sequential-stimulus-presentation-old","122","549878","0.0-29.0-1.1","SS1619740105161","trial","","40","500","9527.305000003194","images/stimuli/spore_stims/complex_11_A_b.gif","images/stimuli/spore_stims/complex_09_A_a.gif","forced_long","","10","complex_dissimilar","images/stimuli/spore_stims/complex_09_A_a.gif","","","","",""
"","null","html-keyboard-response","123","551156","0.0-29.0-0.2","SS1619740105161","","","null","","","","","","<p><img src= images/blank.png width =""600"" height = ""600"" style=""position:fixed;top:50%; left:50%; transform: translate(-50%, -50%); border:5px solid black"">","","","","","","","",""
"","3401.5299999954877","sequential-stimulus-presentation-old","124","555075","0.0-29.0-1.2","SS1619740105161","trial","","40","500","3901.5299999954877","images/stimuli/spore_stims/complex_11_A_b.gif","images/stimuli/spore_stims/complex_09_A_a.gif","forced_long","","10","complex_dissimilar","images/stimuli/spore_stims/complex_09_A_a.gif","","","","",""
"","null","html-keyboard-response","125","555945","0.0-29.0-0.3","SS1619740105161","","","null","","","","","","<p><img src= images/blank.png width =""600"" height = ""600"" style=""position:fixed;top:50%; left:50%; transform: translate(-50%, -50%); border:5px solid black"">","","","","","","","",""
"","3272.9400000026217","sequential-stimulus-presentation-old","126","559725","0.0-29.0-1.3","SS1619740105161","trial","","40","500","3772.9400000026217","images/stimuli/spore_stims/complex_11_A_b.gif","images/stimuli/spore_stims/complex_09_A_a.gif","forced_long","","10","complex_dissimilar","images/stimuli/spore_stims/complex_09_A_a.gif","","","","",""
"","null","html-keyboard-response","127","560621","0.0-29.0-0.4","SS1619740105161","","","null","","","","","","<p><img src= images/blank.png width =""600"" height = ""600"" style=""position:fixed;top:50%; left:50%; transform: translate(-50%, -50%); border:5px solid black"">","","","","","","","",""
"","3116.8299999990268","sequential-stimulus-presentation-old","128","564246","0.0-29.0-1.4","SS1619740105161","trial","","40","500","3616.8299999990268","images/stimuli/spore_stims/complex_11_A_b.gif","images/stimuli/spore_stims/complex_09_A_a.gif","forced_long","","10","complex_dissimilar","images/stimuli/spore_stims/complex_09_A_a.gif","","","","",""
"","5123.585000001243","survey-multi-choice","129","569377","0.0-30.0","SS1619740105161","math_question","","","","","","","","","","","","{""Q0"":""11""}","[0]","11","",""
"","null","html-keyboard-response","130","570612","0.0-31.0-0.0","SS1619740105161","","","null","","","","","","<p><img src= images/blank.png width =""600"" height = ""600"" style=""position:fixed;top:50%; left:50%; transform: translate(-50%, -50%); border:5px solid black"">","","","","","","","",""
"","843.0900000020629","sequential-stimulus-presentation-old","131","586464","0.0-31.0-1.0","SS1619740105161","trial","","40","500","1343.0900000020629","images/stimuli/spore_stims/complex_20_A_a.gif","images/stimuli/spore_stims/complex_17_A_b.gif","forced_long","","11","complex_dissimilar","images/stimuli/spore_stims/complex_17_A_b.gif","","","","",""
"","null","html-keyboard-response","132","587580","0.0-31.0-0.1","SS1619740105161","","","null","","","","","","<p><img src= images/blank.png width =""600"" height = ""600"" style=""position:fixed;top:50%; left:50%; transform: translate(-50%, -50%); border:5px solid black"">","","","","","","","",""
"","2586.1599999988684","sequential-stimulus-presentation-old","133","590676","0.0-31.0-1.1","SS1619740105161","trial","","40","500","3086.1599999988684","images/stimuli/spore_stims/complex_20_A_a.gif","images/stimuli/spore_stims/complex_17_A_b.gif","forced_long","","11","complex_dissimilar","images/stimuli/spore_stims/complex_17_A_b.gif","","","","",""
"","null","html-keyboard-response","134","591642","0.0-31.0-0.2","SS1619740105161","","","null","","","","","","<p><img src= images/blank.png width =""600"" height = ""600"" style=""position:fixed;top:50%; left:50%; transform: translate(-50%, -50%); border:5px solid black"">","","","","","","","",""
"","2237.1400000046706","sequential-stimulus-presentation-old","135","594389","0.0-31.0-1.2","SS1619740105161","trial","","40","500","2737.1400000046706","images/stimuli/spore_stims/complex_20_A_a.gif","images/stimuli/spore_stims/complex_17_A_b.gif","forced_long","","11","complex_dissimilar","images/stimuli/spore_stims/complex_17_A_b.gif","","","","",""
"","null","html-keyboard-response","136","595545","0.0-31.0-0.3","SS1619740105161","","","null","","","","","","<p><img src= images/blank.png width =""600"" height = ""600"" style=""position:fixed;top:50%; left:50%; transform: translate(-50%, -50%); border:5px solid black"">","","","","","","","",""
"","4184.495000001276","sequential-stimulus-presentation-old","137","600238","0.0-31.0-1.3","SS1619740105161","trial","","40","500","4684.495000001276","images/stimuli/spore_stims/complex_20_A_a.gif","images/stimuli/spore_stims/complex_17_A_b.gif","forced_long","","11","complex_dissimilar","images/stimuli/spore_stims/complex_17_A_b.gif","","","","",""
"","null","html-keyboard-response","138","601141","0.0-31.0-0.4","SS1619740105161","","","null","","","","","","<p><img src= images/blank.png width =""600"" height = ""600"" style=""position:fixed;top:50%; left:50%; transform: translate(-50%, -50%); border:5px solid black"">","","","","","","","",""
"","2339.8799999996554","sequential-stimulus-presentation-old","139","603991","0.0-31.0-1.4","SS1619740105161","trial","","40","500","2839.8799999996554","images/stimuli/spore_stims/complex_20_A_a.gif","images/stimuli/spore_stims/complex_17_A_b.gif","forced_long","","11","complex_dissimilar","images/stimuli/spore_stims/complex_17_A_b.gif","","","","",""
"","null","html-keyboard-response","140","605187","0.0-31.0-0.5","SS1619740105161","","","null","","","","","","<p><img src= images/blank.png width =""600"" height = ""600"" style=""position:fixed;top:50%; left:50%; transform: translate(-50%, -50%); border:5px solid black"">","","","","","","","",""
"","2950.2500000017462","sequential-stimulus-presentation-old","141","608646","0.0-31.0-1.5","SS1619740105161","trial","","40","500","3450.2500000017462","images/stimuli/spore_stims/complex_20_A_a.gif","images/stimuli/spore_stims/complex_17_A_b.gif","forced_long","","11","complex_dissimilar","images/stimuli/spore_stims/complex_17_A_b.gif","","","","",""
"[{""page_index"":0,""viewing_time"":5085.364999998943}]","5085.859999999171","instructions","142","613739","0.0-32.0","SS1619740105161","instructions","","","","","","","","","","","","","","","",""
"","6959.704999993788","survey-likert","143","620707","0.0-33.0","SS1619740105161","similarity_question","","","","","","","","","","","","{""Q0"":2}","[0]","","images/stimuli/spore_stims/simple_14_A_b.gif","images/stimuli/spore_stims/simple_15_A_a.gif"
"","7485.840000001132","survey-likert","144","628202","0.0-34.0","SS1619740105161","similarity_question","","","","","","","","","","","","{""Q0"":0}","[0]","","images/stimuli/spore_stims/complex_20_A_a.gif","images/stimuli/spore_stims/complex_17_A_b.gif"
"","8643.500000005588","survey-likert","145","636854","0.0-35.0","SS1619740105161","similarity_question","","","","","","","","","","","","{""Q0"":2}","[0]","","images/stimuli/spore_stims/complex_09_A_a.gif","images/stimuli/spore_stims/complex_11_A_b.gif"
"","6287.8549999949755","survey-likert","146","643151","0.0-36.0","SS1619740105161","similarity_question","","","","","","","","","","","","{""Q0"":3}","[0]","","images/stimuli/spore_stims/simple_02_A_b.gif","images/stimuli/spore_stims/simple_16_A_a.gif"
"","8892.054999996559","survey-likert","147","652052","0.0-37.0","SS1619740105161","similarity_question","","","","","","","","","","","","{""Q0"":4}","[0]","","images/stimuli/spore_stims/complex_10_A_a.gif","images/stimuli/spore_stims/complex_03_A_b.gif"
"","4293.235000004526","survey-likert","148","656355","0.0-38.0","SS1619740105161","similarity_question","","","","","","","","","","","","{""Q0"":5}","[0]","","images/stimuli/spore_stims/simple_04_A_a.gif","images/stimuli/spore_stims/simple_13_A_b.gif"
"","4966.989999993588","survey-likert","149","661331","0.0-39.0","SS1619740105161","similarity_question","","","","","","","","","","","","{""Q0"":3}","[0]","","images/stimuli/spore_stims/simple_19_A_b.gif","images/stimuli/spore_stims/simple_13_A_a.gif"
"","4562.775000005844","survey-likert","150","665903","0.0-40.0","SS1619740105161","similarity_question","","","","","","","","","","","","{""Q0"":2}","[0]","","images/stimuli/spore_stims/complex_08_A_b.gif","images/stimuli/spore_stims/complex_16_A_a.gif"
"","6229.859999999404","survey-likert","151","672142","0.0-41.0","SS1619740105161","similarity_question","","","","","","","","","","","","{""Q0"":4}","[0]","","images/stimuli/spore_stims/complex_06_A_b.gif","images/stimuli/spore_stims/complex_03_A_a.gif"
"","6954.880000004778","survey-likert","152","679105","0.0-42.0","SS1619740105161","similarity_question","","","","","","","","","","","","{""Q0"":3}","[0]","","images/stimuli/spore_stims/complex_15_A_a.gif","images/stimuli/spore_stims/complex_18_A_b.gif"
"","2225.7099999987986","survey-likert","153","681340","0.0-43.0","SS1619740105161","similarity_question","","","","","","","","","","","","{""Q0"":4}","[0]","","images/stimuli/spore_stims/simple_14_A_a.gif","images/stimuli/spore_stims/simple_08_A_b.gif"
"","4687.165000003064","survey-likert","154","686035","0.0-44.0","SS1619740105161","similarity_question","","","","","","","","","","","","{""Q0"":5}","[0]","","images/stimuli/spore_stims/simple_01_A_b.gif","images/stimuli/spore_stims/simple_03_A_a.gif"
"[{""page_index"":0,""viewing_time"":4339.075000003446}]","4339.865000001737","instructions","155","690384","0.0-45.0","SS1619740105161","instructions","","","","","","","","","","","","","","","",""
"","4177.615000000573","survey-likert","156","694572","0.0-46.0","SS1619740105161","","","","","","","","","images/stimuli/spore_stims/simple_08_A_b.gif","","","","{""Q0"":1}","[0]","","",""
"","5161.345000000438","survey-likert","157","699742","0.0-47.0","SS1619740105161","","","","","","","","","images/stimuli/spore_stims/complex_20_A_a.gif","","","","{""Q0"":5}","[0]","","",""
"","3347.090000002994","survey-likert","158","703100","0.0-48.0","SS1619740105161","","","","","","","","","images/stimuli/spore_stims/complex_18_A_b.gif","","","","{""Q0"":4}","[0]","","",""
"","3913.5899999963585","survey-likert","159","707023","0.0-49.0","SS1619740105161","","","","","","","","","images/stimuli/spore_stims/simple_02_A_b.gif","","","","{""Q0"":0}","[0]","","",""
"","3887.3649999951012","survey-likert","160","710920","0.0-50.0","SS1619740105161","","","","","","","","","images/stimuli/spore_stims/simple_14_A_b.gif","","","","{""Q0"":1}","[0]","","",""
"","4712.37499999546","survey-likert","161","715642","0.0-51.0","SS1619740105161","","","","","","","","","images/stimuli/spore_stims/complex_08_A_b.gif","","","","{""Q0"":4}","[0]","","",""
"","3919.379999999306","survey-likert","162","719570","0.0-52.0","SS1619740105161","","","","","","","","","images/stimuli/spore_stims/complex_11_A_b.gif","","","","{""Q0"":4}","[0]","","",""
"","5279.309999998077","survey-likert","163","724858","0.0-53.0","SS1619740105161","","","","","","","","","images/stimuli/spore_stims/complex_06_A_b.gif","","","","{""Q0"":5}","[0]","","",""
"","3173.7100000027567","survey-likert","164","728041","0.0-54.0","SS1619740105161","","","","","","","","","images/stimuli/spore_stims/simple_01_A_b.gif","","","","{""Q0"":1}","[0]","","",""
"","6504.914999997709","survey-likert","165","734555","0.0-55.0","SS1619740105161","","","","","","","","","images/stimuli/spore_stims/simple_19_A_b.gif","","","","{""Q0"":1}","[0]","","",""
"","4883.209999999963","survey-likert","166","739448","0.0-56.0","SS1619740105161","","","","","","","","","images/stimuli/spore_stims/simple_04_A_a.gif","","","","{""Q0"":2}","[0]","","",""
"","5381.170000000508","survey-likert","167","744839","0.0-57.0","SS1619740105161","","","","","","","","","images/stimuli/spore_stims/complex_03_A_b.gif","","","","{""Q0"":3}","[0]","","",""
"[{""page_index"":0,""viewing_time"":1938.5850000034552}]","1939.0000000058208","instructions","168","746786","0.0-58.0","SS1619740105161","instructions","","","","","","","","","","","","","","","",""
"","10352.379999996629","demog-age","169","757150","0.0-59.0","SS1619740105161","","","","","","","","","","","","","{""age"":""27""}","","","",""
"","3414.6900000050664","demog-ethnic-US","170","760576","0.0-60.0","SS1619740105161","","","","","","","","","","","","","{""ethnicity"":[""White""]}","[0]","","",""
"","10348.400000002468","demog-gender-and-education","171","770935","0.0-61.0","SS1619740105161","","","","","","","","","","","","","{""gender"":""Male"",""education"":""Doctorate/Professional degree""}","[0,1]","","",""
"","8866.425000000163","survey-text","172","779813","0.0-62.0","SS1619740105161","feedback","","","","","","","","","","","","{""Q0"":""All good!""}","","","",""
"[{""page_index"":0,""viewing_time"":2621.0500000014435}]","2621.5549999978393","instructions","173","782444","0.0-63.0","SS1619740105161","instructions","","","","","","","","","","","","","","","",""
