"view_history","rt","trial_type","trial_index","time_elapsed","internal_node_id","subject","stimulus_type","trial_stimulus","key_press","minimum_viewing_duration","trial_looking_time","block_deviant","block_background","exposure_type","stimulus","block_number","block_type","stimulus_displayed","responses","question_order","math_correct_answer","stimulus_left","stimulus_right"
"[{""page_index"":0,""viewing_time"":18719}]","18720","instructions","0","18724","0.0-0.0","SS1619740129499","","","","","","","","","","","","","","","","",""
"[{""page_index"":0,""viewing_time"":16548},{""page_index"":1,""viewing_time"":10514}]","27062","instructions","1","47804","0.0-1.0","SS1619740129499","instructions","","","","","","","","","","","","","","","",""
"","14509","sequential-stimulus-presentation-old","2","62825","0.0-2.0","SS1619740129499","","","40","500","15009","null","null","self_paced","","","","","","","","",""
"","18102","sequential-stimulus-presentation-old","3","81437","0.0-3.0","SS1619740129499","","","40","500","18602","null","null","self_paced","","","","","","","","",""
"[{""page_index"":0,""viewing_time"":19281}]","19281","instructions","4","100720","0.0-4.0","SS1619740129499","instructions","","","","","","","","","","","","","","","",""
"","2893","sequential-stimulus-presentation-old","5","118630","0.0-5.0","SS1619740129499","","","40","500","3393","null","null","forced_long","","","","","","","","",""
"","4650","sequential-stimulus-presentation-old","6","123795","0.0-6.0","SS1619740129499","","","40","500","5150","null","null","forced_long","","","","","","","","",""
"[{""page_index"":0,""viewing_time"":6004}]","6004","instructions","7","129802","0.0-7.0","SS1619740129499","instructions","","","","","","","","","","","","","","","",""
"[{""page_index"":0,""viewing_time"":16283},{""page_index"":1,""viewing_time"":26734},{""page_index"":2,""viewing_time"":11089},{""page_index"":3,""viewing_time"":1893},{""page_index"":4,""viewing_time"":1551}]","57550","instructions","8","187355","0.0-8.0","SS1619740129499","instructions","","","","","","","","","","","","","","","",""
"","null","html-keyboard-response","9","188414","0.0-9.0-0.0","SS1619740129499","","","null","","","","","","<p><img src= images/blank.png width =""600"" height = ""600"" style=""position:fixed;top:50%; left:50%; transform: translate(-50%, -50%); border:5px solid black"">","","","","","","","",""
"","5689","sequential-stimulus-presentation-old","10","194625","0.0-9.0-1.0","SS1619740129499","trial","","40","500","6189","images/stimuli/spore_stims/complex_06_A_a.gif","images/stimuli/spore_stims/complex_07_A_b.gif","forced_short","","0","complex_dissimilar","images/stimuli/spore_stims/complex_07_A_b.gif","","","","",""
"","null","html-keyboard-response","11","195864","0.0-9.0-0.1","SS1619740129499","","","null","","","","","","<p><img src= images/blank.png width =""600"" height = ""600"" style=""position:fixed;top:50%; left:50%; transform: translate(-50%, -50%); border:5px solid black"">","","","","","","","",""
"","12277","sequential-stimulus-presentation-old","12","208661","0.0-9.0-1.1","SS1619740129499","trial","","40","500","12777","images/stimuli/spore_stims/complex_06_A_a.gif","images/stimuli/spore_stims/complex_07_A_b.gif","forced_short","","0","complex_dissimilar","images/stimuli/spore_stims/complex_07_A_b.gif","","","","",""
"","null","html-keyboard-response","13","209554","0.0-9.0-0.2","SS1619740129499","","","null","","","","","","<p><img src= images/blank.png width =""600"" height = ""600"" style=""position:fixed;top:50%; left:50%; transform: translate(-50%, -50%); border:5px solid black"">","","","","","","","",""
"","4282","sequential-stimulus-presentation-old","14","214356","0.0-9.0-1.2","SS1619740129499","trial","","40","500","4782","images/stimuli/spore_stims/complex_06_A_a.gif","images/stimuli/spore_stims/complex_07_A_b.gif","forced_short","","0","complex_dissimilar","images/stimuli/spore_stims/complex_07_A_b.gif","","","","",""
"","null","html-keyboard-response","15","215245","0.0-9.0-0.3","SS1619740129499","","","null","","","","","","<p><img src= images/blank.png width =""600"" height = ""600"" style=""position:fixed;top:50%; left:50%; transform: translate(-50%, -50%); border:5px solid black"">","","","","","","","",""
"","5371","sequential-stimulus-presentation-old","16","221135","0.0-9.0-1.3","SS1619740129499","trial","","40","500","5871","images/stimuli/spore_stims/complex_06_A_a.gif","images/stimuli/spore_stims/complex_07_A_b.gif","forced_short","","0","complex_dissimilar","images/stimuli/spore_stims/complex_07_A_b.gif","","","","",""
"","null","html-keyboard-response","17","222345","0.0-9.0-0.4","SS1619740129499","","","null","","","","","","<p><img src= images/blank.png width =""600"" height = ""600"" style=""position:fixed;top:50%; left:50%; transform: translate(-50%, -50%); border:5px solid black"">","","","","","","","",""
"","10423","sequential-stimulus-presentation-old","18","233288","0.0-9.0-1.4","SS1619740129499","trial","","40","500","10923","images/stimuli/spore_stims/complex_06_A_a.gif","images/stimuli/spore_stims/complex_07_A_b.gif","forced_short","","0","complex_dissimilar","images/stimuli/spore_stims/complex_06_A_a.gif","","","","",""
"","4852","survey-multi-choice","19","238144","0.0-10.0","SS1619740129499","math_question","","","","","","","","","","","","{""Q0"":""16""}","[0]","16","",""
"","null","html-keyboard-response","20","239073","0.0-11.0-0.0","SS1619740129499","","","null","","","","","","<p><img src= images/blank.png width =""600"" height = ""600"" style=""position:fixed;top:50%; left:50%; transform: translate(-50%, -50%); border:5px solid black"">","","","","","","","",""
"","3448","sequential-stimulus-presentation-old","21","257533","0.0-11.0-1.0","SS1619740129499","trial","","40","500","3948","images/stimuli/spore_stims/simple_20_A_a.gif","images/stimuli/spore_stims/simple_10_A_b.gif","forced_long","","1","simple_dissimilar","images/stimuli/spore_stims/simple_10_A_b.gif","","","","",""
"","null","html-keyboard-response","22","258655","0.0-11.0-0.1","SS1619740129499","","","null","","","","","","<p><img src= images/blank.png width =""600"" height = ""600"" style=""position:fixed;top:50%; left:50%; transform: translate(-50%, -50%); border:5px solid black"">","","","","","","","",""
"","3116","sequential-stimulus-presentation-old","23","262292","0.0-11.0-1.1","SS1619740129499","trial","","40","500","3616","images/stimuli/spore_stims/simple_20_A_a.gif","images/stimuli/spore_stims/simple_10_A_b.gif","forced_long","","1","simple_dissimilar","images/stimuli/spore_stims/simple_10_A_b.gif","","","","",""
"","null","html-keyboard-response","24","263474","0.0-11.0-0.2","SS1619740129499","","","null","","","","","","<p><img src= images/blank.png width =""600"" height = ""600"" style=""position:fixed;top:50%; left:50%; transform: translate(-50%, -50%); border:5px solid black"">","","","","","","","",""
"","1940","sequential-stimulus-presentation-old","25","265935","0.0-11.0-1.2","SS1619740129499","trial","","40","500","2440","images/stimuli/spore_stims/simple_20_A_a.gif","images/stimuli/spore_stims/simple_10_A_b.gif","forced_long","","1","simple_dissimilar","images/stimuli/spore_stims/simple_10_A_b.gif","","","","",""
"","null","html-keyboard-response","26","266815","0.0-11.0-0.3","SS1619740129499","","","null","","","","","","<p><img src= images/blank.png width =""600"" height = ""600"" style=""position:fixed;top:50%; left:50%; transform: translate(-50%, -50%); border:5px solid black"">","","","","","","","",""
"","2502","sequential-stimulus-presentation-old","27","269836","0.0-11.0-1.3","SS1619740129499","trial","","40","500","3002","images/stimuli/spore_stims/simple_20_A_a.gif","images/stimuli/spore_stims/simple_10_A_b.gif","forced_long","","1","simple_dissimilar","images/stimuli/spore_stims/simple_10_A_b.gif","","","","",""
"","null","html-keyboard-response","28","270975","0.0-11.0-0.4","SS1619740129499","","","null","","","","","","<p><img src= images/blank.png width =""600"" height = ""600"" style=""position:fixed;top:50%; left:50%; transform: translate(-50%, -50%); border:5px solid black"">","","","","","","","",""
"","2171","sequential-stimulus-presentation-old","29","273666","0.0-11.0-1.4","SS1619740129499","trial","","40","500","2671","images/stimuli/spore_stims/simple_20_A_a.gif","images/stimuli/spore_stims/simple_10_A_b.gif","forced_long","","1","simple_dissimilar","images/stimuli/spore_stims/simple_10_A_b.gif","","","","",""
"","3715","survey-multi-choice","30","277384","0.0-12.0","SS1619740129499","math_question","","","","","","","","","","","","{""Q0"":""14""}","[0]","14","",""
"","null","html-keyboard-response","31","278534","0.0-13.0-0.0","SS1619740129499","","","null","","","","","","<p><img src= images/blank.png width =""600"" height = ""600"" style=""position:fixed;top:50%; left:50%; transform: translate(-50%, -50%); border:5px solid black"">","","","","","","","",""
"","7944","sequential-stimulus-presentation-old","32","286988","0.0-13.0-1.0","SS1619740129499","trial","","40","500","8444","images/stimuli/spore_stims/complex_17_A_a.gif","images/stimuli/spore_stims/complex_20_A_b.gif","self_paced","","2","complex_dissimilar","images/stimuli/spore_stims/complex_20_A_b.gif","","","","",""
"","null","html-keyboard-response","33","288084","0.0-13.0-0.1","SS1619740129499","","","null","","","","","","<p><img src= images/blank.png width =""600"" height = ""600"" style=""position:fixed;top:50%; left:50%; transform: translate(-50%, -50%); border:5px solid black"">","","","","","","","",""
"","8839","sequential-stimulus-presentation-old","34","297443","0.0-13.0-1.1","SS1619740129499","trial","","40","500","9339","images/stimuli/spore_stims/complex_17_A_a.gif","images/stimuli/spore_stims/complex_20_A_b.gif","self_paced","","2","complex_dissimilar","images/stimuli/spore_stims/complex_20_A_b.gif","","","","",""
"","null","html-keyboard-response","35","298654","0.0-13.0-0.2","SS1619740129499","","","null","","","","","","<p><img src= images/blank.png width =""600"" height = ""600"" style=""position:fixed;top:50%; left:50%; transform: translate(-50%, -50%); border:5px solid black"">","","","","","","","",""
"","3126","sequential-stimulus-presentation-old","36","302301","0.0-13.0-1.2","SS1619740129499","trial","","40","500","3626","images/stimuli/spore_stims/complex_17_A_a.gif","images/stimuli/spore_stims/complex_20_A_b.gif","self_paced","","2","complex_dissimilar","images/stimuli/spore_stims/complex_20_A_b.gif","","","","",""
"","null","html-keyboard-response","37","303454","0.0-13.0-0.3","SS1619740129499","","","null","","","","","","<p><img src= images/blank.png width =""600"" height = ""600"" style=""position:fixed;top:50%; left:50%; transform: translate(-50%, -50%); border:5px solid black"">","","","","","","","",""
"","8991","sequential-stimulus-presentation-old","38","312965","0.0-13.0-1.3","SS1619740129499","trial","","40","500","9491","images/stimuli/spore_stims/complex_17_A_a.gif","images/stimuli/spore_stims/complex_20_A_b.gif","self_paced","","2","complex_dissimilar","images/stimuli/spore_stims/complex_17_A_a.gif","","","","",""
"","3107","survey-multi-choice","39","316076","0.0-14.0","SS1619740129499","math_question","","","","","","","","","","","","{""Q0"":""9""}","[0]","9","",""
"","null","html-keyboard-response","40","317344","0.0-15.0-0.0","SS1619740129499","","","null","","","","","","<p><img src= images/blank.png width =""600"" height = ""600"" style=""position:fixed;top:50%; left:50%; transform: translate(-50%, -50%); border:5px solid black"">","","","","","","","",""
"","2213","sequential-stimulus-presentation-old","41","320064","0.0-15.0-1.0","SS1619740129499","trial","","40","500","2713","images/stimuli/spore_stims/simple_13_A_b.gif","images/stimuli/spore_stims/simple_19_A_a.gif","forced_short","","3","simple_dissimilar","images/stimuli/spore_stims/simple_19_A_a.gif","","","","",""
"","null","html-keyboard-response","42","321015","0.0-15.0-0.1","SS1619740129499","","","null","","","","","","<p><img src= images/blank.png width =""600"" height = ""600"" style=""position:fixed;top:50%; left:50%; transform: translate(-50%, -50%); border:5px solid black"">","","","","","","","",""
"","3414","sequential-stimulus-presentation-old","43","324949","0.0-15.0-1.1","SS1619740129499","trial","","40","500","3914","images/stimuli/spore_stims/simple_13_A_b.gif","images/stimuli/spore_stims/simple_19_A_a.gif","forced_short","","3","simple_dissimilar","images/stimuli/spore_stims/simple_19_A_a.gif","","","","",""
"","null","html-keyboard-response","44","325894","0.0-15.0-0.2","SS1619740129499","","","null","","","","","","<p><img src= images/blank.png width =""600"" height = ""600"" style=""position:fixed;top:50%; left:50%; transform: translate(-50%, -50%); border:5px solid black"">","","","","","","","",""
"","3267","sequential-stimulus-presentation-old","45","329680","0.0-15.0-1.2","SS1619740129499","trial","","40","500","3767","images/stimuli/spore_stims/simple_13_A_b.gif","images/stimuli/spore_stims/simple_19_A_a.gif","forced_short","","3","simple_dissimilar","images/stimuli/spore_stims/simple_19_A_a.gif","","","","",""
"","null","html-keyboard-response","46","330954","0.0-15.0-0.3","SS1619740129499","","","null","","","","","","<p><img src= images/blank.png width =""600"" height = ""600"" style=""position:fixed;top:50%; left:50%; transform: translate(-50%, -50%); border:5px solid black"">","","","","","","","",""
"","1982","sequential-stimulus-presentation-old","47","333456","0.0-15.0-1.3","SS1619740129499","trial","","40","500","2482","images/stimuli/spore_stims/simple_13_A_b.gif","images/stimuli/spore_stims/simple_19_A_a.gif","forced_short","","3","simple_dissimilar","images/stimuli/spore_stims/simple_19_A_a.gif","","","","",""
"","null","html-keyboard-response","48","334494","0.0-15.0-0.4","SS1619740129499","","","null","","","","","","<p><img src= images/blank.png width =""600"" height = ""600"" style=""position:fixed;top:50%; left:50%; transform: translate(-50%, -50%); border:5px solid black"">","","","","","","","",""
"","2927","sequential-stimulus-presentation-old","49","337942","0.0-15.0-1.4","SS1619740129499","trial","","40","500","3427","images/stimuli/spore_stims/simple_13_A_b.gif","images/stimuli/spore_stims/simple_19_A_a.gif","forced_short","","3","simple_dissimilar","images/stimuli/spore_stims/simple_19_A_a.gif","","","","",""
"","3596","survey-multi-choice","50","341541","0.0-16.0","SS1619740129499","math_question","","","","","","","","","","","","{""Q0"":""9""}","[0]","9","",""
"","null","html-keyboard-response","51","342774","0.0-17.0-0.0","SS1619740129499","","","null","","","","","","<p><img src= images/blank.png width =""600"" height = ""600"" style=""position:fixed;top:50%; left:50%; transform: translate(-50%, -50%); border:5px solid black"">","","","","","","","",""
"","6610","sequential-stimulus-presentation-old","52","349903","0.0-17.0-1.0","SS1619740129499","trial","","40","500","7110","images/stimuli/spore_stims/complex_14_A_a.gif","images/stimuli/spore_stims/complex_10_A_b.gif","self_paced","","4","complex_dissimilar","images/stimuli/spore_stims/complex_10_A_b.gif","","","","",""
"","null","html-keyboard-response","53","350904","0.0-17.0-0.1","SS1619740129499","","","null","","","","","","<p><img src= images/blank.png width =""600"" height = ""600"" style=""position:fixed;top:50%; left:50%; transform: translate(-50%, -50%); border:5px solid black"">","","","","","","","",""
"","2572","sequential-stimulus-presentation-old","54","353993","0.0-17.0-1.1","SS1619740129499","trial","","40","500","3072","images/stimuli/spore_stims/complex_14_A_a.gif","images/stimuli/spore_stims/complex_10_A_b.gif","self_paced","","4","complex_dissimilar","images/stimuli/spore_stims/complex_10_A_b.gif","","","","",""
"","null","html-keyboard-response","55","354914","0.0-17.0-0.2","SS1619740129499","","","null","","","","","","<p><img src= images/blank.png width =""600"" height = ""600"" style=""position:fixed;top:50%; left:50%; transform: translate(-50%, -50%); border:5px solid black"">","","","","","","","",""
"","3371","sequential-stimulus-presentation-old","56","358806","0.0-17.0-1.2","SS1619740129499","trial","","40","500","3871","images/stimuli/spore_stims/complex_14_A_a.gif","images/stimuli/spore_stims/complex_10_A_b.gif","self_paced","","4","complex_dissimilar","images/stimuli/spore_stims/complex_10_A_b.gif","","","","",""
"","null","html-keyboard-response","57","359924","0.0-17.0-0.3","SS1619740129499","","","null","","","","","","<p><img src= images/blank.png width =""600"" height = ""600"" style=""position:fixed;top:50%; left:50%; transform: translate(-50%, -50%); border:5px solid black"">","","","","","","","",""
"","5915","sequential-stimulus-presentation-old","58","366360","0.0-17.0-1.3","SS1619740129499","trial","","40","500","6415","images/stimuli/spore_stims/complex_14_A_a.gif","images/stimuli/spore_stims/complex_10_A_b.gif","self_paced","","4","complex_dissimilar","images/stimuli/spore_stims/complex_10_A_b.gif","","","","",""
"","null","html-keyboard-response","59","367344","0.0-17.0-0.4","SS1619740129499","","","null","","","","","","<p><img src= images/blank.png width =""600"" height = ""600"" style=""position:fixed;top:50%; left:50%; transform: translate(-50%, -50%); border:5px solid black"">","","","","","","","",""
"","2174","sequential-stimulus-presentation-old","60","370039","0.0-17.0-1.4","SS1619740129499","trial","","40","500","2674","images/stimuli/spore_stims/complex_14_A_a.gif","images/stimuli/spore_stims/complex_10_A_b.gif","self_paced","","4","complex_dissimilar","images/stimuli/spore_stims/complex_10_A_b.gif","","","","",""
"","null","html-keyboard-response","61","370884","0.0-17.0-0.5","SS1619740129499","","","null","","","","","","<p><img src= images/blank.png width =""600"" height = ""600"" style=""position:fixed;top:50%; left:50%; transform: translate(-50%, -50%); border:5px solid black"">","","","","","","","",""
"","2192","sequential-stimulus-presentation-old","62","373596","0.0-17.0-1.5","SS1619740129499","trial","","40","500","2692","images/stimuli/spore_stims/complex_14_A_a.gif","images/stimuli/spore_stims/complex_10_A_b.gif","self_paced","","4","complex_dissimilar","images/stimuli/spore_stims/complex_10_A_b.gif","","","","",""
"","3675","survey-multi-choice","63","377276","0.0-18.0","SS1619740129499","math_question","","","","","","","","","","","","{""Q0"":""5""}","[0]","5","",""
"","null","html-keyboard-response","64","378378","0.0-19.0-0.0","SS1619740129499","","","null","","","","","","<p><img src= images/blank.png width =""600"" height = ""600"" style=""position:fixed;top:50%; left:50%; transform: translate(-50%, -50%); border:5px solid black"">","","","","","","","",""
"","1143","sequential-stimulus-presentation-old","65","394527","0.0-19.0-1.0","SS1619740129499","trial","","40","500","1643","images/stimuli/spore_stims/simple_14_A_b.gif","images/stimuli/spore_stims/simple_09_A_a.gif","forced_long","","5","simple_dissimilar","images/stimuli/spore_stims/simple_09_A_a.gif","","","","",""
"","null","html-keyboard-response","66","395685","0.0-19.0-0.1","SS1619740129499","","","null","","","","","","<p><img src= images/blank.png width =""600"" height = ""600"" style=""position:fixed;top:50%; left:50%; transform: translate(-50%, -50%); border:5px solid black"">","","","","","","","",""
"","1406","sequential-stimulus-presentation-old","67","397610","0.0-19.0-1.1","SS1619740129499","trial","","40","500","1906","images/stimuli/spore_stims/simple_14_A_b.gif","images/stimuli/spore_stims/simple_09_A_a.gif","forced_long","","5","simple_dissimilar","images/stimuli/spore_stims/simple_09_A_a.gif","","","","",""
"","null","html-keyboard-response","68","398725","0.0-19.0-0.2","SS1619740129499","","","null","","","","","","<p><img src= images/blank.png width =""600"" height = ""600"" style=""position:fixed;top:50%; left:50%; transform: translate(-50%, -50%); border:5px solid black"">","","","","","","","",""
"","5183","sequential-stimulus-presentation-old","69","404427","0.0-19.0-1.2","SS1619740129499","trial","","40","500","5683","images/stimuli/spore_stims/simple_14_A_b.gif","images/stimuli/spore_stims/simple_09_A_a.gif","forced_long","","5","simple_dissimilar","images/stimuli/spore_stims/simple_09_A_a.gif","","","","",""
"","null","html-keyboard-response","70","405684","0.0-19.0-0.3","SS1619740129499","","","null","","","","","","<p><img src= images/blank.png width =""600"" height = ""600"" style=""position:fixed;top:50%; left:50%; transform: translate(-50%, -50%); border:5px solid black"">","","","","","","","",""
"","2187","sequential-stimulus-presentation-old","71","408391","0.0-19.0-1.3","SS1619740129499","trial","","40","500","2687","images/stimuli/spore_stims/simple_14_A_b.gif","images/stimuli/spore_stims/simple_09_A_a.gif","forced_long","","5","simple_dissimilar","images/stimuli/spore_stims/simple_09_A_a.gif","","","","",""
"","null","html-keyboard-response","72","409324","0.0-19.0-0.4","SS1619740129499","","","null","","","","","","<p><img src= images/blank.png width =""600"" height = ""600"" style=""position:fixed;top:50%; left:50%; transform: translate(-50%, -50%); border:5px solid black"">","","","","","","","",""
"","1668","sequential-stimulus-presentation-old","73","411511","0.0-19.0-1.4","SS1619740129499","trial","","40","500","2168","images/stimuli/spore_stims/simple_14_A_b.gif","images/stimuli/spore_stims/simple_09_A_a.gif","forced_long","","5","simple_dissimilar","images/stimuli/spore_stims/simple_09_A_a.gif","","","","",""
"","2983","survey-multi-choice","74","414500","0.0-20.0","SS1619740129499","math_question","","","","","","","","","","","","{""Q0"":""7""}","[0]","7","",""
"","null","html-keyboard-response","75","415714","0.0-21.0-0.0","SS1619740129499","","","null","","","","","","<p><img src= images/blank.png width =""600"" height = ""600"" style=""position:fixed;top:50%; left:50%; transform: translate(-50%, -50%); border:5px solid black"">","","","","","","","",""
"","1053","sequential-stimulus-presentation-old","76","431777","0.0-21.0-1.0","SS1619740129499","trial","","40","500","1553","images/stimuli/spore_stims/complex_09_A_a.gif","images/stimuli/spore_stims/complex_15_A_b.gif","forced_long","","6","complex_dissimilar","images/stimuli/spore_stims/complex_15_A_b.gif","","","","",""
"","null","html-keyboard-response","77","433005","0.0-21.0-0.1","SS1619740129499","","","null","","","","","","<p><img src= images/blank.png width =""600"" height = ""600"" style=""position:fixed;top:50%; left:50%; transform: translate(-50%, -50%); border:5px solid black"">","","","","","","","",""
"","1813","sequential-stimulus-presentation-old","78","435338","0.0-21.0-1.1","SS1619740129499","trial","","40","500","2313","images/stimuli/spore_stims/complex_09_A_a.gif","images/stimuli/spore_stims/complex_15_A_b.gif","forced_long","","6","complex_dissimilar","images/stimuli/spore_stims/complex_15_A_b.gif","","","","",""
"","null","html-keyboard-response","79","436384","0.0-21.0-0.2","SS1619740129499","","","null","","","","","","<p><img src= images/blank.png width =""600"" height = ""600"" style=""position:fixed;top:50%; left:50%; transform: translate(-50%, -50%); border:5px solid black"">","","","","","","","",""
"","2193","sequential-stimulus-presentation-old","80","439097","0.0-21.0-1.2","SS1619740129499","trial","","40","500","2693","images/stimuli/spore_stims/complex_09_A_a.gif","images/stimuli/spore_stims/complex_15_A_b.gif","forced_long","","6","complex_dissimilar","images/stimuli/spore_stims/complex_15_A_b.gif","","","","",""
"","null","html-keyboard-response","81","440004","0.0-21.0-0.3","SS1619740129499","","","null","","","","","","<p><img src= images/blank.png width =""600"" height = ""600"" style=""position:fixed;top:50%; left:50%; transform: translate(-50%, -50%); border:5px solid black"">","","","","","","","",""
"","1697","sequential-stimulus-presentation-old","82","442222","0.0-21.0-1.3","SS1619740129499","trial","","40","500","2197","images/stimuli/spore_stims/complex_09_A_a.gif","images/stimuli/spore_stims/complex_15_A_b.gif","forced_long","","6","complex_dissimilar","images/stimuli/spore_stims/complex_15_A_b.gif","","","","",""
"","null","html-keyboard-response","83","443085","0.0-21.0-0.4","SS1619740129499","","","null","","","","","","<p><img src= images/blank.png width =""600"" height = ""600"" style=""position:fixed;top:50%; left:50%; transform: translate(-50%, -50%); border:5px solid black"">","","","","","","","",""
"","2082","sequential-stimulus-presentation-old","84","445685","0.0-21.0-1.4","SS1619740129499","trial","","40","500","2582","images/stimuli/spore_stims/complex_09_A_a.gif","images/stimuli/spore_stims/complex_15_A_b.gif","forced_long","","6","complex_dissimilar","images/stimuli/spore_stims/complex_15_A_b.gif","","","","",""
"","3421","survey-multi-choice","85","449111","0.0-22.0","SS1619740129499","math_question","","","","","","","","","","","","{""Q0"":""6""}","[0]","6","",""
"","null","html-keyboard-response","86","450244","0.0-23.0-0.0","SS1619740129499","","","null","","","","","","<p><img src= images/blank.png width =""600"" height = ""600"" style=""position:fixed;top:50%; left:50%; transform: translate(-50%, -50%); border:5px solid black"">","","","","","","","",""
"","2042","sequential-stimulus-presentation-old","87","452806","0.0-23.0-1.0","SS1619740129499","trial","","40","500","2542","images/stimuli/spore_stims/simple_17_A_b.gif","images/stimuli/spore_stims/simple_18_A_a.gif","forced_short","","7","simple_dissimilar","images/stimuli/spore_stims/simple_18_A_a.gif","","","","",""
"","null","html-keyboard-response","88","454074","0.0-23.0-0.1","SS1619740129499","","","null","","","","","","<p><img src= images/blank.png width =""600"" height = ""600"" style=""position:fixed;top:50%; left:50%; transform: translate(-50%, -50%); border:5px solid black"">","","","","","","","",""
"","3214","sequential-stimulus-presentation-old","89","457807","0.0-23.0-1.1","SS1619740129499","trial","","40","500","3714","images/stimuli/spore_stims/simple_17_A_b.gif","images/stimuli/spore_stims/simple_18_A_a.gif","forced_short","","7","simple_dissimilar","images/stimuli/spore_stims/simple_17_A_b.gif","","","","",""
"","null","html-keyboard-response","90","458734","0.0-23.0-0.2","SS1619740129499","","","null","","","","","","<p><img src= images/blank.png width =""600"" height = ""600"" style=""position:fixed;top:50%; left:50%; transform: translate(-50%, -50%); border:5px solid black"">","","","","","","","",""
"","3531","sequential-stimulus-presentation-old","91","462786","0.0-23.0-1.2","SS1619740129499","trial","","40","500","4031","images/stimuli/spore_stims/simple_17_A_b.gif","images/stimuli/spore_stims/simple_18_A_a.gif","forced_short","","7","simple_dissimilar","images/stimuli/spore_stims/simple_18_A_a.gif","","","","",""
"","null","html-keyboard-response","92","463884","0.0-23.0-0.3","SS1619740129499","","","null","","","","","","<p><img src= images/blank.png width =""600"" height = ""600"" style=""position:fixed;top:50%; left:50%; transform: translate(-50%, -50%); border:5px solid black"">","","","","","","","",""
"","4741","sequential-stimulus-presentation-old","93","469145","0.0-23.0-1.3","SS1619740129499","trial","","40","500","5241","images/stimuli/spore_stims/simple_17_A_b.gif","images/stimuli/spore_stims/simple_18_A_a.gif","forced_short","","7","simple_dissimilar","images/stimuli/spore_stims/simple_18_A_a.gif","","","","",""
"","4553","survey-multi-choice","94","473703","0.0-24.0","SS1619740129499","math_question","","","","","","","","","","","","{""Q0"":""12""}","[0]","12","",""
"","null","html-keyboard-response","95","474865","0.0-25.0-0.0","SS1619740129499","","","null","","","","","","<p><img src= images/blank.png width =""600"" height = ""600"" style=""position:fixed;top:50%; left:50%; transform: translate(-50%, -50%); border:5px solid black"">","","","","","","","",""
"","2790","sequential-stimulus-presentation-old","96","478164","0.0-25.0-1.0","SS1619740129499","trial","","40","500","3290","images/stimuli/spore_stims/simple_05_A_a.gif","images/stimuli/spore_stims/simple_12_A_b.gif","self_paced","","8","simple_dissimilar","images/stimuli/spore_stims/simple_12_A_b.gif","","","","",""
"","null","html-keyboard-response","97","479394","0.0-25.0-0.1","SS1619740129499","","","null","","","","","","<p><img src= images/blank.png width =""600"" height = ""600"" style=""position:fixed;top:50%; left:50%; transform: translate(-50%, -50%); border:5px solid black"">","","","","","","","",""
"","1881","sequential-stimulus-presentation-old","98","481796","0.0-25.0-1.1","SS1619740129499","trial","","40","500","2381","images/stimuli/spore_stims/simple_05_A_a.gif","images/stimuli/spore_stims/simple_12_A_b.gif","self_paced","","8","simple_dissimilar","images/stimuli/spore_stims/simple_12_A_b.gif","","","","",""
"","null","html-keyboard-response","99","482972","0.0-25.0-0.2","SS1619740129499","","","null","","","","","","<p><img src= images/blank.png width =""600"" height = ""600"" style=""position:fixed;top:50%; left:50%; transform: translate(-50%, -50%); border:5px solid black"">","","","","","","","",""
"","729","sequential-stimulus-presentation-old","100","484223","0.0-25.0-1.2","SS1619740129499","trial","","40","500","1229","images/stimuli/spore_stims/simple_05_A_a.gif","images/stimuli/spore_stims/simple_12_A_b.gif","self_paced","","8","simple_dissimilar","images/stimuli/spore_stims/simple_12_A_b.gif","","","","",""
"","null","html-keyboard-response","101","485215","0.0-25.0-0.3","SS1619740129499","","","null","","","","","","<p><img src= images/blank.png width =""600"" height = ""600"" style=""position:fixed;top:50%; left:50%; transform: translate(-50%, -50%); border:5px solid black"">","","","","","","","",""
"","1060","sequential-stimulus-presentation-old","102","486796","0.0-25.0-1.3","SS1619740129499","trial","","40","500","1560","images/stimuli/spore_stims/simple_05_A_a.gif","images/stimuli/spore_stims/simple_12_A_b.gif","self_paced","","8","simple_dissimilar","images/stimuli/spore_stims/simple_12_A_b.gif","","","","",""
"","null","html-keyboard-response","103","487714","0.0-25.0-0.4","SS1619740129499","","","null","","","","","","<p><img src= images/blank.png width =""600"" height = ""600"" style=""position:fixed;top:50%; left:50%; transform: translate(-50%, -50%); border:5px solid black"">","","","","","","","",""
"","1093","sequential-stimulus-presentation-old","104","489327","0.0-25.0-1.4","SS1619740129499","trial","","40","500","1593","images/stimuli/spore_stims/simple_05_A_a.gif","images/stimuli/spore_stims/simple_12_A_b.gif","self_paced","","8","simple_dissimilar","images/stimuli/spore_stims/simple_12_A_b.gif","","","","",""
"","null","html-keyboard-response","105","490285","0.0-25.0-0.5","SS1619740129499","","","null","","","","","","<p><img src= images/blank.png width =""600"" height = ""600"" style=""position:fixed;top:50%; left:50%; transform: translate(-50%, -50%); border:5px solid black"">","","","","","","","",""
"","1617","sequential-stimulus-presentation-old","106","492422","0.0-25.0-1.5","SS1619740129499","trial","","40","500","2117","images/stimuli/spore_stims/simple_05_A_a.gif","images/stimuli/spore_stims/simple_12_A_b.gif","self_paced","","8","simple_dissimilar","images/stimuli/spore_stims/simple_12_A_b.gif","","","","",""
"","2988","survey-multi-choice","107","495415","0.0-26.0","SS1619740129499","math_question","","","","","","","","","","","","{""Q0"":""14""}","[0]","14","",""
"","null","html-keyboard-response","108","496264","0.0-27.0-0.0","SS1619740129499","","","null","","","","","","<p><img src= images/blank.png width =""600"" height = ""600"" style=""position:fixed;top:50%; left:50%; transform: translate(-50%, -50%); border:5px solid black"">","","","","","","","",""
"","3220","sequential-stimulus-presentation-old","109","499994","0.0-27.0-1.0","SS1619740129499","trial","","40","500","3720","images/stimuli/spore_stims/simple_14_A_a.gif","images/stimuli/spore_stims/simple_06_A_b.gif","self_paced","","9","simple_dissimilar","images/stimuli/spore_stims/simple_06_A_b.gif","","","","",""
"","null","html-keyboard-response","110","500915","0.0-27.0-0.1","SS1619740129499","","","null","","","","","","<p><img src= images/blank.png width =""600"" height = ""600"" style=""position:fixed;top:50%; left:50%; transform: translate(-50%, -50%); border:5px solid black"">","","","","","","","",""
"","2057","sequential-stimulus-presentation-old","111","503491","0.0-27.0-1.1","SS1619740129499","trial","","40","500","2557","images/stimuli/spore_stims/simple_14_A_a.gif","images/stimuli/spore_stims/simple_06_A_b.gif","self_paced","","9","simple_dissimilar","images/stimuli/spore_stims/simple_06_A_b.gif","","","","",""
"","null","html-keyboard-response","112","504635","0.0-27.0-0.2","SS1619740129499","","","null","","","","","","<p><img src= images/blank.png width =""600"" height = ""600"" style=""position:fixed;top:50%; left:50%; transform: translate(-50%, -50%); border:5px solid black"">","","","","","","","",""
"","1815","sequential-stimulus-presentation-old","113","506969","0.0-27.0-1.2","SS1619740129499","trial","","40","500","2315","images/stimuli/spore_stims/simple_14_A_a.gif","images/stimuli/spore_stims/simple_06_A_b.gif","self_paced","","9","simple_dissimilar","images/stimuli/spore_stims/simple_14_A_a.gif","","","","",""
"","null","html-keyboard-response","114","507874","0.0-27.0-0.3","SS1619740129499","","","null","","","","","","<p><img src= images/blank.png width =""600"" height = ""600"" style=""position:fixed;top:50%; left:50%; transform: translate(-50%, -50%); border:5px solid black"">","","","","","","","",""
"","2398","sequential-stimulus-presentation-old","115","510793","0.0-27.0-1.3","SS1619740129499","trial","","40","500","2898","images/stimuli/spore_stims/simple_14_A_a.gif","images/stimuli/spore_stims/simple_06_A_b.gif","self_paced","","9","simple_dissimilar","images/stimuli/spore_stims/simple_06_A_b.gif","","","","",""
"","null","html-keyboard-response","116","511614","0.0-27.0-0.4","SS1619740129499","","","null","","","","","","<p><img src= images/blank.png width =""600"" height = ""600"" style=""position:fixed;top:50%; left:50%; transform: translate(-50%, -50%); border:5px solid black"">","","","","","","","",""
"","654","sequential-stimulus-presentation-old","117","512787","0.0-27.0-1.4","SS1619740129499","trial","","40","500","1154","images/stimuli/spore_stims/simple_14_A_a.gif","images/stimuli/spore_stims/simple_06_A_b.gif","self_paced","","9","simple_dissimilar","images/stimuli/spore_stims/simple_06_A_b.gif","","","","",""
"","null","html-keyboard-response","118","513674","0.0-27.0-0.5","SS1619740129499","","","null","","","","","","<p><img src= images/blank.png width =""600"" height = ""600"" style=""position:fixed;top:50%; left:50%; transform: translate(-50%, -50%); border:5px solid black"">","","","","","","","",""
"","2558","sequential-stimulus-presentation-old","119","516744","0.0-27.0-1.5","SS1619740129499","trial","","40","500","3058","images/stimuli/spore_stims/simple_14_A_a.gif","images/stimuli/spore_stims/simple_06_A_b.gif","self_paced","","9","simple_dissimilar","images/stimuli/spore_stims/simple_14_A_a.gif","","","","",""
"","3444","survey-multi-choice","120","520193","0.0-28.0","SS1619740129499","math_question","","","","","","","","","","","","{""Q0"":""10""}","[0]","10","",""
"","null","html-keyboard-response","121","521244","0.0-29.0-0.0","SS1619740129499","","","null","","","","","","<p><img src= images/blank.png width =""600"" height = ""600"" style=""position:fixed;top:50%; left:50%; transform: translate(-50%, -50%); border:5px solid black"">","","","","","","","",""
"","4019","sequential-stimulus-presentation-old","122","540284","0.0-29.0-1.0","SS1619740129499","trial","","40","500","4519","images/stimuli/spore_stims/complex_02_A_b.gif","images/stimuli/spore_stims/complex_07_A_a.gif","forced_long","","10","complex_dissimilar","images/stimuli/spore_stims/complex_07_A_a.gif","","","","",""
"","null","html-keyboard-response","123","541594","0.0-29.0-0.1","SS1619740129499","","","null","","","","","","<p><img src= images/blank.png width =""600"" height = ""600"" style=""position:fixed;top:50%; left:50%; transform: translate(-50%, -50%); border:5px solid black"">","","","","","","","",""
"","6450","sequential-stimulus-presentation-old","124","548564","0.0-29.0-1.1","SS1619740129499","trial","","40","500","6950","images/stimuli/spore_stims/complex_02_A_b.gif","images/stimuli/spore_stims/complex_07_A_a.gif","forced_long","","10","complex_dissimilar","images/stimuli/spore_stims/complex_02_A_b.gif","","","","",""
"","null","html-keyboard-response","125","549824","0.0-29.0-0.2","SS1619740129499","","","null","","","","","","<p><img src= images/blank.png width =""600"" height = ""600"" style=""position:fixed;top:50%; left:50%; transform: translate(-50%, -50%); border:5px solid black"">","","","","","","","",""
"","1547","sequential-stimulus-presentation-old","126","551881","0.0-29.0-1.2","SS1619740129499","trial","","40","500","2047","images/stimuli/spore_stims/complex_02_A_b.gif","images/stimuli/spore_stims/complex_07_A_a.gif","forced_long","","10","complex_dissimilar","images/stimuli/spore_stims/complex_07_A_a.gif","","","","",""
"","null","html-keyboard-response","127","553175","0.0-29.0-0.3","SS1619740129499","","","null","","","","","","<p><img src= images/blank.png width =""600"" height = ""600"" style=""position:fixed;top:50%; left:50%; transform: translate(-50%, -50%); border:5px solid black"">","","","","","","","",""
"","653","sequential-stimulus-presentation-old","128","554346","0.0-29.0-1.3","SS1619740129499","trial","","40","500","1153","images/stimuli/spore_stims/complex_02_A_b.gif","images/stimuli/spore_stims/complex_07_A_a.gif","forced_long","","10","complex_dissimilar","images/stimuli/spore_stims/complex_07_A_a.gif","","","","",""
"","null","html-keyboard-response","129","555454","0.0-29.0-0.4","SS1619740129499","","","null","","","","","","<p><img src= images/blank.png width =""600"" height = ""600"" style=""position:fixed;top:50%; left:50%; transform: translate(-50%, -50%); border:5px solid black"">","","","","","","","",""
"","671","sequential-stimulus-presentation-old","130","556646","0.0-29.0-1.4","SS1619740129499","trial","","40","500","1171","images/stimuli/spore_stims/complex_02_A_b.gif","images/stimuli/spore_stims/complex_07_A_a.gif","forced_long","","10","complex_dissimilar","images/stimuli/spore_stims/complex_07_A_a.gif","","","","",""
"","4008","survey-multi-choice","131","560659","0.0-30.0","SS1619740129499","math_question","","","","","","","","","","","","{""Q0"":""12""}","[0]","12","",""
"","null","html-keyboard-response","132","561584","0.0-31.0-0.0","SS1619740129499","","","null","","","","","","<p><img src= images/blank.png width =""600"" height = ""600"" style=""position:fixed;top:50%; left:50%; transform: translate(-50%, -50%); border:5px solid black"">","","","","","","","",""
"","2781","sequential-stimulus-presentation-old","133","564885","0.0-31.0-1.0","SS1619740129499","trial","","40","500","3281","images/stimuli/spore_stims/complex_01_A_b.gif","images/stimuli/spore_stims/complex_13_A_a.gif","forced_short","","11","complex_dissimilar","images/stimuli/spore_stims/complex_13_A_a.gif","","","","",""
"","null","html-keyboard-response","134","566084","0.0-31.0-0.1","SS1619740129499","","","null","","","","","","<p><img src= images/blank.png width =""600"" height = ""600"" style=""position:fixed;top:50%; left:50%; transform: translate(-50%, -50%); border:5px solid black"">","","","","","","","",""
"","4956","sequential-stimulus-presentation-old","135","571561","0.0-31.0-1.1","SS1619740129499","trial","","40","500","5456","images/stimuli/spore_stims/complex_01_A_b.gif","images/stimuli/spore_stims/complex_13_A_a.gif","forced_short","","11","complex_dissimilar","images/stimuli/spore_stims/complex_13_A_a.gif","","","","",""
"","null","html-keyboard-response","136","572566","0.0-31.0-0.2","SS1619740129499","","","null","","","","","","<p><img src= images/blank.png width =""600"" height = ""600"" style=""position:fixed;top:50%; left:50%; transform: translate(-50%, -50%); border:5px solid black"">","","","","","","","",""
"","3805","sequential-stimulus-presentation-old","137","576889","0.0-31.0-1.2","SS1619740129499","trial","","40","500","4305","images/stimuli/spore_stims/complex_01_A_b.gif","images/stimuli/spore_stims/complex_13_A_a.gif","forced_short","","11","complex_dissimilar","images/stimuli/spore_stims/complex_13_A_a.gif","","","","",""
"","null","html-keyboard-response","138","577834","0.0-31.0-0.3","SS1619740129499","","","null","","","","","","<p><img src= images/blank.png width =""600"" height = ""600"" style=""position:fixed;top:50%; left:50%; transform: translate(-50%, -50%); border:5px solid black"">","","","","","","","",""
"","3884","sequential-stimulus-presentation-old","139","582237","0.0-31.0-1.3","SS1619740129499","trial","","40","500","4384","images/stimuli/spore_stims/complex_01_A_b.gif","images/stimuli/spore_stims/complex_13_A_a.gif","forced_short","","11","complex_dissimilar","images/stimuli/spore_stims/complex_13_A_a.gif","","","","",""
"","null","html-keyboard-response","140","583555","0.0-31.0-0.4","SS1619740129499","","","null","","","","","","<p><img src= images/blank.png width =""600"" height = ""600"" style=""position:fixed;top:50%; left:50%; transform: translate(-50%, -50%); border:5px solid black"">","","","","","","","",""
"","1106","sequential-stimulus-presentation-old","141","585180","0.0-31.0-1.4","SS1619740129499","trial","","40","500","1606","images/stimuli/spore_stims/complex_01_A_b.gif","images/stimuli/spore_stims/complex_13_A_a.gif","forced_short","","11","complex_dissimilar","images/stimuli/spore_stims/complex_13_A_a.gif","","","","",""
"[{""page_index"":0,""viewing_time"":6376}]","6376","instructions","142","591562","0.0-32.0","SS1619740129499","instructions","","","","","","","","","","","","","","","",""
"","16617","survey-likert","143","608188","0.0-33.0","SS1619740129499","similarity_question","","","","","","","","","","","","{""Q0"":1}","[0]","","images/stimuli/spore_stims/complex_10_A_b.gif","images/stimuli/spore_stims/complex_14_A_a.gif"
"","6115","survey-likert","144","614312","0.0-34.0","SS1619740129499","similarity_question","","","","","","","","","","","","{""Q0"":5}","[0]","","images/stimuli/spore_stims/simple_05_A_a.gif","images/stimuli/spore_stims/simple_12_A_b.gif"
"","14979","survey-likert","145","629300","0.0-35.0","SS1619740129499","similarity_question","","","","","","","","","","","","{""Q0"":2}","[0]","","images/stimuli/spore_stims/simple_18_A_a.gif","images/stimuli/spore_stims/simple_17_A_b.gif"
"","3788","survey-likert","146","633097","0.0-36.0","SS1619740129499","similarity_question","","","","","","","","","","","","{""Q0"":4}","[0]","","images/stimuli/spore_stims/simple_20_A_a.gif","images/stimuli/spore_stims/simple_10_A_b.gif"
"","4793","survey-likert","147","637899","0.0-37.0","SS1619740129499","similarity_question","","","","","","","","","","","","{""Q0"":4}","[0]","","images/stimuli/spore_stims/simple_09_A_a.gif","images/stimuli/spore_stims/simple_14_A_b.gif"
"","3241","survey-likert","148","641150","0.0-38.0","SS1619740129499","similarity_question","","","","","","","","","","","","{""Q0"":2}","[0]","","images/stimuli/spore_stims/simple_13_A_b.gif","images/stimuli/spore_stims/simple_19_A_a.gif"
"","3819","survey-likert","149","644978","0.0-39.0","SS1619740129499","similarity_question","","","","","","","","","","","","{""Q0"":4}","[0]","","images/stimuli/spore_stims/simple_06_A_b.gif","images/stimuli/spore_stims/simple_14_A_a.gif"
"","5743","survey-likert","150","650729","0.0-40.0","SS1619740129499","similarity_question","","","","","","","","","","","","{""Q0"":1}","[0]","","images/stimuli/spore_stims/complex_09_A_a.gif","images/stimuli/spore_stims/complex_15_A_b.gif"
"","7456","survey-likert","151","658196","0.0-41.0","SS1619740129499","similarity_question","","","","","","","","","","","","{""Q0"":1}","[0]","","images/stimuli/spore_stims/complex_07_A_b.gif","images/stimuli/spore_stims/complex_06_A_a.gif"
"","3663","survey-likert","152","661868","0.0-42.0","SS1619740129499","similarity_question","","","","","","","","","","","","{""Q0"":1}","[0]","","images/stimuli/spore_stims/complex_07_A_a.gif","images/stimuli/spore_stims/complex_02_A_b.gif"
"","5255","survey-likert","153","667132","0.0-43.0","SS1619740129499","similarity_question","","","","","","","","","","","","{""Q0"":1}","[0]","","images/stimuli/spore_stims/complex_17_A_a.gif","images/stimuli/spore_stims/complex_20_A_b.gif"
"","6980","survey-likert","154","674120","0.0-44.0","SS1619740129499","similarity_question","","","","","","","","","","","","{""Q0"":0}","[0]","","images/stimuli/spore_stims/complex_13_A_a.gif","images/stimuli/spore_stims/complex_01_A_b.gif"
"[{""page_index"":0,""viewing_time"":6937}]","6937","instructions","155","681065","0.0-45.0","SS1619740129499","instructions","","","","","","","","","","","","","","","",""
"","7030","survey-likert","156","688103","0.0-46.0","SS1619740129499","","","","","","","","","images/stimuli/spore_stims/simple_19_A_a.gif","","","","{""Q0"":1}","[0]","","",""
"","3573","survey-likert","157","691686","0.0-47.0","SS1619740129499","","","","","","","","","images/stimuli/spore_stims/simple_14_A_a.gif","","","","{""Q0"":1}","[0]","","",""
"","5726","survey-likert","158","697420","0.0-48.0","SS1619740129499","","","","","","","","","images/stimuli/spore_stims/complex_10_A_b.gif","","","","{""Q0"":4}","[0]","","",""
"","3556","survey-likert","159","700984","0.0-49.0","SS1619740129499","","","","","","","","","images/stimuli/spore_stims/complex_15_A_b.gif","","","","{""Q0"":4}","[0]","","",""
"","3533","survey-likert","160","704526","0.0-50.0","SS1619740129499","","","","","","","","","images/stimuli/spore_stims/complex_13_A_a.gif","","","","{""Q0"":4}","[0]","","",""
"","2603","survey-likert","161","707138","0.0-51.0","SS1619740129499","","","","","","","","","images/stimuli/spore_stims/simple_14_A_b.gif","","","","{""Q0"":1}","[0]","","",""
"","5028","survey-likert","162","712174","0.0-52.0","SS1619740129499","","","","","","","","","images/stimuli/spore_stims/complex_20_A_b.gif","","","","{""Q0"":5}","[0]","","",""
"","2166","survey-likert","163","714349","0.0-53.0","SS1619740129499","","","","","","","","","images/stimuli/spore_stims/simple_12_A_b.gif","","","","{""Q0"":1}","[0]","","",""
"","2359","survey-likert","164","716718","0.0-54.0","SS1619740129499","","","","","","","","","images/stimuli/spore_stims/simple_10_A_b.gif","","","","{""Q0"":0}","[0]","","",""
"","5279","survey-likert","165","722008","0.0-55.0","SS1619740129499","","","","","","","","","images/stimuli/spore_stims/complex_07_A_a.gif","","","","{""Q0"":5}","[0]","","",""
"","3960","survey-likert","166","725978","0.0-56.0","SS1619740129499","","","","","","","","","images/stimuli/spore_stims/complex_07_A_b.gif","","","","{""Q0"":5}","[0]","","",""
"","3889","survey-likert","167","729877","0.0-57.0","SS1619740129499","","","","","","","","","images/stimuli/spore_stims/simple_18_A_a.gif","","","","{""Q0"":1}","[0]","","",""
"[{""page_index"":0,""viewing_time"":2774}]","2774","instructions","168","732658","0.0-58.0","SS1619740129499","instructions","","","","","","","","","","","","","","","",""
"","4690","demog-age","169","737360","0.0-59.0","SS1619740129499","","","","","","","","","","","","","{""age"":""27""}","","","",""
"","2551","demog-ethnic-US","170","739927","0.0-60.0","SS1619740129499","","","","","","","","","","","","","{""ethnicity"":[""Hispanic or Latino""]}","[0]","","",""
"","10853","demog-gender-and-education","171","750790","0.0-61.0","SS1619740129499","","","","","","","","","","","","","{""gender"":""Male"",""education"":""High school diploma""}","[0,1]","","",""
"","36457","survey-text","172","787259","0.0-62.0","SS1619740129499","feedback","","","","","","","","","","","","{""Q0"":""I had no problems, everything went well.""}","","","",""
"[{""page_index"":0,""viewing_time"":2750}]","2751","instructions","173","790017","0.0-63.0","SS1619740129499","instructions","","","","","","","","","","","","","","","",""
