"view_history","rt","trial_type","trial_index","time_elapsed","internal_node_id","subject","stimulus_type","trial_stimulus","key_press","minimum_viewing_duration","trial_looking_time","block_deviant","block_background","exposure_type","stimulus","block_number","block_type","stimulus_displayed","responses","question_order","math_correct_answer","stimulus_left","stimulus_right"
"[{""page_index"":0,""viewing_time"":147051.92999984138}]","147052.2649998311","instructions","0","147053","0.0-0.0","SS1619740020203","","","","","","","","","","","","","","","","",""
"[{""page_index"":0,""viewing_time"":15950.50000003539},{""page_index"":1,""viewing_time"":8195.98999992013}]","24146.695000119507","instructions","1","173204","0.0-1.0","SS1619740020203","instructions","","","","","","","","","","","","","","","",""
"","7436.414999887347","sequential-stimulus-presentation-old","2","181144","0.0-2.0","SS1619740020203","","","40","500","7936.414999887347","null","null","self_paced","","","","","","","","",""
"","4610.145000042394","sequential-stimulus-presentation-old","3","186255","0.0-3.0","SS1619740020203","","","40","500","5110.145000042394","null","null","self_paced","","","","","","","","",""
"[{""page_index"":0,""viewing_time"":16402.42000017315}]","16402.645000023767","instructions","4","202659","0.0-4.0","SS1619740020203","instructions","","","","","","","","","","","","","","","",""
"","394.5599999278784","sequential-stimulus-presentation-old","5","218055","0.0-5.0","SS1619740020203","","","40","500","894.5599999278784","null","null","forced_long","","","","","","","","",""
"","766.3500001654029","sequential-stimulus-presentation-old","6","219335","0.0-6.0","SS1619740020203","","","40","500","1266.350000165403","null","null","forced_long","","","","","","","","",""
"[{""page_index"":0,""viewing_time"":8725.564999971539}]","8725.77999997884","instructions","7","228061","0.0-7.0","SS1619740020203","instructions","","","","","","","","","","","","","","","",""
"[{""page_index"":0,""viewing_time"":8802.69500007853},{""page_index"":1,""viewing_time"":8720.089999958873},{""page_index"":2,""viewing_time"":4145.915000000969},{""page_index"":3,""viewing_time"":1136.9300000369549},{""page_index"":4,""viewing_time"":949.9299998860806}]","23755.765000125393","instructions","8","251818","0.0-8.0","SS1619740020203","instructions","","","","","","","","","","","","","","","",""
"","null","html-keyboard-response","9","252954","0.0-9.0-0.0","SS1619740020203","","","null","","","","","","<p><img src= images/blank.png width =""600"" height = ""600"" style=""position:fixed;top:50%; left:50%; transform: translate(-50%, -50%); border:5px solid black"">","","","","","","","",""
"","454.630000051111","sequential-stimulus-presentation-old","10","268416","0.0-9.0-1.0","SS1619740020203","trial","","40","500","954.630000051111","images/stimuli/spore_stims/complex_14_A_b.gif","images/stimuli/spore_stims/complex_18_A_a.gif","forced_long","","0","complex_dissimilar","images/stimuli/spore_stims/complex_18_A_a.gif","","","","",""
"","null","html-keyboard-response","11","269699","0.0-9.0-0.1","SS1619740020203","","","null","","","","","","<p><img src= images/blank.png width =""600"" height = ""600"" style=""position:fixed;top:50%; left:50%; transform: translate(-50%, -50%); border:5px solid black"">","","","","","","","",""
"","988.8450000435114","sequential-stimulus-presentation-old","12","271191","0.0-9.0-1.1","SS1619740020203","trial","","40","500","1488.8450000435114","images/stimuli/spore_stims/complex_14_A_b.gif","images/stimuli/spore_stims/complex_18_A_a.gif","forced_long","","0","complex_dissimilar","images/stimuli/spore_stims/complex_18_A_a.gif","","","","",""
"","null","html-keyboard-response","13","272197","0.0-9.0-0.2","SS1619740020203","","","null","","","","","","<p><img src= images/blank.png width =""600"" height = ""600"" style=""position:fixed;top:50%; left:50%; transform: translate(-50%, -50%); border:5px solid black"">","","","","","","","",""
"","2251.6600000672042","sequential-stimulus-presentation-old","14","274951","0.0-9.0-1.2","SS1619740020203","trial","","40","500","2751.6600000672042","images/stimuli/spore_stims/complex_14_A_b.gif","images/stimuli/spore_stims/complex_18_A_a.gif","forced_long","","0","complex_dissimilar","images/stimuli/spore_stims/complex_14_A_b.gif","","","","",""
"","null","html-keyboard-response","15","276010","0.0-9.0-0.3","SS1619740020203","","","null","","","","","","<p><img src= images/blank.png width =""600"" height = ""600"" style=""position:fixed;top:50%; left:50%; transform: translate(-50%, -50%); border:5px solid black"">","","","","","","","",""
"","10558.974999934435","sequential-stimulus-presentation-old","16","287072","0.0-9.0-1.3","SS1619740020203","trial","","40","500","11058.974999934435","images/stimuli/spore_stims/complex_14_A_b.gif","images/stimuli/spore_stims/complex_18_A_a.gif","forced_long","","0","complex_dissimilar","images/stimuli/spore_stims/complex_14_A_b.gif","","","","",""
"","null","html-keyboard-response","17","288024","0.0-9.0-0.4","SS1619740020203","","","null","","","","","","<p><img src= images/blank.png width =""600"" height = ""600"" style=""position:fixed;top:50%; left:50%; transform: translate(-50%, -50%); border:5px solid black"">","","","","","","","",""
"","222.8200000245124","sequential-stimulus-presentation-old","18","288751","0.0-9.0-1.4","SS1619740020203","trial","","40","500","722.8200000245124","images/stimuli/spore_stims/complex_14_A_b.gif","images/stimuli/spore_stims/complex_18_A_a.gif","forced_long","","0","complex_dissimilar","images/stimuli/spore_stims/complex_18_A_a.gif","","","","",""
"","null","html-keyboard-response","19","289899","0.0-9.0-0.5","SS1619740020203","","","null","","","","","","<p><img src= images/blank.png width =""600"" height = ""600"" style=""position:fixed;top:50%; left:50%; transform: translate(-50%, -50%); border:5px solid black"">","","","","","","","",""
"","430.1150001119822","sequential-stimulus-presentation-old","20","290847","0.0-9.0-1.5","SS1619740020203","trial","","40","500","930.1150001119822","images/stimuli/spore_stims/complex_14_A_b.gif","images/stimuli/spore_stims/complex_18_A_a.gif","forced_long","","0","complex_dissimilar","images/stimuli/spore_stims/complex_18_A_a.gif","","","","",""
"","3966.789999976754","survey-multi-choice","21","294816","0.0-10.0","SS1619740020203","math_question","","","","","","","","","","","","{""Q0"":""7""}","[0]","7","",""
"","null","html-keyboard-response","22","296047","0.0-11.0-0.0","SS1619740020203","","","null","","","","","","<p><img src= images/blank.png width =""600"" height = ""600"" style=""position:fixed;top:50%; left:50%; transform: translate(-50%, -50%); border:5px solid black"">","","","","","","","",""
"","4685.829999856651","sequential-stimulus-presentation-old","23","301247","0.0-11.0-1.0","SS1619740020203","trial","","40","500","5185.829999856651","images/stimuli/spore_stims/simple_18_A_b.gif","images/stimuli/spore_stims/simple_01_A_a.gif","self_paced","","1","simple_dissimilar","images/stimuli/spore_stims/simple_01_A_a.gif","","","","",""
"","null","html-keyboard-response","24","302073","0.0-11.0-0.1","SS1619740020203","","","null","","","","","","<p><img src= images/blank.png width =""600"" height = ""600"" style=""position:fixed;top:50%; left:50%; transform: translate(-50%, -50%); border:5px solid black"">","","","","","","","",""
"","2155.5800000205636","sequential-stimulus-presentation-old","25","304735","0.0-11.0-1.1","SS1619740020203","trial","","40","500","2655.5800000205636","images/stimuli/spore_stims/simple_18_A_b.gif","images/stimuli/spore_stims/simple_01_A_a.gif","self_paced","","1","simple_dissimilar","images/stimuli/spore_stims/simple_18_A_b.gif","","","","",""
"","null","html-keyboard-response","26","305814","0.0-11.0-0.2","SS1619740020203","","","null","","","","","","<p><img src= images/blank.png width =""600"" height = ""600"" style=""position:fixed;top:50%; left:50%; transform: translate(-50%, -50%); border:5px solid black"">","","","","","","","",""
"","1297.3950000014156","sequential-stimulus-presentation-old","27","307615","0.0-11.0-1.2","SS1619740020203","trial","","40","500","1797.3950000014156","images/stimuli/spore_stims/simple_18_A_b.gif","images/stimuli/spore_stims/simple_01_A_a.gif","self_paced","","1","simple_dissimilar","images/stimuli/spore_stims/simple_01_A_a.gif","","","","",""
"","null","html-keyboard-response","28","308623","0.0-11.0-0.3","SS1619740020203","","","null","","","","","","<p><img src= images/blank.png width =""600"" height = ""600"" style=""position:fixed;top:50%; left:50%; transform: translate(-50%, -50%); border:5px solid black"">","","","","","","","",""
"","364.56999997608364","sequential-stimulus-presentation-old","29","309503","0.0-11.0-1.3","SS1619740020203","trial","","40","500","864.5699999760836","images/stimuli/spore_stims/simple_18_A_b.gif","images/stimuli/spore_stims/simple_01_A_a.gif","self_paced","","1","simple_dissimilar","images/stimuli/spore_stims/simple_01_A_a.gif","","","","",""
"","null","html-keyboard-response","30","310554","0.0-11.0-0.4","SS1619740020203","","","null","","","","","","<p><img src= images/blank.png width =""600"" height = ""600"" style=""position:fixed;top:50%; left:50%; transform: translate(-50%, -50%); border:5px solid black"">","","","","","","","",""
"","435.00999989919364","sequential-stimulus-presentation-old","31","311503","0.0-11.0-1.4","SS1619740020203","trial","","40","500","935.0099998991936","images/stimuli/spore_stims/simple_18_A_b.gif","images/stimuli/spore_stims/simple_01_A_a.gif","self_paced","","1","simple_dissimilar","images/stimuli/spore_stims/simple_18_A_b.gif","","","","",""
"","null","html-keyboard-response","32","312362","0.0-11.0-0.5","SS1619740020203","","","null","","","","","","<p><img src= images/blank.png width =""600"" height = ""600"" style=""position:fixed;top:50%; left:50%; transform: translate(-50%, -50%); border:5px solid black"">","","","","","","","",""
"","276.12499985843897","sequential-stimulus-presentation-old","33","313143","0.0-11.0-1.5","SS1619740020203","trial","","40","500","776.124999858439","images/stimuli/spore_stims/simple_18_A_b.gif","images/stimuli/spore_stims/simple_01_A_a.gif","self_paced","","1","simple_dissimilar","images/stimuli/spore_stims/simple_01_A_a.gif","","","","",""
"","2455.3449999075383","survey-multi-choice","34","315601","0.0-12.0","SS1619740020203","math_question","","","","","","","","","","","","{""Q0"":""9""}","[0]","9","",""
"","null","html-keyboard-response","35","316423","0.0-13.0-0.0","SS1619740020203","","","null","","","","","","<p><img src= images/blank.png width =""600"" height = ""600"" style=""position:fixed;top:50%; left:50%; transform: translate(-50%, -50%); border:5px solid black"">","","","","","","","",""
"","476.4849999919534","sequential-stimulus-presentation-old","36","331903","0.0-13.0-1.0","SS1619740020203","trial","","40","500","976.4849999919534","images/stimuli/spore_stims/simple_03_A_a.gif","images/stimuli/spore_stims/simple_14_A_b.gif","forced_long","","2","simple_dissimilar","images/stimuli/spore_stims/simple_14_A_b.gif","","","","",""
"","null","html-keyboard-response","37","332801","0.0-13.0-0.1","SS1619740020203","","","null","","","","","","<p><img src= images/blank.png width =""600"" height = ""600"" style=""position:fixed;top:50%; left:50%; transform: translate(-50%, -50%); border:5px solid black"">","","","","","","","",""
"","149.3500000797212","sequential-stimulus-presentation-old","38","333463","0.0-13.0-1.1","SS1619740020203","trial","","40","500","649.3500000797212","images/stimuli/spore_stims/simple_03_A_a.gif","images/stimuli/spore_stims/simple_14_A_b.gif","forced_long","","2","simple_dissimilar","images/stimuli/spore_stims/simple_14_A_b.gif","","","","",""
"","null","html-keyboard-response","39","334735","0.0-13.0-0.2","SS1619740020203","","","null","","","","","","<p><img src= images/blank.png width =""600"" height = ""600"" style=""position:fixed;top:50%; left:50%; transform: translate(-50%, -50%); border:5px solid black"">","","","","","","","",""
"","374.11500001326203","sequential-stimulus-presentation-old","40","335623","0.0-13.0-1.2","SS1619740020203","trial","","40","500","874.115000013262","images/stimuli/spore_stims/simple_03_A_a.gif","images/stimuli/spore_stims/simple_14_A_b.gif","forced_long","","2","simple_dissimilar","images/stimuli/spore_stims/simple_14_A_b.gif","","","","",""
"","null","html-keyboard-response","41","336791","0.0-13.0-0.3","SS1619740020203","","","null","","","","","","<p><img src= images/blank.png width =""600"" height = ""600"" style=""position:fixed;top:50%; left:50%; transform: translate(-50%, -50%); border:5px solid black"">","","","","","","","",""
"","86.61999995820224","sequential-stimulus-presentation-old","42","337390","0.0-13.0-1.3","SS1619740020203","trial","","40","500","586.6199999582022","images/stimuli/spore_stims/simple_03_A_a.gif","images/stimuli/spore_stims/simple_14_A_b.gif","forced_long","","2","simple_dissimilar","images/stimuli/spore_stims/simple_14_A_b.gif","","","","",""
"","null","html-keyboard-response","43","338589","0.0-13.0-0.4","SS1619740020203","","","null","","","","","","<p><img src= images/blank.png width =""600"" height = ""600"" style=""position:fixed;top:50%; left:50%; transform: translate(-50%, -50%); border:5px solid black"">","","","","","","","",""
"","793.4799999929965","sequential-stimulus-presentation-old","44","339887","0.0-13.0-1.4","SS1619740020203","trial","","40","500","1293.4799999929965","images/stimuli/spore_stims/simple_03_A_a.gif","images/stimuli/spore_stims/simple_14_A_b.gif","forced_long","","2","simple_dissimilar","images/stimuli/spore_stims/simple_03_A_a.gif","","","","",""
"","6109.64999999851","survey-multi-choice","45","345999","0.0-14.0","SS1619740020203","math_question","","","","","","","","","","","","{""Q0"":""16""}","[0]","16","",""
"","null","html-keyboard-response","46","347180","0.0-15.0-0.0","SS1619740020203","","","null","","","","","","<p><img src= images/blank.png width =""600"" height = ""600"" style=""position:fixed;top:50%; left:50%; transform: translate(-50%, -50%); border:5px solid black"">","","","","","","","",""
"","665.6700000166893","sequential-stimulus-presentation-old","47","348351","0.0-15.0-1.0","SS1619740020203","trial","","40","500","1165.6700000166893","images/stimuli/spore_stims/complex_09_A_a.gif","images/stimuli/spore_stims/complex_17_A_b.gif","forced_short","","3","complex_dissimilar","images/stimuli/spore_stims/complex_17_A_b.gif","","","","",""
"","null","html-keyboard-response","48","349606","0.0-15.0-0.1","SS1619740020203","","","null","","","","","","<p><img src= images/blank.png width =""600"" height = ""600"" style=""position:fixed;top:50%; left:50%; transform: translate(-50%, -50%); border:5px solid black"">","","","","","","","",""
"","1408.5250000935048","sequential-stimulus-presentation-old","49","351526","0.0-15.0-1.1","SS1619740020203","trial","","40","500","1908.5250000935048","images/stimuli/spore_stims/complex_09_A_a.gif","images/stimuli/spore_stims/complex_17_A_b.gif","forced_short","","3","complex_dissimilar","images/stimuli/spore_stims/complex_17_A_b.gif","","","","",""
"","null","html-keyboard-response","50","352486","0.0-15.0-0.2","SS1619740020203","","","null","","","","","","<p><img src= images/blank.png width =""600"" height = ""600"" style=""position:fixed;top:50%; left:50%; transform: translate(-50%, -50%); border:5px solid black"">","","","","","","","",""
"","318.544999929145","sequential-stimulus-presentation-old","51","353310","0.0-15.0-1.2","SS1619740020203","trial","","40","500","818.544999929145","images/stimuli/spore_stims/complex_09_A_a.gif","images/stimuli/spore_stims/complex_17_A_b.gif","forced_short","","3","complex_dissimilar","images/stimuli/spore_stims/complex_17_A_b.gif","","","","",""
"","null","html-keyboard-response","52","354617","0.0-15.0-0.3","SS1619740020203","","","null","","","","","","<p><img src= images/blank.png width =""600"" height = ""600"" style=""position:fixed;top:50%; left:50%; transform: translate(-50%, -50%); border:5px solid black"">","","","","","","","",""
"","48.06499998085201","sequential-stimulus-presentation-old","53","355183","0.0-15.0-1.3","SS1619740020203","trial","","40","500","548.064999980852","images/stimuli/spore_stims/complex_09_A_a.gif","images/stimuli/spore_stims/complex_17_A_b.gif","forced_short","","3","complex_dissimilar","images/stimuli/spore_stims/complex_17_A_b.gif","","","","",""
"","null","html-keyboard-response","54","356485","0.0-15.0-0.4","SS1619740020203","","","null","","","","","","<p><img src= images/blank.png width =""600"" height = ""600"" style=""position:fixed;top:50%; left:50%; transform: translate(-50%, -50%); border:5px solid black"">","","","","","","","",""
"","991.5599999949336","sequential-stimulus-presentation-old","55","357991","0.0-15.0-1.4","SS1619740020203","trial","","40","500","1491.5599999949336","images/stimuli/spore_stims/complex_09_A_a.gif","images/stimuli/spore_stims/complex_17_A_b.gif","forced_short","","3","complex_dissimilar","images/stimuli/spore_stims/complex_17_A_b.gif","","","","",""
"","null","html-keyboard-response","56","359290","0.0-15.0-0.5","SS1619740020203","","","null","","","","","","<p><img src= images/blank.png width =""600"" height = ""600"" style=""position:fixed;top:50%; left:50%; transform: translate(-50%, -50%); border:5px solid black"">","","","","","","","",""
"","1137.9500001203269","sequential-stimulus-presentation-old","57","360943","0.0-15.0-1.5","SS1619740020203","trial","","40","500","1637.9500001203269","images/stimuli/spore_stims/complex_09_A_a.gif","images/stimuli/spore_stims/complex_17_A_b.gif","forced_short","","3","complex_dissimilar","images/stimuli/spore_stims/complex_17_A_b.gif","","","","",""
"","3662.9200000315905","survey-multi-choice","58","364609","0.0-16.0","SS1619740020203","math_question","","","","","","","","","","","","{""Q0"":""12""}","[0]","12","",""
"","null","html-keyboard-response","59","365783","0.0-17.0-0.0","SS1619740020203","","","null","","","","","","<p><img src= images/blank.png width =""600"" height = ""600"" style=""position:fixed;top:50%; left:50%; transform: translate(-50%, -50%); border:5px solid black"">","","","","","","","",""
"","1743.239999981597","sequential-stimulus-presentation-old","60","368031","0.0-17.0-1.0","SS1619740020203","trial","","40","500","2243.239999981597","images/stimuli/spore_stims/simple_02_A_b.gif","images/stimuli/spore_stims/simple_15_A_a.gif","forced_short","","4","simple_dissimilar","images/stimuli/spore_stims/simple_15_A_a.gif","","","","",""
"","null","html-keyboard-response","61","369195","0.0-17.0-0.1","SS1619740020203","","","null","","","","","","<p><img src= images/blank.png width =""600"" height = ""600"" style=""position:fixed;top:50%; left:50%; transform: translate(-50%, -50%); border:5px solid black"">","","","","","","","",""
"","859.5499999355525","sequential-stimulus-presentation-old","62","370559","0.0-17.0-1.1","SS1619740020203","trial","","40","500","1359.5499999355525","images/stimuli/spore_stims/simple_02_A_b.gif","images/stimuli/spore_stims/simple_15_A_a.gif","forced_short","","4","simple_dissimilar","images/stimuli/spore_stims/simple_15_A_a.gif","","","","",""
"","null","html-keyboard-response","63","371466","0.0-17.0-0.2","SS1619740020203","","","null","","","","","","<p><img src= images/blank.png width =""600"" height = ""600"" style=""position:fixed;top:50%; left:50%; transform: translate(-50%, -50%); border:5px solid black"">","","","","","","","",""
"","708.0149999819696","sequential-stimulus-presentation-old","64","372678","0.0-17.0-1.2","SS1619740020203","trial","","40","500","1208.0149999819696","images/stimuli/spore_stims/simple_02_A_b.gif","images/stimuli/spore_stims/simple_15_A_a.gif","forced_short","","4","simple_dissimilar","images/stimuli/spore_stims/simple_15_A_a.gif","","","","",""
"","null","html-keyboard-response","65","373548","0.0-17.0-0.3","SS1619740020203","","","null","","","","","","<p><img src= images/blank.png width =""600"" height = ""600"" style=""position:fixed;top:50%; left:50%; transform: translate(-50%, -50%); border:5px solid black"">","","","","","","","",""
"","632.1600000374019","sequential-stimulus-presentation-old","66","374695","0.0-17.0-1.3","SS1619740020203","trial","","40","500","1132.160000037402","images/stimuli/spore_stims/simple_02_A_b.gif","images/stimuli/spore_stims/simple_15_A_a.gif","forced_short","","4","simple_dissimilar","images/stimuli/spore_stims/simple_15_A_a.gif","","","","",""
"","null","html-keyboard-response","67","375836","0.0-17.0-0.4","SS1619740020203","","","null","","","","","","<p><img src= images/blank.png width =""600"" height = ""600"" style=""position:fixed;top:50%; left:50%; transform: translate(-50%, -50%); border:5px solid black"">","","","","","","","",""
"","743.6299999244511","sequential-stimulus-presentation-old","68","377095","0.0-17.0-1.4","SS1619740020203","trial","","40","500","1243.629999924451","images/stimuli/spore_stims/simple_02_A_b.gif","images/stimuli/spore_stims/simple_15_A_a.gif","forced_short","","4","simple_dissimilar","images/stimuli/spore_stims/simple_15_A_a.gif","","","","",""
"","2579.260000027716","survey-multi-choice","69","379677","0.0-18.0","SS1619740020203","math_question","","","","","","","","","","","","{""Q0"":""7""}","[0]","7","",""
"","null","html-keyboard-response","70","380596","0.0-19.0-0.0","SS1619740020203","","","null","","","","","","<p><img src= images/blank.png width =""600"" height = ""600"" style=""position:fixed;top:50%; left:50%; transform: translate(-50%, -50%); border:5px solid black"">","","","","","","","",""
"","3937.2449999209493","sequential-stimulus-presentation-old","71","385046","0.0-19.0-1.0","SS1619740020203","trial","","40","500","4437.244999920949","images/stimuli/spore_stims/complex_07_A_b.gif","images/stimuli/spore_stims/complex_10_A_a.gif","forced_short","","5","complex_dissimilar","images/stimuli/spore_stims/complex_10_A_a.gif","","","","",""
"","null","html-keyboard-response","72","386109","0.0-19.0-0.1","SS1619740020203","","","null","","","","","","<p><img src= images/blank.png width =""600"" height = ""600"" style=""position:fixed;top:50%; left:50%; transform: translate(-50%, -50%); border:5px solid black"">","","","","","","","",""
"","879.0450000669807","sequential-stimulus-presentation-old","73","387494","0.0-19.0-1.1","SS1619740020203","trial","","40","500","1379.0450000669807","images/stimuli/spore_stims/complex_07_A_b.gif","images/stimuli/spore_stims/complex_10_A_a.gif","forced_short","","5","complex_dissimilar","images/stimuli/spore_stims/complex_07_A_b.gif","","","","",""
"","null","html-keyboard-response","74","388492","0.0-19.0-0.2","SS1619740020203","","","null","","","","","","<p><img src= images/blank.png width =""600"" height = ""600"" style=""position:fixed;top:50%; left:50%; transform: translate(-50%, -50%); border:5px solid black"">","","","","","","","",""
"","272.27999991737306","sequential-stimulus-presentation-old","75","389271","0.0-19.0-1.2","SS1619740020203","trial","","40","500","772.2799999173731","images/stimuli/spore_stims/complex_07_A_b.gif","images/stimuli/spore_stims/complex_10_A_a.gif","forced_short","","5","complex_dissimilar","images/stimuli/spore_stims/complex_10_A_a.gif","","","","",""
"","null","html-keyboard-response","76","390440","0.0-19.0-0.3","SS1619740020203","","","null","","","","","","<p><img src= images/blank.png width =""600"" height = ""600"" style=""position:fixed;top:50%; left:50%; transform: translate(-50%, -50%); border:5px solid black"">","","","","","","","",""
"","39.36999989673495","sequential-stimulus-presentation-old","77","390991","0.0-19.0-1.3","SS1619740020203","trial","","40","500","539.369999896735","images/stimuli/spore_stims/complex_07_A_b.gif","images/stimuli/spore_stims/complex_10_A_a.gif","forced_short","","5","complex_dissimilar","images/stimuli/spore_stims/complex_10_A_a.gif","","","","",""
"","2632.814999902621","survey-multi-choice","78","393627","0.0-20.0","SS1619740020203","math_question","","","","","","","","","","","","{""Q0"":""10""}","[0]","10","",""
"","null","html-keyboard-response","79","394673","0.0-21.0-0.0","SS1619740020203","","","null","","","","","","<p><img src= images/blank.png width =""600"" height = ""600"" style=""position:fixed;top:50%; left:50%; transform: translate(-50%, -50%); border:5px solid black"">","","","","","","","",""
"","1763.5200000368059","sequential-stimulus-presentation-old","80","396942","0.0-21.0-1.0","SS1619740020203","trial","","40","500","2263.520000036806","images/stimuli/spore_stims/simple_11_A_b.gif","images/stimuli/spore_stims/simple_12_A_a.gif","forced_short","","6","simple_dissimilar","images/stimuli/spore_stims/simple_12_A_a.gif","","","","",""
"","null","html-keyboard-response","81","398003","0.0-21.0-0.1","SS1619740020203","","","null","","","","","","<p><img src= images/blank.png width =""600"" height = ""600"" style=""position:fixed;top:50%; left:50%; transform: translate(-50%, -50%); border:5px solid black"">","","","","","","","",""
"","354.98499986715615","sequential-stimulus-presentation-old","82","398871","0.0-21.0-1.1","SS1619740020203","trial","","40","500","854.9849998671561","images/stimuli/spore_stims/simple_11_A_b.gif","images/stimuli/spore_stims/simple_12_A_a.gif","forced_short","","6","simple_dissimilar","images/stimuli/spore_stims/simple_12_A_a.gif","","","","",""
"","null","html-keyboard-response","83","400044","0.0-21.0-0.2","SS1619740020203","","","null","","","","","","<p><img src= images/blank.png width =""600"" height = ""600"" style=""position:fixed;top:50%; left:50%; transform: translate(-50%, -50%); border:5px solid black"">","","","","","","","",""
"","193.93500010482967","sequential-stimulus-presentation-old","84","400743","0.0-21.0-1.2","SS1619740020203","trial","","40","500","693.9350001048297","images/stimuli/spore_stims/simple_11_A_b.gif","images/stimuli/spore_stims/simple_12_A_a.gif","forced_short","","6","simple_dissimilar","images/stimuli/spore_stims/simple_12_A_a.gif","","","","",""
"","null","html-keyboard-response","85","402024","0.0-21.0-0.3","SS1619740020203","","","null","","","","","","<p><img src= images/blank.png width =""600"" height = ""600"" style=""position:fixed;top:50%; left:50%; transform: translate(-50%, -50%); border:5px solid black"">","","","","","","","",""
"","99.21000013127923","sequential-stimulus-presentation-old","86","402639","0.0-21.0-1.3","SS1619740020203","trial","","40","500","599.2100001312792","images/stimuli/spore_stims/simple_11_A_b.gif","images/stimuli/spore_stims/simple_12_A_a.gif","forced_short","","6","simple_dissimilar","images/stimuli/spore_stims/simple_12_A_a.gif","","","","",""
"","null","html-keyboard-response","87","403955","0.0-21.0-0.4","SS1619740020203","","","null","","","","","","<p><img src= images/blank.png width =""600"" height = ""600"" style=""position:fixed;top:50%; left:50%; transform: translate(-50%, -50%); border:5px solid black"">","","","","","","","",""
"","353.66999986581504","sequential-stimulus-presentation-old","88","404815","0.0-21.0-1.4","SS1619740020203","trial","","40","500","853.669999865815","images/stimuli/spore_stims/simple_11_A_b.gif","images/stimuli/spore_stims/simple_12_A_a.gif","forced_short","","6","simple_dissimilar","images/stimuli/spore_stims/simple_12_A_a.gif","","","","",""
"","null","html-keyboard-response","89","405935","0.0-21.0-0.5","SS1619740020203","","","null","","","","","","<p><img src= images/blank.png width =""600"" height = ""600"" style=""position:fixed;top:50%; left:50%; transform: translate(-50%, -50%); border:5px solid black"">","","","","","","","",""
"","139.350000070408","sequential-stimulus-presentation-old","90","406591","0.0-21.0-1.5","SS1619740020203","trial","","40","500","639.350000070408","images/stimuli/spore_stims/simple_11_A_b.gif","images/stimuli/spore_stims/simple_12_A_a.gif","forced_short","","6","simple_dissimilar","images/stimuli/spore_stims/simple_12_A_a.gif","","","","",""
"","4883.115000091493","survey-multi-choice","91","411478","0.0-22.0","SS1619740020203","math_question","","","","","","","","","","","","{""Q0"":""13""}","[0]","13","",""
"","null","html-keyboard-response","92","412675","0.0-23.0-0.0","SS1619740020203","","","null","","","","","","<p><img src= images/blank.png width =""600"" height = ""600"" style=""position:fixed;top:50%; left:50%; transform: translate(-50%, -50%); border:5px solid black"">","","","","","","","",""
"","3003.8999998942018","sequential-stimulus-presentation-old","93","416191","0.0-23.0-1.0","SS1619740020203","trial","","40","500","3503.8999998942018","images/stimuli/spore_stims/complex_15_A_b.gif","images/stimuli/spore_stims/complex_03_A_a.gif","self_paced","","7","complex_dissimilar","images/stimuli/spore_stims/complex_03_A_a.gif","","","","",""
"","null","html-keyboard-response","94","417158","0.0-23.0-0.1","SS1619740020203","","","null","","","","","","<p><img src= images/blank.png width =""600"" height = ""600"" style=""position:fixed;top:50%; left:50%; transform: translate(-50%, -50%); border:5px solid black"">","","","","","","","",""
"","765.8850001171231","sequential-stimulus-presentation-old","95","418430","0.0-23.0-1.1","SS1619740020203","trial","","40","500","1265.8850001171231","images/stimuli/spore_stims/complex_15_A_b.gif","images/stimuli/spore_stims/complex_03_A_a.gif","self_paced","","7","complex_dissimilar","images/stimuli/spore_stims/complex_03_A_a.gif","","","","",""
"","null","html-keyboard-response","96","419312","0.0-23.0-0.2","SS1619740020203","","","null","","","","","","<p><img src= images/blank.png width =""600"" height = ""600"" style=""position:fixed;top:50%; left:50%; transform: translate(-50%, -50%); border:5px solid black"">","","","","","","","",""
"","1276.1250000912696","sequential-stimulus-presentation-old","97","421094","0.0-23.0-1.2","SS1619740020203","trial","","40","500","1776.1250000912696","images/stimuli/spore_stims/complex_15_A_b.gif","images/stimuli/spore_stims/complex_03_A_a.gif","self_paced","","7","complex_dissimilar","images/stimuli/spore_stims/complex_03_A_a.gif","","","","",""
"","null","html-keyboard-response","98","422277","0.0-23.0-0.3","SS1619740020203","","","null","","","","","","<p><img src= images/blank.png width =""600"" height = ""600"" style=""position:fixed;top:50%; left:50%; transform: translate(-50%, -50%); border:5px solid black"">","","","","","","","",""
"","227.97999996691942","sequential-stimulus-presentation-old","99","423015","0.0-23.0-1.3","SS1619740020203","trial","","40","500","727.9799999669194","images/stimuli/spore_stims/complex_15_A_b.gif","images/stimuli/spore_stims/complex_03_A_a.gif","self_paced","","7","complex_dissimilar","images/stimuli/spore_stims/complex_15_A_b.gif","","","","",""
"","null","html-keyboard-response","100","424223","0.0-23.0-0.4","SS1619740020203","","","null","","","","","","<p><img src= images/blank.png width =""600"" height = ""600"" style=""position:fixed;top:50%; left:50%; transform: translate(-50%, -50%); border:5px solid black"">","","","","","","","",""
"","358.0950000323355","sequential-stimulus-presentation-old","101","425087","0.0-23.0-1.4","SS1619740020203","trial","","40","500","858.0950000323355","images/stimuli/spore_stims/complex_15_A_b.gif","images/stimuli/spore_stims/complex_03_A_a.gif","self_paced","","7","complex_dissimilar","images/stimuli/spore_stims/complex_03_A_a.gif","","","","",""
"","3234.7999999765307","survey-multi-choice","102","428326","0.0-24.0","SS1619740020203","math_question","","","","","","","","","","","","{""Q0"":""10""}","[0]","10","",""
"","null","html-keyboard-response","103","429360","0.0-25.0-0.0","SS1619740020203","","","null","","","","","","<p><img src= images/blank.png width =""600"" height = ""600"" style=""position:fixed;top:50%; left:50%; transform: translate(-50%, -50%); border:5px solid black"">","","","","","","","",""
"","592.9399998858571","sequential-stimulus-presentation-old","104","444959","0.0-25.0-1.0","SS1619740020203","trial","","40","500","1092.939999885857","images/stimuli/spore_stims/simple_02_A_a.gif","images/stimuli/spore_stims/simple_13_A_b.gif","forced_long","","8","simple_dissimilar","images/stimuli/spore_stims/simple_13_A_b.gif","","","","",""
"","null","html-keyboard-response","105","446202","0.0-25.0-0.1","SS1619740020203","","","null","","","","","","<p><img src= images/blank.png width =""600"" height = ""600"" style=""position:fixed;top:50%; left:50%; transform: translate(-50%, -50%); border:5px solid black"">","","","","","","","",""
"","594.1599998623133","sequential-stimulus-presentation-old","106","447303","0.0-25.0-1.1","SS1619740020203","trial","","40","500","1094.1599998623133","images/stimuli/spore_stims/simple_02_A_a.gif","images/stimuli/spore_stims/simple_13_A_b.gif","forced_long","","8","simple_dissimilar","images/stimuli/spore_stims/simple_02_A_a.gif","","","","",""
"","null","html-keyboard-response","107","448149","0.0-25.0-0.2","SS1619740020203","","","null","","","","","","<p><img src= images/blank.png width =""600"" height = ""600"" style=""position:fixed;top:50%; left:50%; transform: translate(-50%, -50%); border:5px solid black"">","","","","","","","",""
"","208.29999982379377","sequential-stimulus-presentation-old","108","448870","0.0-25.0-1.2","SS1619740020203","trial","","40","500","708.2999998237938","images/stimuli/spore_stims/simple_02_A_a.gif","images/stimuli/spore_stims/simple_13_A_b.gif","forced_long","","8","simple_dissimilar","images/stimuli/spore_stims/simple_13_A_b.gif","","","","",""
"","null","html-keyboard-response","109","450062","0.0-25.0-0.3","SS1619740020203","","","null","","","","","","<p><img src= images/blank.png width =""600"" height = ""600"" style=""position:fixed;top:50%; left:50%; transform: translate(-50%, -50%); border:5px solid black"">","","","","","","","",""
"","261.25999982468784","sequential-stimulus-presentation-old","110","450831","0.0-25.0-1.3","SS1619740020203","trial","","40","500","761.2599998246878","images/stimuli/spore_stims/simple_02_A_a.gif","images/stimuli/spore_stims/simple_13_A_b.gif","forced_long","","8","simple_dissimilar","images/stimuli/spore_stims/simple_02_A_a.gif","","","","",""
"","null","html-keyboard-response","111","452060","0.0-25.0-0.4","SS1619740020203","","","null","","","","","","<p><img src= images/blank.png width =""600"" height = ""600"" style=""position:fixed;top:50%; left:50%; transform: translate(-50%, -50%); border:5px solid black"">","","","","","","","",""
"","334.61000001989305","sequential-stimulus-presentation-old","112","452910","0.0-25.0-1.4","SS1619740020203","trial","","40","500","834.610000019893","images/stimuli/spore_stims/simple_02_A_a.gif","images/stimuli/spore_stims/simple_13_A_b.gif","forced_long","","8","simple_dissimilar","images/stimuli/spore_stims/simple_13_A_b.gif","","","","",""
"","8769.440000178292","survey-multi-choice","113","461685","0.0-26.0","SS1619740020203","math_question","","","","","","","","","","","","{""Q0"":""15""}","[0]","15","",""
"","null","html-keyboard-response","114","462581","0.0-27.0-0.0","SS1619740020203","","","null","","","","","","<p><img src= images/blank.png width =""600"" height = ""600"" style=""position:fixed;top:50%; left:50%; transform: translate(-50%, -50%); border:5px solid black"">","","","","","","","",""
"","844.8600000701845","sequential-stimulus-presentation-old","115","478439","0.0-27.0-1.0","SS1619740020203","trial","","40","500","1344.8600000701845","images/stimuli/spore_stims/complex_01_A_a.gif","images/stimuli/spore_stims/complex_05_A_b.gif","forced_long","","9","complex_dissimilar","images/stimuli/spore_stims/complex_05_A_b.gif","","","","",""
"","null","html-keyboard-response","116","479599","0.0-27.0-0.1","SS1619740020203","","","null","","","","","","<p><img src= images/blank.png width =""600"" height = ""600"" style=""position:fixed;top:50%; left:50%; transform: translate(-50%, -50%); border:5px solid black"">","","","","","","","",""
"","147.84500002861023","sequential-stimulus-presentation-old","117","480263","0.0-27.0-1.1","SS1619740020203","trial","","40","500","647.8450000286102","images/stimuli/spore_stims/complex_01_A_a.gif","images/stimuli/spore_stims/complex_05_A_b.gif","forced_long","","9","complex_dissimilar","images/stimuli/spore_stims/complex_05_A_b.gif","","","","",""
"","null","html-keyboard-response","118","481208","0.0-27.0-0.2","SS1619740020203","","","null","","","","","","<p><img src= images/blank.png width =""600"" height = ""600"" style=""position:fixed;top:50%; left:50%; transform: translate(-50%, -50%); border:5px solid black"">","","","","","","","",""
"","67.86500010639429","sequential-stimulus-presentation-old","119","481790","0.0-27.0-1.2","SS1619740020203","trial","","40","500","567.8650001063943","images/stimuli/spore_stims/complex_01_A_a.gif","images/stimuli/spore_stims/complex_05_A_b.gif","forced_long","","9","complex_dissimilar","images/stimuli/spore_stims/complex_05_A_b.gif","","","","",""
"","null","html-keyboard-response","120","482904","0.0-27.0-0.3","SS1619740020203","","","null","","","","","","<p><img src= images/blank.png width =""600"" height = ""600"" style=""position:fixed;top:50%; left:50%; transform: translate(-50%, -50%); border:5px solid black"">","","","","","","","",""
"","187.99500004388392","sequential-stimulus-presentation-old","121","483599","0.0-27.0-1.3","SS1619740020203","trial","","40","500","687.9950000438839","images/stimuli/spore_stims/complex_01_A_a.gif","images/stimuli/spore_stims/complex_05_A_b.gif","forced_long","","9","complex_dissimilar","images/stimuli/spore_stims/complex_05_A_b.gif","","","","",""
"","10922.189999837428","survey-multi-choice","122","494526","0.0-28.0","SS1619740020203","math_question","","","","","","","","","","","","{""Q0"":""14""}","[0]","14","",""
"","null","html-keyboard-response","123","495362","0.0-29.0-0.0","SS1619740020203","","","null","","","","","","<p><img src= images/blank.png width =""600"" height = ""600"" style=""position:fixed;top:50%; left:50%; transform: translate(-50%, -50%); border:5px solid black"">","","","","","","","",""
"","928.5999999847263","sequential-stimulus-presentation-old","124","496798","0.0-29.0-1.0","SS1619740020203","trial","","40","500","1428.5999999847263","images/stimuli/spore_stims/complex_02_A_a.gif","images/stimuli/spore_stims/complex_20_A_b.gif","self_paced","","10","complex_dissimilar","images/stimuli/spore_stims/complex_20_A_b.gif","","","","",""
"","null","html-keyboard-response","125","497748","0.0-29.0-0.1","SS1619740020203","","","null","","","","","","<p><img src= images/blank.png width =""600"" height = ""600"" style=""position:fixed;top:50%; left:50%; transform: translate(-50%, -50%); border:5px solid black"">","","","","","","","",""
"","179.81499992311","sequential-stimulus-presentation-old","126","498438","0.0-29.0-1.1","SS1619740020203","trial","","40","500","679.81499992311","images/stimuli/spore_stims/complex_02_A_a.gif","images/stimuli/spore_stims/complex_20_A_b.gif","self_paced","","10","complex_dissimilar","images/stimuli/spore_stims/complex_20_A_b.gif","","","","",""
"","null","html-keyboard-response","127","499676","0.0-29.0-0.2","SS1619740020203","","","null","","","","","","<p><img src= images/blank.png width =""600"" height = ""600"" style=""position:fixed;top:50%; left:50%; transform: translate(-50%, -50%); border:5px solid black"">","","","","","","","",""
"","406.88000014051795","sequential-stimulus-presentation-old","128","500598","0.0-29.0-1.2","SS1619740020203","trial","","40","500","906.880000140518","images/stimuli/spore_stims/complex_02_A_a.gif","images/stimuli/spore_stims/complex_20_A_b.gif","self_paced","","10","complex_dissimilar","images/stimuli/spore_stims/complex_20_A_b.gif","","","","",""
"","null","html-keyboard-response","129","501471","0.0-29.0-0.3","SS1619740020203","","","null","","","","","","<p><img src= images/blank.png width =""600"" height = ""600"" style=""position:fixed;top:50%; left:50%; transform: translate(-50%, -50%); border:5px solid black"">","","","","","","","",""
"","384.00500011630356","sequential-stimulus-presentation-old","130","502366","0.0-29.0-1.3","SS1619740020203","trial","","40","500","884.0050001163036","images/stimuli/spore_stims/complex_02_A_a.gif","images/stimuli/spore_stims/complex_20_A_b.gif","self_paced","","10","complex_dissimilar","images/stimuli/spore_stims/complex_20_A_b.gif","","","","",""
"","null","html-keyboard-response","131","503324","0.0-29.0-0.4","SS1619740020203","","","null","","","","","","<p><img src= images/blank.png width =""600"" height = ""600"" style=""position:fixed;top:50%; left:50%; transform: translate(-50%, -50%); border:5px solid black"">","","","","","","","",""
"","150.26500006206334","sequential-stimulus-presentation-old","132","503991","0.0-29.0-1.4","SS1619740020203","trial","","40","500","650.2650000620633","images/stimuli/spore_stims/complex_02_A_a.gif","images/stimuli/spore_stims/complex_20_A_b.gif","self_paced","","10","complex_dissimilar","images/stimuli/spore_stims/complex_20_A_b.gif","","","","",""
"","2789.3600000534207","survey-multi-choice","133","506786","0.0-30.0","SS1619740020203","math_question","","","","","","","","","","","","{""Q0"":""18""}","[0]","18","",""
"","null","html-keyboard-response","134","507932","0.0-31.0-0.0","SS1619740020203","","","null","","","","","","<p><img src= images/blank.png width =""600"" height = ""600"" style=""position:fixed;top:50%; left:50%; transform: translate(-50%, -50%); border:5px solid black"">","","","","","","","",""
"","213.39499996975064","sequential-stimulus-presentation-old","135","508654","0.0-31.0-1.0","SS1619740020203","trial","","40","500","713.3949999697506","images/stimuli/spore_stims/simple_08_A_a.gif","images/stimuli/spore_stims/simple_05_A_b.gif","self_paced","","11","simple_dissimilar","images/stimuli/spore_stims/simple_05_A_b.gif","","","","",""
"","null","html-keyboard-response","136","509626","0.0-31.0-0.1","SS1619740020203","","","null","","","","","","<p><img src= images/blank.png width =""600"" height = ""600"" style=""position:fixed;top:50%; left:50%; transform: translate(-50%, -50%); border:5px solid black"">","","","","","","","",""
"","176.8349998164922","sequential-stimulus-presentation-old","137","510310","0.0-31.0-1.1","SS1619740020203","trial","","40","500","676.8349998164922","images/stimuli/spore_stims/simple_08_A_a.gif","images/stimuli/spore_stims/simple_05_A_b.gif","self_paced","","11","simple_dissimilar","images/stimuli/spore_stims/simple_08_A_a.gif","","","","",""
"","null","html-keyboard-response","138","511530","0.0-31.0-0.2","SS1619740020203","","","null","","","","","","<p><img src= images/blank.png width =""600"" height = ""600"" style=""position:fixed;top:50%; left:50%; transform: translate(-50%, -50%); border:5px solid black"">","","","","","","","",""
"","65.279999980703","sequential-stimulus-presentation-old","139","512102","0.0-31.0-1.2","SS1619740020203","trial","","40","500","565.279999980703","images/stimuli/spore_stims/simple_08_A_a.gif","images/stimuli/spore_stims/simple_05_A_b.gif","self_paced","","11","simple_dissimilar","images/stimuli/spore_stims/simple_08_A_a.gif","","","","",""
"","null","html-keyboard-response","140","513163","0.0-31.0-0.3","SS1619740020203","","","null","","","","","","<p><img src= images/blank.png width =""600"" height = ""600"" style=""position:fixed;top:50%; left:50%; transform: translate(-50%, -50%); border:5px solid black"">","","","","","","","",""
"","296.57000000588596","sequential-stimulus-presentation-old","141","513966","0.0-31.0-1.3","SS1619740020203","trial","","40","500","796.570000005886","images/stimuli/spore_stims/simple_08_A_a.gif","images/stimuli/spore_stims/simple_05_A_b.gif","self_paced","","11","simple_dissimilar","images/stimuli/spore_stims/simple_05_A_b.gif","","","","",""
"","null","html-keyboard-response","142","514810","0.0-31.0-0.4","SS1619740020203","","","null","","","","","","<p><img src= images/blank.png width =""600"" height = ""600"" style=""position:fixed;top:50%; left:50%; transform: translate(-50%, -50%); border:5px solid black"">","","","","","","","",""
"","65.45999995432794","sequential-stimulus-presentation-old","143","515383","0.0-31.0-1.4","SS1619740020203","trial","","40","500","565.4599999543279","images/stimuli/spore_stims/simple_08_A_a.gif","images/stimuli/spore_stims/simple_05_A_b.gif","self_paced","","11","simple_dissimilar","images/stimuli/spore_stims/simple_05_A_b.gif","","","","",""
"","null","html-keyboard-response","144","516697","0.0-31.0-0.5","SS1619740020203","","","null","","","","","","<p><img src= images/blank.png width =""600"" height = ""600"" style=""position:fixed;top:50%; left:50%; transform: translate(-50%, -50%); border:5px solid black"">","","","","","","","",""
"","107.8500000294298","sequential-stimulus-presentation-old","145","517318","0.0-31.0-1.5","SS1619740020203","trial","","40","500","607.8500000294298","images/stimuli/spore_stims/simple_08_A_a.gif","images/stimuli/spore_stims/simple_05_A_b.gif","self_paced","","11","simple_dissimilar","images/stimuli/spore_stims/simple_05_A_b.gif","","","","",""
"[{""page_index"":0,""viewing_time"":6471.03500016965}]","6471.31000016816","instructions","146","523795","0.0-32.0","SS1619740020203","instructions","","","","","","","","","","","","","","","",""
"","4518.175000092015","survey-likert","147","528320","0.0-33.0","SS1619740020203","similarity_question","","","","","","","","","","","","{""Q0"":4}","[0]","","images/stimuli/spore_stims/simple_14_A_b.gif","images/stimuli/spore_stims/simple_03_A_a.gif"
"","3531.2650001142174","survey-likert","148","531859","0.0-34.0","SS1619740020203","similarity_question","","","","","","","","","","","","{""Q0"":5}","[0]","","images/stimuli/spore_stims/complex_09_A_a.gif","images/stimuli/spore_stims/complex_17_A_b.gif"
"","8525.445000035688","survey-likert","149","540392","0.0-35.0","SS1619740020203","similarity_question","","","","","","","","","","","","{""Q0"":2}","[0]","","images/stimuli/spore_stims/complex_02_A_a.gif","images/stimuli/spore_stims/complex_20_A_b.gif"
"","3316.144999815151","survey-likert","150","543716","0.0-36.0","SS1619740020203","similarity_question","","","","","","","","","","","","{""Q0"":6}","[0]","","images/stimuli/spore_stims/simple_12_A_a.gif","images/stimuli/spore_stims/simple_11_A_b.gif"
"","5950.369999976829","survey-likert","151","549674","0.0-37.0","SS1619740020203","similarity_question","","","","","","","","","","","","{""Q0"":2}","[0]","","images/stimuli/spore_stims/simple_01_A_a.gif","images/stimuli/spore_stims/simple_18_A_b.gif"
"","2120.2549999579787","survey-likert","152","551802","0.0-38.0","SS1619740020203","similarity_question","","","","","","","","","","","","{""Q0"":6}","[0]","","images/stimuli/spore_stims/simple_15_A_a.gif","images/stimuli/spore_stims/simple_02_A_b.gif"
"","3577.0550000015646","survey-likert","153","555387","0.0-39.0","SS1619740020203","similarity_question","","","","","","","","","","","","{""Q0"":4}","[0]","","images/stimuli/spore_stims/simple_02_A_a.gif","images/stimuli/spore_stims/simple_13_A_b.gif"
"","5934.955000178888","survey-likert","154","561330","0.0-40.0","SS1619740020203","similarity_question","","","","","","","","","","","","{""Q0"":3}","[0]","","images/stimuli/spore_stims/complex_05_A_b.gif","images/stimuli/spore_stims/complex_01_A_a.gif"
"","2626.935000065714","survey-likert","155","563965","0.0-41.0","SS1619740020203","similarity_question","","","","","","","","","","","","{""Q0"":0}","[0]","","images/stimuli/spore_stims/complex_15_A_b.gif","images/stimuli/spore_stims/complex_03_A_a.gif"
"","5184.0949999168515","survey-likert","156","569157","0.0-42.0","SS1619740020203","similarity_question","","","","","","","","","","","","{""Q0"":4}","[0]","","images/stimuli/spore_stims/complex_07_A_b.gif","images/stimuli/spore_stims/complex_10_A_a.gif"
"","1746.6850001364946","survey-likert","157","570912","0.0-43.0","SS1619740020203","similarity_question","","","","","","","","","","","","{""Q0"":6}","[0]","","images/stimuli/spore_stims/simple_05_A_b.gif","images/stimuli/spore_stims/simple_08_A_a.gif"
"","3821.7899999581277","survey-likert","158","574745","0.0-44.0","SS1619740020203","similarity_question","","","","","","","","","","","","{""Q0"":4}","[0]","","images/stimuli/spore_stims/complex_14_A_b.gif","images/stimuli/spore_stims/complex_18_A_a.gif"
"[{""page_index"":0,""viewing_time"":4836.394999874756}]","4836.989999981597","instructions","159","579589","0.0-45.0","SS1619740020203","instructions","","","","","","","","","","","","","","","",""
"","3311.500000068918","survey-likert","160","582908","0.0-46.0","SS1619740020203","","","","","","","","","images/stimuli/spore_stims/simple_05_A_b.gif","","","","{""Q0"":0}","[0]","","",""
"","3856.0849998611957","survey-likert","161","586772","0.0-47.0","SS1619740020203","","","","","","","","","images/stimuli/spore_stims/complex_18_A_a.gif","","","","{""Q0"":6}","[0]","","",""
"","1593.4150000102818","survey-likert","162","588373","0.0-48.0","SS1619740020203","","","","","","","","","images/stimuli/spore_stims/simple_11_A_b.gif","","","","{""Q0"":0}","[0]","","",""
"","1553.855000063777","survey-likert","163","589935","0.0-49.0","SS1619740020203","","","","","","","","","images/stimuli/spore_stims/simple_15_A_a.gif","","","","{""Q0"":1}","[0]","","",""
"","1485.0099999457598","survey-likert","164","591428","0.0-50.0","SS1619740020203","","","","","","","","","images/stimuli/spore_stims/simple_02_A_a.gif","","","","{""Q0"":1}","[0]","","",""
"","2055.075000040233","survey-likert","165","593490","0.0-51.0","SS1619740020203","","","","","","","","","images/stimuli/spore_stims/complex_20_A_b.gif","","","","{""Q0"":6}","[0]","","",""
"","2498.5749998595566","survey-likert","166","595997","0.0-52.0","SS1619740020203","","","","","","","","","images/stimuli/spore_stims/complex_05_A_b.gif","","","","{""Q0"":5}","[0]","","",""
"","1814.4099998753518","survey-likert","167","597820","0.0-53.0","SS1619740020203","","","","","","","","","images/stimuli/spore_stims/complex_15_A_b.gif","","","","{""Q0"":6}","[0]","","",""
"","1956.0050000436604","survey-likert","168","599784","0.0-54.0","SS1619740020203","","","","","","","","","images/stimuli/spore_stims/complex_17_A_b.gif","","","","{""Q0"":5}","[0]","","",""
"","2702.5750000029802","survey-likert","169","602495","0.0-55.0","SS1619740020203","","","","","","","","","images/stimuli/spore_stims/simple_18_A_b.gif","","","","{""Q0"":2}","[0]","","",""
"","1715.929999947548","survey-likert","170","604219","0.0-56.0","SS1619740020203","","","","","","","","","images/stimuli/spore_stims/complex_07_A_b.gif","","","","{""Q0"":6}","[0]","","",""
"","3736.6349999792874","survey-likert","171","607964","0.0-57.0","SS1619740020203","","","","","","","","","images/stimuli/spore_stims/simple_03_A_a.gif","","","","{""Q0"":2}","[0]","","",""
"[{""page_index"":0,""viewing_time"":2412.8650000784546}]","2413.270000135526","instructions","172","610385","0.0-58.0","SS1619740020203","instructions","","","","","","","","","","","","","","","",""
"","2879.4350000098348","demog-age","173","613274","0.0-59.0","SS1619740020203","","","","","","","","","","","","","{""age"":""19""}","","","",""
"","3801.3150000479072","demog-ethnic-US","174","617086","0.0-60.0","SS1619740020203","","","","","","","","","","","","","{""ethnicity"":[""White""]}","[0]","","",""
"","5608.38000010699","demog-gender-and-education","175","622703","0.0-61.0","SS1619740020203","","","","","","","","","","","","","{""gender"":""Non-binary"",""education"":""Bachelor's Degree""}","[0,1]","","",""
"","15081.06999984011","survey-text","176","637794","0.0-62.0","SS1619740020203","feedback","","","","","","","","","","","","{""Q0"":""No lag during the experiment""}","","","",""
"[{""page_index"":0,""viewing_time"":1548.7750000320375}]","1548.9850000012666","instructions","177","639351","0.0-63.0","SS1619740020203","instructions","","","","","","","","","","","","","","","",""
