"view_history","rt","trial_type","trial_index","time_elapsed","internal_node_id","subject","stimulus_type","trial_stimulus","key_press","minimum_viewing_duration","trial_looking_time","block_deviant","block_background","exposure_type","stimulus","block_number","block_type","stimulus_displayed","responses","question_order","math_correct_answer","stimulus_left","stimulus_right"
"[{""page_index"":0,""viewing_time"":19574}]","19574","instructions","0","19575","0.0-0.0","SS1619740152126","","","","","","","","","","","","","","","","",""
"[{""page_index"":0,""viewing_time"":33025},{""page_index"":1,""viewing_time"":6648}]","39673","instructions","1","61253","0.0-1.0","SS1619740152126","instructions","","","","","","","","","","","","","","","",""
"","11303","sequential-stimulus-presentation-old","2","73061","0.0-2.0","SS1619740152126","","","40","500","11803","null","null","self_paced","","","","","","","","",""
"","7949","sequential-stimulus-presentation-old","3","81517","0.0-3.0","SS1619740152126","","","40","500","8449","null","null","self_paced","","","","","","","","",""
"[{""page_index"":0,""viewing_time"":25519}]","25519","instructions","4","107039","0.0-4.0","SS1619740152126","instructions","","","","","","","","","","","","","","","",""
"","899","sequential-stimulus-presentation-old","5","122941","0.0-5.0","SS1619740152126","","","40","500","1399","null","null","forced_long","","","","","","","","",""
"","3326","sequential-stimulus-presentation-old","6","126770","0.0-6.0","SS1619740152126","","","40","500","3826","null","null","forced_long","","","","","","","","",""
"[{""page_index"":0,""viewing_time"":5408}]","5408","instructions","7","132181","0.0-7.0","SS1619740152126","instructions","","","","","","","","","","","","","","","",""
"[{""page_index"":0,""viewing_time"":13485},{""page_index"":1,""viewing_time"":19956},{""page_index"":2,""viewing_time"":9287},{""page_index"":3,""viewing_time"":1530},{""page_index"":4,""viewing_time"":2088}]","46346","instructions","8","178529","0.0-8.0","SS1619740152126","instructions","","","","","","","","","","","","","","","",""
"","null","html-keyboard-response","9","179409","0.0-9.0-0.0","SS1619740152126","","","null","","","","","","<p><img src= images/blank.png width =""600"" height = ""600"" style=""position:fixed;top:50%; left:50%; transform: translate(-50%, -50%); border:5px solid black"">","","","","","","","",""
"","1272","sequential-stimulus-presentation-old","10","181188","0.0-9.0-1.0","SS1619740152126","trial","","40","500","1772","images/stimuli/spore_stims/complex_07_A_b.gif","images/stimuli/spore_stims/complex_15_A_a.gif","forced_short","","0","complex_dissimilar","images/stimuli/spore_stims/complex_15_A_a.gif","","","","",""
"","null","html-keyboard-response","11","182164","0.0-9.0-0.1","SS1619740152126","","","null","","","","","","<p><img src= images/blank.png width =""600"" height = ""600"" style=""position:fixed;top:50%; left:50%; transform: translate(-50%, -50%); border:5px solid black"">","","","","","","","",""
"","8829","sequential-stimulus-presentation-old","12","191499","0.0-9.0-1.1","SS1619740152126","trial","","40","500","9329","images/stimuli/spore_stims/complex_07_A_b.gif","images/stimuli/spore_stims/complex_15_A_a.gif","forced_short","","0","complex_dissimilar","images/stimuli/spore_stims/complex_15_A_a.gif","","","","",""
"","null","html-keyboard-response","13","192618","0.0-9.0-0.2","SS1619740152126","","","null","","","","","","<p><img src= images/blank.png width =""600"" height = ""600"" style=""position:fixed;top:50%; left:50%; transform: translate(-50%, -50%); border:5px solid black"">","","","","","","","",""
"","4856","sequential-stimulus-presentation-old","14","197979","0.0-9.0-1.2","SS1619740152126","trial","","40","500","5356","images/stimuli/spore_stims/complex_07_A_b.gif","images/stimuli/spore_stims/complex_15_A_a.gif","forced_short","","0","complex_dissimilar","images/stimuli/spore_stims/complex_07_A_b.gif","","","","",""
"","null","html-keyboard-response","15","198956","0.0-9.0-0.3","SS1619740152126","","","null","","","","","","<p><img src= images/blank.png width =""600"" height = ""600"" style=""position:fixed;top:50%; left:50%; transform: translate(-50%, -50%); border:5px solid black"">","","","","","","","",""
"","3863","sequential-stimulus-presentation-old","16","203322","0.0-9.0-1.3","SS1619740152126","trial","","40","500","4363","images/stimuli/spore_stims/complex_07_A_b.gif","images/stimuli/spore_stims/complex_15_A_a.gif","forced_short","","0","complex_dissimilar","images/stimuli/spore_stims/complex_15_A_a.gif","","","","",""
"","null","html-keyboard-response","17","204192","0.0-9.0-0.4","SS1619740152126","","","null","","","","","","<p><img src= images/blank.png width =""600"" height = ""600"" style=""position:fixed;top:50%; left:50%; transform: translate(-50%, -50%); border:5px solid black"">","","","","","","","",""
"","3701","sequential-stimulus-presentation-old","18","208396","0.0-9.0-1.4","SS1619740152126","trial","","40","500","4201","images/stimuli/spore_stims/complex_07_A_b.gif","images/stimuli/spore_stims/complex_15_A_a.gif","forced_short","","0","complex_dissimilar","images/stimuli/spore_stims/complex_07_A_b.gif","","","","",""
"","4486","survey-multi-choice","19","212887","0.0-10.0","SS1619740152126","math_question","","","","","","","","","","","","{""Q0"":""8""}","[0]","8","",""
"","null","html-keyboard-response","20","214109","0.0-11.0-0.0","SS1619740152126","","","null","","","","","","<p><img src= images/blank.png width =""600"" height = ""600"" style=""position:fixed;top:50%; left:50%; transform: translate(-50%, -50%); border:5px solid black"">","","","","","","","",""
"","3415","sequential-stimulus-presentation-old","21","218028","0.0-11.0-1.0","SS1619740152126","trial","","40","500","3915","images/stimuli/spore_stims/complex_08_A_a.gif","images/stimuli/spore_stims/complex_20_A_b.gif","self_paced","","1","complex_dissimilar","images/stimuli/spore_stims/complex_20_A_b.gif","","","","",""
"","null","html-keyboard-response","22","219240","0.0-11.0-0.1","SS1619740152126","","","null","","","","","","<p><img src= images/blank.png width =""600"" height = ""600"" style=""position:fixed;top:50%; left:50%; transform: translate(-50%, -50%); border:5px solid black"">","","","","","","","",""
"","5531","sequential-stimulus-presentation-old","23","225275","0.0-11.0-1.1","SS1619740152126","trial","","40","500","6031","images/stimuli/spore_stims/complex_08_A_a.gif","images/stimuli/spore_stims/complex_20_A_b.gif","self_paced","","1","complex_dissimilar","images/stimuli/spore_stims/complex_20_A_b.gif","","","","",""
"","null","html-keyboard-response","24","226110","0.0-11.0-0.2","SS1619740152126","","","null","","","","","","<p><img src= images/blank.png width =""600"" height = ""600"" style=""position:fixed;top:50%; left:50%; transform: translate(-50%, -50%); border:5px solid black"">","","","","","","","",""
"","4420","sequential-stimulus-presentation-old","25","231035","0.0-11.0-1.2","SS1619740152126","trial","","40","500","4920","images/stimuli/spore_stims/complex_08_A_a.gif","images/stimuli/spore_stims/complex_20_A_b.gif","self_paced","","1","complex_dissimilar","images/stimuli/spore_stims/complex_08_A_a.gif","","","","",""
"","null","html-keyboard-response","26","231846","0.0-11.0-0.3","SS1619740152126","","","null","","","","","","<p><img src= images/blank.png width =""600"" height = ""600"" style=""position:fixed;top:50%; left:50%; transform: translate(-50%, -50%); border:5px solid black"">","","","","","","","",""
"","5070","sequential-stimulus-presentation-old","27","237420","0.0-11.0-1.3","SS1619740152126","trial","","40","500","5570","images/stimuli/spore_stims/complex_08_A_a.gif","images/stimuli/spore_stims/complex_20_A_b.gif","self_paced","","1","complex_dissimilar","images/stimuli/spore_stims/complex_20_A_b.gif","","","","",""
"","null","html-keyboard-response","28","238571","0.0-11.0-0.4","SS1619740152126","","","null","","","","","","<p><img src= images/blank.png width =""600"" height = ""600"" style=""position:fixed;top:50%; left:50%; transform: translate(-50%, -50%); border:5px solid black"">","","","","","","","",""
"","4833","sequential-stimulus-presentation-old","29","243908","0.0-11.0-1.4","SS1619740152126","trial","","40","500","5333","images/stimuli/spore_stims/complex_08_A_a.gif","images/stimuli/spore_stims/complex_20_A_b.gif","self_paced","","1","complex_dissimilar","images/stimuli/spore_stims/complex_20_A_b.gif","","","","",""
"","null","html-keyboard-response","30","244776","0.0-11.0-0.5","SS1619740152126","","","null","","","","","","<p><img src= images/blank.png width =""600"" height = ""600"" style=""position:fixed;top:50%; left:50%; transform: translate(-50%, -50%); border:5px solid black"">","","","","","","","",""
"","3685","sequential-stimulus-presentation-old","31","248962","0.0-11.0-1.5","SS1619740152126","trial","","40","500","4185","images/stimuli/spore_stims/complex_08_A_a.gif","images/stimuli/spore_stims/complex_20_A_b.gif","self_paced","","1","complex_dissimilar","images/stimuli/spore_stims/complex_08_A_a.gif","","","","",""
"","4448","survey-multi-choice","32","253413","0.0-12.0","SS1619740152126","math_question","","","","","","","","","","","","{""Q0"":""12""}","[0]","12","",""
"","null","html-keyboard-response","33","254555","0.0-13.0-0.0","SS1619740152126","","","null","","","","","","<p><img src= images/blank.png width =""600"" height = ""600"" style=""position:fixed;top:50%; left:50%; transform: translate(-50%, -50%); border:5px solid black"">","","","","","","","",""
"","2082","sequential-stimulus-presentation-old","34","257139","0.0-13.0-1.0","SS1619740152126","trial","","40","500","2582","images/stimuli/spore_stims/simple_15_A_b.gif","images/stimuli/spore_stims/simple_12_A_a.gif","forced_short","","2","simple_dissimilar","images/stimuli/spore_stims/simple_12_A_a.gif","","","","",""
"","null","html-keyboard-response","35","258013","0.0-13.0-0.1","SS1619740152126","","","null","","","","","","<p><img src= images/blank.png width =""600"" height = ""600"" style=""position:fixed;top:50%; left:50%; transform: translate(-50%, -50%); border:5px solid black"">","","","","","","","",""
"","4286","sequential-stimulus-presentation-old","36","262803","0.0-13.0-1.1","SS1619740152126","trial","","40","500","4786","images/stimuli/spore_stims/simple_15_A_b.gif","images/stimuli/spore_stims/simple_12_A_a.gif","forced_short","","2","simple_dissimilar","images/stimuli/spore_stims/simple_12_A_a.gif","","","","",""
"","null","html-keyboard-response","37","263815","0.0-13.0-0.2","SS1619740152126","","","null","","","","","","<p><img src= images/blank.png width =""600"" height = ""600"" style=""position:fixed;top:50%; left:50%; transform: translate(-50%, -50%); border:5px solid black"">","","","","","","","",""
"","4645","sequential-stimulus-presentation-old","38","268962","0.0-13.0-1.2","SS1619740152126","trial","","40","500","5145","images/stimuli/spore_stims/simple_15_A_b.gif","images/stimuli/spore_stims/simple_12_A_a.gif","forced_short","","2","simple_dissimilar","images/stimuli/spore_stims/simple_15_A_b.gif","","","","",""
"","null","html-keyboard-response","39","269876","0.0-13.0-0.3","SS1619740152126","","","null","","","","","","<p><img src= images/blank.png width =""600"" height = ""600"" style=""position:fixed;top:50%; left:50%; transform: translate(-50%, -50%); border:5px solid black"">","","","","","","","",""
"","6518","sequential-stimulus-presentation-old","40","276899","0.0-13.0-1.3","SS1619740152126","trial","","40","500","7018","images/stimuli/spore_stims/simple_15_A_b.gif","images/stimuli/spore_stims/simple_12_A_a.gif","forced_short","","2","simple_dissimilar","images/stimuli/spore_stims/simple_12_A_a.gif","","","","",""
"","null","html-keyboard-response","41","278130","0.0-13.0-0.4","SS1619740152126","","","null","","","","","","<p><img src= images/blank.png width =""600"" height = ""600"" style=""position:fixed;top:50%; left:50%; transform: translate(-50%, -50%); border:5px solid black"">","","","","","","","",""
"","4897","sequential-stimulus-presentation-old","42","283532","0.0-13.0-1.4","SS1619740152126","trial","","40","500","5397","images/stimuli/spore_stims/simple_15_A_b.gif","images/stimuli/spore_stims/simple_12_A_a.gif","forced_short","","2","simple_dissimilar","images/stimuli/spore_stims/simple_12_A_a.gif","","","","",""
"","null","html-keyboard-response","43","284640","0.0-13.0-0.5","SS1619740152126","","","null","","","","","","<p><img src= images/blank.png width =""600"" height = ""600"" style=""position:fixed;top:50%; left:50%; transform: translate(-50%, -50%); border:5px solid black"">","","","","","","","",""
"","5421","sequential-stimulus-presentation-old","44","290563","0.0-13.0-1.5","SS1619740152126","trial","","40","500","5921","images/stimuli/spore_stims/simple_15_A_b.gif","images/stimuli/spore_stims/simple_12_A_a.gif","forced_short","","2","simple_dissimilar","images/stimuli/spore_stims/simple_12_A_a.gif","","","","",""
"","4232","survey-multi-choice","45","294801","0.0-14.0","SS1619740152126","math_question","","","","","","","","","","","","{""Q0"":""11""}","[0]","11","",""
"","null","html-keyboard-response","46","295613","0.0-15.0-0.0","SS1619740152126","","","null","","","","","","<p><img src= images/blank.png width =""600"" height = ""600"" style=""position:fixed;top:50%; left:50%; transform: translate(-50%, -50%); border:5px solid black"">","","","","","","","",""
"","704","sequential-stimulus-presentation-old","47","311322","0.0-15.0-1.0","SS1619740152126","trial","","40","500","1204","images/stimuli/spore_stims/complex_13_A_a.gif","images/stimuli/spore_stims/complex_03_A_b.gif","forced_long","","3","complex_dissimilar","images/stimuli/spore_stims/complex_03_A_b.gif","","","","",""
"","null","html-keyboard-response","48","312285","0.0-15.0-0.1","SS1619740152126","","","null","","","","","","<p><img src= images/blank.png width =""600"" height = ""600"" style=""position:fixed;top:50%; left:50%; transform: translate(-50%, -50%); border:5px solid black"">","","","","","","","",""
"","1902","sequential-stimulus-presentation-old","49","314691","0.0-15.0-1.1","SS1619740152126","trial","","40","500","2402","images/stimuli/spore_stims/complex_13_A_a.gif","images/stimuli/spore_stims/complex_03_A_b.gif","forced_long","","3","complex_dissimilar","images/stimuli/spore_stims/complex_03_A_b.gif","","","","",""
"","null","html-keyboard-response","50","315542","0.0-15.0-0.2","SS1619740152126","","","null","","","","","","<p><img src= images/blank.png width =""600"" height = ""600"" style=""position:fixed;top:50%; left:50%; transform: translate(-50%, -50%); border:5px solid black"">","","","","","","","",""
"","2654","sequential-stimulus-presentation-old","51","318699","0.0-15.0-1.2","SS1619740152126","trial","","40","500","3154","images/stimuli/spore_stims/complex_13_A_a.gif","images/stimuli/spore_stims/complex_03_A_b.gif","forced_long","","3","complex_dissimilar","images/stimuli/spore_stims/complex_03_A_b.gif","","","","",""
"","null","html-keyboard-response","52","319508","0.0-15.0-0.3","SS1619740152126","","","null","","","","","","<p><img src= images/blank.png width =""600"" height = ""600"" style=""position:fixed;top:50%; left:50%; transform: translate(-50%, -50%); border:5px solid black"">","","","","","","","",""
"","3256","sequential-stimulus-presentation-old","53","323268","0.0-15.0-1.3","SS1619740152126","trial","","40","500","3756","images/stimuli/spore_stims/complex_13_A_a.gif","images/stimuli/spore_stims/complex_03_A_b.gif","forced_long","","3","complex_dissimilar","images/stimuli/spore_stims/complex_03_A_b.gif","","","","",""
"","null","html-keyboard-response","54","324098","0.0-15.0-0.4","SS1619740152126","","","null","","","","","","<p><img src= images/blank.png width =""600"" height = ""600"" style=""position:fixed;top:50%; left:50%; transform: translate(-50%, -50%); border:5px solid black"">","","","","","","","",""
"","2680","sequential-stimulus-presentation-old","55","327284","0.0-15.0-1.4","SS1619740152126","trial","","40","500","3180","images/stimuli/spore_stims/complex_13_A_a.gif","images/stimuli/spore_stims/complex_03_A_b.gif","forced_long","","3","complex_dissimilar","images/stimuli/spore_stims/complex_03_A_b.gif","","","","",""
"","3503","survey-multi-choice","56","330792","0.0-16.0","SS1619740152126","math_question","","","","","","","","","","","","{""Q0"":""15""}","[0]","15","",""
"","null","html-keyboard-response","57","331931","0.0-17.0-0.0","SS1619740152126","","","null","","","","","","<p><img src= images/blank.png width =""600"" height = ""600"" style=""position:fixed;top:50%; left:50%; transform: translate(-50%, -50%); border:5px solid black"">","","","","","","","",""
"","565","sequential-stimulus-presentation-old","58","347499","0.0-17.0-1.0","SS1619740152126","trial","","40","500","1065","images/stimuli/spore_stims/simple_02_A_b.gif","images/stimuli/spore_stims/simple_11_A_a.gif","forced_long","","4","simple_dissimilar","images/stimuli/spore_stims/simple_11_A_a.gif","","","","",""
"","null","html-keyboard-response","59","348443","0.0-17.0-0.1","SS1619740152126","","","null","","","","","","<p><img src= images/blank.png width =""600"" height = ""600"" style=""position:fixed;top:50%; left:50%; transform: translate(-50%, -50%); border:5px solid black"">","","","","","","","",""
"","2547","sequential-stimulus-presentation-old","60","351492","0.0-17.0-1.1","SS1619740152126","trial","","40","500","3047","images/stimuli/spore_stims/simple_02_A_b.gif","images/stimuli/spore_stims/simple_11_A_a.gif","forced_long","","4","simple_dissimilar","images/stimuli/spore_stims/simple_11_A_a.gif","","","","",""
"","null","html-keyboard-response","61","352603","0.0-17.0-0.2","SS1619740152126","","","null","","","","","","<p><img src= images/blank.png width =""600"" height = ""600"" style=""position:fixed;top:50%; left:50%; transform: translate(-50%, -50%); border:5px solid black"">","","","","","","","",""
"","8297","sequential-stimulus-presentation-old","62","361402","0.0-17.0-1.2","SS1619740152126","trial","","40","500","8797","images/stimuli/spore_stims/simple_02_A_b.gif","images/stimuli/spore_stims/simple_11_A_a.gif","forced_long","","4","simple_dissimilar","images/stimuli/spore_stims/simple_11_A_a.gif","","","","",""
"","null","html-keyboard-response","63","362399","0.0-17.0-0.3","SS1619740152126","","","null","","","","","","<p><img src= images/blank.png width =""600"" height = ""600"" style=""position:fixed;top:50%; left:50%; transform: translate(-50%, -50%); border:5px solid black"">","","","","","","","",""
"","3194","sequential-stimulus-presentation-old","64","366099","0.0-17.0-1.3","SS1619740152126","trial","","40","500","3694","images/stimuli/spore_stims/simple_02_A_b.gif","images/stimuli/spore_stims/simple_11_A_a.gif","forced_long","","4","simple_dissimilar","images/stimuli/spore_stims/simple_11_A_a.gif","","","","",""
"","null","html-keyboard-response","65","367387","0.0-17.0-0.4","SS1619740152126","","","null","","","","","","<p><img src= images/blank.png width =""600"" height = ""600"" style=""position:fixed;top:50%; left:50%; transform: translate(-50%, -50%); border:5px solid black"">","","","","","","","",""
"","6344","sequential-stimulus-presentation-old","66","374236","0.0-17.0-1.4","SS1619740152126","trial","","40","500","6844","images/stimuli/spore_stims/simple_02_A_b.gif","images/stimuli/spore_stims/simple_11_A_a.gif","forced_long","","4","simple_dissimilar","images/stimuli/spore_stims/simple_11_A_a.gif","","","","",""
"","null","html-keyboard-response","67","375506","0.0-17.0-0.5","SS1619740152126","","","null","","","","","","<p><img src= images/blank.png width =""600"" height = ""600"" style=""position:fixed;top:50%; left:50%; transform: translate(-50%, -50%); border:5px solid black"">","","","","","","","",""
"","2835","sequential-stimulus-presentation-old","68","378843","0.0-17.0-1.5","SS1619740152126","trial","","40","500","3335","images/stimuli/spore_stims/simple_02_A_b.gif","images/stimuli/spore_stims/simple_11_A_a.gif","forced_long","","4","simple_dissimilar","images/stimuli/spore_stims/simple_11_A_a.gif","","","","",""
"","3217","survey-multi-choice","69","382063","0.0-18.0","SS1619740152126","math_question","","","","","","","","","","","","{""Q0"":""6""}","[0]","6","",""
"","null","html-keyboard-response","70","383249","0.0-19.0-0.0","SS1619740152126","","","null","","","","","","<p><img src= images/blank.png width =""600"" height = ""600"" style=""position:fixed;top:50%; left:50%; transform: translate(-50%, -50%); border:5px solid black"">","","","","","","","",""
"","7984","sequential-stimulus-presentation-old","71","391739","0.0-19.0-1.0","SS1619740152126","trial","","40","500","8484","images/stimuli/spore_stims/simple_03_A_b.gif","images/stimuli/spore_stims/simple_09_A_a.gif","self_paced","","5","simple_dissimilar","images/stimuli/spore_stims/simple_09_A_a.gif","","","","",""
"","null","html-keyboard-response","72","392996","0.0-19.0-0.1","SS1619740152126","","","null","","","","","","<p><img src= images/blank.png width =""600"" height = ""600"" style=""position:fixed;top:50%; left:50%; transform: translate(-50%, -50%); border:5px solid black"">","","","","","","","",""
"","2729","sequential-stimulus-presentation-old","73","396228","0.0-19.0-1.1","SS1619740152126","trial","","40","500","3229","images/stimuli/spore_stims/simple_03_A_b.gif","images/stimuli/spore_stims/simple_09_A_a.gif","self_paced","","5","simple_dissimilar","images/stimuli/spore_stims/simple_09_A_a.gif","","","","",""
"","null","html-keyboard-response","74","397324","0.0-19.0-0.2","SS1619740152126","","","null","","","","","","<p><img src= images/blank.png width =""600"" height = ""600"" style=""position:fixed;top:50%; left:50%; transform: translate(-50%, -50%); border:5px solid black"">","","","","","","","",""
"","4525","sequential-stimulus-presentation-old","75","402354","0.0-19.0-1.2","SS1619740152126","trial","","40","500","5025","images/stimuli/spore_stims/simple_03_A_b.gif","images/stimuli/spore_stims/simple_09_A_a.gif","self_paced","","5","simple_dissimilar","images/stimuli/spore_stims/simple_09_A_a.gif","","","","",""
"","null","html-keyboard-response","76","403367","0.0-19.0-0.3","SS1619740152126","","","null","","","","","","<p><img src= images/blank.png width =""600"" height = ""600"" style=""position:fixed;top:50%; left:50%; transform: translate(-50%, -50%); border:5px solid black"">","","","","","","","",""
"","6022","sequential-stimulus-presentation-old","77","409892","0.0-19.0-1.3","SS1619740152126","trial","","40","500","6522","images/stimuli/spore_stims/simple_03_A_b.gif","images/stimuli/spore_stims/simple_09_A_a.gif","self_paced","","5","simple_dissimilar","images/stimuli/spore_stims/simple_09_A_a.gif","","","","",""
"","null","html-keyboard-response","78","410972","0.0-19.0-0.4","SS1619740152126","","","null","","","","","","<p><img src= images/blank.png width =""600"" height = ""600"" style=""position:fixed;top:50%; left:50%; transform: translate(-50%, -50%); border:5px solid black"">","","","","","","","",""
"","14101","sequential-stimulus-presentation-old","79","425579","0.0-19.0-1.4","SS1619740152126","trial","","40","500","14601","images/stimuli/spore_stims/simple_03_A_b.gif","images/stimuli/spore_stims/simple_09_A_a.gif","self_paced","","5","simple_dissimilar","images/stimuli/spore_stims/simple_03_A_b.gif","","","","",""
"","3657","survey-multi-choice","80","429243","0.0-20.0","SS1619740152126","math_question","","","","","","","","","","","","{""Q0"":""4""}","[0]","4","",""
"","null","html-keyboard-response","81","430542","0.0-21.0-0.0","SS1619740152126","","","null","","","","","","<p><img src= images/blank.png width =""600"" height = ""600"" style=""position:fixed;top:50%; left:50%; transform: translate(-50%, -50%); border:5px solid black"">","","","","","","","",""
"","2281","sequential-stimulus-presentation-old","82","433330","0.0-21.0-1.0","SS1619740152126","trial","","40","500","2781","images/stimuli/spore_stims/simple_07_A_b.gif","images/stimuli/spore_stims/simple_03_A_a.gif","forced_short","","6","simple_dissimilar","images/stimuli/spore_stims/simple_03_A_a.gif","","","","",""
"","null","html-keyboard-response","83","434188","0.0-21.0-0.1","SS1619740152126","","","null","","","","","","<p><img src= images/blank.png width =""600"" height = ""600"" style=""position:fixed;top:50%; left:50%; transform: translate(-50%, -50%); border:5px solid black"">","","","","","","","",""
"","5468","sequential-stimulus-presentation-old","84","440162","0.0-21.0-1.1","SS1619740152126","trial","","40","500","5968","images/stimuli/spore_stims/simple_07_A_b.gif","images/stimuli/spore_stims/simple_03_A_a.gif","forced_short","","6","simple_dissimilar","images/stimuli/spore_stims/simple_03_A_a.gif","","","","",""
"","null","html-keyboard-response","85","441450","0.0-21.0-0.2","SS1619740152126","","","null","","","","","","<p><img src= images/blank.png width =""600"" height = ""600"" style=""position:fixed;top:50%; left:50%; transform: translate(-50%, -50%); border:5px solid black"">","","","","","","","",""
"","5677","sequential-stimulus-presentation-old","86","447634","0.0-21.0-1.2","SS1619740152126","trial","","40","500","6177","images/stimuli/spore_stims/simple_07_A_b.gif","images/stimuli/spore_stims/simple_03_A_a.gif","forced_short","","6","simple_dissimilar","images/stimuli/spore_stims/simple_03_A_a.gif","","","","",""
"","null","html-keyboard-response","87","448617","0.0-21.0-0.3","SS1619740152126","","","null","","","","","","<p><img src= images/blank.png width =""600"" height = ""600"" style=""position:fixed;top:50%; left:50%; transform: translate(-50%, -50%); border:5px solid black"">","","","","","","","",""
"","1457","sequential-stimulus-presentation-old","88","450579","0.0-21.0-1.3","SS1619740152126","trial","","40","500","1957","images/stimuli/spore_stims/simple_07_A_b.gif","images/stimuli/spore_stims/simple_03_A_a.gif","forced_short","","6","simple_dissimilar","images/stimuli/spore_stims/simple_03_A_a.gif","","","","",""
"","null","html-keyboard-response","89","451648","0.0-21.0-0.4","SS1619740152126","","","null","","","","","","<p><img src= images/blank.png width =""600"" height = ""600"" style=""position:fixed;top:50%; left:50%; transform: translate(-50%, -50%); border:5px solid black"">","","","","","","","",""
"","1948","sequential-stimulus-presentation-old","90","454099","0.0-21.0-1.4","SS1619740152126","trial","","40","500","2448","images/stimuli/spore_stims/simple_07_A_b.gif","images/stimuli/spore_stims/simple_03_A_a.gif","forced_short","","6","simple_dissimilar","images/stimuli/spore_stims/simple_03_A_a.gif","","","","",""
"","null","html-keyboard-response","91","454911","0.0-21.0-0.5","SS1619740152126","","","null","","","","","","<p><img src= images/blank.png width =""600"" height = ""600"" style=""position:fixed;top:50%; left:50%; transform: translate(-50%, -50%); border:5px solid black"">","","","","","","","",""
"","7974","sequential-stimulus-presentation-old","92","463386","0.0-21.0-1.5","SS1619740152126","trial","","40","500","8474","images/stimuli/spore_stims/simple_07_A_b.gif","images/stimuli/spore_stims/simple_03_A_a.gif","forced_short","","6","simple_dissimilar","images/stimuli/spore_stims/simple_03_A_a.gif","","","","",""
"","4258","survey-multi-choice","93","467646","0.0-22.0","SS1619740152126","math_question","","","","","","","","","","","","{""Q0"":""17""}","[0]","17","",""
"","null","html-keyboard-response","94","468687","0.0-23.0-0.0","SS1619740152126","","","null","","","","","","<p><img src= images/blank.png width =""600"" height = ""600"" style=""position:fixed;top:50%; left:50%; transform: translate(-50%, -50%); border:5px solid black"">","","","","","","","",""
"","2029","sequential-stimulus-presentation-old","95","471220","0.0-23.0-1.0","SS1619740152126","trial","","40","500","2529","images/stimuli/spore_stims/complex_19_A_b.gif","images/stimuli/spore_stims/complex_14_A_a.gif","forced_short","","7","complex_dissimilar","images/stimuli/spore_stims/complex_14_A_a.gif","","","","",""
"","null","html-keyboard-response","96","472124","0.0-23.0-0.1","SS1619740152126","","","null","","","","","","<p><img src= images/blank.png width =""600"" height = ""600"" style=""position:fixed;top:50%; left:50%; transform: translate(-50%, -50%); border:5px solid black"">","","","","","","","",""
"","4251","sequential-stimulus-presentation-old","97","476883","0.0-23.0-1.1","SS1619740152126","trial","","40","500","4751","images/stimuli/spore_stims/complex_19_A_b.gif","images/stimuli/spore_stims/complex_14_A_a.gif","forced_short","","7","complex_dissimilar","images/stimuli/spore_stims/complex_14_A_a.gif","","","","",""
"","null","html-keyboard-response","98","477971","0.0-23.0-0.2","SS1619740152126","","","null","","","","","","<p><img src= images/blank.png width =""600"" height = ""600"" style=""position:fixed;top:50%; left:50%; transform: translate(-50%, -50%); border:5px solid black"">","","","","","","","",""
"","19571","sequential-stimulus-presentation-old","99","498050","0.0-23.0-1.2","SS1619740152126","trial","","40","500","20071","images/stimuli/spore_stims/complex_19_A_b.gif","images/stimuli/spore_stims/complex_14_A_a.gif","forced_short","","7","complex_dissimilar","images/stimuli/spore_stims/complex_14_A_a.gif","","","","",""
"","null","html-keyboard-response","100","499254","0.0-23.0-0.3","SS1619740152126","","","null","","","","","","<p><img src= images/blank.png width =""600"" height = ""600"" style=""position:fixed;top:50%; left:50%; transform: translate(-50%, -50%); border:5px solid black"">","","","","","","","",""
"","10504","sequential-stimulus-presentation-old","101","510260","0.0-23.0-1.3","SS1619740152126","trial","","40","500","11004","images/stimuli/spore_stims/complex_19_A_b.gif","images/stimuli/spore_stims/complex_14_A_a.gif","forced_short","","7","complex_dissimilar","images/stimuli/spore_stims/complex_19_A_b.gif","","","","",""
"","null","html-keyboard-response","102","511321","0.0-23.0-0.4","SS1619740152126","","","null","","","","","","<p><img src= images/blank.png width =""600"" height = ""600"" style=""position:fixed;top:50%; left:50%; transform: translate(-50%, -50%); border:5px solid black"">","","","","","","","",""
"","3131","sequential-stimulus-presentation-old","103","514956","0.0-23.0-1.4","SS1619740152126","trial","","40","500","3631","images/stimuli/spore_stims/complex_19_A_b.gif","images/stimuli/spore_stims/complex_14_A_a.gif","forced_short","","7","complex_dissimilar","images/stimuli/spore_stims/complex_14_A_a.gif","","","","",""
"","5132","survey-multi-choice","104","520093","0.0-24.0","SS1619740152126","math_question","","","","","","","","","","","","{""Q0"":""7""}","[0]","7","",""
"","null","html-keyboard-response","105","520924","0.0-25.0-0.0","SS1619740152126","","","null","","","","","","<p><img src= images/blank.png width =""600"" height = ""600"" style=""position:fixed;top:50%; left:50%; transform: translate(-50%, -50%); border:5px solid black"">","","","","","","","",""
"","8590","sequential-stimulus-presentation-old","106","530020","0.0-25.0-1.0","SS1619740152126","trial","","40","500","9090","images/stimuli/spore_stims/simple_20_A_a.gif","images/stimuli/spore_stims/simple_14_A_b.gif","self_paced","","8","simple_dissimilar","images/stimuli/spore_stims/simple_14_A_b.gif","","","","",""
"","null","html-keyboard-response","107","531199","0.0-25.0-0.1","SS1619740152126","","","null","","","","","","<p><img src= images/blank.png width =""600"" height = ""600"" style=""position:fixed;top:50%; left:50%; transform: translate(-50%, -50%); border:5px solid black"">","","","","","","","",""
"","1802","sequential-stimulus-presentation-old","108","533508","0.0-25.0-1.1","SS1619740152126","trial","","40","500","2302","images/stimuli/spore_stims/simple_20_A_a.gif","images/stimuli/spore_stims/simple_14_A_b.gif","self_paced","","8","simple_dissimilar","images/stimuli/spore_stims/simple_14_A_b.gif","","","","",""
"","null","html-keyboard-response","109","534550","0.0-25.0-0.2","SS1619740152126","","","null","","","","","","<p><img src= images/blank.png width =""600"" height = ""600"" style=""position:fixed;top:50%; left:50%; transform: translate(-50%, -50%); border:5px solid black"">","","","","","","","",""
"","3904","sequential-stimulus-presentation-old","110","538963","0.0-25.0-1.2","SS1619740152126","trial","","40","500","4404","images/stimuli/spore_stims/simple_20_A_a.gif","images/stimuli/spore_stims/simple_14_A_b.gif","self_paced","","8","simple_dissimilar","images/stimuli/spore_stims/simple_14_A_b.gif","","","","",""
"","null","html-keyboard-response","111","539764","0.0-25.0-0.3","SS1619740152126","","","null","","","","","","<p><img src= images/blank.png width =""600"" height = ""600"" style=""position:fixed;top:50%; left:50%; transform: translate(-50%, -50%); border:5px solid black"">","","","","","","","",""
"","1877","sequential-stimulus-presentation-old","112","542146","0.0-25.0-1.3","SS1619740152126","trial","","40","500","2377","images/stimuli/spore_stims/simple_20_A_a.gif","images/stimuli/spore_stims/simple_14_A_b.gif","self_paced","","8","simple_dissimilar","images/stimuli/spore_stims/simple_14_A_b.gif","","","","",""
"","3012","survey-multi-choice","113","545161","0.0-26.0","SS1619740152126","math_question","","","","","","","","","","","","{""Q0"":""6""}","[0]","6","",""
"","null","html-keyboard-response","114","546467","0.0-27.0-0.0","SS1619740152126","","","null","","","","","","<p><img src= images/blank.png width =""600"" height = ""600"" style=""position:fixed;top:50%; left:50%; transform: translate(-50%, -50%); border:5px solid black"">","","","","","","","",""
"","617","sequential-stimulus-presentation-old","115","562091","0.0-27.0-1.0","SS1619740152126","trial","","40","500","1117","images/stimuli/spore_stims/complex_14_A_b.gif","images/stimuli/spore_stims/complex_01_A_a.gif","forced_long","","9","complex_dissimilar","images/stimuli/spore_stims/complex_01_A_a.gif","","","","",""
"","null","html-keyboard-response","116","563391","0.0-27.0-0.1","SS1619740152126","","","null","","","","","","<p><img src= images/blank.png width =""600"" height = ""600"" style=""position:fixed;top:50%; left:50%; transform: translate(-50%, -50%); border:5px solid black"">","","","","","","","",""
"","1686","sequential-stimulus-presentation-old","117","565579","0.0-27.0-1.1","SS1619740152126","trial","","40","500","2186","images/stimuli/spore_stims/complex_14_A_b.gif","images/stimuli/spore_stims/complex_01_A_a.gif","forced_long","","9","complex_dissimilar","images/stimuli/spore_stims/complex_01_A_a.gif","","","","",""
"","null","html-keyboard-response","118","566547","0.0-27.0-0.2","SS1619740152126","","","null","","","","","","<p><img src= images/blank.png width =""600"" height = ""600"" style=""position:fixed;top:50%; left:50%; transform: translate(-50%, -50%); border:5px solid black"">","","","","","","","",""
"","1489","sequential-stimulus-presentation-old","119","568539","0.0-27.0-1.2","SS1619740152126","trial","","40","500","1989","images/stimuli/spore_stims/complex_14_A_b.gif","images/stimuli/spore_stims/complex_01_A_a.gif","forced_long","","9","complex_dissimilar","images/stimuli/spore_stims/complex_01_A_a.gif","","","","",""
"","null","html-keyboard-response","120","569747","0.0-27.0-0.3","SS1619740152126","","","null","","","","","","<p><img src= images/blank.png width =""600"" height = ""600"" style=""position:fixed;top:50%; left:50%; transform: translate(-50%, -50%); border:5px solid black"">","","","","","","","",""
"","4977","sequential-stimulus-presentation-old","121","575228","0.0-27.0-1.3","SS1619740152126","trial","","40","500","5477","images/stimuli/spore_stims/complex_14_A_b.gif","images/stimuli/spore_stims/complex_01_A_a.gif","forced_long","","9","complex_dissimilar","images/stimuli/spore_stims/complex_14_A_b.gif","","","","",""
"","4358","survey-multi-choice","122","579589","0.0-28.0","SS1619740152126","math_question","","","","","","","","","","","","{""Q0"":""14""}","[0]","14","",""
"","null","html-keyboard-response","123","580772","0.0-29.0-0.0","SS1619740152126","","","null","","","","","","<p><img src= images/blank.png width =""600"" height = ""600"" style=""position:fixed;top:50%; left:50%; transform: translate(-50%, -50%); border:5px solid black"">","","","","","","","",""
"","4727","sequential-stimulus-presentation-old","124","586003","0.0-29.0-1.0","SS1619740152126","trial","","40","500","5227","images/stimuli/spore_stims/complex_05_A_b.gif","images/stimuli/spore_stims/complex_10_A_a.gif","self_paced","","10","complex_dissimilar","images/stimuli/spore_stims/complex_10_A_a.gif","","","","",""
"","null","html-keyboard-response","125","587197","0.0-29.0-0.1","SS1619740152126","","","null","","","","","","<p><img src= images/blank.png width =""600"" height = ""600"" style=""position:fixed;top:50%; left:50%; transform: translate(-50%, -50%); border:5px solid black"">","","","","","","","",""
"","6777","sequential-stimulus-presentation-old","126","594484","0.0-29.0-1.1","SS1619740152126","trial","","40","500","7277","images/stimuli/spore_stims/complex_05_A_b.gif","images/stimuli/spore_stims/complex_10_A_a.gif","self_paced","","10","complex_dissimilar","images/stimuli/spore_stims/complex_10_A_a.gif","","","","",""
"","null","html-keyboard-response","127","595754","0.0-29.0-0.2","SS1619740152126","","","null","","","","","","<p><img src= images/blank.png width =""600"" height = ""600"" style=""position:fixed;top:50%; left:50%; transform: translate(-50%, -50%); border:5px solid black"">","","","","","","","",""
"","2593","sequential-stimulus-presentation-old","128","598850","0.0-29.0-1.2","SS1619740152126","trial","","40","500","3093","images/stimuli/spore_stims/complex_05_A_b.gif","images/stimuli/spore_stims/complex_10_A_a.gif","self_paced","","10","complex_dissimilar","images/stimuli/spore_stims/complex_10_A_a.gif","","","","",""
"","null","html-keyboard-response","129","599802","0.0-29.0-0.3","SS1619740152126","","","null","","","","","","<p><img src= images/blank.png width =""600"" height = ""600"" style=""position:fixed;top:50%; left:50%; transform: translate(-50%, -50%); border:5px solid black"">","","","","","","","",""
"","3679","sequential-stimulus-presentation-old","130","603987","0.0-29.0-1.3","SS1619740152126","trial","","40","500","4179","images/stimuli/spore_stims/complex_05_A_b.gif","images/stimuli/spore_stims/complex_10_A_a.gif","self_paced","","10","complex_dissimilar","images/stimuli/spore_stims/complex_05_A_b.gif","","","","",""
"","null","html-keyboard-response","131","605096","0.0-29.0-0.4","SS1619740152126","","","null","","","","","","<p><img src= images/blank.png width =""600"" height = ""600"" style=""position:fixed;top:50%; left:50%; transform: translate(-50%, -50%); border:5px solid black"">","","","","","","","",""
"","5072","sequential-stimulus-presentation-old","132","610674","0.0-29.0-1.4","SS1619740152126","trial","","40","500","5572","images/stimuli/spore_stims/complex_05_A_b.gif","images/stimuli/spore_stims/complex_10_A_a.gif","self_paced","","10","complex_dissimilar","images/stimuli/spore_stims/complex_05_A_b.gif","","","","",""
"","null","html-keyboard-response","133","611497","0.0-29.0-0.5","SS1619740152126","","","null","","","","","","<p><img src= images/blank.png width =""600"" height = ""600"" style=""position:fixed;top:50%; left:50%; transform: translate(-50%, -50%); border:5px solid black"">","","","","","","","",""
"","4380","sequential-stimulus-presentation-old","134","616380","0.0-29.0-1.5","SS1619740152126","trial","","40","500","4880","images/stimuli/spore_stims/complex_05_A_b.gif","images/stimuli/spore_stims/complex_10_A_a.gif","self_paced","","10","complex_dissimilar","images/stimuli/spore_stims/complex_10_A_a.gif","","","","",""
"","3620","survey-multi-choice","135","620009","0.0-30.0","SS1619740152126","math_question","","","","","","","","","","","","{""Q0"":""8""}","[0]","8","",""
"","null","html-keyboard-response","136","620906","0.0-31.0-0.0","SS1619740152126","","","null","","","","","","<p><img src= images/blank.png width =""600"" height = ""600"" style=""position:fixed;top:50%; left:50%; transform: translate(-50%, -50%); border:5px solid black"">","","","","","","","",""
"","2032","sequential-stimulus-presentation-old","137","637948","0.0-31.0-1.0","SS1619740152126","trial","","40","500","2532","images/stimuli/spore_stims/simple_05_A_b.gif","images/stimuli/spore_stims/simple_04_A_a.gif","forced_long","","11","simple_dissimilar","images/stimuli/spore_stims/simple_04_A_a.gif","","","","",""
"","null","html-keyboard-response","138","638782","0.0-31.0-0.1","SS1619740152126","","","null","","","","","","<p><img src= images/blank.png width =""600"" height = ""600"" style=""position:fixed;top:50%; left:50%; transform: translate(-50%, -50%); border:5px solid black"">","","","","","","","",""
"","14357","sequential-stimulus-presentation-old","139","653642","0.0-31.0-1.1","SS1619740152126","trial","","40","500","14857","images/stimuli/spore_stims/simple_05_A_b.gif","images/stimuli/spore_stims/simple_04_A_a.gif","forced_long","","11","simple_dissimilar","images/stimuli/spore_stims/simple_04_A_a.gif","","","","",""
"","null","html-keyboard-response","140","654887","0.0-31.0-0.2","SS1619740152126","","","null","","","","","","<p><img src= images/blank.png width =""600"" height = ""600"" style=""position:fixed;top:50%; left:50%; transform: translate(-50%, -50%); border:5px solid black"">","","","","","","","",""
"","1630","sequential-stimulus-presentation-old","141","657026","0.0-31.0-1.2","SS1619740152126","trial","","40","500","2130","images/stimuli/spore_stims/simple_05_A_b.gif","images/stimuli/spore_stims/simple_04_A_a.gif","forced_long","","11","simple_dissimilar","images/stimuli/spore_stims/simple_04_A_a.gif","","","","",""
"","null","html-keyboard-response","142","658026","0.0-31.0-0.3","SS1619740152126","","","null","","","","","","<p><img src= images/blank.png width =""600"" height = ""600"" style=""position:fixed;top:50%; left:50%; transform: translate(-50%, -50%); border:5px solid black"">","","","","","","","",""
"","5971","sequential-stimulus-presentation-old","143","664500","0.0-31.0-1.3","SS1619740152126","trial","","40","500","6471","images/stimuli/spore_stims/simple_05_A_b.gif","images/stimuli/spore_stims/simple_04_A_a.gif","forced_long","","11","simple_dissimilar","images/stimuli/spore_stims/simple_05_A_b.gif","","","","",""
"","null","html-keyboard-response","144","665703","0.0-31.0-0.4","SS1619740152126","","","null","","","","","","<p><img src= images/blank.png width =""600"" height = ""600"" style=""position:fixed;top:50%; left:50%; transform: translate(-50%, -50%); border:5px solid black"">","","","","","","","",""
"","8389","sequential-stimulus-presentation-old","145","674594","0.0-31.0-1.4","SS1619740152126","trial","","40","500","8889","images/stimuli/spore_stims/simple_05_A_b.gif","images/stimuli/spore_stims/simple_04_A_a.gif","forced_long","","11","simple_dissimilar","images/stimuli/spore_stims/simple_04_A_a.gif","","","","",""
"[{""page_index"":0,""viewing_time"":5348}]","5348","instructions","146","679949","0.0-32.0","SS1619740152126","instructions","","","","","","","","","","","","","","","",""
"","10922","survey-likert","147","690881","0.0-33.0","SS1619740152126","similarity_question","","","","","","","","","","","","{""Q0"":4}","[0]","","images/stimuli/spore_stims/simple_03_A_a.gif","images/stimuli/spore_stims/simple_07_A_b.gif"
"","13406","survey-likert","148","704297","0.0-34.0","SS1619740152126","similarity_question","","","","","","","","","","","","{""Q0"":3}","[0]","","images/stimuli/spore_stims/complex_10_A_a.gif","images/stimuli/spore_stims/complex_05_A_b.gif"
"","6468","survey-likert","149","710776","0.0-35.0","SS1619740152126","similarity_question","","","","","","","","","","","","{""Q0"":2}","[0]","","images/stimuli/spore_stims/complex_08_A_a.gif","images/stimuli/spore_stims/complex_20_A_b.gif"
"","8874","survey-likert","150","719661","0.0-36.0","SS1619740152126","similarity_question","","","","","","","","","","","","{""Q0"":2}","[0]","","images/stimuli/spore_stims/complex_01_A_a.gif","images/stimuli/spore_stims/complex_14_A_b.gif"
"","5307","survey-likert","151","724979","0.0-37.0","SS1619740152126","similarity_question","","","","","","","","","","","","{""Q0"":1}","[0]","","images/stimuli/spore_stims/complex_07_A_b.gif","images/stimuli/spore_stims/complex_15_A_a.gif"
"","6067","survey-likert","152","731054","0.0-38.0","SS1619740152126","similarity_question","","","","","","","","","","","","{""Q0"":2}","[0]","","images/stimuli/spore_stims/complex_19_A_b.gif","images/stimuli/spore_stims/complex_14_A_a.gif"
"","8986","survey-likert","153","740050","0.0-39.0","SS1619740152126","similarity_question","","","","","","","","","","","","{""Q0"":4}","[0]","","images/stimuli/spore_stims/simple_03_A_b.gif","images/stimuli/spore_stims/simple_09_A_a.gif"
"","4292","survey-likert","154","744353","0.0-40.0","SS1619740152126","similarity_question","","","","","","","","","","","","{""Q0"":3}","[0]","","images/stimuli/spore_stims/simple_05_A_b.gif","images/stimuli/spore_stims/simple_04_A_a.gif"
"","4592","survey-likert","155","748954","0.0-41.0","SS1619740152126","similarity_question","","","","","","","","","","","","{""Q0"":4}","[0]","","images/stimuli/spore_stims/simple_14_A_b.gif","images/stimuli/spore_stims/simple_20_A_a.gif"
"","5429","survey-likert","156","754393","0.0-42.0","SS1619740152126","similarity_question","","","","","","","","","","","","{""Q0"":3}","[0]","","images/stimuli/spore_stims/simple_11_A_a.gif","images/stimuli/spore_stims/simple_02_A_b.gif"
"","6412","survey-likert","157","760814","0.0-43.0","SS1619740152126","similarity_question","","","","","","","","","","","","{""Q0"":1}","[0]","","images/stimuli/spore_stims/complex_03_A_b.gif","images/stimuli/spore_stims/complex_13_A_a.gif"
"","3788","survey-likert","158","764614","0.0-44.0","SS1619740152126","similarity_question","","","","","","","","","","","","{""Q0"":4}","[0]","","images/stimuli/spore_stims/simple_15_A_b.gif","images/stimuli/spore_stims/simple_12_A_a.gif"
"[{""page_index"":0,""viewing_time"":5399}]","5399","instructions","159","770024","0.0-45.0","SS1619740152126","instructions","","","","","","","","","","","","","","","",""
"","14797","survey-likert","160","784825","0.0-46.0","SS1619740152126","","","","","","","","","images/stimuli/spore_stims/complex_05_A_b.gif","","","","{""Q0"":4}","[0]","","",""
"","6258","survey-likert","161","791093","0.0-47.0","SS1619740152126","","","","","","","","","images/stimuli/spore_stims/simple_03_A_b.gif","","","","{""Q0"":1}","[0]","","",""
"","4104","survey-likert","162","795207","0.0-48.0","SS1619740152126","","","","","","","","","images/stimuli/spore_stims/simple_20_A_a.gif","","","","{""Q0"":1}","[0]","","",""
"","4471","survey-likert","163","799686","0.0-49.0","SS1619740152126","","","","","","","","","images/stimuli/spore_stims/simple_04_A_a.gif","","","","{""Q0"":0}","[0]","","",""
"","3964","survey-likert","164","803660","0.0-50.0","SS1619740152126","","","","","","","","","images/stimuli/spore_stims/complex_19_A_b.gif","","","","{""Q0"":5}","[0]","","",""
"","2829","survey-likert","165","806500","0.0-51.0","SS1619740152126","","","","","","","","","images/stimuli/spore_stims/complex_03_A_b.gif","","","","{""Q0"":4}","[0]","","",""
"","5454","survey-likert","166","811965","0.0-52.0","SS1619740152126","","","","","","","","","images/stimuli/spore_stims/complex_08_A_a.gif","","","","{""Q0"":4}","[0]","","",""
"","2721","survey-likert","167","814696","0.0-53.0","SS1619740152126","","","","","","","","","images/stimuli/spore_stims/complex_07_A_b.gif","","","","{""Q0"":5}","[0]","","",""
"","3966","survey-likert","168","818673","0.0-54.0","SS1619740152126","","","","","","","","","images/stimuli/spore_stims/simple_15_A_b.gif","","","","{""Q0"":0}","[0]","","",""
"","2702","survey-likert","169","821384","0.0-55.0","SS1619740152126","","","","","","","","","images/stimuli/spore_stims/simple_02_A_b.gif","","","","{""Q0"":0}","[0]","","",""
"","10823","survey-likert","170","832218","0.0-56.0","SS1619740152126","","","","","","","","","images/stimuli/spore_stims/complex_14_A_b.gif","","","","{""Q0"":4}","[0]","","",""
"","3313","survey-likert","171","835542","0.0-57.0","SS1619740152126","","","","","","","","","images/stimuli/spore_stims/simple_07_A_b.gif","","","","{""Q0"":1}","[0]","","",""
"[{""page_index"":0,""viewing_time"":1464}]","1464","instructions","172","837015","0.0-58.0","SS1619740152126","instructions","","","","","","","","","","","","","","","",""
"","1878","demog-age","173","838899","0.0-59.0","SS1619740152126","","","","","","","","","","","","","{""age"":""31""}","","","",""
"","3762","demog-ethnic-US","174","842666","0.0-60.0","SS1619740152126","","","","","","","","","","","","","{""ethnicity"":[""White""]}","[0]","","",""
"","17047","demog-gender-and-education","175","859724","0.0-61.0","SS1619740152126","","","","","","","","","","","","","{""gender"":""Male"",""education"":""Associate Degree/Technical certification""}","[0,1]","","",""
"","18907","survey-text","176","878643","0.0-62.0","SS1619740152126","feedback","","","","","","","","","","","","{""Q0"":""looks like the creatures from the game Spore""}","","","",""
"[{""page_index"":0,""viewing_time"":2111}]","2111","instructions","177","880758","0.0-63.0","SS1619740152126","instructions","","","","","","","","","","","","","","","",""
