"view_history","rt","trial_type","trial_index","time_elapsed","internal_node_id","subject","stimulus_type","trial_stimulus","key_press","minimum_viewing_duration","trial_looking_time","block_deviant","block_background","exposure_type","stimulus","block_number","block_type","stimulus_displayed","responses","question_order","math_correct_answer","stimulus_left","stimulus_right"
"[{""page_index"":0,""viewing_time"":1838.4150000056252}]","1839.0000000363216","instructions","0","1841","0.0-0.0","SS1619739535999","","","","","","","","","","","","","","","","",""
"[{""page_index"":0,""viewing_time"":18954.31500003906},{""page_index"":1,""viewing_time"":6392.675000010058}]","25347.36499999417","instructions","1","29200","0.0-1.0","SS1619739535999","instructions","","","","","","","","","","","","","","","",""
"","14402.799999981653","sequential-stimulus-presentation-old","2","44108","0.0-2.0","SS1619739535999","","","40","500","14902.799999981653","null","null","self_paced","","","","","","","","",""
"","9703.734999988228","sequential-stimulus-presentation-old","3","54317","0.0-3.0","SS1619739535999","","","40","500","10203.734999988228","null","null","self_paced","","","","","","","","",""
"[{""page_index"":0,""viewing_time"":15272.85499998834}]","15273.40499998536","instructions","4","69585","0.0-4.0","SS1619739535999","instructions","","","","","","","","","","","","","","","",""
"","779.2550000012852","sequential-stimulus-presentation-old","5","85375","0.0-5.0","SS1619739535999","","","40","500","1279.2550000012852","null","null","forced_long","","","","","","","","",""
"","2404.770000022836","sequential-stimulus-presentation-old","6","88283","0.0-6.0","SS1619739535999","","","40","500","2904.770000022836","null","null","forced_long","","","","","","","","",""
"[{""page_index"":0,""viewing_time"":4461.204999999609}]","4461.609999998473","instructions","7","92746","0.0-7.0","SS1619739535999","instructions","","","","","","","","","","","","","","","",""
"[{""page_index"":0,""viewing_time"":5157.0449999999255},{""page_index"":1,""viewing_time"":5535.8950000372715},{""page_index"":2,""viewing_time"":1055.4249999695458},{""page_index"":3,""viewing_time"":1599.869999976363},{""page_index"":4,""viewing_time"":1720.74000001885}]","15069.465000007767","instructions","8","107817","0.0-8.0","SS1619739535999","instructions","","","","","","","","","","","","","","","",""
"","null","html-keyboard-response","9","108879","0.0-9.0-0.0","SS1619739535999","","","null","","","","","","<p><img src= images/blank.png width =""600"" height = ""600"" style=""position:fixed;top:50%; left:50%; transform: translate(-50%, -50%); border:5px solid black"">","","","","","","","",""
"","25744.230000011157","sequential-stimulus-presentation-old","10","135150","0.0-9.0-1.0","SS1619739535999","trial","","40","500","26244.230000011157","images/stimuli/spore_stims/complex_03_A_a.gif","images/stimuli/spore_stims/complex_19_A_b.gif","self_paced","","0","complex_dissimilar","images/stimuli/spore_stims/complex_19_A_b.gif","","","","",""
"","null","html-keyboard-response","11","136081","0.0-9.0-0.1","SS1619739535999","","","null","","","","","","<p><img src= images/blank.png width =""600"" height = ""600"" style=""position:fixed;top:50%; left:50%; transform: translate(-50%, -50%); border:5px solid black"">","","","","","","","",""
"","23258.59500002116","sequential-stimulus-presentation-old","12","159845","0.0-9.0-1.1","SS1619739535999","trial","","40","500","23758.59500002116","images/stimuli/spore_stims/complex_03_A_a.gif","images/stimuli/spore_stims/complex_19_A_b.gif","self_paced","","0","complex_dissimilar","images/stimuli/spore_stims/complex_19_A_b.gif","","","","",""
"","null","html-keyboard-response","13","160874","0.0-9.0-0.2","SS1619739535999","","","null","","","","","","<p><img src= images/blank.png width =""600"" height = ""600"" style=""position:fixed;top:50%; left:50%; transform: translate(-50%, -50%); border:5px solid black"">","","","","","","","",""
"","9461.384999973234","sequential-stimulus-presentation-old","14","170847","0.0-9.0-1.2","SS1619739535999","trial","","40","500","9961.384999973234","images/stimuli/spore_stims/complex_03_A_a.gif","images/stimuli/spore_stims/complex_19_A_b.gif","self_paced","","0","complex_dissimilar","images/stimuli/spore_stims/complex_19_A_b.gif","","","","",""
"","null","html-keyboard-response","15","171920","0.0-9.0-0.3","SS1619739535999","","","null","","","","","","<p><img src= images/blank.png width =""600"" height = ""600"" style=""position:fixed;top:50%; left:50%; transform: translate(-50%, -50%); border:5px solid black"">","","","","","","","",""
"","43620.764999999665","sequential-stimulus-presentation-old","16","216055","0.0-9.0-1.3","SS1619739535999","trial","","40","500","44120.764999999665","images/stimuli/spore_stims/complex_03_A_a.gif","images/stimuli/spore_stims/complex_19_A_b.gif","self_paced","","0","complex_dissimilar","images/stimuli/spore_stims/complex_19_A_b.gif","","","","",""
"","null","html-keyboard-response","17","217149","0.0-9.0-0.4","SS1619739535999","","","null","","","","","","<p><img src= images/blank.png width =""600"" height = ""600"" style=""position:fixed;top:50%; left:50%; transform: translate(-50%, -50%); border:5px solid black"">","","","","","","","",""
"","374.855000001844","sequential-stimulus-presentation-old","18","218041","0.0-9.0-1.4","SS1619739535999","trial","","40","500","874.855000001844","images/stimuli/spore_stims/complex_03_A_a.gif","images/stimuli/spore_stims/complex_19_A_b.gif","self_paced","","0","complex_dissimilar","images/stimuli/spore_stims/complex_19_A_b.gif","","","","",""
"","null","html-keyboard-response","19","219284","0.0-9.0-0.5","SS1619739535999","","","null","","","","","","<p><img src= images/blank.png width =""600"" height = ""600"" style=""position:fixed;top:50%; left:50%; transform: translate(-50%, -50%); border:5px solid black"">","","","","","","","",""
"","385.2299999562092","sequential-stimulus-presentation-old","20","220184","0.0-9.0-1.5","SS1619739535999","trial","","40","500","885.2299999562092","images/stimuli/spore_stims/complex_03_A_a.gif","images/stimuli/spore_stims/complex_19_A_b.gif","self_paced","","0","complex_dissimilar","images/stimuli/spore_stims/complex_19_A_b.gif","","","","",""
"","4281.510000000708","survey-multi-choice","21","224470","0.0-10.0","SS1619739535999","math_question","","","","","","","","","","","","{""Q0"":""11""}","[0]","11","",""
"","null","html-keyboard-response","22","225425","0.0-11.0-0.0","SS1619739535999","","","null","","","","","","<p><img src= images/blank.png width =""600"" height = ""600"" style=""position:fixed;top:50%; left:50%; transform: translate(-50%, -50%); border:5px solid black"">","","","","","","","",""
"","3471.1450000177138","sequential-stimulus-presentation-old","23","229403","0.0-11.0-1.0","SS1619739535999","trial","","40","500","3971.1450000177138","images/stimuli/spore_stims/simple_03_A_a.gif","images/stimuli/spore_stims/simple_05_A_b.gif","self_paced","","1","simple_dissimilar","images/stimuli/spore_stims/simple_05_A_b.gif","","","","",""
"","null","html-keyboard-response","24","230684","0.0-11.0-0.1","SS1619739535999","","","null","","","","","","<p><img src= images/blank.png width =""600"" height = ""600"" style=""position:fixed;top:50%; left:50%; transform: translate(-50%, -50%); border:5px solid black"">","","","","","","","",""
"","13057.695000024978","sequential-stimulus-presentation-old","25","244258","0.0-11.0-1.1","SS1619739535999","trial","","40","500","13557.695000024978","images/stimuli/spore_stims/simple_03_A_a.gif","images/stimuli/spore_stims/simple_05_A_b.gif","self_paced","","1","simple_dissimilar","images/stimuli/spore_stims/simple_05_A_b.gif","","","","",""
"","null","html-keyboard-response","26","245482","0.0-11.0-0.2","SS1619739535999","","","null","","","","","","<p><img src= images/blank.png width =""600"" height = ""600"" style=""position:fixed;top:50%; left:50%; transform: translate(-50%, -50%); border:5px solid black"">","","","","","","","",""
"","16414.90499995416","sequential-stimulus-presentation-old","27","262405","0.0-11.0-1.2","SS1619739535999","trial","","40","500","16914.90499995416","images/stimuli/spore_stims/simple_03_A_a.gif","images/stimuli/spore_stims/simple_05_A_b.gif","self_paced","","1","simple_dissimilar","images/stimuli/spore_stims/simple_05_A_b.gif","","","","",""
"","null","html-keyboard-response","28","263262","0.0-11.0-0.3","SS1619739535999","","","null","","","","","","<p><img src= images/blank.png width =""600"" height = ""600"" style=""position:fixed;top:50%; left:50%; transform: translate(-50%, -50%); border:5px solid black"">","","","","","","","",""
"","6830.359999963548","sequential-stimulus-presentation-old","29","270610","0.0-11.0-1.3","SS1619739535999","trial","","40","500","7330.359999963548","images/stimuli/spore_stims/simple_03_A_a.gif","images/stimuli/spore_stims/simple_05_A_b.gif","self_paced","","1","simple_dissimilar","images/stimuli/spore_stims/simple_03_A_a.gif","","","","",""
"","5368.86000004597","survey-multi-choice","30","275982","0.0-12.0","SS1619739535999","math_question","","","","","","","","","","","","{""Q0"":""14""}","[0]","14","",""
"","null","html-keyboard-response","31","277142","0.0-13.0-0.0","SS1619739535999","","","null","","","","","","<p><img src= images/blank.png width =""600"" height = ""600"" style=""position:fixed;top:50%; left:50%; transform: translate(-50%, -50%); border:5px solid black"">","","","","","","","",""
"","22136.490000004414","sequential-stimulus-presentation-old","32","314272","0.0-13.0-1.0","SS1619739535999","trial","","40","500","22636.490000004414","images/stimuli/spore_stims/complex_14_A_a.gif","images/stimuli/spore_stims/complex_10_A_b.gif","forced_long","","2","complex_dissimilar","images/stimuli/spore_stims/complex_10_A_b.gif","","","","",""
"","null","html-keyboard-response","33","315517","0.0-13.0-0.1","SS1619739535999","","","null","","","","","","<p><img src= images/blank.png width =""600"" height = ""600"" style=""position:fixed;top:50%; left:50%; transform: translate(-50%, -50%); border:5px solid black"">","","","","","","","",""
"","2805.6500000529923","sequential-stimulus-presentation-old","34","318837","0.0-13.0-1.1","SS1619739535999","trial","","40","500","3305.6500000529923","images/stimuli/spore_stims/complex_14_A_a.gif","images/stimuli/spore_stims/complex_10_A_b.gif","forced_long","","2","complex_dissimilar","images/stimuli/spore_stims/complex_14_A_a.gif","","","","",""
"","null","html-keyboard-response","35","320017","0.0-13.0-0.2","SS1619739535999","","","null","","","","","","<p><img src= images/blank.png width =""600"" height = ""600"" style=""position:fixed;top:50%; left:50%; transform: translate(-50%, -50%); border:5px solid black"">","","","","","","","",""
"","41466.804999974556","sequential-stimulus-presentation-old","36","362010","0.0-13.0-1.2","SS1619739535999","trial","","40","500","41966.804999974556","images/stimuli/spore_stims/complex_14_A_a.gif","images/stimuli/spore_stims/complex_10_A_b.gif","forced_long","","2","complex_dissimilar","images/stimuli/spore_stims/complex_10_A_b.gif","","","","",""
"","null","html-keyboard-response","37","363169","0.0-13.0-0.3","SS1619739535999","","","null","","","","","","<p><img src= images/blank.png width =""600"" height = ""600"" style=""position:fixed;top:50%; left:50%; transform: translate(-50%, -50%); border:5px solid black"">","","","","","","","",""
"","9455.520000017714","sequential-stimulus-presentation-old","38","373131","0.0-13.0-1.3","SS1619739535999","trial","","40","500","9955.520000017714","images/stimuli/spore_stims/complex_14_A_a.gif","images/stimuli/spore_stims/complex_10_A_b.gif","forced_long","","2","complex_dissimilar","images/stimuli/spore_stims/complex_14_A_a.gif","","","","",""
"","null","html-keyboard-response","39","374306","0.0-13.0-0.4","SS1619739535999","","","null","","","","","","<p><img src= images/blank.png width =""600"" height = ""600"" style=""position:fixed;top:50%; left:50%; transform: translate(-50%, -50%); border:5px solid black"">","","","","","","","",""
"","3878.904999990482","sequential-stimulus-presentation-old","40","378695","0.0-13.0-1.4","SS1619739535999","trial","","40","500","4378.904999990482","images/stimuli/spore_stims/complex_14_A_a.gif","images/stimuli/spore_stims/complex_10_A_b.gif","forced_long","","2","complex_dissimilar","images/stimuli/spore_stims/complex_10_A_b.gif","","","","",""
"","null","html-keyboard-response","41","379539","0.0-13.0-0.5","SS1619739535999","","","null","","","","","","<p><img src= images/blank.png width =""600"" height = ""600"" style=""position:fixed;top:50%; left:50%; transform: translate(-50%, -50%); border:5px solid black"">","","","","","","","",""
"","2753.0900000128895","sequential-stimulus-presentation-old","42","382809","0.0-13.0-1.5","SS1619739535999","trial","","40","500","3253.0900000128895","images/stimuli/spore_stims/complex_14_A_a.gif","images/stimuli/spore_stims/complex_10_A_b.gif","forced_long","","2","complex_dissimilar","images/stimuli/spore_stims/complex_10_A_b.gif","","","","",""
"","3345.7649999763817","survey-multi-choice","43","386157","0.0-14.0","SS1619739535999","math_question","","","","","","","","","","","","{""Q0"":""9""}","[0]","9","",""
"","null","html-keyboard-response","44","387287","0.0-15.0-0.0","SS1619739535999","","","null","","","","","","<p><img src= images/blank.png width =""600"" height = ""600"" style=""position:fixed;top:50%; left:50%; transform: translate(-50%, -50%); border:5px solid black"">","","","","","","","",""
"","1073.7799999769777","sequential-stimulus-presentation-old","45","403379","0.0-15.0-1.0","SS1619739535999","trial","","40","500","1573.7799999769777","images/stimuli/spore_stims/complex_12_A_b.gif","images/stimuli/spore_stims/complex_09_A_a.gif","forced_long","","3","complex_dissimilar","images/stimuli/spore_stims/complex_09_A_a.gif","","","","",""
"","null","html-keyboard-response","46","404673","0.0-15.0-0.1","SS1619739535999","","","null","","","","","","<p><img src= images/blank.png width =""600"" height = ""600"" style=""position:fixed;top:50%; left:50%; transform: translate(-50%, -50%); border:5px solid black"">","","","","","","","",""
"","10555.824999988545","sequential-stimulus-presentation-old","47","415736","0.0-15.0-1.1","SS1619739535999","trial","","40","500","11055.824999988545","images/stimuli/spore_stims/complex_12_A_b.gif","images/stimuli/spore_stims/complex_09_A_a.gif","forced_long","","3","complex_dissimilar","images/stimuli/spore_stims/complex_09_A_a.gif","","","","",""
"","null","html-keyboard-response","48","416819","0.0-15.0-0.2","SS1619739535999","","","null","","","","","","<p><img src= images/blank.png width =""600"" height = ""600"" style=""position:fixed;top:50%; left:50%; transform: translate(-50%, -50%); border:5px solid black"">","","","","","","","",""
"","2501.2749999877997","sequential-stimulus-presentation-old","49","419838","0.0-15.0-1.2","SS1619739535999","trial","","40","500","3001.2749999877997","images/stimuli/spore_stims/complex_12_A_b.gif","images/stimuli/spore_stims/complex_09_A_a.gif","forced_long","","3","complex_dissimilar","images/stimuli/spore_stims/complex_12_A_b.gif","","","","",""
"","null","html-keyboard-response","50","421030","0.0-15.0-0.3","SS1619739535999","","","null","","","","","","<p><img src= images/blank.png width =""600"" height = ""600"" style=""position:fixed;top:50%; left:50%; transform: translate(-50%, -50%); border:5px solid black"">","","","","","","","",""
"","160.74000002117828","sequential-stimulus-presentation-old","51","421695","0.0-15.0-1.3","SS1619739535999","trial","","40","500","660.7400000211783","images/stimuli/spore_stims/complex_12_A_b.gif","images/stimuli/spore_stims/complex_09_A_a.gif","forced_long","","3","complex_dissimilar","images/stimuli/spore_stims/complex_12_A_b.gif","","","","",""
"","3698.069999984","survey-multi-choice","52","425397","0.0-16.0","SS1619739535999","math_question","","","","","","","","","","","","{""Q0"":""12""}","[0]","12","",""
"","null","html-keyboard-response","53","426455","0.0-17.0-0.0","SS1619739535999","","","null","","","","","","<p><img src= images/blank.png width =""600"" height = ""600"" style=""position:fixed;top:50%; left:50%; transform: translate(-50%, -50%); border:5px solid black"">","","","","","","","",""
"","5176.119999960065","sequential-stimulus-presentation-old","54","432146","0.0-17.0-1.0","SS1619739535999","trial","","40","500","5676.119999960065","images/stimuli/spore_stims/simple_18_A_a.gif","images/stimuli/spore_stims/simple_10_A_b.gif","self_paced","","4","simple_dissimilar","images/stimuli/spore_stims/simple_10_A_b.gif","","","","",""
"","null","html-keyboard-response","55","433018","0.0-17.0-0.1","SS1619739535999","","","null","","","","","","<p><img src= images/blank.png width =""600"" height = ""600"" style=""position:fixed;top:50%; left:50%; transform: translate(-50%, -50%); border:5px solid black"">","","","","","","","",""
"","762.0200000237674","sequential-stimulus-presentation-old","56","434290","0.0-17.0-1.1","SS1619739535999","trial","","40","500","1262.0200000237674","images/stimuli/spore_stims/simple_18_A_a.gif","images/stimuli/spore_stims/simple_10_A_b.gif","self_paced","","4","simple_dissimilar","images/stimuli/spore_stims/simple_10_A_b.gif","","","","",""
"","null","html-keyboard-response","57","435254","0.0-17.0-0.2","SS1619739535999","","","null","","","","","","<p><img src= images/blank.png width =""600"" height = ""600"" style=""position:fixed;top:50%; left:50%; transform: translate(-50%, -50%); border:5px solid black"">","","","","","","","",""
"","270.1200000010431","sequential-stimulus-presentation-old","58","436039","0.0-17.0-1.2","SS1619739535999","trial","","40","500","770.1200000010431","images/stimuli/spore_stims/simple_18_A_a.gif","images/stimuli/spore_stims/simple_10_A_b.gif","self_paced","","4","simple_dissimilar","images/stimuli/spore_stims/simple_10_A_b.gif","","","","",""
"","null","html-keyboard-response","59","436918","0.0-17.0-0.3","SS1619739535999","","","null","","","","","","<p><img src= images/blank.png width =""600"" height = ""600"" style=""position:fixed;top:50%; left:50%; transform: translate(-50%, -50%); border:5px solid black"">","","","","","","","",""
"","1543.3099999791011","sequential-stimulus-presentation-old","60","438979","0.0-17.0-1.3","SS1619739535999","trial","","40","500","2043.3099999791011","images/stimuli/spore_stims/simple_18_A_a.gif","images/stimuli/spore_stims/simple_10_A_b.gif","self_paced","","4","simple_dissimilar","images/stimuli/spore_stims/simple_18_A_a.gif","","","","",""
"","null","html-keyboard-response","61","439944","0.0-17.0-0.4","SS1619739535999","","","null","","","","","","<p><img src= images/blank.png width =""600"" height = ""600"" style=""position:fixed;top:50%; left:50%; transform: translate(-50%, -50%); border:5px solid black"">","","","","","","","",""
"","789.2600000486709","sequential-stimulus-presentation-old","62","441242","0.0-17.0-1.4","SS1619739535999","trial","","40","500","1289.260000048671","images/stimuli/spore_stims/simple_18_A_a.gif","images/stimuli/spore_stims/simple_10_A_b.gif","self_paced","","4","simple_dissimilar","images/stimuli/spore_stims/simple_10_A_b.gif","","","","",""
"","5552.299999981187","survey-multi-choice","63","446798","0.0-18.0","SS1619739535999","math_question","","","","","","","","","","","","{""Q0"":""14""}","[0]","14","",""
"","null","html-keyboard-response","64","447970","0.0-19.0-0.0","SS1619739535999","","","null","","","","","","<p><img src= images/blank.png width =""600"" height = ""600"" style=""position:fixed;top:50%; left:50%; transform: translate(-50%, -50%); border:5px solid black"">","","","","","","","",""
"","1223.8950000028126","sequential-stimulus-presentation-old","65","449708","0.0-19.0-1.0","SS1619739535999","trial","","40","500","1723.8950000028126","images/stimuli/spore_stims/complex_04_A_a.gif","images/stimuli/spore_stims/complex_14_A_b.gif","forced_short","","5","complex_dissimilar","images/stimuli/spore_stims/complex_14_A_b.gif","","","","",""
"","null","html-keyboard-response","66","450953","0.0-19.0-0.1","SS1619739535999","","","null","","","","","","<p><img src= images/blank.png width =""600"" height = ""600"" style=""position:fixed;top:50%; left:50%; transform: translate(-50%, -50%); border:5px solid black"">","","","","","","","",""
"","8249.049999983981","sequential-stimulus-presentation-old","67","459710","0.0-19.0-1.1","SS1619739535999","trial","","40","500","8749.049999983981","images/stimuli/spore_stims/complex_04_A_a.gif","images/stimuli/spore_stims/complex_14_A_b.gif","forced_short","","5","complex_dissimilar","images/stimuli/spore_stims/complex_14_A_b.gif","","","","",""
"","null","html-keyboard-response","68","460736","0.0-19.0-0.2","SS1619739535999","","","null","","","","","","<p><img src= images/blank.png width =""600"" height = ""600"" style=""position:fixed;top:50%; left:50%; transform: translate(-50%, -50%); border:5px solid black"">","","","","","","","",""
"","6112.284999981057","sequential-stimulus-presentation-old","69","467363","0.0-19.0-1.2","SS1619739535999","trial","","40","500","6612.284999981057","images/stimuli/spore_stims/complex_04_A_a.gif","images/stimuli/spore_stims/complex_14_A_b.gif","forced_short","","5","complex_dissimilar","images/stimuli/spore_stims/complex_14_A_b.gif","","","","",""
"","null","html-keyboard-response","70","468185","0.0-19.0-0.3","SS1619739535999","","","null","","","","","","<p><img src= images/blank.png width =""600"" height = ""600"" style=""position:fixed;top:50%; left:50%; transform: translate(-50%, -50%); border:5px solid black"">","","","","","","","",""
"","4344.464999972843","sequential-stimulus-presentation-old","71","473045","0.0-19.0-1.3","SS1619739535999","trial","","40","500","4844.464999972843","images/stimuli/spore_stims/complex_04_A_a.gif","images/stimuli/spore_stims/complex_14_A_b.gif","forced_short","","5","complex_dissimilar","images/stimuli/spore_stims/complex_04_A_a.gif","","","","",""
"","2997.075000021141","survey-multi-choice","72","476045","0.0-20.0","SS1619739535999","math_question","","","","","","","","","","","","{""Q0"":""7""}","[0]","7","",""
"","null","html-keyboard-response","73","477117","0.0-21.0-0.0","SS1619739535999","","","null","","","","","","<p><img src= images/blank.png width =""600"" height = ""600"" style=""position:fixed;top:50%; left:50%; transform: translate(-50%, -50%); border:5px solid black"">","","","","","","","",""
"","2304.7350000124425","sequential-stimulus-presentation-old","74","494437","0.0-21.0-1.0","SS1619739535999","trial","","40","500","2804.7350000124425","images/stimuli/spore_stims/simple_16_A_b.gif","images/stimuli/spore_stims/simple_14_A_a.gif","forced_long","","6","simple_dissimilar","images/stimuli/spore_stims/simple_14_A_a.gif","","","","",""
"","null","html-keyboard-response","75","495334","0.0-21.0-0.1","SS1619739535999","","","null","","","","","","<p><img src= images/blank.png width =""600"" height = ""600"" style=""position:fixed;top:50%; left:50%; transform: translate(-50%, -50%); border:5px solid black"">","","","","","","","",""
"","627.1199999609962","sequential-stimulus-presentation-old","76","496473","0.0-21.0-1.1","SS1619739535999","trial","","40","500","1127.1199999609962","images/stimuli/spore_stims/simple_16_A_b.gif","images/stimuli/spore_stims/simple_14_A_a.gif","forced_long","","6","simple_dissimilar","images/stimuli/spore_stims/simple_14_A_a.gif","","","","",""
"","null","html-keyboard-response","77","497450","0.0-21.0-0.2","SS1619739535999","","","null","","","","","","<p><img src= images/blank.png width =""600"" height = ""600"" style=""position:fixed;top:50%; left:50%; transform: translate(-50%, -50%); border:5px solid black"">","","","","","","","",""
"","2555.434999987483","sequential-stimulus-presentation-old","78","500520","0.0-21.0-1.2","SS1619739535999","trial","","40","500","3055.434999987483","images/stimuli/spore_stims/simple_16_A_b.gif","images/stimuli/spore_stims/simple_14_A_a.gif","forced_long","","6","simple_dissimilar","images/stimuli/spore_stims/simple_16_A_b.gif","","","","",""
"","null","html-keyboard-response","79","501536","0.0-21.0-0.3","SS1619739535999","","","null","","","","","","<p><img src= images/blank.png width =""600"" height = ""600"" style=""position:fixed;top:50%; left:50%; transform: translate(-50%, -50%); border:5px solid black"">","","","","","","","",""
"","39.530000009108335","sequential-stimulus-presentation-old","80","502088","0.0-21.0-1.3","SS1619739535999","trial","","40","500","539.5300000091083","images/stimuli/spore_stims/simple_16_A_b.gif","images/stimuli/spore_stims/simple_14_A_a.gif","forced_long","","6","simple_dissimilar","images/stimuli/spore_stims/simple_14_A_a.gif","","","","",""
"","3517.389999993611","survey-multi-choice","81","505609","0.0-22.0","SS1619739535999","math_question","","","","","","","","","","","","{""Q0"":""10""}","[0]","10","",""
"","null","html-keyboard-response","82","506549","0.0-23.0-0.0","SS1619739535999","","","null","","","","","","<p><img src= images/blank.png width =""600"" height = ""600"" style=""position:fixed;top:50%; left:50%; transform: translate(-50%, -50%); border:5px solid black"">","","","","","","","",""
"","2577.994999999646","sequential-stimulus-presentation-old","83","524142","0.0-23.0-1.0","SS1619739535999","trial","","40","500","3077.994999999646","images/stimuli/spore_stims/simple_17_A_b.gif","images/stimuli/spore_stims/simple_10_A_a.gif","forced_long","","7","simple_dissimilar","images/stimuli/spore_stims/simple_10_A_a.gif","","","","",""
"","null","html-keyboard-response","84","525262","0.0-23.0-0.1","SS1619739535999","","","null","","","","","","<p><img src= images/blank.png width =""600"" height = ""600"" style=""position:fixed;top:50%; left:50%; transform: translate(-50%, -50%); border:5px solid black"">","","","","","","","",""
"","4011.1350000370294","sequential-stimulus-presentation-old","85","529791","0.0-23.0-1.1","SS1619739535999","trial","","40","500","4511.135000037029","images/stimuli/spore_stims/simple_17_A_b.gif","images/stimuli/spore_stims/simple_10_A_a.gif","forced_long","","7","simple_dissimilar","images/stimuli/spore_stims/simple_10_A_a.gif","","","","",""
"","null","html-keyboard-response","86","531081","0.0-23.0-0.2","SS1619739535999","","","null","","","","","","<p><img src= images/blank.png width =""600"" height = ""600"" style=""position:fixed;top:50%; left:50%; transform: translate(-50%, -50%); border:5px solid black"">","","","","","","","",""
"","1425.8499999996275","sequential-stimulus-presentation-old","87","533021","0.0-23.0-1.2","SS1619739535999","trial","","40","500","1925.8499999996275","images/stimuli/spore_stims/simple_17_A_b.gif","images/stimuli/spore_stims/simple_10_A_a.gif","forced_long","","7","simple_dissimilar","images/stimuli/spore_stims/simple_10_A_a.gif","","","","",""
"","null","html-keyboard-response","88","533925","0.0-23.0-0.3","SS1619739535999","","","null","","","","","","<p><img src= images/blank.png width =""600"" height = ""600"" style=""position:fixed;top:50%; left:50%; transform: translate(-50%, -50%); border:5px solid black"">","","","","","","","",""
"","353.00000000279397","sequential-stimulus-presentation-old","89","534785","0.0-23.0-1.3","SS1619739535999","trial","","40","500","853.000000002794","images/stimuli/spore_stims/simple_17_A_b.gif","images/stimuli/spore_stims/simple_10_A_a.gif","forced_long","","7","simple_dissimilar","images/stimuli/spore_stims/simple_17_A_b.gif","","","","",""
"","3983.4350000019185","survey-multi-choice","90","538775","0.0-24.0","SS1619739535999","math_question","","","","","","","","","","","","{""Q0"":""8""}","[0]","8","",""
"","null","html-keyboard-response","91","539798","0.0-25.0-0.0","SS1619739535999","","","null","","","","","","<p><img src= images/blank.png width =""600"" height = ""600"" style=""position:fixed;top:50%; left:50%; transform: translate(-50%, -50%); border:5px solid black"">","","","","","","","",""
"","7425.66499998793","sequential-stimulus-presentation-old","92","547739","0.0-25.0-1.0","SS1619739535999","trial","","40","500","7925.66499998793","images/stimuli/spore_stims/complex_17_A_a.gif","images/stimuli/spore_stims/complex_11_A_b.gif","self_paced","","8","complex_dissimilar","images/stimuli/spore_stims/complex_11_A_b.gif","","","","",""
"","null","html-keyboard-response","93","548672","0.0-25.0-0.1","SS1619739535999","","","null","","","","","","<p><img src= images/blank.png width =""600"" height = ""600"" style=""position:fixed;top:50%; left:50%; transform: translate(-50%, -50%); border:5px solid black"">","","","","","","","",""
"","11934.70000004163","sequential-stimulus-presentation-old","94","561256","0.0-25.0-1.1","SS1619739535999","trial","","40","500","12434.70000004163","images/stimuli/spore_stims/complex_17_A_a.gif","images/stimuli/spore_stims/complex_11_A_b.gif","self_paced","","8","complex_dissimilar","images/stimuli/spore_stims/complex_11_A_b.gif","","","","",""
"","null","html-keyboard-response","95","562158","0.0-25.0-0.2","SS1619739535999","","","null","","","","","","<p><img src= images/blank.png width =""600"" height = ""600"" style=""position:fixed;top:50%; left:50%; transform: translate(-50%, -50%); border:5px solid black"">","","","","","","","",""
"","5235.625000030268","sequential-stimulus-presentation-old","96","567906","0.0-25.0-1.2","SS1619739535999","trial","","40","500","5735.625000030268","images/stimuli/spore_stims/complex_17_A_a.gif","images/stimuli/spore_stims/complex_11_A_b.gif","self_paced","","8","complex_dissimilar","images/stimuli/spore_stims/complex_11_A_b.gif","","","","",""
"","null","html-keyboard-response","97","569196","0.0-25.0-0.3","SS1619739535999","","","null","","","","","","<p><img src= images/blank.png width =""600"" height = ""600"" style=""position:fixed;top:50%; left:50%; transform: translate(-50%, -50%); border:5px solid black"">","","","","","","","",""
"","348.53000001749024","sequential-stimulus-presentation-old","98","570059","0.0-25.0-1.3","SS1619739535999","trial","","40","500","848.5300000174902","images/stimuli/spore_stims/complex_17_A_a.gif","images/stimuli/spore_stims/complex_11_A_b.gif","self_paced","","8","complex_dissimilar","images/stimuli/spore_stims/complex_11_A_b.gif","","","","",""
"","null","html-keyboard-response","99","571112","0.0-25.0-0.4","SS1619739535999","","","null","","","","","","<p><img src= images/blank.png width =""600"" height = ""600"" style=""position:fixed;top:50%; left:50%; transform: translate(-50%, -50%); border:5px solid black"">","","","","","","","",""
"","257.3199999751523","sequential-stimulus-presentation-old","100","571884","0.0-25.0-1.4","SS1619739535999","trial","","40","500","757.3199999751523","images/stimuli/spore_stims/complex_17_A_a.gif","images/stimuli/spore_stims/complex_11_A_b.gif","self_paced","","8","complex_dissimilar","images/stimuli/spore_stims/complex_17_A_a.gif","","","","",""
"","5750.635000003967","survey-multi-choice","101","577640","0.0-26.0","SS1619739535999","math_question","","","","","","","","","","","","{""Q0"":""11""}","[0]","11","",""
"","null","html-keyboard-response","102","578629","0.0-27.0-0.0","SS1619739535999","","","null","","","","","","<p><img src= images/blank.png width =""600"" height = ""600"" style=""position:fixed;top:50%; left:50%; transform: translate(-50%, -50%); border:5px solid black"">","","","","","","","",""
"","15.364999999292195","sequential-stimulus-presentation-old","103","579152","0.0-27.0-1.0","SS1619739535999","trial","","40","500","515.3649999992922","images/stimuli/spore_stims/complex_06_A_a.gif","images/stimuli/spore_stims/complex_09_A_b.gif","forced_short","","9","complex_dissimilar","images/stimuli/spore_stims/complex_09_A_b.gif","","","","",""
"","null","html-keyboard-response","104","580162","0.0-27.0-0.1","SS1619739535999","","","null","","","","","","<p><img src= images/blank.png width =""600"" height = ""600"" style=""position:fixed;top:50%; left:50%; transform: translate(-50%, -50%); border:5px solid black"">","","","","","","","",""
"","252.68500001402572","sequential-stimulus-presentation-old","105","580929","0.0-27.0-1.1","SS1619739535999","trial","","40","500","752.6850000140257","images/stimuli/spore_stims/complex_06_A_a.gif","images/stimuli/spore_stims/complex_09_A_b.gif","forced_short","","9","complex_dissimilar","images/stimuli/spore_stims/complex_09_A_b.gif","","","","",""
"","null","html-keyboard-response","106","581982","0.0-27.0-0.2","SS1619739535999","","","null","","","","","","<p><img src= images/blank.png width =""600"" height = ""600"" style=""position:fixed;top:50%; left:50%; transform: translate(-50%, -50%); border:5px solid black"">","","","","","","","",""
"","329.65000002877787","sequential-stimulus-presentation-old","107","582823","0.0-27.0-1.2","SS1619739535999","trial","","40","500","829.6500000287779","images/stimuli/spore_stims/complex_06_A_a.gif","images/stimuli/spore_stims/complex_09_A_b.gif","forced_short","","9","complex_dissimilar","images/stimuli/spore_stims/complex_09_A_b.gif","","","","",""
"","null","html-keyboard-response","108","584045","0.0-27.0-0.3","SS1619739535999","","","null","","","","","","<p><img src= images/blank.png width =""600"" height = ""600"" style=""position:fixed;top:50%; left:50%; transform: translate(-50%, -50%); border:5px solid black"">","","","","","","","",""
"","2963.9149999711663","sequential-stimulus-presentation-old","109","587515","0.0-27.0-1.3","SS1619739535999","trial","","40","500","3463.9149999711663","images/stimuli/spore_stims/complex_06_A_a.gif","images/stimuli/spore_stims/complex_09_A_b.gif","forced_short","","9","complex_dissimilar","images/stimuli/spore_stims/complex_06_A_a.gif","","","","",""
"","6338.300000003073","survey-multi-choice","110","593858","0.0-28.0","SS1619739535999","math_question","","","","","","","","","","","","{""Q0"":""15""}","[0]","15","",""
"","null","html-keyboard-response","111","594959","0.0-29.0-0.0","SS1619739535999","","","null","","","","","","<p><img src= images/blank.png width =""600"" height = ""600"" style=""position:fixed;top:50%; left:50%; transform: translate(-50%, -50%); border:5px solid black"">","","","","","","","",""
"","1647.6749999565072","sequential-stimulus-presentation-old","112","597123","0.0-29.0-1.0","SS1619739535999","trial","","40","500","2147.6749999565072","images/stimuli/spore_stims/simple_20_A_a.gif","images/stimuli/spore_stims/simple_08_A_b.gif","forced_short","","10","simple_dissimilar","images/stimuli/spore_stims/simple_08_A_b.gif","","","","",""
"","null","html-keyboard-response","113","598365","0.0-29.0-0.1","SS1619739535999","","","null","","","","","","<p><img src= images/blank.png width =""600"" height = ""600"" style=""position:fixed;top:50%; left:50%; transform: translate(-50%, -50%); border:5px solid black"">","","","","","","","",""
"","351.36500000953674","sequential-stimulus-presentation-old","114","599227","0.0-29.0-1.1","SS1619739535999","trial","","40","500","851.3650000095367","images/stimuli/spore_stims/simple_20_A_a.gif","images/stimuli/spore_stims/simple_08_A_b.gif","forced_short","","10","simple_dissimilar","images/stimuli/spore_stims/simple_08_A_b.gif","","","","",""
"","null","html-keyboard-response","115","600244","0.0-29.0-0.2","SS1619739535999","","","null","","","","","","<p><img src= images/blank.png width =""600"" height = ""600"" style=""position:fixed;top:50%; left:50%; transform: translate(-50%, -50%); border:5px solid black"">","","","","","","","",""
"","46.830000006593764","sequential-stimulus-presentation-old","116","600806","0.0-29.0-1.2","SS1619739535999","trial","","40","500","546.8300000065938","images/stimuli/spore_stims/simple_20_A_a.gif","images/stimuli/spore_stims/simple_08_A_b.gif","forced_short","","10","simple_dissimilar","images/stimuli/spore_stims/simple_08_A_b.gif","","","","",""
"","null","html-keyboard-response","117","601881","0.0-29.0-0.3","SS1619739535999","","","null","","","","","","<p><img src= images/blank.png width =""600"" height = ""600"" style=""position:fixed;top:50%; left:50%; transform: translate(-50%, -50%); border:5px solid black"">","","","","","","","",""
"","1566.4850000175647","sequential-stimulus-presentation-old","118","603960","0.0-29.0-1.3","SS1619739535999","trial","","40","500","2066.4850000175647","images/stimuli/spore_stims/simple_20_A_a.gif","images/stimuli/spore_stims/simple_08_A_b.gif","forced_short","","10","simple_dissimilar","images/stimuli/spore_stims/simple_08_A_b.gif","","","","",""
"","null","html-keyboard-response","119","604777","0.0-29.0-0.4","SS1619739535999","","","null","","","","","","<p><img src= images/blank.png width =""600"" height = ""600"" style=""position:fixed;top:50%; left:50%; transform: translate(-50%, -50%); border:5px solid black"">","","","","","","","",""
"","425.79499998828396","sequential-stimulus-presentation-old","120","605709","0.0-29.0-1.4","SS1619739535999","trial","","40","500","925.794999988284","images/stimuli/spore_stims/simple_20_A_a.gif","images/stimuli/spore_stims/simple_08_A_b.gif","forced_short","","10","simple_dissimilar","images/stimuli/spore_stims/simple_08_A_b.gif","","","","",""
"","null","html-keyboard-response","121","606727","0.0-29.0-0.5","SS1619739535999","","","null","","","","","","<p><img src= images/blank.png width =""600"" height = ""600"" style=""position:fixed;top:50%; left:50%; transform: translate(-50%, -50%); border:5px solid black"">","","","","","","","",""
"","585.7700000051409","sequential-stimulus-presentation-old","122","607827","0.0-29.0-1.5","SS1619739535999","trial","","40","500","1085.770000005141","images/stimuli/spore_stims/simple_20_A_a.gif","images/stimuli/spore_stims/simple_08_A_b.gif","forced_short","","10","simple_dissimilar","images/stimuli/spore_stims/simple_08_A_b.gif","","","","",""
"","9304.950000019744","survey-multi-choice","123","617138","0.0-30.0","SS1619739535999","math_question","","","","","","","","","","","","{""Q0"":""13""}","[0]","13","",""
"","null","html-keyboard-response","124","618405","0.0-31.0-0.0","SS1619739535999","","","null","","","","","","<p><img src= images/blank.png width =""600"" height = ""600"" style=""position:fixed;top:50%; left:50%; transform: translate(-50%, -50%); border:5px solid black"">","","","","","","","",""
"","220.58500000275671","sequential-stimulus-presentation-old","125","619145","0.0-31.0-1.0","SS1619739535999","trial","","40","500","720.5850000027567","images/stimuli/spore_stims/simple_06_A_b.gif","images/stimuli/spore_stims/simple_07_A_a.gif","forced_short","","11","simple_dissimilar","images/stimuli/spore_stims/simple_07_A_a.gif","","","","",""
"","null","html-keyboard-response","126","619991","0.0-31.0-0.1","SS1619739535999","","","null","","","","","","<p><img src= images/blank.png width =""600"" height = ""600"" style=""position:fixed;top:50%; left:50%; transform: translate(-50%, -50%); border:5px solid black"">","","","","","","","",""
"","1067.5350000383332","sequential-stimulus-presentation-old","127","621575","0.0-31.0-1.1","SS1619739535999","trial","","40","500","1567.5350000383332","images/stimuli/spore_stims/simple_06_A_b.gif","images/stimuli/spore_stims/simple_07_A_a.gif","forced_short","","11","simple_dissimilar","images/stimuli/spore_stims/simple_06_A_b.gif","","","","",""
"","null","html-keyboard-response","128","622408","0.0-31.0-0.2","SS1619739535999","","","null","","","","","","<p><img src= images/blank.png width =""600"" height = ""600"" style=""position:fixed;top:50%; left:50%; transform: translate(-50%, -50%); border:5px solid black"">","","","","","","","",""
"","310.61500002397224","sequential-stimulus-presentation-old","129","623234","0.0-31.0-1.2","SS1619739535999","trial","","40","500","810.6150000239722","images/stimuli/spore_stims/simple_06_A_b.gif","images/stimuli/spore_stims/simple_07_A_a.gif","forced_short","","11","simple_dissimilar","images/stimuli/spore_stims/simple_07_A_a.gif","","","","",""
"","null","html-keyboard-response","130","624106","0.0-31.0-0.3","SS1619739535999","","","null","","","","","","<p><img src= images/blank.png width =""600"" height = ""600"" style=""position:fixed;top:50%; left:50%; transform: translate(-50%, -50%); border:5px solid black"">","","","","","","","",""
"","159.9800000549294","sequential-stimulus-presentation-old","131","624775","0.0-31.0-1.3","SS1619739535999","trial","","40","500","659.9800000549294","images/stimuli/spore_stims/simple_06_A_b.gif","images/stimuli/spore_stims/simple_07_A_a.gif","forced_short","","11","simple_dissimilar","images/stimuli/spore_stims/simple_07_A_a.gif","","","","",""
"","null","html-keyboard-response","132","625959","0.0-31.0-0.4","SS1619739535999","","","null","","","","","","<p><img src= images/blank.png width =""600"" height = ""600"" style=""position:fixed;top:50%; left:50%; transform: translate(-50%, -50%); border:5px solid black"">","","","","","","","",""
"","221.7949999612756","sequential-stimulus-presentation-old","133","626696","0.0-31.0-1.4","SS1619739535999","trial","","40","500","721.7949999612756","images/stimuli/spore_stims/simple_06_A_b.gif","images/stimuli/spore_stims/simple_07_A_a.gif","forced_short","","11","simple_dissimilar","images/stimuli/spore_stims/simple_06_A_b.gif","","","","",""
"[{""page_index"":0,""viewing_time"":5384.164999995846}]","5385.309999983292","instructions","134","632086","0.0-32.0","SS1619739535999","instructions","","","","","","","","","","","","","","","",""
"","11685.4099999764","survey-likert","135","643779","0.0-33.0","SS1619739535999","similarity_question","","","","","","","","","","","","{""Q0"":2}","[0]","","images/stimuli/spore_stims/complex_17_A_a.gif","images/stimuli/spore_stims/complex_11_A_b.gif"
"","8952.894999994896","survey-likert","136","652739","0.0-34.0","SS1619739535999","similarity_question","","","","","","","","","","","","{""Q0"":1}","[0]","","images/stimuli/spore_stims/complex_09_A_b.gif","images/stimuli/spore_stims/complex_06_A_a.gif"
"","5414.264999970328","survey-likert","137","658161","0.0-35.0","SS1619739535999","similarity_question","","","","","","","","","","","","{""Q0"":2}","[0]","","images/stimuli/spore_stims/simple_07_A_a.gif","images/stimuli/spore_stims/simple_06_A_b.gif"
"","6731.099999975413","survey-likert","138","664898","0.0-36.0","SS1619739535999","similarity_question","","","","","","","","","","","","{""Q0"":3}","[0]","","images/stimuli/spore_stims/simple_10_A_a.gif","images/stimuli/spore_stims/simple_17_A_b.gif"
"","13549.230000004172","survey-likert","139","678454","0.0-37.0","SS1619739535999","similarity_question","","","","","","","","","","","","{""Q0"":4}","[0]","","images/stimuli/spore_stims/complex_10_A_b.gif","images/stimuli/spore_stims/complex_14_A_a.gif"
"","3453.9499999955297","survey-likert","140","681916","0.0-38.0","SS1619739535999","similarity_question","","","","","","","","","","","","{""Q0"":4}","[0]","","images/stimuli/spore_stims/simple_18_A_a.gif","images/stimuli/spore_stims/simple_10_A_b.gif"
"","6057.88500001654","survey-likert","141","687983","0.0-39.0","SS1619739535999","similarity_question","","","","","","","","","","","","{""Q0"":0}","[0]","","images/stimuli/spore_stims/complex_09_A_a.gif","images/stimuli/spore_stims/complex_12_A_b.gif"
"","5157.7849999885075","survey-likert","142","693148","0.0-40.0","SS1619739535999","similarity_question","","","","","","","","","","","","{""Q0"":0}","[0]","","images/stimuli/spore_stims/complex_19_A_b.gif","images/stimuli/spore_stims/complex_03_A_a.gif"
"","3344.165000016801","survey-likert","143","696500","0.0-41.0","SS1619739535999","similarity_question","","","","","","","","","","","","{""Q0"":6}","[0]","","images/stimuli/spore_stims/simple_05_A_b.gif","images/stimuli/spore_stims/simple_03_A_a.gif"
"","3224.374999990687","survey-likert","144","699732","0.0-42.0","SS1619739535999","similarity_question","","","","","","","","","","","","{""Q0"":6}","[0]","","images/stimuli/spore_stims/simple_20_A_a.gif","images/stimuli/spore_stims/simple_08_A_b.gif"
"","3376.5950000379235","survey-likert","145","703116","0.0-43.0","SS1619739535999","similarity_question","","","","","","","","","","","","{""Q0"":4}","[0]","","images/stimuli/spore_stims/complex_04_A_a.gif","images/stimuli/spore_stims/complex_14_A_b.gif"
"","2239.5499999984168","survey-likert","146","705364","0.0-44.0","SS1619739535999","similarity_question","","","","","","","","","","","","{""Q0"":6}","[0]","","images/stimuli/spore_stims/simple_16_A_b.gif","images/stimuli/spore_stims/simple_14_A_a.gif"
"[{""page_index"":0,""viewing_time"":5272.215000004508}]","5272.784999979194","instructions","147","710644","0.0-45.0","SS1619739535999","instructions","","","","","","","","","","","","","","","",""
"","4282.544999965467","survey-likert","148","714932","0.0-46.0","SS1619739535999","","","","","","","","","images/stimuli/spore_stims/complex_17_A_a.gif","","","","{""Q0"":4}","[0]","","",""
"","3569.1099999821745","survey-likert","149","718508","0.0-47.0","SS1619739535999","","","","","","","","","images/stimuli/spore_stims/simple_08_A_b.gif","","","","{""Q0"":0}","[0]","","",""
"","5448.424999951385","survey-likert","150","723965","0.0-48.0","SS1619739535999","","","","","","","","","images/stimuli/spore_stims/complex_06_A_a.gif","","","","{""Q0"":4}","[0]","","",""
"","3200.2149999607354","survey-likert","151","727173","0.0-49.0","SS1619739535999","","","","","","","","","images/stimuli/spore_stims/simple_14_A_a.gif","","","","{""Q0"":0}","[0]","","",""
"","2409.155000001192","survey-likert","152","729589","0.0-50.0","SS1619739535999","","","","","","","","","images/stimuli/spore_stims/complex_09_A_a.gif","","","","{""Q0"":5}","[0]","","",""
"","6418.049999978393","survey-likert","153","736013","0.0-51.0","SS1619739535999","","","","","","","","","images/stimuli/spore_stims/complex_03_A_a.gif","","","","{""Q0"":2}","[0]","","",""
"","5239.999999990687","survey-likert","154","741261","0.0-52.0","SS1619739535999","","","","","","","","","images/stimuli/spore_stims/complex_14_A_b.gif","","","","{""Q0"":4}","[0]","","",""
"","2847.9350000270642","survey-likert","155","744118","0.0-53.0","SS1619739535999","","","","","","","","","images/stimuli/spore_stims/simple_10_A_b.gif","","","","{""Q0"":0}","[0]","","",""
"","2512.764999992214","survey-likert","156","746637","0.0-54.0","SS1619739535999","","","","","","","","","images/stimuli/spore_stims/simple_06_A_b.gif","","","","{""Q0"":0}","[0]","","",""
"","1617.5449999864213","survey-likert","157","748261","0.0-55.0","SS1619739535999","","","","","","","","","images/stimuli/spore_stims/simple_05_A_b.gif","","","","{""Q0"":0}","[0]","","",""
"","2832.684999972116","survey-likert","158","751102","0.0-56.0","SS1619739535999","","","","","","","","","images/stimuli/spore_stims/simple_17_A_b.gif","","","","{""Q0"":0}","[0]","","",""
"","3399.904999998398","survey-likert","159","754509","0.0-57.0","SS1619739535999","","","","","","","","","images/stimuli/spore_stims/complex_14_A_a.gif","","","","{""Q0"":5}","[0]","","",""
"[{""page_index"":0,""viewing_time"":2529.689999995753}]","2530.2199999568984","instructions","160","757045","0.0-58.0","SS1619739535999","instructions","","","","","","","","","","","","","","","",""
"","2895.185000030324","demog-age","161","759950","0.0-59.0","SS1619739535999","","","","","","","","","","","","","{""age"":""22""}","","","",""
"","5284.760000009555","demog-ethnic-US","162","765246","0.0-60.0","SS1619739535999","","","","","","","","","","","","","{""ethnicity"":[""Hispanic or Latino""]}","[0]","","",""
"","6566.63999997545","demog-gender-and-education","163","771821","0.0-61.0","SS1619739535999","","","","","","","","","","","","","{""gender"":""Male"",""education"":""Bachelor's Degree""}","[0,1]","","",""
"","11446.114999998827","survey-text","164","783269","0.0-62.0","SS1619739535999","feedback","","","","","","","","","","","","{""Q0"":""No""}","","","",""
"[{""page_index"":0,""viewing_time"":1704.7349999775179}]","1705.1949999877252","instructions","165","784981","0.0-63.0","SS1619739535999","instructions","","","","","","","","","","","","","","","",""
