"view_history","rt","trial_type","trial_index","time_elapsed","internal_node_id","subject","stimulus_type","trial_stimulus","key_press","minimum_viewing_duration","trial_looking_time","block_deviant","block_background","exposure_type","stimulus","block_number","block_type","stimulus_displayed","responses","question_order","math_correct_answer","stimulus_left","stimulus_right"
"[{""page_index"":0,""viewing_time"":11804}]","11805","instructions","0","11807","0.0-0.0","SS1619740111250","","","","","","","","","","","","","","","","",""
"[{""page_index"":0,""viewing_time"":9108},{""page_index"":1,""viewing_time"":3383}]","12491","instructions","1","26305","0.0-1.0","SS1619740111250","instructions","","","","","","","","","","","","","","","",""
"","3424","sequential-stimulus-presentation-old","2","30237","0.0-2.0","SS1619740111250","","","40","500","3924","null","null","self_paced","","","","","","","","",""
"","2966","sequential-stimulus-presentation-old","3","33708","0.0-3.0","SS1619740111250","","","40","500","3466","null","null","self_paced","","","","","","","","",""
"[{""page_index"":0,""viewing_time"":9390}]","9390","instructions","4","43100","0.0-4.0","SS1619740111250","instructions","","","","","","","","","","","","","","","",""
"","490","sequential-stimulus-presentation-old","5","58594","0.0-5.0","SS1619740111250","","","40","500","990","null","null","forced_long","","","","","","","","",""
"","1858","sequential-stimulus-presentation-old","6","60954","0.0-6.0","SS1619740111250","","","40","500","2358","null","null","forced_long","","","","","","","","",""
"[{""page_index"":0,""viewing_time"":2324}]","2324","instructions","7","63280","0.0-7.0","SS1619740111250","instructions","","","","","","","","","","","","","","","",""
"[{""page_index"":0,""viewing_time"":5213},{""page_index"":1,""viewing_time"":5550},{""page_index"":2,""viewing_time"":3963},{""page_index"":3,""viewing_time"":930},{""page_index"":4,""viewing_time"":896}]","16553","instructions","8","79835","0.0-8.0","SS1619740111250","instructions","","","","","","","","","","","","","","","",""
"","null","html-keyboard-response","9","80948","0.0-9.0-0.0","SS1619740111250","","","null","","","","","","<p><img src= images/blank.png width =""600"" height = ""600"" style=""position:fixed;top:50%; left:50%; transform: translate(-50%, -50%); border:5px solid black"">","","","","","","","",""
"","1480","sequential-stimulus-presentation-old","10","82934","0.0-9.0-1.0","SS1619740111250","trial","","40","500","1980","images/stimuli/spore_stims/complex_05_A_b.gif","images/stimuli/spore_stims/complex_14_A_a.gif","forced_short","","0","complex_dissimilar","images/stimuli/spore_stims/complex_14_A_a.gif","","","","",""
"","null","html-keyboard-response","11","84225","0.0-9.0-0.1","SS1619740111250","","","null","","","","","","<p><img src= images/blank.png width =""600"" height = ""600"" style=""position:fixed;top:50%; left:50%; transform: translate(-50%, -50%); border:5px solid black"">","","","","","","","",""
"","12450","sequential-stimulus-presentation-old","12","97177","0.0-9.0-1.1","SS1619740111250","trial","","40","500","12950","images/stimuli/spore_stims/complex_05_A_b.gif","images/stimuli/spore_stims/complex_14_A_a.gif","forced_short","","0","complex_dissimilar","images/stimuli/spore_stims/complex_14_A_a.gif","","","","",""
"","null","html-keyboard-response","13","98116","0.0-9.0-0.2","SS1619740111250","","","null","","","","","","<p><img src= images/blank.png width =""600"" height = ""600"" style=""position:fixed;top:50%; left:50%; transform: translate(-50%, -50%); border:5px solid black"">","","","","","","","",""
"","2554","sequential-stimulus-presentation-old","14","101172","0.0-9.0-1.2","SS1619740111250","trial","","40","500","3054","images/stimuli/spore_stims/complex_05_A_b.gif","images/stimuli/spore_stims/complex_14_A_a.gif","forced_short","","0","complex_dissimilar","images/stimuli/spore_stims/complex_14_A_a.gif","","","","",""
"","null","html-keyboard-response","15","102118","0.0-9.0-0.3","SS1619740111250","","","null","","","","","","<p><img src= images/blank.png width =""600"" height = ""600"" style=""position:fixed;top:50%; left:50%; transform: translate(-50%, -50%); border:5px solid black"">","","","","","","","",""
"","3600","sequential-stimulus-presentation-old","16","106222","0.0-9.0-1.3","SS1619740111250","trial","","40","500","4100","images/stimuli/spore_stims/complex_05_A_b.gif","images/stimuli/spore_stims/complex_14_A_a.gif","forced_short","","0","complex_dissimilar","images/stimuli/spore_stims/complex_05_A_b.gif","","","","",""
"","null","html-keyboard-response","17","107060","0.0-9.0-0.4","SS1619740111250","","","null","","","","","","<p><img src= images/blank.png width =""600"" height = ""600"" style=""position:fixed;top:50%; left:50%; transform: translate(-50%, -50%); border:5px solid black"">","","","","","","","",""
"","5697","sequential-stimulus-presentation-old","18","113263","0.0-9.0-1.4","SS1619740111250","trial","","40","500","6197","images/stimuli/spore_stims/complex_05_A_b.gif","images/stimuli/spore_stims/complex_14_A_a.gif","forced_short","","0","complex_dissimilar","images/stimuli/spore_stims/complex_14_A_a.gif","","","","",""
"","null","html-keyboard-response","19","114485","0.0-9.0-0.5","SS1619740111250","","","null","","","","","","<p><img src= images/blank.png width =""600"" height = ""600"" style=""position:fixed;top:50%; left:50%; transform: translate(-50%, -50%); border:5px solid black"">","","","","","","","",""
"","2415","sequential-stimulus-presentation-old","20","117402","0.0-9.0-1.5","SS1619740111250","trial","","40","500","2915","images/stimuli/spore_stims/complex_05_A_b.gif","images/stimuli/spore_stims/complex_14_A_a.gif","forced_short","","0","complex_dissimilar","images/stimuli/spore_stims/complex_14_A_a.gif","","","","",""
"","3766","survey-multi-choice","21","121169","0.0-10.0","SS1619740111250","math_question","","","","","","","","","","","","{""Q0"":""9""}","[0]","9","",""
"","null","html-keyboard-response","22","121991","0.0-11.0-0.0","SS1619740111250","","","null","","","","","","<p><img src= images/blank.png width =""600"" height = ""600"" style=""position:fixed;top:50%; left:50%; transform: translate(-50%, -50%); border:5px solid black"">","","","","","","","",""
"","2516","sequential-stimulus-presentation-old","23","139511","0.0-11.0-1.0","SS1619740111250","trial","","40","500","3016","images/stimuli/spore_stims/simple_06_A_b.gif","images/stimuli/spore_stims/simple_12_A_a.gif","forced_long","","1","simple_dissimilar","images/stimuli/spore_stims/simple_12_A_a.gif","","","","",""
"","null","html-keyboard-response","24","140470","0.0-11.0-0.1","SS1619740111250","","","null","","","","","","<p><img src= images/blank.png width =""600"" height = ""600"" style=""position:fixed;top:50%; left:50%; transform: translate(-50%, -50%); border:5px solid black"">","","","","","","","",""
"","624","sequential-stimulus-presentation-old","25","141598","0.0-11.0-1.1","SS1619740111250","trial","","40","500","1124","images/stimuli/spore_stims/simple_06_A_b.gif","images/stimuli/spore_stims/simple_12_A_a.gif","forced_long","","1","simple_dissimilar","images/stimuli/spore_stims/simple_12_A_a.gif","","","","",""
"","null","html-keyboard-response","26","142531","0.0-11.0-0.2","SS1619740111250","","","null","","","","","","<p><img src= images/blank.png width =""600"" height = ""600"" style=""position:fixed;top:50%; left:50%; transform: translate(-50%, -50%); border:5px solid black"">","","","","","","","",""
"","1598","sequential-stimulus-presentation-old","27","144631","0.0-11.0-1.2","SS1619740111250","trial","","40","500","2098","images/stimuli/spore_stims/simple_06_A_b.gif","images/stimuli/spore_stims/simple_12_A_a.gif","forced_long","","1","simple_dissimilar","images/stimuli/spore_stims/simple_12_A_a.gif","","","","",""
"","null","html-keyboard-response","28","145590","0.0-11.0-0.3","SS1619740111250","","","null","","","","","","<p><img src= images/blank.png width =""600"" height = ""600"" style=""position:fixed;top:50%; left:50%; transform: translate(-50%, -50%); border:5px solid black"">","","","","","","","",""
"","1363","sequential-stimulus-presentation-old","29","147455","0.0-11.0-1.3","SS1619740111250","trial","","40","500","1863","images/stimuli/spore_stims/simple_06_A_b.gif","images/stimuli/spore_stims/simple_12_A_a.gif","forced_long","","1","simple_dissimilar","images/stimuli/spore_stims/simple_12_A_a.gif","","","","",""
"","2586","survey-multi-choice","30","150043","0.0-12.0","SS1619740111250","math_question","","","","","","","","","","","","{""Q0"":""4""}","[0]","4","",""
"","null","html-keyboard-response","31","151187","0.0-13.0-0.0","SS1619740111250","","","null","","","","","","<p><img src= images/blank.png width =""600"" height = ""600"" style=""position:fixed;top:50%; left:50%; transform: translate(-50%, -50%); border:5px solid black"">","","","","","","","",""
"","955","sequential-stimulus-presentation-old","32","152647","0.0-13.0-1.0","SS1619740111250","trial","","40","500","1455","images/stimuli/spore_stims/complex_03_A_b.gif","images/stimuli/spore_stims/complex_20_A_a.gif","forced_short","","2","complex_dissimilar","images/stimuli/spore_stims/complex_20_A_a.gif","","","","",""
"","null","html-keyboard-response","33","153690","0.0-13.0-0.1","SS1619740111250","","","null","","","","","","<p><img src= images/blank.png width =""600"" height = ""600"" style=""position:fixed;top:50%; left:50%; transform: translate(-50%, -50%); border:5px solid black"">","","","","","","","",""
"","3363","sequential-stimulus-presentation-old","34","157557","0.0-13.0-1.1","SS1619740111250","trial","","40","500","3863","images/stimuli/spore_stims/complex_03_A_b.gif","images/stimuli/spore_stims/complex_20_A_a.gif","forced_short","","2","complex_dissimilar","images/stimuli/spore_stims/complex_03_A_b.gif","","","","",""
"","null","html-keyboard-response","35","158604","0.0-13.0-0.2","SS1619740111250","","","null","","","","","","<p><img src= images/blank.png width =""600"" height = ""600"" style=""position:fixed;top:50%; left:50%; transform: translate(-50%, -50%); border:5px solid black"">","","","","","","","",""
"","3622","sequential-stimulus-presentation-old","36","162729","0.0-13.0-1.2","SS1619740111250","trial","","40","500","4122","images/stimuli/spore_stims/complex_03_A_b.gif","images/stimuli/spore_stims/complex_20_A_a.gif","forced_short","","2","complex_dissimilar","images/stimuli/spore_stims/complex_20_A_a.gif","","","","",""
"","null","html-keyboard-response","37","163649","0.0-13.0-0.3","SS1619740111250","","","null","","","","","","<p><img src= images/blank.png width =""600"" height = ""600"" style=""position:fixed;top:50%; left:50%; transform: translate(-50%, -50%); border:5px solid black"">","","","","","","","",""
"","3042","sequential-stimulus-presentation-old","38","167195","0.0-13.0-1.3","SS1619740111250","trial","","40","500","3542","images/stimuli/spore_stims/complex_03_A_b.gif","images/stimuli/spore_stims/complex_20_A_a.gif","forced_short","","2","complex_dissimilar","images/stimuli/spore_stims/complex_03_A_b.gif","","","","",""
"","null","html-keyboard-response","39","168290","0.0-13.0-0.4","SS1619740111250","","","null","","","","","","<p><img src= images/blank.png width =""600"" height = ""600"" style=""position:fixed;top:50%; left:50%; transform: translate(-50%, -50%); border:5px solid black"">","","","","","","","",""
"","2813","sequential-stimulus-presentation-old","40","171604","0.0-13.0-1.4","SS1619740111250","trial","","40","500","3313","images/stimuli/spore_stims/complex_03_A_b.gif","images/stimuli/spore_stims/complex_20_A_a.gif","forced_short","","2","complex_dissimilar","images/stimuli/spore_stims/complex_20_A_a.gif","","","","",""
"","null","html-keyboard-response","41","172881","0.0-13.0-0.5","SS1619740111250","","","null","","","","","","<p><img src= images/blank.png width =""600"" height = ""600"" style=""position:fixed;top:50%; left:50%; transform: translate(-50%, -50%); border:5px solid black"">","","","","","","","",""
"","2689","sequential-stimulus-presentation-old","42","176072","0.0-13.0-1.5","SS1619740111250","trial","","40","500","3189","images/stimuli/spore_stims/complex_03_A_b.gif","images/stimuli/spore_stims/complex_20_A_a.gif","forced_short","","2","complex_dissimilar","images/stimuli/spore_stims/complex_20_A_a.gif","","","","",""
"","3069","survey-multi-choice","43","179143","0.0-14.0","SS1619740111250","math_question","","","","","","","","","","","","{""Q0"":""13""}","[0]","13","",""
"","null","html-keyboard-response","44","180271","0.0-15.0-0.0","SS1619740111250","","","null","","","","","","<p><img src= images/blank.png width =""600"" height = ""600"" style=""position:fixed;top:50%; left:50%; transform: translate(-50%, -50%); border:5px solid black"">","","","","","","","",""
"","7386","sequential-stimulus-presentation-old","45","202663","0.0-15.0-1.0","SS1619740111250","trial","","40","500","7886","images/stimuli/spore_stims/complex_19_A_a.gif","images/stimuli/spore_stims/complex_17_A_b.gif","forced_long","","3","complex_dissimilar","images/stimuli/spore_stims/complex_17_A_b.gif","","","","",""
"","null","html-keyboard-response","46","203866","0.0-15.0-0.1","SS1619740111250","","","null","","","","","","<p><img src= images/blank.png width =""600"" height = ""600"" style=""position:fixed;top:50%; left:50%; transform: translate(-50%, -50%); border:5px solid black"">","","","","","","","",""
"","5239","sequential-stimulus-presentation-old","47","209611","0.0-15.0-1.1","SS1619740111250","trial","","40","500","5739","images/stimuli/spore_stims/complex_19_A_a.gif","images/stimuli/spore_stims/complex_17_A_b.gif","forced_long","","3","complex_dissimilar","images/stimuli/spore_stims/complex_17_A_b.gif","","","","",""
"","null","html-keyboard-response","48","210914","0.0-15.0-0.2","SS1619740111250","","","null","","","","","","<p><img src= images/blank.png width =""600"" height = ""600"" style=""position:fixed;top:50%; left:50%; transform: translate(-50%, -50%); border:5px solid black"">","","","","","","","",""
"","3416","sequential-stimulus-presentation-old","49","214835","0.0-15.0-1.2","SS1619740111250","trial","","40","500","3916","images/stimuli/spore_stims/complex_19_A_a.gif","images/stimuli/spore_stims/complex_17_A_b.gif","forced_long","","3","complex_dissimilar","images/stimuli/spore_stims/complex_17_A_b.gif","","","","",""
"","null","html-keyboard-response","50","215734","0.0-15.0-0.3","SS1619740111250","","","null","","","","","","<p><img src= images/blank.png width =""600"" height = ""600"" style=""position:fixed;top:50%; left:50%; transform: translate(-50%, -50%); border:5px solid black"">","","","","","","","",""
"","3294","sequential-stimulus-presentation-old","51","219530","0.0-15.0-1.3","SS1619740111250","trial","","40","500","3794","images/stimuli/spore_stims/complex_19_A_a.gif","images/stimuli/spore_stims/complex_17_A_b.gif","forced_long","","3","complex_dissimilar","images/stimuli/spore_stims/complex_17_A_b.gif","","","","",""
"","null","html-keyboard-response","52","220678","0.0-15.0-0.4","SS1619740111250","","","null","","","","","","<p><img src= images/blank.png width =""600"" height = ""600"" style=""position:fixed;top:50%; left:50%; transform: translate(-50%, -50%); border:5px solid black"">","","","","","","","",""
"","2956","sequential-stimulus-presentation-old","53","224140","0.0-15.0-1.4","SS1619740111250","trial","","40","500","3456","images/stimuli/spore_stims/complex_19_A_a.gif","images/stimuli/spore_stims/complex_17_A_b.gif","forced_long","","3","complex_dissimilar","images/stimuli/spore_stims/complex_19_A_a.gif","","","","",""
"","3036","survey-multi-choice","54","227177","0.0-16.0","SS1619740111250","math_question","","","","","","","","","","","","{""Q0"":""12""}","[0]","12","",""
"","null","html-keyboard-response","55","228157","0.0-17.0-0.0","SS1619740111250","","","null","","","","","","<p><img src= images/blank.png width =""600"" height = ""600"" style=""position:fixed;top:50%; left:50%; transform: translate(-50%, -50%); border:5px solid black"">","","","","","","","",""
"","1523","sequential-stimulus-presentation-old","56","230189","0.0-17.0-1.0","SS1619740111250","trial","","40","500","2023","images/stimuli/spore_stims/simple_18_A_b.gif","images/stimuli/spore_stims/simple_02_A_a.gif","forced_short","","4","simple_dissimilar","images/stimuli/spore_stims/simple_02_A_a.gif","","","","",""
"","null","html-keyboard-response","57","231114","0.0-17.0-0.1","SS1619740111250","","","null","","","","","","<p><img src= images/blank.png width =""600"" height = ""600"" style=""position:fixed;top:50%; left:50%; transform: translate(-50%, -50%); border:5px solid black"">","","","","","","","",""
"","2113","sequential-stimulus-presentation-old","58","233733","0.0-17.0-1.1","SS1619740111250","trial","","40","500","2613","images/stimuli/spore_stims/simple_18_A_b.gif","images/stimuli/spore_stims/simple_02_A_a.gif","forced_short","","4","simple_dissimilar","images/stimuli/spore_stims/simple_02_A_a.gif","","","","",""
"","null","html-keyboard-response","59","234809","0.0-17.0-0.2","SS1619740111250","","","null","","","","","","<p><img src= images/blank.png width =""600"" height = ""600"" style=""position:fixed;top:50%; left:50%; transform: translate(-50%, -50%); border:5px solid black"">","","","","","","","",""
"","2879","sequential-stimulus-presentation-old","60","238193","0.0-17.0-1.2","SS1619740111250","trial","","40","500","3379","images/stimuli/spore_stims/simple_18_A_b.gif","images/stimuli/spore_stims/simple_02_A_a.gif","forced_short","","4","simple_dissimilar","images/stimuli/spore_stims/simple_18_A_b.gif","","","","",""
"","null","html-keyboard-response","61","239212","0.0-17.0-0.3","SS1619740111250","","","null","","","","","","<p><img src= images/blank.png width =""600"" height = ""600"" style=""position:fixed;top:50%; left:50%; transform: translate(-50%, -50%); border:5px solid black"">","","","","","","","",""
"","4173","sequential-stimulus-presentation-old","62","243887","0.0-17.0-1.3","SS1619740111250","trial","","40","500","4673","images/stimuli/spore_stims/simple_18_A_b.gif","images/stimuli/spore_stims/simple_02_A_a.gif","forced_short","","4","simple_dissimilar","images/stimuli/spore_stims/simple_02_A_a.gif","","","","",""
"","null","html-keyboard-response","63","245017","0.0-17.0-0.4","SS1619740111250","","","null","","","","","","<p><img src= images/blank.png width =""600"" height = ""600"" style=""position:fixed;top:50%; left:50%; transform: translate(-50%, -50%); border:5px solid black"">","","","","","","","",""
"","2372","sequential-stimulus-presentation-old","64","247894","0.0-17.0-1.4","SS1619740111250","trial","","40","500","2872","images/stimuli/spore_stims/simple_18_A_b.gif","images/stimuli/spore_stims/simple_02_A_a.gif","forced_short","","4","simple_dissimilar","images/stimuli/spore_stims/simple_18_A_b.gif","","","","",""
"","3191","survey-multi-choice","65","251086","0.0-18.0","SS1619740111250","math_question","","","","","","","","","","","","{""Q0"":""10""}","[0]","10","",""
"","null","html-keyboard-response","66","252262","0.0-19.0-0.0","SS1619740111250","","","null","","","","","","<p><img src= images/blank.png width =""600"" height = ""600"" style=""position:fixed;top:50%; left:50%; transform: translate(-50%, -50%); border:5px solid black"">","","","","","","","",""
"","669","sequential-stimulus-presentation-old","67","267936","0.0-19.0-1.0","SS1619740111250","trial","","40","500","1169","images/stimuli/spore_stims/simple_13_A_b.gif","images/stimuli/spore_stims/simple_05_A_a.gif","forced_long","","5","simple_dissimilar","images/stimuli/spore_stims/simple_05_A_a.gif","","","","",""
"","null","html-keyboard-response","68","268889","0.0-19.0-0.1","SS1619740111250","","","null","","","","","","<p><img src= images/blank.png width =""600"" height = ""600"" style=""position:fixed;top:50%; left:50%; transform: translate(-50%, -50%); border:5px solid black"">","","","","","","","",""
"","5609","sequential-stimulus-presentation-old","69","275004","0.0-19.0-1.1","SS1619740111250","trial","","40","500","6109","images/stimuli/spore_stims/simple_13_A_b.gif","images/stimuli/spore_stims/simple_05_A_a.gif","forced_long","","5","simple_dissimilar","images/stimuli/spore_stims/simple_05_A_a.gif","","","","",""
"","null","html-keyboard-response","70","276299","0.0-19.0-0.2","SS1619740111250","","","null","","","","","","<p><img src= images/blank.png width =""600"" height = ""600"" style=""position:fixed;top:50%; left:50%; transform: translate(-50%, -50%); border:5px solid black"">","","","","","","","",""
"","2475","sequential-stimulus-presentation-old","71","279278","0.0-19.0-1.2","SS1619740111250","trial","","40","500","2975","images/stimuli/spore_stims/simple_13_A_b.gif","images/stimuli/spore_stims/simple_05_A_a.gif","forced_long","","5","simple_dissimilar","images/stimuli/spore_stims/simple_13_A_b.gif","","","","",""
"","null","html-keyboard-response","72","280191","0.0-19.0-0.3","SS1619740111250","","","null","","","","","","<p><img src= images/blank.png width =""600"" height = ""600"" style=""position:fixed;top:50%; left:50%; transform: translate(-50%, -50%); border:5px solid black"">","","","","","","","",""
"","1802","sequential-stimulus-presentation-old","73","282496","0.0-19.0-1.3","SS1619740111250","trial","","40","500","2302","images/stimuli/spore_stims/simple_13_A_b.gif","images/stimuli/spore_stims/simple_05_A_a.gif","forced_long","","5","simple_dissimilar","images/stimuli/spore_stims/simple_05_A_a.gif","","","","",""
"","6731","survey-multi-choice","74","289228","0.0-20.0","SS1619740111250","math_question","","","","","","","","","","","","{""Q0"":""16""}","[0]","16","",""
"","null","html-keyboard-response","75","290213","0.0-21.0-0.0","SS1619740111250","","","null","","","","","","<p><img src= images/blank.png width =""600"" height = ""600"" style=""position:fixed;top:50%; left:50%; transform: translate(-50%, -50%); border:5px solid black"">","","","","","","","",""
"","3223","sequential-stimulus-presentation-old","76","293941","0.0-21.0-1.0","SS1619740111250","trial","","40","500","3723","images/stimuli/spore_stims/complex_12_A_a.gif","images/stimuli/spore_stims/complex_08_A_b.gif","self_paced","","6","complex_dissimilar","images/stimuli/spore_stims/complex_08_A_b.gif","","","","",""
"","null","html-keyboard-response","77","295044","0.0-21.0-0.1","SS1619740111250","","","null","","","","","","<p><img src= images/blank.png width =""600"" height = ""600"" style=""position:fixed;top:50%; left:50%; transform: translate(-50%, -50%); border:5px solid black"">","","","","","","","",""
"","3885","sequential-stimulus-presentation-old","78","299434","0.0-21.0-1.1","SS1619740111250","trial","","40","500","4385","images/stimuli/spore_stims/complex_12_A_a.gif","images/stimuli/spore_stims/complex_08_A_b.gif","self_paced","","6","complex_dissimilar","images/stimuli/spore_stims/complex_12_A_a.gif","","","","",""
"","null","html-keyboard-response","79","300371","0.0-21.0-0.2","SS1619740111250","","","null","","","","","","<p><img src= images/blank.png width =""600"" height = ""600"" style=""position:fixed;top:50%; left:50%; transform: translate(-50%, -50%); border:5px solid black"">","","","","","","","",""
"","1181","sequential-stimulus-presentation-old","80","302058","0.0-21.0-1.2","SS1619740111250","trial","","40","500","1681","images/stimuli/spore_stims/complex_12_A_a.gif","images/stimuli/spore_stims/complex_08_A_b.gif","self_paced","","6","complex_dissimilar","images/stimuli/spore_stims/complex_08_A_b.gif","","","","",""
"","null","html-keyboard-response","81","302995","0.0-21.0-0.3","SS1619740111250","","","null","","","","","","<p><img src= images/blank.png width =""600"" height = ""600"" style=""position:fixed;top:50%; left:50%; transform: translate(-50%, -50%); border:5px solid black"">","","","","","","","",""
"","1447","sequential-stimulus-presentation-old","82","304946","0.0-21.0-1.3","SS1619740111250","trial","","40","500","1947","images/stimuli/spore_stims/complex_12_A_a.gif","images/stimuli/spore_stims/complex_08_A_b.gif","self_paced","","6","complex_dissimilar","images/stimuli/spore_stims/complex_08_A_b.gif","","","","",""
"","null","html-keyboard-response","83","306071","0.0-21.0-0.4","SS1619740111250","","","null","","","","","","<p><img src= images/blank.png width =""600"" height = ""600"" style=""position:fixed;top:50%; left:50%; transform: translate(-50%, -50%); border:5px solid black"">","","","","","","","",""
"","890","sequential-stimulus-presentation-old","84","307466","0.0-21.0-1.4","SS1619740111250","trial","","40","500","1390","images/stimuli/spore_stims/complex_12_A_a.gif","images/stimuli/spore_stims/complex_08_A_b.gif","self_paced","","6","complex_dissimilar","images/stimuli/spore_stims/complex_08_A_b.gif","","","","",""
"","null","html-keyboard-response","85","308564","0.0-21.0-0.5","SS1619740111250","","","null","","","","","","<p><img src= images/blank.png width =""600"" height = ""600"" style=""position:fixed;top:50%; left:50%; transform: translate(-50%, -50%); border:5px solid black"">","","","","","","","",""
"","2759","sequential-stimulus-presentation-old","86","311831","0.0-21.0-1.5","SS1619740111250","trial","","40","500","3259","images/stimuli/spore_stims/complex_12_A_a.gif","images/stimuli/spore_stims/complex_08_A_b.gif","self_paced","","6","complex_dissimilar","images/stimuli/spore_stims/complex_08_A_b.gif","","","","",""
"","3271","survey-multi-choice","87","315103","0.0-22.0","SS1619740111250","math_question","","","","","","","","","","","","{""Q0"":""10""}","[0]","10","",""
"","null","html-keyboard-response","88","316068","0.0-23.0-0.0","SS1619740111250","","","null","","","","","","<p><img src= images/blank.png width =""600"" height = ""600"" style=""position:fixed;top:50%; left:50%; transform: translate(-50%, -50%); border:5px solid black"">","","","","","","","",""
"","3594","sequential-stimulus-presentation-old","89","334664","0.0-23.0-1.0","SS1619740111250","trial","","40","500","4094","images/stimuli/spore_stims/complex_10_A_a.gif","images/stimuli/spore_stims/complex_20_A_b.gif","forced_long","","7","complex_dissimilar","images/stimuli/spore_stims/complex_20_A_b.gif","","","","",""
"","null","html-keyboard-response","90","335965","0.0-23.0-0.1","SS1619740111250","","","null","","","","","","<p><img src= images/blank.png width =""600"" height = ""600"" style=""position:fixed;top:50%; left:50%; transform: translate(-50%, -50%); border:5px solid black"">","","","","","","","",""
"","1368","sequential-stimulus-presentation-old","91","337839","0.0-23.0-1.1","SS1619740111250","trial","","40","500","1868","images/stimuli/spore_stims/complex_10_A_a.gif","images/stimuli/spore_stims/complex_20_A_b.gif","forced_long","","7","complex_dissimilar","images/stimuli/spore_stims/complex_20_A_b.gif","","","","",""
"","null","html-keyboard-response","92","339089","0.0-23.0-0.2","SS1619740111250","","","null","","","","","","<p><img src= images/blank.png width =""600"" height = ""600"" style=""position:fixed;top:50%; left:50%; transform: translate(-50%, -50%); border:5px solid black"">","","","","","","","",""
"","614","sequential-stimulus-presentation-old","93","340207","0.0-23.0-1.2","SS1619740111250","trial","","40","500","1114","images/stimuli/spore_stims/complex_10_A_a.gif","images/stimuli/spore_stims/complex_20_A_b.gif","forced_long","","7","complex_dissimilar","images/stimuli/spore_stims/complex_20_A_b.gif","","","","",""
"","null","html-keyboard-response","94","341124","0.0-23.0-0.3","SS1619740111250","","","null","","","","","","<p><img src= images/blank.png width =""600"" height = ""600"" style=""position:fixed;top:50%; left:50%; transform: translate(-50%, -50%); border:5px solid black"">","","","","","","","",""
"","953","sequential-stimulus-presentation-old","95","342583","0.0-23.0-1.3","SS1619740111250","trial","","40","500","1453","images/stimuli/spore_stims/complex_10_A_a.gif","images/stimuli/spore_stims/complex_20_A_b.gif","forced_long","","7","complex_dissimilar","images/stimuli/spore_stims/complex_20_A_b.gif","","","","",""
"","null","html-keyboard-response","96","343630","0.0-23.0-0.4","SS1619740111250","","","null","","","","","","<p><img src= images/blank.png width =""600"" height = ""600"" style=""position:fixed;top:50%; left:50%; transform: translate(-50%, -50%); border:5px solid black"">","","","","","","","",""
"","2118","sequential-stimulus-presentation-old","97","346254","0.0-23.0-1.4","SS1619740111250","trial","","40","500","2618","images/stimuli/spore_stims/complex_10_A_a.gif","images/stimuli/spore_stims/complex_20_A_b.gif","forced_long","","7","complex_dissimilar","images/stimuli/spore_stims/complex_20_A_b.gif","","","","",""
"","null","html-keyboard-response","98","347357","0.0-23.0-0.5","SS1619740111250","","","null","","","","","","<p><img src= images/blank.png width =""600"" height = ""600"" style=""position:fixed;top:50%; left:50%; transform: translate(-50%, -50%); border:5px solid black"">","","","","","","","",""
"","3429","sequential-stimulus-presentation-old","99","351293","0.0-23.0-1.5","SS1619740111250","trial","","40","500","3929","images/stimuli/spore_stims/complex_10_A_a.gif","images/stimuli/spore_stims/complex_20_A_b.gif","forced_long","","7","complex_dissimilar","images/stimuli/spore_stims/complex_10_A_a.gif","","","","",""
"","4214","survey-multi-choice","100","355508","0.0-24.0","SS1619740111250","math_question","","","","","","","","","","","","{""Q0"":""14""}","[0]","14","",""
"","null","html-keyboard-response","101","356355","0.0-25.0-0.0","SS1619740111250","","","null","","","","","","<p><img src= images/blank.png width =""600"" height = ""600"" style=""position:fixed;top:50%; left:50%; transform: translate(-50%, -50%); border:5px solid black"">","","","","","","","",""
"","1759","sequential-stimulus-presentation-old","102","358620","0.0-25.0-1.0","SS1619740111250","trial","","40","500","2259","images/stimuli/spore_stims/complex_11_A_b.gif","images/stimuli/spore_stims/complex_02_A_a.gif","self_paced","","8","complex_dissimilar","images/stimuli/spore_stims/complex_02_A_a.gif","","","","",""
"","null","html-keyboard-response","103","359817","0.0-25.0-0.1","SS1619740111250","","","null","","","","","","<p><img src= images/blank.png width =""600"" height = ""600"" style=""position:fixed;top:50%; left:50%; transform: translate(-50%, -50%); border:5px solid black"">","","","","","","","",""
"","1981","sequential-stimulus-presentation-old","104","362304","0.0-25.0-1.1","SS1619740111250","trial","","40","500","2481","images/stimuli/spore_stims/complex_11_A_b.gif","images/stimuli/spore_stims/complex_02_A_a.gif","self_paced","","8","complex_dissimilar","images/stimuli/spore_stims/complex_02_A_a.gif","","","","",""
"","null","html-keyboard-response","105","363376","0.0-25.0-0.2","SS1619740111250","","","null","","","","","","<p><img src= images/blank.png width =""600"" height = ""600"" style=""position:fixed;top:50%; left:50%; transform: translate(-50%, -50%); border:5px solid black"">","","","","","","","",""
"","703","sequential-stimulus-presentation-old","106","364583","0.0-25.0-1.2","SS1619740111250","trial","","40","500","1203","images/stimuli/spore_stims/complex_11_A_b.gif","images/stimuli/spore_stims/complex_02_A_a.gif","self_paced","","8","complex_dissimilar","images/stimuli/spore_stims/complex_11_A_b.gif","","","","",""
"","null","html-keyboard-response","107","365869","0.0-25.0-0.3","SS1619740111250","","","null","","","","","","<p><img src= images/blank.png width =""600"" height = ""600"" style=""position:fixed;top:50%; left:50%; transform: translate(-50%, -50%); border:5px solid black"">","","","","","","","",""
"","1","sequential-stimulus-presentation-old","108","366375","0.0-25.0-1.3","SS1619740111250","trial","","40","500","501","images/stimuli/spore_stims/complex_11_A_b.gif","images/stimuli/spore_stims/complex_02_A_a.gif","self_paced","","8","complex_dissimilar","images/stimuli/spore_stims/complex_11_A_b.gif","","","","",""
"","2894","survey-multi-choice","109","369271","0.0-26.0","SS1619740111250","math_question","","","","","","","","","","","","{""Q0"":""8""}","[0]","8","",""
"","null","html-keyboard-response","110","370462","0.0-27.0-0.0","SS1619740111250","","","null","","","","","","<p><img src= images/blank.png width =""600"" height = ""600"" style=""position:fixed;top:50%; left:50%; transform: translate(-50%, -50%); border:5px solid black"">","","","","","","","",""
"","2121","sequential-stimulus-presentation-old","111","373090","0.0-27.0-1.0","SS1619740111250","trial","","40","500","2621","images/stimuli/spore_stims/simple_19_A_a.gif","images/stimuli/spore_stims/simple_20_A_b.gif","self_paced","","9","simple_dissimilar","images/stimuli/spore_stims/simple_20_A_b.gif","","","","",""
"","null","html-keyboard-response","112","373912","0.0-27.0-0.1","SS1619740111250","","","null","","","","","","<p><img src= images/blank.png width =""600"" height = ""600"" style=""position:fixed;top:50%; left:50%; transform: translate(-50%, -50%); border:5px solid black"">","","","","","","","",""
"","1330","sequential-stimulus-presentation-old","113","375745","0.0-27.0-1.1","SS1619740111250","trial","","40","500","1830","images/stimuli/spore_stims/simple_19_A_a.gif","images/stimuli/spore_stims/simple_20_A_b.gif","self_paced","","9","simple_dissimilar","images/stimuli/spore_stims/simple_20_A_b.gif","","","","",""
"","null","html-keyboard-response","114","376817","0.0-27.0-0.2","SS1619740111250","","","null","","","","","","<p><img src= images/blank.png width =""600"" height = ""600"" style=""position:fixed;top:50%; left:50%; transform: translate(-50%, -50%); border:5px solid black"">","","","","","","","",""
"","1551","sequential-stimulus-presentation-old","115","378873","0.0-27.0-1.2","SS1619740111250","trial","","40","500","2051","images/stimuli/spore_stims/simple_19_A_a.gif","images/stimuli/spore_stims/simple_20_A_b.gif","self_paced","","9","simple_dissimilar","images/stimuli/spore_stims/simple_20_A_b.gif","","","","",""
"","null","html-keyboard-response","116","380131","0.0-27.0-0.3","SS1619740111250","","","null","","","","","","<p><img src= images/blank.png width =""600"" height = ""600"" style=""position:fixed;top:50%; left:50%; transform: translate(-50%, -50%); border:5px solid black"">","","","","","","","",""
"","1731","sequential-stimulus-presentation-old","117","382369","0.0-27.0-1.3","SS1619740111250","trial","","40","500","2231","images/stimuli/spore_stims/simple_19_A_a.gif","images/stimuli/spore_stims/simple_20_A_b.gif","self_paced","","9","simple_dissimilar","images/stimuli/spore_stims/simple_20_A_b.gif","","","","",""
"","null","html-keyboard-response","118","383257","0.0-27.0-0.4","SS1619740111250","","","null","","","","","","<p><img src= images/blank.png width =""600"" height = ""600"" style=""position:fixed;top:50%; left:50%; transform: translate(-50%, -50%); border:5px solid black"">","","","","","","","",""
"","2210","sequential-stimulus-presentation-old","119","385972","0.0-27.0-1.4","SS1619740111250","trial","","40","500","2710","images/stimuli/spore_stims/simple_19_A_a.gif","images/stimuli/spore_stims/simple_20_A_b.gif","self_paced","","9","simple_dissimilar","images/stimuli/spore_stims/simple_19_A_a.gif","","","","",""
"","2543","survey-multi-choice","120","388517","0.0-28.0","SS1619740111250","math_question","","","","","","","","","","","","{""Q0"":""13""}","[0]","13","",""
"","null","html-keyboard-response","121","389558","0.0-29.0-0.0","SS1619740111250","","","null","","","","","","<p><img src= images/blank.png width =""600"" height = ""600"" style=""position:fixed;top:50%; left:50%; transform: translate(-50%, -50%); border:5px solid black"">","","","","","","","",""
"","3166","sequential-stimulus-presentation-old","122","393229","0.0-29.0-1.0","SS1619740111250","trial","","40","500","3666","images/stimuli/spore_stims/simple_07_A_a.gif","images/stimuli/spore_stims/simple_05_A_b.gif","self_paced","","10","simple_dissimilar","images/stimuli/spore_stims/simple_05_A_b.gif","","","","",""
"","null","html-keyboard-response","123","394432","0.0-29.0-0.1","SS1619740111250","","","null","","","","","","<p><img src= images/blank.png width =""600"" height = ""600"" style=""position:fixed;top:50%; left:50%; transform: translate(-50%, -50%); border:5px solid black"">","","","","","","","",""
"","300","sequential-stimulus-presentation-old","124","395236","0.0-29.0-1.1","SS1619740111250","trial","","40","500","800","images/stimuli/spore_stims/simple_07_A_a.gif","images/stimuli/spore_stims/simple_05_A_b.gif","self_paced","","10","simple_dissimilar","images/stimuli/spore_stims/simple_05_A_b.gif","","","","",""
"","null","html-keyboard-response","125","396501","0.0-29.0-0.2","SS1619740111250","","","null","","","","","","<p><img src= images/blank.png width =""600"" height = ""600"" style=""position:fixed;top:50%; left:50%; transform: translate(-50%, -50%); border:5px solid black"">","","","","","","","",""
"","802","sequential-stimulus-presentation-old","126","397808","0.0-29.0-1.2","SS1619740111250","trial","","40","500","1302","images/stimuli/spore_stims/simple_07_A_a.gif","images/stimuli/spore_stims/simple_05_A_b.gif","self_paced","","10","simple_dissimilar","images/stimuli/spore_stims/simple_05_A_b.gif","","","","",""
"","null","html-keyboard-response","127","398945","0.0-29.0-0.3","SS1619740111250","","","null","","","","","","<p><img src= images/blank.png width =""600"" height = ""600"" style=""position:fixed;top:50%; left:50%; transform: translate(-50%, -50%); border:5px solid black"">","","","","","","","",""
"","547","sequential-stimulus-presentation-old","128","399997","0.0-29.0-1.3","SS1619740111250","trial","","40","500","1047","images/stimuli/spore_stims/simple_07_A_a.gif","images/stimuli/spore_stims/simple_05_A_b.gif","self_paced","","10","simple_dissimilar","images/stimuli/spore_stims/simple_05_A_b.gif","","","","",""
"","null","html-keyboard-response","129","400909","0.0-29.0-0.4","SS1619740111250","","","null","","","","","","<p><img src= images/blank.png width =""600"" height = ""600"" style=""position:fixed;top:50%; left:50%; transform: translate(-50%, -50%); border:5px solid black"">","","","","","","","",""
"","1037","sequential-stimulus-presentation-old","130","402452","0.0-29.0-1.4","SS1619740111250","trial","","40","500","1537","images/stimuli/spore_stims/simple_07_A_a.gif","images/stimuli/spore_stims/simple_05_A_b.gif","self_paced","","10","simple_dissimilar","images/stimuli/spore_stims/simple_05_A_b.gif","","","","",""
"","2225","survey-multi-choice","131","404682","0.0-30.0","SS1619740111250","math_question","","","","","","","","","","","","{""Q0"":""10""}","[0]","10","",""
"","null","html-keyboard-response","132","405893","0.0-31.0-0.0","SS1619740111250","","","null","","","","","","<p><img src= images/blank.png width =""600"" height = ""600"" style=""position:fixed;top:50%; left:50%; transform: translate(-50%, -50%); border:5px solid black"">","","","","","","","",""
"","1119","sequential-stimulus-presentation-old","133","407517","0.0-31.0-1.0","SS1619740111250","trial","","40","500","1619","images/stimuli/spore_stims/simple_14_A_b.gif","images/stimuli/spore_stims/simple_01_A_a.gif","forced_short","","11","simple_dissimilar","images/stimuli/spore_stims/simple_01_A_a.gif","","","","",""
"","null","html-keyboard-response","134","408600","0.0-31.0-0.1","SS1619740111250","","","null","","","","","","<p><img src= images/blank.png width =""600"" height = ""600"" style=""position:fixed;top:50%; left:50%; transform: translate(-50%, -50%); border:5px solid black"">","","","","","","","",""
"","946","sequential-stimulus-presentation-old","135","410052","0.0-31.0-1.1","SS1619740111250","trial","","40","500","1446","images/stimuli/spore_stims/simple_14_A_b.gif","images/stimuli/spore_stims/simple_01_A_a.gif","forced_short","","11","simple_dissimilar","images/stimuli/spore_stims/simple_14_A_b.gif","","","","",""
"","null","html-keyboard-response","136","410911","0.0-31.0-0.2","SS1619740111250","","","null","","","","","","<p><img src= images/blank.png width =""600"" height = ""600"" style=""position:fixed;top:50%; left:50%; transform: translate(-50%, -50%); border:5px solid black"">","","","","","","","",""
"","2334","sequential-stimulus-presentation-old","137","413750","0.0-31.0-1.2","SS1619740111250","trial","","40","500","2834","images/stimuli/spore_stims/simple_14_A_b.gif","images/stimuli/spore_stims/simple_01_A_a.gif","forced_short","","11","simple_dissimilar","images/stimuli/spore_stims/simple_01_A_a.gif","","","","",""
"","null","html-keyboard-response","138","414693","0.0-31.0-0.3","SS1619740111250","","","null","","","","","","<p><img src= images/blank.png width =""600"" height = ""600"" style=""position:fixed;top:50%; left:50%; transform: translate(-50%, -50%); border:5px solid black"">","","","","","","","",""
"","1540","sequential-stimulus-presentation-old","139","416741","0.0-31.0-1.3","SS1619740111250","trial","","40","500","2040","images/stimuli/spore_stims/simple_14_A_b.gif","images/stimuli/spore_stims/simple_01_A_a.gif","forced_short","","11","simple_dissimilar","images/stimuli/spore_stims/simple_01_A_a.gif","","","","",""
"","null","html-keyboard-response","140","418036","0.0-31.0-0.4","SS1619740111250","","","null","","","","","","<p><img src= images/blank.png width =""600"" height = ""600"" style=""position:fixed;top:50%; left:50%; transform: translate(-50%, -50%); border:5px solid black"">","","","","","","","",""
"","2567","sequential-stimulus-presentation-old","141","421114","0.0-31.0-1.4","SS1619740111250","trial","","40","500","3067","images/stimuli/spore_stims/simple_14_A_b.gif","images/stimuli/spore_stims/simple_01_A_a.gif","forced_short","","11","simple_dissimilar","images/stimuli/spore_stims/simple_01_A_a.gif","","","","",""
"","null","html-keyboard-response","142","422117","0.0-31.0-0.5","SS1619740111250","","","null","","","","","","<p><img src= images/blank.png width =""600"" height = ""600"" style=""position:fixed;top:50%; left:50%; transform: translate(-50%, -50%); border:5px solid black"">","","","","","","","",""
"","1484","sequential-stimulus-presentation-old","143","424107","0.0-31.0-1.5","SS1619740111250","trial","","40","500","1984","images/stimuli/spore_stims/simple_14_A_b.gif","images/stimuli/spore_stims/simple_01_A_a.gif","forced_short","","11","simple_dissimilar","images/stimuli/spore_stims/simple_01_A_a.gif","","","","",""
"[{""page_index"":0,""viewing_time"":7284}]","7284","instructions","144","431395","0.0-32.0","SS1619740111250","instructions","","","","","","","","","","","","","","","",""
"","5919","survey-likert","145","437320","0.0-33.0","SS1619740111250","similarity_question","","","","","","","","","","","","{""Q0"":3}","[0]","","images/stimuli/spore_stims/complex_14_A_a.gif","images/stimuli/spore_stims/complex_05_A_b.gif"
"","3295","survey-likert","146","440622","0.0-34.0","SS1619740111250","similarity_question","","","","","","","","","","","","{""Q0"":0}","[0]","","images/stimuli/spore_stims/complex_11_A_b.gif","images/stimuli/spore_stims/complex_02_A_a.gif"
"","3524","survey-likert","147","444149","0.0-35.0","SS1619740111250","similarity_question","","","","","","","","","","","","{""Q0"":4}","[0]","","images/stimuli/spore_stims/simple_12_A_a.gif","images/stimuli/spore_stims/simple_06_A_b.gif"
"","4110","survey-likert","148","448264","0.0-36.0","SS1619740111250","similarity_question","","","","","","","","","","","","{""Q0"":4}","[0]","","images/stimuli/spore_stims/simple_01_A_a.gif","images/stimuli/spore_stims/simple_14_A_b.gif"
"","2958","survey-likert","149","451228","0.0-37.0","SS1619740111250","similarity_question","","","","","","","","","","","","{""Q0"":5}","[0]","","images/stimuli/spore_stims/simple_05_A_a.gif","images/stimuli/spore_stims/simple_13_A_b.gif"
"","3474","survey-likert","150","454707","0.0-38.0","SS1619740111250","similarity_question","","","","","","","","","","","","{""Q0"":4}","[0]","","images/stimuli/spore_stims/complex_19_A_a.gif","images/stimuli/spore_stims/complex_17_A_b.gif"
"","2609","survey-likert","151","457321","0.0-39.0","SS1619740111250","similarity_question","","","","","","","","","","","","{""Q0"":6}","[0]","","images/stimuli/spore_stims/complex_20_A_b.gif","images/stimuli/spore_stims/complex_10_A_a.gif"
"","3024","survey-likert","152","460349","0.0-40.0","SS1619740111250","similarity_question","","","","","","","","","","","","{""Q0"":4}","[0]","","images/stimuli/spore_stims/complex_08_A_b.gif","images/stimuli/spore_stims/complex_12_A_a.gif"
"","3156","survey-likert","153","463509","0.0-41.0","SS1619740111250","similarity_question","","","","","","","","","","","","{""Q0"":1}","[0]","","images/stimuli/spore_stims/complex_03_A_b.gif","images/stimuli/spore_stims/complex_20_A_a.gif"
"","2794","survey-likert","154","466307","0.0-42.0","SS1619740111250","similarity_question","","","","","","","","","","","","{""Q0"":1}","[0]","","images/stimuli/spore_stims/simple_02_A_a.gif","images/stimuli/spore_stims/simple_18_A_b.gif"
"","2542","survey-likert","155","468853","0.0-43.0","SS1619740111250","similarity_question","","","","","","","","","","","","{""Q0"":0}","[0]","","images/stimuli/spore_stims/simple_07_A_a.gif","images/stimuli/spore_stims/simple_05_A_b.gif"
"","3788","survey-likert","156","472644","0.0-44.0","SS1619740111250","similarity_question","","","","","","","","","","","","{""Q0"":3}","[0]","","images/stimuli/spore_stims/simple_20_A_b.gif","images/stimuli/spore_stims/simple_19_A_a.gif"
"[{""page_index"":0,""viewing_time"":2955}]","2956","instructions","157","475603","0.0-45.0","SS1619740111250","instructions","","","","","","","","","","","","","","","",""
"","2591","survey-likert","158","478203","0.0-46.0","SS1619740111250","","","","","","","","","images/stimuli/spore_stims/complex_20_A_a.gif","","","","{""Q0"":4}","[0]","","",""
"","2570","survey-likert","159","480782","0.0-47.0","SS1619740111250","","","","","","","","","images/stimuli/spore_stims/simple_07_A_a.gif","","","","{""Q0"":0}","[0]","","",""
"","2919","survey-likert","160","483710","0.0-48.0","SS1619740111250","","","","","","","","","images/stimuli/spore_stims/complex_08_A_b.gif","","","","{""Q0"":4}","[0]","","",""
"","1948","survey-likert","161","485664","0.0-49.0","SS1619740111250","","","","","","","","","images/stimuli/spore_stims/simple_02_A_a.gif","","","","{""Q0"":0}","[0]","","",""
"","2272","survey-likert","162","487941","0.0-50.0","SS1619740111250","","","","","","","","","images/stimuli/spore_stims/complex_14_A_a.gif","","","","{""Q0"":5}","[0]","","",""
"","3328","survey-likert","163","491274","0.0-51.0","SS1619740111250","","","","","","","","","images/stimuli/spore_stims/complex_10_A_a.gif","","","","{""Q0"":5}","[0]","","",""
"","2130","survey-likert","164","493407","0.0-52.0","SS1619740111250","","","","","","","","","images/stimuli/spore_stims/simple_05_A_a.gif","","","","{""Q0"":0}","[0]","","",""
"","2712","survey-likert","165","496125","0.0-53.0","SS1619740111250","","","","","","","","","images/stimuli/spore_stims/complex_02_A_a.gif","","","","{""Q0"":2}","[0]","","",""
"","2174","survey-likert","166","498305","0.0-54.0","SS1619740111250","","","","","","","","","images/stimuli/spore_stims/simple_14_A_b.gif","","","","{""Q0"":0}","[0]","","",""
"","2715","survey-likert","167","501026","0.0-55.0","SS1619740111250","","","","","","","","","images/stimuli/spore_stims/simple_06_A_b.gif","","","","{""Q0"":0}","[0]","","",""
"","3523","survey-likert","168","504553","0.0-56.0","SS1619740111250","","","","","","","","","images/stimuli/spore_stims/complex_19_A_a.gif","","","","{""Q0"":6}","[0]","","",""
"","2781","survey-likert","169","507339","0.0-57.0","SS1619740111250","","","","","","","","","images/stimuli/spore_stims/simple_19_A_a.gif","","","","{""Q0"":1}","[0]","","",""
"[{""page_index"":0,""viewing_time"":1776}]","1776","instructions","170","509120","0.0-58.0","SS1619740111250","instructions","","","","","","","","","","","","","","","",""
"","2109","demog-age","171","511237","0.0-59.0","SS1619740111250","","","","","","","","","","","","","{""age"":""24""}","","","",""
"","2181","demog-ethnic-US","172","513428","0.0-60.0","SS1619740111250","","","","","","","","","","","","","{""ethnicity"":[""Hispanic or Latino""]}","[0]","","",""
"","6633","demog-gender-and-education","173","520071","0.0-61.0","SS1619740111250","","","","","","","","","","","","","{""gender"":""Female"",""education"":""Bachelor's Degree""}","[0,1]","","",""
"","10336","survey-text","174","530412","0.0-62.0","SS1619740111250","feedback","","","","","","","","","","","","{""Q0"":""some of the creatures were a little scary :(""}","","","",""
"[{""page_index"":0,""viewing_time"":2115}]","2116","instructions","175","532533","0.0-63.0","SS1619740111250","instructions","","","","","","","","","","","","","","","",""
