"view_history","rt","trial_type","trial_index","time_elapsed","internal_node_id","subject","stimulus_type","trial_stimulus","key_press","minimum_viewing_duration","trial_looking_time","block_deviant","block_background","exposure_type","stimulus","block_number","block_type","stimulus_displayed","responses","question_order","math_correct_answer","stimulus_left","stimulus_right"
"[{""page_index"":0,""viewing_time"":20520}]","20520","instructions","0","20525","0.0-0.0","SS1619739808785","","","","","","","","","","","","","","","","",""
"[{""page_index"":0,""viewing_time"":17504},{""page_index"":1,""viewing_time"":6166}]","23670","instructions","1","46202","0.0-1.0","SS1619739808785","instructions","","","","","","","","","","","","","","","",""
"","7919","sequential-stimulus-presentation-old","2","54632","0.0-2.0","SS1619739808785","","","40","500","8419","null","null","self_paced","","","","","","","","",""
"","9622","sequential-stimulus-presentation-old","3","64761","0.0-3.0","SS1619739808785","","","40","500","10122","null","null","self_paced","","","","","","","","",""
"[{""page_index"":0,""viewing_time"":36600}]","36601","instructions","4","101363","0.0-4.0","SS1619739808785","instructions","","","","","","","","","","","","","","","",""
"","1990","sequential-stimulus-presentation-old","5","118365","0.0-5.0","SS1619739808785","","","40","500","2490","null","null","forced_long","","","","","","","","",""
"","3633","sequential-stimulus-presentation-old","6","122509","0.0-6.0","SS1619739808785","","","40","500","4133","null","null","forced_long","","","","","","","","",""
"[{""page_index"":0,""viewing_time"":4617}]","4617","instructions","7","127127","0.0-7.0","SS1619739808785","instructions","","","","","","","","","","","","","","","",""
"[{""page_index"":0,""viewing_time"":18739},{""page_index"":1,""viewing_time"":15723},{""page_index"":2,""viewing_time"":13457},{""page_index"":3,""viewing_time"":2975},{""page_index"":4,""viewing_time"":2005}]","52899","instructions","8","180027","0.0-8.0","SS1619739808785","instructions","","","","","","","","","","","","","","","",""
"","null","html-keyboard-response","9","181162","0.0-9.0-0.0","SS1619739808785","","","null","","","","","","<p><img src= images/blank.png width =""600"" height = ""600"" style=""position:fixed;top:50%; left:50%; transform: translate(-50%, -50%); border:5px solid black"">","","","","","","","",""
"","12246","sequential-stimulus-presentation-old","10","193920","0.0-9.0-1.0","SS1619739808785","trial","","40","500","12746","images/stimuli/spore_stims/simple_14_A_b.gif","images/stimuli/spore_stims/simple_19_A_a.gif","self_paced","","0","simple_dissimilar","images/stimuli/spore_stims/simple_19_A_a.gif","","","","",""
"","null","html-keyboard-response","11","194904","0.0-9.0-0.1","SS1619739808785","","","null","","","","","","<p><img src= images/blank.png width =""600"" height = ""600"" style=""position:fixed;top:50%; left:50%; transform: translate(-50%, -50%); border:5px solid black"">","","","","","","","",""
"","9507","sequential-stimulus-presentation-old","12","204922","0.0-9.0-1.1","SS1619739808785","trial","","40","500","10007","images/stimuli/spore_stims/simple_14_A_b.gif","images/stimuli/spore_stims/simple_19_A_a.gif","self_paced","","0","simple_dissimilar","images/stimuli/spore_stims/simple_14_A_b.gif","","","","",""
"","null","html-keyboard-response","13","206198","0.0-9.0-0.2","SS1619739808785","","","null","","","","","","<p><img src= images/blank.png width =""600"" height = ""600"" style=""position:fixed;top:50%; left:50%; transform: translate(-50%, -50%); border:5px solid black"">","","","","","","","",""
"","6424","sequential-stimulus-presentation-old","14","213133","0.0-9.0-1.2","SS1619739808785","trial","","40","500","6924","images/stimuli/spore_stims/simple_14_A_b.gif","images/stimuli/spore_stims/simple_19_A_a.gif","self_paced","","0","simple_dissimilar","images/stimuli/spore_stims/simple_14_A_b.gif","","","","",""
"","null","html-keyboard-response","15","214098","0.0-9.0-0.3","SS1619739808785","","","null","","","","","","<p><img src= images/blank.png width =""600"" height = ""600"" style=""position:fixed;top:50%; left:50%; transform: translate(-50%, -50%); border:5px solid black"">","","","","","","","",""
"","8359","sequential-stimulus-presentation-old","16","222969","0.0-9.0-1.3","SS1619739808785","trial","","40","500","8859","images/stimuli/spore_stims/simple_14_A_b.gif","images/stimuli/spore_stims/simple_19_A_a.gif","self_paced","","0","simple_dissimilar","images/stimuli/spore_stims/simple_19_A_a.gif","","","","",""
"","null","html-keyboard-response","17","224077","0.0-9.0-0.4","SS1619739808785","","","null","","","","","","<p><img src= images/blank.png width =""600"" height = ""600"" style=""position:fixed;top:50%; left:50%; transform: translate(-50%, -50%); border:5px solid black"">","","","","","","","",""
"","7925","sequential-stimulus-presentation-old","18","232514","0.0-9.0-1.4","SS1619739808785","trial","","40","500","8425","images/stimuli/spore_stims/simple_14_A_b.gif","images/stimuli/spore_stims/simple_19_A_a.gif","self_paced","","0","simple_dissimilar","images/stimuli/spore_stims/simple_19_A_a.gif","","","","",""
"","null","html-keyboard-response","19","233545","0.0-9.0-0.5","SS1619739808785","","","null","","","","","","<p><img src= images/blank.png width =""600"" height = ""600"" style=""position:fixed;top:50%; left:50%; transform: translate(-50%, -50%); border:5px solid black"">","","","","","","","",""
"","10686","sequential-stimulus-presentation-old","20","244745","0.0-9.0-1.5","SS1619739808785","trial","","40","500","11186","images/stimuli/spore_stims/simple_14_A_b.gif","images/stimuli/spore_stims/simple_19_A_a.gif","self_paced","","0","simple_dissimilar","images/stimuli/spore_stims/simple_19_A_a.gif","","","","",""
"","6547","survey-multi-choice","21","251295","0.0-10.0","SS1619739808785","math_question","","","","","","","","","","","","{""Q0"":""10""}","[0]","10","",""
"","null","html-keyboard-response","22","252263","0.0-11.0-0.0","SS1619739808785","","","null","","","","","","<p><img src= images/blank.png width =""600"" height = ""600"" style=""position:fixed;top:50%; left:50%; transform: translate(-50%, -50%); border:5px solid black"">","","","","","","","",""
"","3399","sequential-stimulus-presentation-old","23","270678","0.0-11.0-1.0","SS1619739808785","trial","","40","500","3899","images/stimuli/spore_stims/complex_08_A_b.gif","images/stimuli/spore_stims/complex_20_A_a.gif","forced_long","","1","complex_dissimilar","images/stimuli/spore_stims/complex_20_A_a.gif","","","","",""
"","null","html-keyboard-response","24","271888","0.0-11.0-0.1","SS1619739808785","","","null","","","","","","<p><img src= images/blank.png width =""600"" height = ""600"" style=""position:fixed;top:50%; left:50%; transform: translate(-50%, -50%); border:5px solid black"">","","","","","","","",""
"","8480","sequential-stimulus-presentation-old","25","280882","0.0-11.0-1.1","SS1619739808785","trial","","40","500","8980","images/stimuli/spore_stims/complex_08_A_b.gif","images/stimuli/spore_stims/complex_20_A_a.gif","forced_long","","1","complex_dissimilar","images/stimuli/spore_stims/complex_20_A_a.gif","","","","",""
"","null","html-keyboard-response","26","281765","0.0-11.0-0.2","SS1619739808785","","","null","","","","","","<p><img src= images/blank.png width =""600"" height = ""600"" style=""position:fixed;top:50%; left:50%; transform: translate(-50%, -50%); border:5px solid black"">","","","","","","","",""
"","3376","sequential-stimulus-presentation-old","27","285651","0.0-11.0-1.2","SS1619739808785","trial","","40","500","3876","images/stimuli/spore_stims/complex_08_A_b.gif","images/stimuli/spore_stims/complex_20_A_a.gif","forced_long","","1","complex_dissimilar","images/stimuli/spore_stims/complex_08_A_b.gif","","","","",""
"","null","html-keyboard-response","28","286911","0.0-11.0-0.3","SS1619739808785","","","null","","","","","","<p><img src= images/blank.png width =""600"" height = ""600"" style=""position:fixed;top:50%; left:50%; transform: translate(-50%, -50%); border:5px solid black"">","","","","","","","",""
"","5610","sequential-stimulus-presentation-old","29","293030","0.0-11.0-1.3","SS1619739808785","trial","","40","500","6110","images/stimuli/spore_stims/complex_08_A_b.gif","images/stimuli/spore_stims/complex_20_A_a.gif","forced_long","","1","complex_dissimilar","images/stimuli/spore_stims/complex_20_A_a.gif","","","","",""
"","4762","survey-multi-choice","30","297794","0.0-12.0","SS1619739808785","math_question","","","","","","","","","","","","{""Q0"":""10""}","[0]","10","",""
"","null","html-keyboard-response","31","298957","0.0-13.0-0.0","SS1619739808785","","","null","","","","","","<p><img src= images/blank.png width =""600"" height = ""600"" style=""position:fixed;top:50%; left:50%; transform: translate(-50%, -50%); border:5px solid black"">","","","","","","","",""
"","1986","sequential-stimulus-presentation-old","32","301454","0.0-13.0-1.0","SS1619739808785","trial","","40","500","2486","images/stimuli/spore_stims/complex_12_A_a.gif","images/stimuli/spore_stims/complex_14_A_b.gif","forced_short","","2","complex_dissimilar","images/stimuli/spore_stims/complex_14_A_b.gif","","","","",""
"","null","html-keyboard-response","33","302343","0.0-13.0-0.1","SS1619739808785","","","null","","","","","","<p><img src= images/blank.png width =""600"" height = ""600"" style=""position:fixed;top:50%; left:50%; transform: translate(-50%, -50%); border:5px solid black"">","","","","","","","",""
"","8100","sequential-stimulus-presentation-old","34","310952","0.0-13.0-1.1","SS1619739808785","trial","","40","500","8600","images/stimuli/spore_stims/complex_12_A_a.gif","images/stimuli/spore_stims/complex_14_A_b.gif","forced_short","","2","complex_dissimilar","images/stimuli/spore_stims/complex_14_A_b.gif","","","","",""
"","null","html-keyboard-response","35","312154","0.0-13.0-0.2","SS1619739808785","","","null","","","","","","<p><img src= images/blank.png width =""600"" height = ""600"" style=""position:fixed;top:50%; left:50%; transform: translate(-50%, -50%); border:5px solid black"">","","","","","","","",""
"","5148","sequential-stimulus-presentation-old","36","317812","0.0-13.0-1.2","SS1619739808785","trial","","40","500","5648","images/stimuli/spore_stims/complex_12_A_a.gif","images/stimuli/spore_stims/complex_14_A_b.gif","forced_short","","2","complex_dissimilar","images/stimuli/spore_stims/complex_14_A_b.gif","","","","",""
"","null","html-keyboard-response","37","319036","0.0-13.0-0.3","SS1619739808785","","","null","","","","","","<p><img src= images/blank.png width =""600"" height = ""600"" style=""position:fixed;top:50%; left:50%; transform: translate(-50%, -50%); border:5px solid black"">","","","","","","","",""
"","8788","sequential-stimulus-presentation-old","38","328338","0.0-13.0-1.3","SS1619739808785","trial","","40","500","9288","images/stimuli/spore_stims/complex_12_A_a.gif","images/stimuli/spore_stims/complex_14_A_b.gif","forced_short","","2","complex_dissimilar","images/stimuli/spore_stims/complex_12_A_a.gif","","","","",""
"","null","html-keyboard-response","39","329446","0.0-13.0-0.4","SS1619739808785","","","null","","","","","","<p><img src= images/blank.png width =""600"" height = ""600"" style=""position:fixed;top:50%; left:50%; transform: translate(-50%, -50%); border:5px solid black"">","","","","","","","",""
"","7830","sequential-stimulus-presentation-old","40","337784","0.0-13.0-1.4","SS1619739808785","trial","","40","500","8330","images/stimuli/spore_stims/complex_12_A_a.gif","images/stimuli/spore_stims/complex_14_A_b.gif","forced_short","","2","complex_dissimilar","images/stimuli/spore_stims/complex_12_A_a.gif","","","","",""
"","4971","survey-multi-choice","41","342757","0.0-14.0","SS1619739808785","math_question","","","","","","","","","","","","{""Q0"":""6""}","[0]","6","",""
"","null","html-keyboard-response","42","343586","0.0-15.0-0.0","SS1619739808785","","","null","","","","","","<p><img src= images/blank.png width =""600"" height = ""600"" style=""position:fixed;top:50%; left:50%; transform: translate(-50%, -50%); border:5px solid black"">","","","","","","","",""
"","1326","sequential-stimulus-presentation-old","43","359918","0.0-15.0-1.0","SS1619739808785","trial","","40","500","1826","images/stimuli/spore_stims/simple_09_A_a.gif","images/stimuli/spore_stims/simple_01_A_b.gif","forced_long","","3","simple_dissimilar","images/stimuli/spore_stims/simple_01_A_b.gif","","","","",""
"","null","html-keyboard-response","44","360982","0.0-15.0-0.1","SS1619739808785","","","null","","","","","","<p><img src= images/blank.png width =""600"" height = ""600"" style=""position:fixed;top:50%; left:50%; transform: translate(-50%, -50%); border:5px solid black"">","","","","","","","",""
"","3798","sequential-stimulus-presentation-old","45","365294","0.0-15.0-1.1","SS1619739808785","trial","","40","500","4298","images/stimuli/spore_stims/simple_09_A_a.gif","images/stimuli/spore_stims/simple_01_A_b.gif","forced_long","","3","simple_dissimilar","images/stimuli/spore_stims/simple_01_A_b.gif","","","","",""
"","null","html-keyboard-response","46","366396","0.0-15.0-0.2","SS1619739808785","","","null","","","","","","<p><img src= images/blank.png width =""600"" height = ""600"" style=""position:fixed;top:50%; left:50%; transform: translate(-50%, -50%); border:5px solid black"">","","","","","","","",""
"","8177","sequential-stimulus-presentation-old","47","375083","0.0-15.0-1.2","SS1619739808785","trial","","40","500","8677","images/stimuli/spore_stims/simple_09_A_a.gif","images/stimuli/spore_stims/simple_01_A_b.gif","forced_long","","3","simple_dissimilar","images/stimuli/spore_stims/simple_01_A_b.gif","","","","",""
"","null","html-keyboard-response","48","376211","0.0-15.0-0.3","SS1619739808785","","","null","","","","","","<p><img src= images/blank.png width =""600"" height = ""600"" style=""position:fixed;top:50%; left:50%; transform: translate(-50%, -50%); border:5px solid black"">","","","","","","","",""
"","6300","sequential-stimulus-presentation-old","49","383022","0.0-15.0-1.3","SS1619739808785","trial","","40","500","6800","images/stimuli/spore_stims/simple_09_A_a.gif","images/stimuli/spore_stims/simple_01_A_b.gif","forced_long","","3","simple_dissimilar","images/stimuli/spore_stims/simple_01_A_b.gif","","","","",""
"","null","html-keyboard-response","50","384064","0.0-15.0-0.4","SS1619739808785","","","null","","","","","","<p><img src= images/blank.png width =""600"" height = ""600"" style=""position:fixed;top:50%; left:50%; transform: translate(-50%, -50%); border:5px solid black"">","","","","","","","",""
"","4864","sequential-stimulus-presentation-old","51","389442","0.0-15.0-1.4","SS1619739808785","trial","","40","500","5364","images/stimuli/spore_stims/simple_09_A_a.gif","images/stimuli/spore_stims/simple_01_A_b.gif","forced_long","","3","simple_dissimilar","images/stimuli/spore_stims/simple_01_A_b.gif","","","","",""
"","null","html-keyboard-response","52","390289","0.0-15.0-0.5","SS1619739808785","","","null","","","","","","<p><img src= images/blank.png width =""600"" height = ""600"" style=""position:fixed;top:50%; left:50%; transform: translate(-50%, -50%); border:5px solid black"">","","","","","","","",""
"","6019","sequential-stimulus-presentation-old","53","396819","0.0-15.0-1.5","SS1619739808785","trial","","40","500","6519","images/stimuli/spore_stims/simple_09_A_a.gif","images/stimuli/spore_stims/simple_01_A_b.gif","forced_long","","3","simple_dissimilar","images/stimuli/spore_stims/simple_01_A_b.gif","","","","",""
"","4073","survey-multi-choice","54","400894","0.0-16.0","SS1619739808785","math_question","","","","","","","","","","","","{""Q0"":""10""}","[0]","10","",""
"","null","html-keyboard-response","55","402115","0.0-17.0-0.0","SS1619739808785","","","null","","","","","","<p><img src= images/blank.png width =""600"" height = ""600"" style=""position:fixed;top:50%; left:50%; transform: translate(-50%, -50%); border:5px solid black"">","","","","","","","",""
"","3552","sequential-stimulus-presentation-old","56","420683","0.0-17.0-1.0","SS1619739808785","trial","","40","500","4052","images/stimuli/spore_stims/complex_07_A_b.gif","images/stimuli/spore_stims/complex_02_A_a.gif","forced_long","","4","complex_dissimilar","images/stimuli/spore_stims/complex_02_A_a.gif","","","","",""
"","null","html-keyboard-response","57","421552","0.0-17.0-0.1","SS1619739808785","","","null","","","","","","<p><img src= images/blank.png width =""600"" height = ""600"" style=""position:fixed;top:50%; left:50%; transform: translate(-50%, -50%); border:5px solid black"">","","","","","","","",""
"","9960","sequential-stimulus-presentation-old","58","432022","0.0-17.0-1.1","SS1619739808785","trial","","40","500","10460","images/stimuli/spore_stims/complex_07_A_b.gif","images/stimuli/spore_stims/complex_02_A_a.gif","forced_long","","4","complex_dissimilar","images/stimuli/spore_stims/complex_07_A_b.gif","","","","",""
"","null","html-keyboard-response","59","433044","0.0-17.0-0.2","SS1619739808785","","","null","","","","","","<p><img src= images/blank.png width =""600"" height = ""600"" style=""position:fixed;top:50%; left:50%; transform: translate(-50%, -50%); border:5px solid black"">","","","","","","","",""
"","5653","sequential-stimulus-presentation-old","60","439210","0.0-17.0-1.2","SS1619739808785","trial","","40","500","6153","images/stimuli/spore_stims/complex_07_A_b.gif","images/stimuli/spore_stims/complex_02_A_a.gif","forced_long","","4","complex_dissimilar","images/stimuli/spore_stims/complex_02_A_a.gif","","","","",""
"","null","html-keyboard-response","61","440109","0.0-17.0-0.3","SS1619739808785","","","null","","","","","","<p><img src= images/blank.png width =""600"" height = ""600"" style=""position:fixed;top:50%; left:50%; transform: translate(-50%, -50%); border:5px solid black"">","","","","","","","",""
"","4438","sequential-stimulus-presentation-old","62","445060","0.0-17.0-1.3","SS1619739808785","trial","","40","500","4938","images/stimuli/spore_stims/complex_07_A_b.gif","images/stimuli/spore_stims/complex_02_A_a.gif","forced_long","","4","complex_dissimilar","images/stimuli/spore_stims/complex_02_A_a.gif","","","","",""
"","null","html-keyboard-response","63","445907","0.0-17.0-0.4","SS1619739808785","","","null","","","","","","<p><img src= images/blank.png width =""600"" height = ""600"" style=""position:fixed;top:50%; left:50%; transform: translate(-50%, -50%); border:5px solid black"">","","","","","","","",""
"","5989","sequential-stimulus-presentation-old","64","452406","0.0-17.0-1.4","SS1619739808785","trial","","40","500","6489","images/stimuli/spore_stims/complex_07_A_b.gif","images/stimuli/spore_stims/complex_02_A_a.gif","forced_long","","4","complex_dissimilar","images/stimuli/spore_stims/complex_07_A_b.gif","","","","",""
"","null","html-keyboard-response","65","453317","0.0-17.0-0.5","SS1619739808785","","","null","","","","","","<p><img src= images/blank.png width =""600"" height = ""600"" style=""position:fixed;top:50%; left:50%; transform: translate(-50%, -50%); border:5px solid black"">","","","","","","","",""
"","4865","sequential-stimulus-presentation-old","66","458698","0.0-17.0-1.5","SS1619739808785","trial","","40","500","5365","images/stimuli/spore_stims/complex_07_A_b.gif","images/stimuli/spore_stims/complex_02_A_a.gif","forced_long","","4","complex_dissimilar","images/stimuli/spore_stims/complex_02_A_a.gif","","","","",""
"","5870","survey-multi-choice","67","464569","0.0-18.0","SS1619739808785","math_question","","","","","","","","","","","","{""Q0"":""11""}","[0]","11","",""
"","null","html-keyboard-response","68","465799","0.0-19.0-0.0","SS1619739808785","","","null","","","","","","<p><img src= images/blank.png width =""600"" height = ""600"" style=""position:fixed;top:50%; left:50%; transform: translate(-50%, -50%); border:5px solid black"">","","","","","","","",""
"","1298","sequential-stimulus-presentation-old","69","467610","0.0-19.0-1.0","SS1619739808785","trial","","40","500","1798","images/stimuli/spore_stims/complex_11_A_a.gif","images/stimuli/spore_stims/complex_15_A_b.gif","forced_short","","5","complex_dissimilar","images/stimuli/spore_stims/complex_15_A_b.gif","","","","",""
"","null","html-keyboard-response","70","468473","0.0-19.0-0.1","SS1619739808785","","","null","","","","","","<p><img src= images/blank.png width =""600"" height = ""600"" style=""position:fixed;top:50%; left:50%; transform: translate(-50%, -50%); border:5px solid black"">","","","","","","","",""
"","5441","sequential-stimulus-presentation-old","71","474424","0.0-19.0-1.1","SS1619739808785","trial","","40","500","5941","images/stimuli/spore_stims/complex_11_A_a.gif","images/stimuli/spore_stims/complex_15_A_b.gif","forced_short","","5","complex_dissimilar","images/stimuli/spore_stims/complex_11_A_a.gif","","","","",""
"","null","html-keyboard-response","72","475590","0.0-19.0-0.2","SS1619739808785","","","null","","","","","","<p><img src= images/blank.png width =""600"" height = ""600"" style=""position:fixed;top:50%; left:50%; transform: translate(-50%, -50%); border:5px solid black"">","","","","","","","",""
"","5403","sequential-stimulus-presentation-old","73","481506","0.0-19.0-1.2","SS1619739808785","trial","","40","500","5903","images/stimuli/spore_stims/complex_11_A_a.gif","images/stimuli/spore_stims/complex_15_A_b.gif","forced_short","","5","complex_dissimilar","images/stimuli/spore_stims/complex_15_A_b.gif","","","","",""
"","null","html-keyboard-response","74","482453","0.0-19.0-0.3","SS1619739808785","","","null","","","","","","<p><img src= images/blank.png width =""600"" height = ""600"" style=""position:fixed;top:50%; left:50%; transform: translate(-50%, -50%); border:5px solid black"">","","","","","","","",""
"","3718","sequential-stimulus-presentation-old","75","486684","0.0-19.0-1.3","SS1619739808785","trial","","40","500","4218","images/stimuli/spore_stims/complex_11_A_a.gif","images/stimuli/spore_stims/complex_15_A_b.gif","forced_short","","5","complex_dissimilar","images/stimuli/spore_stims/complex_15_A_b.gif","","","","",""
"","3766","survey-multi-choice","76","490454","0.0-20.0","SS1619739808785","math_question","","","","","","","","","","","","{""Q0"":""5""}","[0]","5","",""
"","null","html-keyboard-response","77","491704","0.0-21.0-0.0","SS1619739808785","","","null","","","","","","<p><img src= images/blank.png width =""600"" height = ""600"" style=""position:fixed;top:50%; left:50%; transform: translate(-50%, -50%); border:5px solid black"">","","","","","","","",""
"","4407","sequential-stimulus-presentation-old","78","496615","0.0-21.0-1.0","SS1619739808785","trial","","40","500","4907","images/stimuli/spore_stims/simple_10_A_a.gif","images/stimuli/spore_stims/simple_02_A_b.gif","self_paced","","6","simple_dissimilar","images/stimuli/spore_stims/simple_02_A_b.gif","","","","",""
"","null","html-keyboard-response","79","497891","0.0-21.0-0.1","SS1619739808785","","","null","","","","","","<p><img src= images/blank.png width =""600"" height = ""600"" style=""position:fixed;top:50%; left:50%; transform: translate(-50%, -50%); border:5px solid black"">","","","","","","","",""
"","3729","sequential-stimulus-presentation-old","80","502134","0.0-21.0-1.1","SS1619739808785","trial","","40","500","4229","images/stimuli/spore_stims/simple_10_A_a.gif","images/stimuli/spore_stims/simple_02_A_b.gif","self_paced","","6","simple_dissimilar","images/stimuli/spore_stims/simple_02_A_b.gif","","","","",""
"","null","html-keyboard-response","81","502971","0.0-21.0-0.2","SS1619739808785","","","null","","","","","","<p><img src= images/blank.png width =""600"" height = ""600"" style=""position:fixed;top:50%; left:50%; transform: translate(-50%, -50%); border:5px solid black"">","","","","","","","",""
"","5164","sequential-stimulus-presentation-old","82","508648","0.0-21.0-1.2","SS1619739808785","trial","","40","500","5664","images/stimuli/spore_stims/simple_10_A_a.gif","images/stimuli/spore_stims/simple_02_A_b.gif","self_paced","","6","simple_dissimilar","images/stimuli/spore_stims/simple_02_A_b.gif","","","","",""
"","null","html-keyboard-response","83","509774","0.0-21.0-0.3","SS1619739808785","","","null","","","","","","<p><img src= images/blank.png width =""600"" height = ""600"" style=""position:fixed;top:50%; left:50%; transform: translate(-50%, -50%); border:5px solid black"">","","","","","","","",""
"","3739","sequential-stimulus-presentation-old","84","514023","0.0-21.0-1.3","SS1619739808785","trial","","40","500","4239","images/stimuli/spore_stims/simple_10_A_a.gif","images/stimuli/spore_stims/simple_02_A_b.gif","self_paced","","6","simple_dissimilar","images/stimuli/spore_stims/simple_02_A_b.gif","","","","",""
"","4326","survey-multi-choice","85","518351","0.0-22.0","SS1619739808785","math_question","","","","","","","","","","","","{""Q0"":""11""}","[0]","11","",""
"","null","html-keyboard-response","86","519455","0.0-23.0-0.0","SS1619739808785","","","null","","","","","","<p><img src= images/blank.png width =""600"" height = ""600"" style=""position:fixed;top:50%; left:50%; transform: translate(-50%, -50%); border:5px solid black"">","","","","","","","",""
"","1238","sequential-stimulus-presentation-old","87","521207","0.0-23.0-1.0","SS1619739808785","trial","","40","500","1738","images/stimuli/spore_stims/simple_18_A_b.gif","images/stimuli/spore_stims/simple_03_A_a.gif","forced_short","","7","simple_dissimilar","images/stimuli/spore_stims/simple_03_A_a.gif","","","","",""
"","null","html-keyboard-response","88","522366","0.0-23.0-0.1","SS1619739808785","","","null","","","","","","<p><img src= images/blank.png width =""600"" height = ""600"" style=""position:fixed;top:50%; left:50%; transform: translate(-50%, -50%); border:5px solid black"">","","","","","","","",""
"","4758","sequential-stimulus-presentation-old","89","527632","0.0-23.0-1.1","SS1619739808785","trial","","40","500","5258","images/stimuli/spore_stims/simple_18_A_b.gif","images/stimuli/spore_stims/simple_03_A_a.gif","forced_short","","7","simple_dissimilar","images/stimuli/spore_stims/simple_03_A_a.gif","","","","",""
"","null","html-keyboard-response","90","528635","0.0-23.0-0.2","SS1619739808785","","","null","","","","","","<p><img src= images/blank.png width =""600"" height = ""600"" style=""position:fixed;top:50%; left:50%; transform: translate(-50%, -50%); border:5px solid black"">","","","","","","","",""
"","5636","sequential-stimulus-presentation-old","91","534784","0.0-23.0-1.2","SS1619739808785","trial","","40","500","6136","images/stimuli/spore_stims/simple_18_A_b.gif","images/stimuli/spore_stims/simple_03_A_a.gif","forced_short","","7","simple_dissimilar","images/stimuli/spore_stims/simple_03_A_a.gif","","","","",""
"","null","html-keyboard-response","92","535930","0.0-23.0-0.3","SS1619739808785","","","null","","","","","","<p><img src= images/blank.png width =""600"" height = ""600"" style=""position:fixed;top:50%; left:50%; transform: translate(-50%, -50%); border:5px solid black"">","","","","","","","",""
"","3094","sequential-stimulus-presentation-old","93","539537","0.0-23.0-1.3","SS1619739808785","trial","","40","500","3594","images/stimuli/spore_stims/simple_18_A_b.gif","images/stimuli/spore_stims/simple_03_A_a.gif","forced_short","","7","simple_dissimilar","images/stimuli/spore_stims/simple_03_A_a.gif","","","","",""
"","null","html-keyboard-response","94","540606","0.0-23.0-0.4","SS1619739808785","","","null","","","","","","<p><img src= images/blank.png width =""600"" height = ""600"" style=""position:fixed;top:50%; left:50%; transform: translate(-50%, -50%); border:5px solid black"">","","","","","","","",""
"","2500","sequential-stimulus-presentation-old","95","543619","0.0-23.0-1.4","SS1619739808785","trial","","40","500","3000","images/stimuli/spore_stims/simple_18_A_b.gif","images/stimuli/spore_stims/simple_03_A_a.gif","forced_short","","7","simple_dissimilar","images/stimuli/spore_stims/simple_03_A_a.gif","","","","",""
"","null","html-keyboard-response","96","544512","0.0-23.0-0.5","SS1619739808785","","","null","","","","","","<p><img src= images/blank.png width =""600"" height = ""600"" style=""position:fixed;top:50%; left:50%; transform: translate(-50%, -50%); border:5px solid black"">","","","","","","","",""
"","4011","sequential-stimulus-presentation-old","97","549040","0.0-23.0-1.5","SS1619739808785","trial","","40","500","4511","images/stimuli/spore_stims/simple_18_A_b.gif","images/stimuli/spore_stims/simple_03_A_a.gif","forced_short","","7","simple_dissimilar","images/stimuli/spore_stims/simple_18_A_b.gif","","","","",""
"","4101","survey-multi-choice","98","553144","0.0-24.0","SS1619739808785","math_question","","","","","","","","","","","","{""Q0"":""3""}","[0]","3","",""
"","null","html-keyboard-response","99","554170","0.0-25.0-0.0","SS1619739808785","","","null","","","","","","<p><img src= images/blank.png width =""600"" height = ""600"" style=""position:fixed;top:50%; left:50%; transform: translate(-50%, -50%); border:5px solid black"">","","","","","","","",""
"","3326","sequential-stimulus-presentation-old","100","558006","0.0-25.0-1.0","SS1619739808785","trial","","40","500","3826","images/stimuli/spore_stims/complex_05_A_a.gif","images/stimuli/spore_stims/complex_12_A_b.gif","self_paced","","8","complex_dissimilar","images/stimuli/spore_stims/complex_12_A_b.gif","","","","",""
"","null","html-keyboard-response","101","559039","0.0-25.0-0.1","SS1619739808785","","","null","","","","","","<p><img src= images/blank.png width =""600"" height = ""600"" style=""position:fixed;top:50%; left:50%; transform: translate(-50%, -50%); border:5px solid black"">","","","","","","","",""
"","1575","sequential-stimulus-presentation-old","102","561127","0.0-25.0-1.1","SS1619739808785","trial","","40","500","2075","images/stimuli/spore_stims/complex_05_A_a.gif","images/stimuli/spore_stims/complex_12_A_b.gif","self_paced","","8","complex_dissimilar","images/stimuli/spore_stims/complex_12_A_b.gif","","","","",""
"","null","html-keyboard-response","103","562211","0.0-25.0-0.2","SS1619739808785","","","null","","","","","","<p><img src= images/blank.png width =""600"" height = ""600"" style=""position:fixed;top:50%; left:50%; transform: translate(-50%, -50%); border:5px solid black"">","","","","","","","",""
"","6598","sequential-stimulus-presentation-old","104","569319","0.0-25.0-1.2","SS1619739808785","trial","","40","500","7098","images/stimuli/spore_stims/complex_05_A_a.gif","images/stimuli/spore_stims/complex_12_A_b.gif","self_paced","","8","complex_dissimilar","images/stimuli/spore_stims/complex_05_A_a.gif","","","","",""
"","null","html-keyboard-response","105","570501","0.0-25.0-0.3","SS1619739808785","","","null","","","","","","<p><img src= images/blank.png width =""600"" height = ""600"" style=""position:fixed;top:50%; left:50%; transform: translate(-50%, -50%); border:5px solid black"">","","","","","","","",""
"","3298","sequential-stimulus-presentation-old","106","574311","0.0-25.0-1.3","SS1619739808785","trial","","40","500","3798","images/stimuli/spore_stims/complex_05_A_a.gif","images/stimuli/spore_stims/complex_12_A_b.gif","self_paced","","8","complex_dissimilar","images/stimuli/spore_stims/complex_05_A_a.gif","","","","",""
"","null","html-keyboard-response","107","575604","0.0-25.0-0.4","SS1619739808785","","","null","","","","","","<p><img src= images/blank.png width =""600"" height = ""600"" style=""position:fixed;top:50%; left:50%; transform: translate(-50%, -50%); border:5px solid black"">","","","","","","","",""
"","4724","sequential-stimulus-presentation-old","108","580841","0.0-25.0-1.4","SS1619739808785","trial","","40","500","5224","images/stimuli/spore_stims/complex_05_A_a.gif","images/stimuli/spore_stims/complex_12_A_b.gif","self_paced","","8","complex_dissimilar","images/stimuli/spore_stims/complex_12_A_b.gif","","","","",""
"","null","html-keyboard-response","109","582129","0.0-25.0-0.5","SS1619739808785","","","null","","","","","","<p><img src= images/blank.png width =""600"" height = ""600"" style=""position:fixed;top:50%; left:50%; transform: translate(-50%, -50%); border:5px solid black"">","","","","","","","",""
"","2974","sequential-stimulus-presentation-old","110","585615","0.0-25.0-1.5","SS1619739808785","trial","","40","500","3474","images/stimuli/spore_stims/complex_05_A_a.gif","images/stimuli/spore_stims/complex_12_A_b.gif","self_paced","","8","complex_dissimilar","images/stimuli/spore_stims/complex_12_A_b.gif","","","","",""
"","4407","survey-multi-choice","111","590025","0.0-26.0","SS1619739808785","math_question","","","","","","","","","","","","{""Q0"":""7""}","[0]","7","",""
"","null","html-keyboard-response","112","591299","0.0-27.0-0.0","SS1619739808785","","","null","","","","","","<p><img src= images/blank.png width =""600"" height = ""600"" style=""position:fixed;top:50%; left:50%; transform: translate(-50%, -50%); border:5px solid black"">","","","","","","","",""
"","1291","sequential-stimulus-presentation-old","113","607601","0.0-27.0-1.0","SS1619739808785","trial","","40","500","1791","images/stimuli/spore_stims/simple_06_A_a.gif","images/stimuli/spore_stims/simple_20_A_b.gif","forced_long","","9","simple_dissimilar","images/stimuli/spore_stims/simple_20_A_b.gif","","","","",""
"","null","html-keyboard-response","114","608577","0.0-27.0-0.1","SS1619739808785","","","null","","","","","","<p><img src= images/blank.png width =""600"" height = ""600"" style=""position:fixed;top:50%; left:50%; transform: translate(-50%, -50%); border:5px solid black"">","","","","","","","",""
"","4162","sequential-stimulus-presentation-old","115","613249","0.0-27.0-1.1","SS1619739808785","trial","","40","500","4662","images/stimuli/spore_stims/simple_06_A_a.gif","images/stimuli/spore_stims/simple_20_A_b.gif","forced_long","","9","simple_dissimilar","images/stimuli/spore_stims/simple_20_A_b.gif","","","","",""
"","null","html-keyboard-response","116","614439","0.0-27.0-0.2","SS1619739808785","","","null","","","","","","<p><img src= images/blank.png width =""600"" height = ""600"" style=""position:fixed;top:50%; left:50%; transform: translate(-50%, -50%); border:5px solid black"">","","","","","","","",""
"","5173","sequential-stimulus-presentation-old","117","620126","0.0-27.0-1.2","SS1619739808785","trial","","40","500","5673","images/stimuli/spore_stims/simple_06_A_a.gif","images/stimuli/spore_stims/simple_20_A_b.gif","forced_long","","9","simple_dissimilar","images/stimuli/spore_stims/simple_06_A_a.gif","","","","",""
"","null","html-keyboard-response","118","621305","0.0-27.0-0.3","SS1619739808785","","","null","","","","","","<p><img src= images/blank.png width =""600"" height = ""600"" style=""position:fixed;top:50%; left:50%; transform: translate(-50%, -50%); border:5px solid black"">","","","","","","","",""
"","5805","sequential-stimulus-presentation-old","119","627624","0.0-27.0-1.3","SS1619739808785","trial","","40","500","6305","images/stimuli/spore_stims/simple_06_A_a.gif","images/stimuli/spore_stims/simple_20_A_b.gif","forced_long","","9","simple_dissimilar","images/stimuli/spore_stims/simple_20_A_b.gif","","","","",""
"","null","html-keyboard-response","120","628916","0.0-27.0-0.4","SS1619739808785","","","null","","","","","","<p><img src= images/blank.png width =""600"" height = ""600"" style=""position:fixed;top:50%; left:50%; transform: translate(-50%, -50%); border:5px solid black"">","","","","","","","",""
"","2742","sequential-stimulus-presentation-old","121","632173","0.0-27.0-1.4","SS1619739808785","trial","","40","500","3242","images/stimuli/spore_stims/simple_06_A_a.gif","images/stimuli/spore_stims/simple_20_A_b.gif","forced_long","","9","simple_dissimilar","images/stimuli/spore_stims/simple_20_A_b.gif","","","","",""
"","null","html-keyboard-response","122","633472","0.0-27.0-0.5","SS1619739808785","","","null","","","","","","<p><img src= images/blank.png width =""600"" height = ""600"" style=""position:fixed;top:50%; left:50%; transform: translate(-50%, -50%); border:5px solid black"">","","","","","","","",""
"","3211","sequential-stimulus-presentation-old","123","637197","0.0-27.0-1.5","SS1619739808785","trial","","40","500","3711","images/stimuli/spore_stims/simple_06_A_a.gif","images/stimuli/spore_stims/simple_20_A_b.gif","forced_long","","9","simple_dissimilar","images/stimuli/spore_stims/simple_06_A_a.gif","","","","",""
"","6517","survey-multi-choice","124","643717","0.0-28.0","SS1619739808785","math_question","","","","","","","","","","","","{""Q0"":""16""}","[0]","16","",""
"","null","html-keyboard-response","125","644708","0.0-29.0-0.0","SS1619739808785","","","null","","","","","","<p><img src= images/blank.png width =""600"" height = ""600"" style=""position:fixed;top:50%; left:50%; transform: translate(-50%, -50%); border:5px solid black"">","","","","","","","",""
"","5839","sequential-stimulus-presentation-old","126","651061","0.0-29.0-1.0","SS1619739808785","trial","","40","500","6339","images/stimuli/spore_stims/complex_16_A_a.gif","images/stimuli/spore_stims/complex_03_A_b.gif","self_paced","","10","complex_dissimilar","images/stimuli/spore_stims/complex_03_A_b.gif","","","","",""
"","null","html-keyboard-response","127","652256","0.0-29.0-0.1","SS1619739808785","","","null","","","","","","<p><img src= images/blank.png width =""600"" height = ""600"" style=""position:fixed;top:50%; left:50%; transform: translate(-50%, -50%); border:5px solid black"">","","","","","","","",""
"","5774","sequential-stimulus-presentation-old","128","658543","0.0-29.0-1.1","SS1619739808785","trial","","40","500","6274","images/stimuli/spore_stims/complex_16_A_a.gif","images/stimuli/spore_stims/complex_03_A_b.gif","self_paced","","10","complex_dissimilar","images/stimuli/spore_stims/complex_16_A_a.gif","","","","",""
"","null","html-keyboard-response","129","659788","0.0-29.0-0.2","SS1619739808785","","","null","","","","","","<p><img src= images/blank.png width =""600"" height = ""600"" style=""position:fixed;top:50%; left:50%; transform: translate(-50%, -50%); border:5px solid black"">","","","","","","","",""
"","3319","sequential-stimulus-presentation-old","130","663619","0.0-29.0-1.2","SS1619739808785","trial","","40","500","3819","images/stimuli/spore_stims/complex_16_A_a.gif","images/stimuli/spore_stims/complex_03_A_b.gif","self_paced","","10","complex_dissimilar","images/stimuli/spore_stims/complex_03_A_b.gif","","","","",""
"","null","html-keyboard-response","131","664606","0.0-29.0-0.3","SS1619739808785","","","null","","","","","","<p><img src= images/blank.png width =""600"" height = ""600"" style=""position:fixed;top:50%; left:50%; transform: translate(-50%, -50%); border:5px solid black"">","","","","","","","",""
"","4691","sequential-stimulus-presentation-old","132","669812","0.0-29.0-1.3","SS1619739808785","trial","","40","500","5191","images/stimuli/spore_stims/complex_16_A_a.gif","images/stimuli/spore_stims/complex_03_A_b.gif","self_paced","","10","complex_dissimilar","images/stimuli/spore_stims/complex_03_A_b.gif","","","","",""
"","null","html-keyboard-response","133","670795","0.0-29.0-0.4","SS1619739808785","","","null","","","","","","<p><img src= images/blank.png width =""600"" height = ""600"" style=""position:fixed;top:50%; left:50%; transform: translate(-50%, -50%); border:5px solid black"">","","","","","","","",""
"","4518","sequential-stimulus-presentation-old","134","675830","0.0-29.0-1.4","SS1619739808785","trial","","40","500","5018","images/stimuli/spore_stims/complex_16_A_a.gif","images/stimuli/spore_stims/complex_03_A_b.gif","self_paced","","10","complex_dissimilar","images/stimuli/spore_stims/complex_03_A_b.gif","","","","",""
"","null","html-keyboard-response","135","676986","0.0-29.0-0.5","SS1619739808785","","","null","","","","","","<p><img src= images/blank.png width =""600"" height = ""600"" style=""position:fixed;top:50%; left:50%; transform: translate(-50%, -50%); border:5px solid black"">","","","","","","","",""
"","2786","sequential-stimulus-presentation-old","136","680282","0.0-29.0-1.5","SS1619739808785","trial","","40","500","3286","images/stimuli/spore_stims/complex_16_A_a.gif","images/stimuli/spore_stims/complex_03_A_b.gif","self_paced","","10","complex_dissimilar","images/stimuli/spore_stims/complex_03_A_b.gif","","","","",""
"","3957","survey-multi-choice","137","684246","0.0-30.0","SS1619739808785","math_question","","","","","","","","","","","","{""Q0"":""5""}","[0]","5","",""
"","null","html-keyboard-response","138","685395","0.0-31.0-0.0","SS1619739808785","","","null","","","","","","<p><img src= images/blank.png width =""600"" height = ""600"" style=""position:fixed;top:50%; left:50%; transform: translate(-50%, -50%); border:5px solid black"">","","","","","","","",""
"","1207","sequential-stimulus-presentation-old","139","687116","0.0-31.0-1.0","SS1619739808785","trial","","40","500","1707","images/stimuli/spore_stims/simple_07_A_a.gif","images/stimuli/spore_stims/simple_09_A_b.gif","forced_short","","11","simple_dissimilar","images/stimuli/spore_stims/simple_09_A_b.gif","","","","",""
"","null","html-keyboard-response","140","688133","0.0-31.0-0.1","SS1619739808785","","","null","","","","","","<p><img src= images/blank.png width =""600"" height = ""600"" style=""position:fixed;top:50%; left:50%; transform: translate(-50%, -50%); border:5px solid black"">","","","","","","","",""
"","2562","sequential-stimulus-presentation-old","141","691206","0.0-31.0-1.1","SS1619739808785","trial","","40","500","3062","images/stimuli/spore_stims/simple_07_A_a.gif","images/stimuli/spore_stims/simple_09_A_b.gif","forced_short","","11","simple_dissimilar","images/stimuli/spore_stims/simple_09_A_b.gif","","","","",""
"","null","html-keyboard-response","142","692444","0.0-31.0-0.2","SS1619739808785","","","null","","","","","","<p><img src= images/blank.png width =""600"" height = ""600"" style=""position:fixed;top:50%; left:50%; transform: translate(-50%, -50%); border:5px solid black"">","","","","","","","",""
"","2893","sequential-stimulus-presentation-old","143","695852","0.0-31.0-1.2","SS1619739808785","trial","","40","500","3393","images/stimuli/spore_stims/simple_07_A_a.gif","images/stimuli/spore_stims/simple_09_A_b.gif","forced_short","","11","simple_dissimilar","images/stimuli/spore_stims/simple_09_A_b.gif","","","","",""
"","null","html-keyboard-response","144","696779","0.0-31.0-0.3","SS1619739808785","","","null","","","","","","<p><img src= images/blank.png width =""600"" height = ""600"" style=""position:fixed;top:50%; left:50%; transform: translate(-50%, -50%); border:5px solid black"">","","","","","","","",""
"","3572","sequential-stimulus-presentation-old","145","700869","0.0-31.0-1.3","SS1619739808785","trial","","40","500","4072","images/stimuli/spore_stims/simple_07_A_a.gif","images/stimuli/spore_stims/simple_09_A_b.gif","forced_short","","11","simple_dissimilar","images/stimuli/spore_stims/simple_09_A_b.gif","","","","",""
"","null","html-keyboard-response","146","701870","0.0-31.0-0.4","SS1619739808785","","","null","","","","","","<p><img src= images/blank.png width =""600"" height = ""600"" style=""position:fixed;top:50%; left:50%; transform: translate(-50%, -50%); border:5px solid black"">","","","","","","","",""
"","3599","sequential-stimulus-presentation-old","147","705980","0.0-31.0-1.4","SS1619739808785","trial","","40","500","4099","images/stimuli/spore_stims/simple_07_A_a.gif","images/stimuli/spore_stims/simple_09_A_b.gif","forced_short","","11","simple_dissimilar","images/stimuli/spore_stims/simple_09_A_b.gif","","","","",""
"[{""page_index"":0,""viewing_time"":6373}]","6373","instructions","148","712357","0.0-32.0","SS1619739808785","instructions","","","","","","","","","","","","","","","",""
"","17879","survey-likert","149","730242","0.0-33.0","SS1619739808785","similarity_question","","","","","","","","","","","","{""Q0"":0}","[0]","","images/stimuli/spore_stims/complex_02_A_a.gif","images/stimuli/spore_stims/complex_07_A_b.gif"
"","11370","survey-likert","150","741616","0.0-34.0","SS1619739808785","similarity_question","","","","","","","","","","","","{""Q0"":0}","[0]","","images/stimuli/spore_stims/complex_15_A_b.gif","images/stimuli/spore_stims/complex_11_A_a.gif"
"","13234","survey-likert","151","754854","0.0-35.0","SS1619739808785","similarity_question","","","","","","","","","","","","{""Q0"":3}","[0]","","images/stimuli/spore_stims/complex_08_A_b.gif","images/stimuli/spore_stims/complex_20_A_a.gif"
"","8246","survey-likert","152","763104","0.0-36.0","SS1619739808785","similarity_question","","","","","","","","","","","","{""Q0"":5}","[0]","","images/stimuli/spore_stims/simple_19_A_a.gif","images/stimuli/spore_stims/simple_14_A_b.gif"
"","5770","survey-likert","153","768877","0.0-37.0","SS1619739808785","similarity_question","","","","","","","","","","","","{""Q0"":6}","[0]","","images/stimuli/spore_stims/simple_02_A_b.gif","images/stimuli/spore_stims/simple_10_A_a.gif"
"","8184","survey-likert","154","777065","0.0-38.0","SS1619739808785","similarity_question","","","","","","","","","","","","{""Q0"":4}","[0]","","images/stimuli/spore_stims/simple_20_A_b.gif","images/stimuli/spore_stims/simple_06_A_a.gif"
"","8026","survey-likert","155","785096","0.0-39.0","SS1619739808785","similarity_question","","","","","","","","","","","","{""Q0"":2}","[0]","","images/stimuli/spore_stims/simple_07_A_a.gif","images/stimuli/spore_stims/simple_09_A_b.gif"
"","6460","survey-likert","156","791559","0.0-40.0","SS1619739808785","similarity_question","","","","","","","","","","","","{""Q0"":3}","[0]","","images/stimuli/spore_stims/simple_09_A_a.gif","images/stimuli/spore_stims/simple_01_A_b.gif"
"","9719","survey-likert","157","801281","0.0-41.0","SS1619739808785","similarity_question","","","","","","","","","","","","{""Q0"":1}","[0]","","images/stimuli/spore_stims/complex_03_A_b.gif","images/stimuli/spore_stims/complex_16_A_a.gif"
"","7217","survey-likert","158","808502","0.0-42.0","SS1619739808785","similarity_question","","","","","","","","","","","","{""Q0"":2}","[0]","","images/stimuli/spore_stims/complex_05_A_a.gif","images/stimuli/spore_stims/complex_12_A_b.gif"
"","8046","survey-likert","159","816551","0.0-43.0","SS1619739808785","similarity_question","","","","","","","","","","","","{""Q0"":2}","[0]","","images/stimuli/spore_stims/complex_14_A_b.gif","images/stimuli/spore_stims/complex_12_A_a.gif"
"","5003","survey-likert","160","821559","0.0-44.0","SS1619739808785","similarity_question","","","","","","","","","","","","{""Q0"":3}","[0]","","images/stimuli/spore_stims/simple_03_A_a.gif","images/stimuli/spore_stims/simple_18_A_b.gif"
"[{""page_index"":0,""viewing_time"":5796}]","5796","instructions","161","827358","0.0-45.0","SS1619739808785","instructions","","","","","","","","","","","","","","","",""
"","5494","survey-likert","162","832859","0.0-46.0","SS1619739808785","","","","","","","","","images/stimuli/spore_stims/simple_09_A_b.gif","","","","{""Q0"":0}","[0]","","",""
"","5501","survey-likert","163","838364","0.0-47.0","SS1619739808785","","","","","","","","","images/stimuli/spore_stims/simple_18_A_b.gif","","","","{""Q0"":1}","[0]","","",""
"","5951","survey-likert","164","844319","0.0-48.0","SS1619739808785","","","","","","","","","images/stimuli/spore_stims/complex_11_A_a.gif","","","","{""Q0"":4}","[0]","","",""
"","4886","survey-likert","165","849209","0.0-49.0","SS1619739808785","","","","","","","","","images/stimuli/spore_stims/complex_02_A_a.gif","","","","{""Q0"":4}","[0]","","",""
"","4413","survey-likert","166","853625","0.0-50.0","SS1619739808785","","","","","","","","","images/stimuli/spore_stims/simple_06_A_a.gif","","","","{""Q0"":0}","[0]","","",""
"","3867","survey-likert","167","857496","0.0-51.0","SS1619739808785","","","","","","","","","images/stimuli/spore_stims/simple_19_A_a.gif","","","","{""Q0"":1}","[0]","","",""
"","10017","survey-likert","168","867521","0.0-52.0","SS1619739808785","","","","","","","","","images/stimuli/spore_stims/complex_03_A_b.gif","","","","{""Q0"":3}","[0]","","",""
"","5283","survey-likert","169","872809","0.0-53.0","SS1619739808785","","","","","","","","","images/stimuli/spore_stims/complex_12_A_b.gif","","","","{""Q0"":6}","[0]","","",""
"","5136","survey-likert","170","877948","0.0-54.0","SS1619739808785","","","","","","","","","images/stimuli/spore_stims/complex_08_A_b.gif","","","","{""Q0"":4}","[0]","","",""
"","3649","survey-likert","171","881599","0.0-55.0","SS1619739808785","","","","","","","","","images/stimuli/spore_stims/simple_01_A_b.gif","","","","{""Q0"":0}","[0]","","",""
"","4314","survey-likert","172","885918","0.0-56.0","SS1619739808785","","","","","","","","","images/stimuli/spore_stims/simple_02_A_b.gif","","","","{""Q0"":0}","[0]","","",""
"","5020","survey-likert","173","890944","0.0-57.0","SS1619739808785","","","","","","","","","images/stimuli/spore_stims/complex_12_A_a.gif","","","","{""Q0"":6}","[0]","","",""
"[{""page_index"":0,""viewing_time"":2883}]","2883","instructions","174","893830","0.0-58.0","SS1619739808785","instructions","","","","","","","","","","","","","","","",""
"","3894","demog-age","175","897732","0.0-59.0","SS1619739808785","","","","","","","","","","","","","{""age"":""22""}","","","",""
"","5072","demog-ethnic-US","176","902809","0.0-60.0","SS1619739808785","","","","","","","","","","","","","{""ethnicity"":[""Hispanic or Latino""]}","[0]","","",""
"","14600","demog-gender-and-education","177","917414","0.0-61.0","SS1619739808785","","","","","","","","","","","","","{""gender"":""Male"",""education"":""Bachelor's Degree""}","[0,1]","","",""
"","65811","survey-text","178","983235","0.0-62.0","SS1619739808785","feedback","","","","","","","","","","","","{""Q0"":""Maybe sharing at the end the purpose of the study would be nice, or the criteria for the short/long animations to be there.""}","","","",""
"[{""page_index"":0,""viewing_time"":2680}]","2680","instructions","179","985919","0.0-63.0","SS1619739808785","instructions","","","","","","","","","","","","","","","",""
