"view_history","rt","trial_type","trial_index","time_elapsed","internal_node_id","subject","stimulus_type","trial_stimulus","key_press","minimum_viewing_duration","trial_looking_time","block_deviant","block_background","exposure_type","stimulus","block_number","block_type","stimulus_displayed","responses","question_order","math_correct_answer","stimulus_left","stimulus_right"
"[{""page_index"":0,""viewing_time"":1907.6449999993201}]","1907.9649999985122","instructions","0","1915","0.0-0.0","SS1619739995276","","","","","","","","","","","","","","","","",""
"[{""page_index"":0,""viewing_time"":12236.570000000938},{""page_index"":1,""viewing_time"":5986.014999998588}]","18222.92500000185","instructions","1","22557","0.0-1.0","SS1619739995276","instructions","","","","","","","","","","","","","","","",""
"","8514.165000000503","sequential-stimulus-presentation-old","2","31588","0.0-2.0","SS1619739995276","","","40","500","9014.165000000503","null","null","self_paced","","","","","","","","",""
"","3875.2349999995204","sequential-stimulus-presentation-old","3","35965","0.0-3.0","SS1619739995276","","","40","500","4375.23499999952","null","null","self_paced","","","","","","","","",""
"[{""page_index"":0,""viewing_time"":36226.96999999971}]","36227.1649999966","instructions","4","72193","0.0-4.0","SS1619739995276","instructions","","","","","","","","","","","","","","","",""
"","426.8449999981385","sequential-stimulus-presentation-old","5","87623","0.0-5.0","SS1619739995276","","","40","500","926.8449999981385","null","null","forced_long","","","","","","","","",""
"","1975.204999998823","sequential-stimulus-presentation-old","6","90103","0.0-6.0","SS1619739995276","","","40","500","2475.204999998823","null","null","forced_long","","","","","","","","",""
"[{""page_index"":0,""viewing_time"":3648.689999998169}]","3648.8900000003923","instructions","7","93753","0.0-7.0","SS1619739995276","instructions","","","","","","","","","","","","","","","",""
"[{""page_index"":0,""viewing_time"":11891.004999997676},{""page_index"":1,""viewing_time"":7114.82000000251},{""page_index"":2,""viewing_time"":4139.1399999993155},{""page_index"":3,""viewing_time"":1558.2949999989069},{""page_index"":4,""viewing_time"":3833.5250000018277}]","28537.01000000001","instructions","8","122292","0.0-8.0","SS1619739995276","instructions","","","","","","","","","","","","","","","",""
"","null","html-keyboard-response","9","123380","0.0-9.0-0.0","SS1619739995276","","","null","","","","","","<p><img src= images/blank.png width =""600"" height = ""600"" style=""position:fixed;top:50%; left:50%; transform: translate(-50%, -50%); border:5px solid black"">","","","","","","","",""
"","626.3500000022759","sequential-stimulus-presentation-old","10","139017","0.0-9.0-1.0","SS1619739995276","trial","","40","500","1126.350000002276","images/stimuli/spore_stims/simple_07_A_b.gif","images/stimuli/spore_stims/simple_14_A_a.gif","forced_long","","0","simple_dissimilar","images/stimuli/spore_stims/simple_14_A_a.gif","","","","",""
"","null","html-keyboard-response","11","139872","0.0-9.0-0.1","SS1619739995276","","","null","","","","","","<p><img src= images/blank.png width =""600"" height = ""600"" style=""position:fixed;top:50%; left:50%; transform: translate(-50%, -50%); border:5px solid black"">","","","","","","","",""
"","1079.2050000018207","sequential-stimulus-presentation-old","12","141454","0.0-9.0-1.1","SS1619739995276","trial","","40","500","1579.2050000018207","images/stimuli/spore_stims/simple_07_A_b.gif","images/stimuli/spore_stims/simple_14_A_a.gif","forced_long","","0","simple_dissimilar","images/stimuli/spore_stims/simple_14_A_a.gif","","","","",""
"","null","html-keyboard-response","13","142660","0.0-9.0-0.2","SS1619739995276","","","null","","","","","","<p><img src= images/blank.png width =""600"" height = ""600"" style=""position:fixed;top:50%; left:50%; transform: translate(-50%, -50%); border:5px solid black"">","","","","","","","",""
"","1895.8999999995285","sequential-stimulus-presentation-old","14","145058","0.0-9.0-1.2","SS1619739995276","trial","","40","500","2395.8999999995285","images/stimuli/spore_stims/simple_07_A_b.gif","images/stimuli/spore_stims/simple_14_A_a.gif","forced_long","","0","simple_dissimilar","images/stimuli/spore_stims/simple_07_A_b.gif","","","","",""
"","null","html-keyboard-response","15","145880","0.0-9.0-0.3","SS1619739995276","","","null","","","","","","<p><img src= images/blank.png width =""600"" height = ""600"" style=""position:fixed;top:50%; left:50%; transform: translate(-50%, -50%); border:5px solid black"">","","","","","","","",""
"","1978.834999998071","sequential-stimulus-presentation-old","16","148362","0.0-9.0-1.3","SS1619739995276","trial","","40","500","2478.834999998071","images/stimuli/spore_stims/simple_07_A_b.gif","images/stimuli/spore_stims/simple_14_A_a.gif","forced_long","","0","simple_dissimilar","images/stimuli/spore_stims/simple_07_A_b.gif","","","","",""
"","null","html-keyboard-response","17","149670","0.0-9.0-0.4","SS1619739995276","","","null","","","","","","<p><img src= images/blank.png width =""600"" height = ""600"" style=""position:fixed;top:50%; left:50%; transform: translate(-50%, -50%); border:5px solid black"">","","","","","","","",""
"","363.1700000005367","sequential-stimulus-presentation-old","18","150538","0.0-9.0-1.4","SS1619739995276","trial","","40","500","863.1700000005367","images/stimuli/spore_stims/simple_07_A_b.gif","images/stimuli/spore_stims/simple_14_A_a.gif","forced_long","","0","simple_dissimilar","images/stimuli/spore_stims/simple_14_A_a.gif","","","","",""
"","2787.9900000007183","survey-multi-choice","19","153341","0.0-10.0","SS1619739995276","math_question","","","","","","","","","","","","{""Q0"":""5""}","[0]","5","",""
"","null","html-keyboard-response","20","154610","0.0-11.0-0.0","SS1619739995276","","","null","","","","","","<p><img src= images/blank.png width =""600"" height = ""600"" style=""position:fixed;top:50%; left:50%; transform: translate(-50%, -50%); border:5px solid black"">","","","","","","","",""
"","569.0450000001874","sequential-stimulus-presentation-old","21","170184","0.0-11.0-1.0","SS1619739995276","trial","","40","500","1069.0450000001874","images/stimuli/spore_stims/simple_05_A_b.gif","images/stimuli/spore_stims/simple_10_A_a.gif","forced_long","","1","simple_dissimilar","images/stimuli/spore_stims/simple_10_A_a.gif","","","","",""
"","null","html-keyboard-response","22","171461","0.0-11.0-0.1","SS1619739995276","","","null","","","","","","<p><img src= images/blank.png width =""600"" height = ""600"" style=""position:fixed;top:50%; left:50%; transform: translate(-50%, -50%); border:5px solid black"">","","","","","","","",""
"","1367.354999998497","sequential-stimulus-presentation-old","23","173331","0.0-11.0-1.1","SS1619739995276","trial","","40","500","1867.354999998497","images/stimuli/spore_stims/simple_05_A_b.gif","images/stimuli/spore_stims/simple_10_A_a.gif","forced_long","","1","simple_dissimilar","images/stimuli/spore_stims/simple_10_A_a.gif","","","","",""
"","null","html-keyboard-response","24","174412","0.0-11.0-0.2","SS1619739995276","","","null","","","","","","<p><img src= images/blank.png width =""600"" height = ""600"" style=""position:fixed;top:50%; left:50%; transform: translate(-50%, -50%); border:5px solid black"">","","","","","","","",""
"","489.33000000033644","sequential-stimulus-presentation-old","25","175404","0.0-11.0-1.2","SS1619739995276","trial","","40","500","989.3300000003364","images/stimuli/spore_stims/simple_05_A_b.gif","images/stimuli/spore_stims/simple_10_A_a.gif","forced_long","","1","simple_dissimilar","images/stimuli/spore_stims/simple_10_A_a.gif","","","","",""
"","null","html-keyboard-response","26","176705","0.0-11.0-0.3","SS1619739995276","","","null","","","","","","<p><img src= images/blank.png width =""600"" height = ""600"" style=""position:fixed;top:50%; left:50%; transform: translate(-50%, -50%); border:5px solid black"">","","","","","","","",""
"","802.2999999993772","sequential-stimulus-presentation-old","27","178012","0.0-11.0-1.3","SS1619739995276","trial","","40","500","1302.2999999993772","images/stimuli/spore_stims/simple_05_A_b.gif","images/stimuli/spore_stims/simple_10_A_a.gif","forced_long","","1","simple_dissimilar","images/stimuli/spore_stims/simple_10_A_a.gif","","","","",""
"","null","html-keyboard-response","28","179032","0.0-11.0-0.4","SS1619739995276","","","null","","","","","","<p><img src= images/blank.png width =""600"" height = ""600"" style=""position:fixed;top:50%; left:50%; transform: translate(-50%, -50%); border:5px solid black"">","","","","","","","",""
"","922.2899999986112","sequential-stimulus-presentation-old","29","180458","0.0-11.0-1.4","SS1619739995276","trial","","40","500","1422.2899999986112","images/stimuli/spore_stims/simple_05_A_b.gif","images/stimuli/spore_stims/simple_10_A_a.gif","forced_long","","1","simple_dissimilar","images/stimuli/spore_stims/simple_10_A_a.gif","","","","",""
"","2906.135000001086","survey-multi-choice","30","183366","0.0-12.0","SS1619739995276","math_question","","","","","","","","","","","","{""Q0"":""11""}","[0]","11","",""
"","null","html-keyboard-response","31","184408","0.0-13.0-0.0","SS1619739995276","","","null","","","","","","<p><img src= images/blank.png width =""600"" height = ""600"" style=""position:fixed;top:50%; left:50%; transform: translate(-50%, -50%); border:5px solid black"">","","","","","","","",""
"","1395.5600000008417","sequential-stimulus-presentation-old","32","186312","0.0-13.0-1.0","SS1619739995276","trial","","40","500","1895.5600000008417","images/stimuli/spore_stims/complex_13_A_a.gif","images/stimuli/spore_stims/complex_05_A_b.gif","forced_short","","2","complex_dissimilar","images/stimuli/spore_stims/complex_05_A_b.gif","","","","",""
"","null","html-keyboard-response","33","187237","0.0-13.0-0.1","SS1619739995276","","","null","","","","","","<p><img src= images/blank.png width =""600"" height = ""600"" style=""position:fixed;top:50%; left:50%; transform: translate(-50%, -50%); border:5px solid black"">","","","","","","","",""
"","3067.0400000017253","sequential-stimulus-presentation-old","34","190808","0.0-13.0-1.1","SS1619739995276","trial","","40","500","3567.0400000017253","images/stimuli/spore_stims/complex_13_A_a.gif","images/stimuli/spore_stims/complex_05_A_b.gif","forced_short","","2","complex_dissimilar","images/stimuli/spore_stims/complex_05_A_b.gif","","","","",""
"","null","html-keyboard-response","35","191760","0.0-13.0-0.2","SS1619739995276","","","null","","","","","","<p><img src= images/blank.png width =""600"" height = ""600"" style=""position:fixed;top:50%; left:50%; transform: translate(-50%, -50%); border:5px solid black"">","","","","","","","",""
"","4494.040000001405","sequential-stimulus-presentation-old","36","196759","0.0-13.0-1.2","SS1619739995276","trial","","40","500","4994.040000001405","images/stimuli/spore_stims/complex_13_A_a.gif","images/stimuli/spore_stims/complex_05_A_b.gif","forced_short","","2","complex_dissimilar","images/stimuli/spore_stims/complex_13_A_a.gif","","","","",""
"","null","html-keyboard-response","37","197621","0.0-13.0-0.3","SS1619739995276","","","null","","","","","","<p><img src= images/blank.png width =""600"" height = ""600"" style=""position:fixed;top:50%; left:50%; transform: translate(-50%, -50%); border:5px solid black"">","","","","","","","",""
"","248.77500000002328","sequential-stimulus-presentation-old","38","198373","0.0-13.0-1.3","SS1619739995276","trial","","40","500","748.7750000000233","images/stimuli/spore_stims/complex_13_A_a.gif","images/stimuli/spore_stims/complex_05_A_b.gif","forced_short","","2","complex_dissimilar","images/stimuli/spore_stims/complex_05_A_b.gif","","","","",""
"","2180.804999999964","survey-multi-choice","39","200555","0.0-14.0","SS1619739995276","math_question","","","","","","","","","","","","{""Q0"":""7""}","[0]","7","",""
"","null","html-keyboard-response","40","201681","0.0-15.0-0.0","SS1619739995276","","","null","","","","","","<p><img src= images/blank.png width =""600"" height = ""600"" style=""position:fixed;top:50%; left:50%; transform: translate(-50%, -50%); border:5px solid black"">","","","","","","","",""
"","575.4000000015367","sequential-stimulus-presentation-old","41","217260","0.0-15.0-1.0","SS1619739995276","trial","","40","500","1075.4000000015367","images/stimuli/spore_stims/complex_19_A_b.gif","images/stimuli/spore_stims/complex_17_A_a.gif","forced_long","","3","complex_dissimilar","images/stimuli/spore_stims/complex_17_A_a.gif","","","","",""
"","null","html-keyboard-response","42","218277","0.0-15.0-0.1","SS1619739995276","","","null","","","","","","<p><img src= images/blank.png width =""600"" height = ""600"" style=""position:fixed;top:50%; left:50%; transform: translate(-50%, -50%); border:5px solid black"">","","","","","","","",""
"","570.8400000003166","sequential-stimulus-presentation-old","43","219353","0.0-15.0-1.1","SS1619739995276","trial","","40","500","1070.8400000003166","images/stimuli/spore_stims/complex_19_A_b.gif","images/stimuli/spore_stims/complex_17_A_a.gif","forced_long","","3","complex_dissimilar","images/stimuli/spore_stims/complex_17_A_a.gif","","","","",""
"","null","html-keyboard-response","44","220554","0.0-15.0-0.2","SS1619739995276","","","null","","","","","","<p><img src= images/blank.png width =""600"" height = ""600"" style=""position:fixed;top:50%; left:50%; transform: translate(-50%, -50%); border:5px solid black"">","","","","","","","",""
"","2936.1950000020443","sequential-stimulus-presentation-old","45","223994","0.0-15.0-1.2","SS1619739995276","trial","","40","500","3436.1950000020443","images/stimuli/spore_stims/complex_19_A_b.gif","images/stimuli/spore_stims/complex_17_A_a.gif","forced_long","","3","complex_dissimilar","images/stimuli/spore_stims/complex_19_A_b.gif","","","","",""
"","null","html-keyboard-response","46","225170","0.0-15.0-0.3","SS1619739995276","","","null","","","","","","<p><img src= images/blank.png width =""600"" height = ""600"" style=""position:fixed;top:50%; left:50%; transform: translate(-50%, -50%); border:5px solid black"">","","","","","","","",""
"","305.6800000013027","sequential-stimulus-presentation-old","47","225984","0.0-15.0-1.3","SS1619739995276","trial","","40","500","805.6800000013027","images/stimuli/spore_stims/complex_19_A_b.gif","images/stimuli/spore_stims/complex_17_A_a.gif","forced_long","","3","complex_dissimilar","images/stimuli/spore_stims/complex_17_A_a.gif","","","","",""
"","null","html-keyboard-response","48","226875","0.0-15.0-0.4","SS1619739995276","","","null","","","","","","<p><img src= images/blank.png width =""600"" height = ""600"" style=""position:fixed;top:50%; left:50%; transform: translate(-50%, -50%); border:5px solid black"">","","","","","","","",""
"","2.2250000001804437","sequential-stimulus-presentation-old","49","227381","0.0-15.0-1.4","SS1619739995276","trial","","40","500","502.22500000018044","images/stimuli/spore_stims/complex_19_A_b.gif","images/stimuli/spore_stims/complex_17_A_a.gif","forced_long","","3","complex_dissimilar","images/stimuli/spore_stims/complex_17_A_a.gif","","","","",""
"","null","html-keyboard-response","50","228446","0.0-15.0-0.5","SS1619739995276","","","null","","","","","","<p><img src= images/blank.png width =""600"" height = ""600"" style=""position:fixed;top:50%; left:50%; transform: translate(-50%, -50%); border:5px solid black"">","","","","","","","",""
"","2168.324999998731","sequential-stimulus-presentation-old","51","231125","0.0-15.0-1.5","SS1619739995276","trial","","40","500","2668.324999998731","images/stimuli/spore_stims/complex_19_A_b.gif","images/stimuli/spore_stims/complex_17_A_a.gif","forced_long","","3","complex_dissimilar","images/stimuli/spore_stims/complex_19_A_b.gif","","","","",""
"","3392.0749999997497","survey-multi-choice","52","234518","0.0-16.0","SS1619739995276","math_question","","","","","","","","","","","","{""Q0"":""14""}","[0]","14","",""
"","null","html-keyboard-response","53","235805","0.0-17.0-0.0","SS1619739995276","","","null","","","","","","<p><img src= images/blank.png width =""600"" height = ""600"" style=""position:fixed;top:50%; left:50%; transform: translate(-50%, -50%); border:5px solid black"">","","","","","","","",""
"","425.76999999801046","sequential-stimulus-presentation-old","54","236735","0.0-17.0-1.0","SS1619739995276","trial","","40","500","925.7699999980105","images/stimuli/spore_stims/simple_13_A_b.gif","images/stimuli/spore_stims/simple_03_A_a.gif","self_paced","","4","simple_dissimilar","images/stimuli/spore_stims/simple_03_A_a.gif","","","","",""
"","null","html-keyboard-response","55","237933","0.0-17.0-0.1","SS1619739995276","","","null","","","","","","<p><img src= images/blank.png width =""600"" height = ""600"" style=""position:fixed;top:50%; left:50%; transform: translate(-50%, -50%); border:5px solid black"">","","","","","","","",""
"","8062.885000003007","sequential-stimulus-presentation-old","56","246499","0.0-17.0-1.1","SS1619739995276","trial","","40","500","8562.885000003007","images/stimuli/spore_stims/simple_13_A_b.gif","images/stimuli/spore_stims/simple_03_A_a.gif","self_paced","","4","simple_dissimilar","images/stimuli/spore_stims/simple_03_A_a.gif","","","","",""
"","null","html-keyboard-response","57","247479","0.0-17.0-0.2","SS1619739995276","","","null","","","","","","<p><img src= images/blank.png width =""600"" height = ""600"" style=""position:fixed;top:50%; left:50%; transform: translate(-50%, -50%); border:5px solid black"">","","","","","","","",""
"","275.29499999945983","sequential-stimulus-presentation-old","58","248263","0.0-17.0-1.2","SS1619739995276","trial","","40","500","775.2949999994598","images/stimuli/spore_stims/simple_13_A_b.gif","images/stimuli/spore_stims/simple_03_A_a.gif","self_paced","","4","simple_dissimilar","images/stimuli/spore_stims/simple_03_A_a.gif","","","","",""
"","null","html-keyboard-response","59","249171","0.0-17.0-0.3","SS1619739995276","","","null","","","","","","<p><img src= images/blank.png width =""600"" height = ""600"" style=""position:fixed;top:50%; left:50%; transform: translate(-50%, -50%); border:5px solid black"">","","","","","","","",""
"","801.8950000005134","sequential-stimulus-presentation-old","60","250476","0.0-17.0-1.3","SS1619739995276","trial","","40","500","1301.8950000005134","images/stimuli/spore_stims/simple_13_A_b.gif","images/stimuli/spore_stims/simple_03_A_a.gif","self_paced","","4","simple_dissimilar","images/stimuli/spore_stims/simple_03_A_a.gif","","","","",""
"","null","html-keyboard-response","61","251373","0.0-17.0-0.4","SS1619739995276","","","null","","","","","","<p><img src= images/blank.png width =""600"" height = ""600"" style=""position:fixed;top:50%; left:50%; transform: translate(-50%, -50%); border:5px solid black"">","","","","","","","",""
"","355.79000000143424","sequential-stimulus-presentation-old","62","252233","0.0-17.0-1.4","SS1619739995276","trial","","40","500","855.7900000014342","images/stimuli/spore_stims/simple_13_A_b.gif","images/stimuli/spore_stims/simple_03_A_a.gif","self_paced","","4","simple_dissimilar","images/stimuli/spore_stims/simple_13_A_b.gif","","","","",""
"","2915.9700000018347","survey-multi-choice","63","255150","0.0-18.0","SS1619739995276","math_question","","","","","","","","","","","","{""Q0"":""14""}","[0]","14","",""
"","null","html-keyboard-response","64","256226","0.0-19.0-0.0","SS1619739995276","","","null","","","","","","<p><img src= images/blank.png width =""600"" height = ""600"" style=""position:fixed;top:50%; left:50%; transform: translate(-50%, -50%); border:5px solid black"">","","","","","","","",""
"","849.5599999987753","sequential-stimulus-presentation-old","65","257580","0.0-19.0-1.0","SS1619739995276","trial","","40","500","1349.5599999987753","images/stimuli/spore_stims/simple_17_A_b.gif","images/stimuli/spore_stims/simple_11_A_a.gif","forced_short","","5","simple_dissimilar","images/stimuli/spore_stims/simple_11_A_a.gif","","","","",""
"","null","html-keyboard-response","66","258563","0.0-19.0-0.1","SS1619739995276","","","null","","","","","","<p><img src= images/blank.png width =""600"" height = ""600"" style=""position:fixed;top:50%; left:50%; transform: translate(-50%, -50%); border:5px solid black"">","","","","","","","",""
"","653.7249999964843","sequential-stimulus-presentation-old","67","259726","0.0-19.0-1.1","SS1619739995276","trial","","40","500","1153.7249999964843","images/stimuli/spore_stims/simple_17_A_b.gif","images/stimuli/spore_stims/simple_11_A_a.gif","forced_short","","5","simple_dissimilar","images/stimuli/spore_stims/simple_11_A_a.gif","","","","",""
"","null","html-keyboard-response","68","260872","0.0-19.0-0.2","SS1619739995276","","","null","","","","","","<p><img src= images/blank.png width =""600"" height = ""600"" style=""position:fixed;top:50%; left:50%; transform: translate(-50%, -50%); border:5px solid black"">","","","","","","","",""
"","1862.3600000028382","sequential-stimulus-presentation-old","69","263245","0.0-19.0-1.2","SS1619739995276","trial","","40","500","2362.360000002838","images/stimuli/spore_stims/simple_17_A_b.gif","images/stimuli/spore_stims/simple_11_A_a.gif","forced_short","","5","simple_dissimilar","images/stimuli/spore_stims/simple_17_A_b.gif","","","","",""
"","null","html-keyboard-response","70","264126","0.0-19.0-0.3","SS1619739995276","","","null","","","","","","<p><img src= images/blank.png width =""600"" height = ""600"" style=""position:fixed;top:50%; left:50%; transform: translate(-50%, -50%); border:5px solid black"">","","","","","","","",""
"","1704.2450000008103","sequential-stimulus-presentation-old","71","266334","0.0-19.0-1.3","SS1619739995276","trial","","40","500","2204.2450000008103","images/stimuli/spore_stims/simple_17_A_b.gif","images/stimuli/spore_stims/simple_11_A_a.gif","forced_short","","5","simple_dissimilar","images/stimuli/spore_stims/simple_11_A_a.gif","","","","",""
"","null","html-keyboard-response","72","267408","0.0-19.0-0.4","SS1619739995276","","","null","","","","","","<p><img src= images/blank.png width =""600"" height = ""600"" style=""position:fixed;top:50%; left:50%; transform: translate(-50%, -50%); border:5px solid black"">","","","","","","","",""
"","669.9600000028731","sequential-stimulus-presentation-old","73","268582","0.0-19.0-1.4","SS1619739995276","trial","","40","500","1169.9600000028731","images/stimuli/spore_stims/simple_17_A_b.gif","images/stimuli/spore_stims/simple_11_A_a.gif","forced_short","","5","simple_dissimilar","images/stimuli/spore_stims/simple_11_A_a.gif","","","","",""
"","null","html-keyboard-response","74","269773","0.0-19.0-0.5","SS1619739995276","","","null","","","","","","<p><img src= images/blank.png width =""600"" height = ""600"" style=""position:fixed;top:50%; left:50%; transform: translate(-50%, -50%); border:5px solid black"">","","","","","","","",""
"","221.63999999978114","sequential-stimulus-presentation-old","75","270499","0.0-19.0-1.5","SS1619739995276","trial","","40","500","721.6399999997811","images/stimuli/spore_stims/simple_17_A_b.gif","images/stimuli/spore_stims/simple_11_A_a.gif","forced_short","","5","simple_dissimilar","images/stimuli/spore_stims/simple_11_A_a.gif","","","","",""
"","2827.099999998638","survey-multi-choice","76","273328","0.0-20.0","SS1619739995276","math_question","","","","","","","","","","","","{""Q0"":""4""}","[0]","4","",""
"","null","html-keyboard-response","77","274642","0.0-21.0-0.0","SS1619739995276","","","null","","","","","","<p><img src= images/blank.png width =""600"" height = ""600"" style=""position:fixed;top:50%; left:50%; transform: translate(-50%, -50%); border:5px solid black"">","","","","","","","",""
"","682.3650000005728","sequential-stimulus-presentation-old","78","275828","0.0-21.0-1.0","SS1619739995276","trial","","40","500","1182.3650000005728","images/stimuli/spore_stims/simple_16_A_b.gif","images/stimuli/spore_stims/simple_20_A_a.gif","forced_short","","6","simple_dissimilar","images/stimuli/spore_stims/simple_20_A_a.gif","","","","",""
"","null","html-keyboard-response","79","277008","0.0-21.0-0.1","SS1619739995276","","","null","","","","","","<p><img src= images/blank.png width =""600"" height = ""600"" style=""position:fixed;top:50%; left:50%; transform: translate(-50%, -50%); border:5px solid black"">","","","","","","","",""
"","3012.9549999983283","sequential-stimulus-presentation-old","80","280524","0.0-21.0-1.1","SS1619739995276","trial","","40","500","3512.9549999983283","images/stimuli/spore_stims/simple_16_A_b.gif","images/stimuli/spore_stims/simple_20_A_a.gif","forced_short","","6","simple_dissimilar","images/stimuli/spore_stims/simple_20_A_a.gif","","","","",""
"","null","html-keyboard-response","81","281426","0.0-21.0-0.2","SS1619739995276","","","null","","","","","","<p><img src= images/blank.png width =""600"" height = ""600"" style=""position:fixed;top:50%; left:50%; transform: translate(-50%, -50%); border:5px solid black"">","","","","","","","",""
"","849.6549999981653","sequential-stimulus-presentation-old","82","282779","0.0-21.0-1.2","SS1619739995276","trial","","40","500","1349.6549999981653","images/stimuli/spore_stims/simple_16_A_b.gif","images/stimuli/spore_stims/simple_20_A_a.gif","forced_short","","6","simple_dissimilar","images/stimuli/spore_stims/simple_20_A_a.gif","","","","",""
"","null","html-keyboard-response","83","283840","0.0-21.0-0.3","SS1619739995276","","","null","","","","","","<p><img src= images/blank.png width =""600"" height = ""600"" style=""position:fixed;top:50%; left:50%; transform: translate(-50%, -50%); border:5px solid black"">","","","","","","","",""
"","66.18999999773223","sequential-stimulus-presentation-old","84","284416","0.0-21.0-1.3","SS1619739995276","trial","","40","500","566.1899999977322","images/stimuli/spore_stims/simple_16_A_b.gif","images/stimuli/spore_stims/simple_20_A_a.gif","forced_short","","6","simple_dissimilar","images/stimuli/spore_stims/simple_16_A_b.gif","","","","",""
"","null","html-keyboard-response","85","285278","0.0-21.0-0.4","SS1619739995276","","","null","","","","","","<p><img src= images/blank.png width =""600"" height = ""600"" style=""position:fixed;top:50%; left:50%; transform: translate(-50%, -50%); border:5px solid black"">","","","","","","","",""
"","1503.5549999993527","sequential-stimulus-presentation-old","86","287285","0.0-21.0-1.4","SS1619739995276","trial","","40","500","2003.5549999993527","images/stimuli/spore_stims/simple_16_A_b.gif","images/stimuli/spore_stims/simple_20_A_a.gif","forced_short","","6","simple_dissimilar","images/stimuli/spore_stims/simple_16_A_b.gif","","","","",""
"","2828.9949999998207","survey-multi-choice","87","290116","0.0-22.0","SS1619739995276","math_question","","","","","","","","","","","","{""Q0"":""7""}","[0]","7","",""
"","null","html-keyboard-response","88","291116","0.0-23.0-0.0","SS1619739995276","","","null","","","","","","<p><img src= images/blank.png width =""600"" height = ""600"" style=""position:fixed;top:50%; left:50%; transform: translate(-50%, -50%); border:5px solid black"">","","","","","","","",""
"","1834.1749999999302","sequential-stimulus-presentation-old","89","293455","0.0-23.0-1.0","SS1619739995276","trial","","40","500","2334.17499999993","images/stimuli/spore_stims/complex_14_A_a.gif","images/stimuli/spore_stims/complex_18_A_b.gif","self_paced","","7","complex_dissimilar","images/stimuli/spore_stims/complex_18_A_b.gif","","","","",""
"","null","html-keyboard-response","90","294652","0.0-23.0-0.1","SS1619739995276","","","null","","","","","","<p><img src= images/blank.png width =""600"" height = ""600"" style=""position:fixed;top:50%; left:50%; transform: translate(-50%, -50%); border:5px solid black"">","","","","","","","",""
"","275.73499999928754","sequential-stimulus-presentation-old","91","295432","0.0-23.0-1.1","SS1619739995276","trial","","40","500","775.7349999992875","images/stimuli/spore_stims/complex_14_A_a.gif","images/stimuli/spore_stims/complex_18_A_b.gif","self_paced","","7","complex_dissimilar","images/stimuli/spore_stims/complex_18_A_b.gif","","","","",""
"","null","html-keyboard-response","92","296314","0.0-23.0-0.2","SS1619739995276","","","null","","","","","","<p><img src= images/blank.png width =""600"" height = ""600"" style=""position:fixed;top:50%; left:50%; transform: translate(-50%, -50%); border:5px solid black"">","","","","","","","",""
"","2497.2300000007963","sequential-stimulus-presentation-old","93","299315","0.0-23.0-1.2","SS1619739995276","trial","","40","500","2997.2300000007963","images/stimuli/spore_stims/complex_14_A_a.gif","images/stimuli/spore_stims/complex_18_A_b.gif","self_paced","","7","complex_dissimilar","images/stimuli/spore_stims/complex_18_A_b.gif","","","","",""
"","null","html-keyboard-response","94","300144","0.0-23.0-0.3","SS1619739995276","","","null","","","","","","<p><img src= images/blank.png width =""600"" height = ""600"" style=""position:fixed;top:50%; left:50%; transform: translate(-50%, -50%); border:5px solid black"">","","","","","","","",""
"","1942.815000002156","sequential-stimulus-presentation-old","95","302593","0.0-23.0-1.3","SS1619739995276","trial","","40","500","2442.815000002156","images/stimuli/spore_stims/complex_14_A_a.gif","images/stimuli/spore_stims/complex_18_A_b.gif","self_paced","","7","complex_dissimilar","images/stimuli/spore_stims/complex_14_A_a.gif","","","","",""
"","null","html-keyboard-response","96","303642","0.0-23.0-0.4","SS1619739995276","","","null","","","","","","<p><img src= images/blank.png width =""600"" height = ""600"" style=""position:fixed;top:50%; left:50%; transform: translate(-50%, -50%); border:5px solid black"">","","","","","","","",""
"","138.40499999787426","sequential-stimulus-presentation-old","97","304285","0.0-23.0-1.4","SS1619739995276","trial","","40","500","638.4049999978743","images/stimuli/spore_stims/complex_14_A_a.gif","images/stimuli/spore_stims/complex_18_A_b.gif","self_paced","","7","complex_dissimilar","images/stimuli/spore_stims/complex_18_A_b.gif","","","","",""
"","4300.774999999674","survey-multi-choice","98","308589","0.0-24.0","SS1619739995276","math_question","","","","","","","","","","","","{""Q0"":""17""}","[0]","17","",""
"","null","html-keyboard-response","99","309590","0.0-25.0-0.0","SS1619739995276","","","null","","","","","","<p><img src= images/blank.png width =""600"" height = ""600"" style=""position:fixed;top:50%; left:50%; transform: translate(-50%, -50%); border:5px solid black"">","","","","","","","",""
"","777.7800000003772","sequential-stimulus-presentation-old","100","310872","0.0-25.0-1.0","SS1619739995276","trial","","40","500","1277.7800000003772","images/stimuli/spore_stims/simple_04_A_b.gif","images/stimuli/spore_stims/simple_09_A_a.gif","self_paced","","8","simple_dissimilar","images/stimuli/spore_stims/simple_09_A_a.gif","","","","",""
"","null","html-keyboard-response","101","312047","0.0-25.0-0.1","SS1619739995276","","","null","","","","","","<p><img src= images/blank.png width =""600"" height = ""600"" style=""position:fixed;top:50%; left:50%; transform: translate(-50%, -50%); border:5px solid black"">","","","","","","","",""
"","661.2549999990733","sequential-stimulus-presentation-old","102","313213","0.0-25.0-1.1","SS1619739995276","trial","","40","500","1161.2549999990733","images/stimuli/spore_stims/simple_04_A_b.gif","images/stimuli/spore_stims/simple_09_A_a.gif","self_paced","","8","simple_dissimilar","images/stimuli/spore_stims/simple_09_A_a.gif","","","","",""
"","null","html-keyboard-response","103","314115","0.0-25.0-0.2","SS1619739995276","","","null","","","","","","<p><img src= images/blank.png width =""600"" height = ""600"" style=""position:fixed;top:50%; left:50%; transform: translate(-50%, -50%); border:5px solid black"">","","","","","","","",""
"","1031.9049999998533","sequential-stimulus-presentation-old","104","315653","0.0-25.0-1.2","SS1619739995276","trial","","40","500","1531.9049999998533","images/stimuli/spore_stims/simple_04_A_b.gif","images/stimuli/spore_stims/simple_09_A_a.gif","self_paced","","8","simple_dissimilar","images/stimuli/spore_stims/simple_09_A_a.gif","","","","",""
"","null","html-keyboard-response","105","316677","0.0-25.0-0.3","SS1619739995276","","","null","","","","","","<p><img src= images/blank.png width =""600"" height = ""600"" style=""position:fixed;top:50%; left:50%; transform: translate(-50%, -50%); border:5px solid black"">","","","","","","","",""
"","1583.1050000014948","sequential-stimulus-presentation-old","106","318764","0.0-25.0-1.3","SS1619739995276","trial","","40","500","2083.105000001495","images/stimuli/spore_stims/simple_04_A_b.gif","images/stimuli/spore_stims/simple_09_A_a.gif","self_paced","","8","simple_dissimilar","images/stimuli/spore_stims/simple_09_A_a.gif","","","","",""
"","2156.3400000013644","survey-multi-choice","107","320922","0.0-26.0","SS1619739995276","math_question","","","","","","","","","","","","{""Q0"":""5""}","[0]","5","",""
"","null","html-keyboard-response","108","321979","0.0-27.0-0.0","SS1619739995276","","","null","","","","","","<p><img src= images/blank.png width =""600"" height = ""600"" style=""position:fixed;top:50%; left:50%; transform: translate(-50%, -50%); border:5px solid black"">","","","","","","","",""
"","972.1800000006333","sequential-stimulus-presentation-old","109","323455","0.0-27.0-1.0","SS1619739995276","trial","","40","500","1472.1800000006333","images/stimuli/spore_stims/complex_10_A_b.gif","images/stimuli/spore_stims/complex_08_A_a.gif","self_paced","","9","complex_dissimilar","images/stimuli/spore_stims/complex_08_A_a.gif","","","","",""
"","null","html-keyboard-response","110","324723","0.0-27.0-0.1","SS1619739995276","","","null","","","","","","<p><img src= images/blank.png width =""600"" height = ""600"" style=""position:fixed;top:50%; left:50%; transform: translate(-50%, -50%); border:5px solid black"">","","","","","","","",""
"","3013.2599999997183","sequential-stimulus-presentation-old","111","328240","0.0-27.0-1.1","SS1619739995276","trial","","40","500","3513.2599999997183","images/stimuli/spore_stims/complex_10_A_b.gif","images/stimuli/spore_stims/complex_08_A_a.gif","self_paced","","9","complex_dissimilar","images/stimuli/spore_stims/complex_10_A_b.gif","","","","",""
"","null","html-keyboard-response","112","329367","0.0-27.0-0.2","SS1619739995276","","","null","","","","","","<p><img src= images/blank.png width =""600"" height = ""600"" style=""position:fixed;top:50%; left:50%; transform: translate(-50%, -50%); border:5px solid black"">","","","","","","","",""
"","734.6399999987916","sequential-stimulus-presentation-old","113","330606","0.0-27.0-1.2","SS1619739995276","trial","","40","500","1234.6399999987916","images/stimuli/spore_stims/complex_10_A_b.gif","images/stimuli/spore_stims/complex_08_A_a.gif","self_paced","","9","complex_dissimilar","images/stimuli/spore_stims/complex_08_A_a.gif","","","","",""
"","null","html-keyboard-response","114","331703","0.0-27.0-0.3","SS1619739995276","","","null","","","","","","<p><img src= images/blank.png width =""600"" height = ""600"" style=""position:fixed;top:50%; left:50%; transform: translate(-50%, -50%); border:5px solid black"">","","","","","","","",""
"","198.97499999939464","sequential-stimulus-presentation-old","115","332407","0.0-27.0-1.3","SS1619739995276","trial","","40","500","698.9749999993946","images/stimuli/spore_stims/complex_10_A_b.gif","images/stimuli/spore_stims/complex_08_A_a.gif","self_paced","","9","complex_dissimilar","images/stimuli/spore_stims/complex_08_A_a.gif","","","","",""
"","null","html-keyboard-response","116","333620","0.0-27.0-0.4","SS1619739995276","","","null","","","","","","<p><img src= images/blank.png width =""600"" height = ""600"" style=""position:fixed;top:50%; left:50%; transform: translate(-50%, -50%); border:5px solid black"">","","","","","","","",""
"","785.2550000024494","sequential-stimulus-presentation-old","117","334910","0.0-27.0-1.4","SS1619739995276","trial","","40","500","1285.2550000024494","images/stimuli/spore_stims/complex_10_A_b.gif","images/stimuli/spore_stims/complex_08_A_a.gif","self_paced","","9","complex_dissimilar","images/stimuli/spore_stims/complex_10_A_b.gif","","","","",""
"","3540.179999999935","survey-multi-choice","118","338452","0.0-28.0","SS1619739995276","math_question","","","","","","","","","","","","{""Q0"":""13""}","[0]","13","",""
"","null","html-keyboard-response","119","339328","0.0-29.0-0.0","SS1619739995276","","","null","","","","","","<p><img src= images/blank.png width =""600"" height = ""600"" style=""position:fixed;top:50%; left:50%; transform: translate(-50%, -50%); border:5px solid black"">","","","","","","","",""
"","649.7099999978673","sequential-stimulus-presentation-old","120","354997","0.0-29.0-1.0","SS1619739995276","trial","","40","500","1149.7099999978673","images/stimuli/spore_stims/complex_04_A_b.gif","images/stimuli/spore_stims/complex_05_A_a.gif","forced_long","","10","complex_dissimilar","images/stimuli/spore_stims/complex_05_A_a.gif","","","","",""
"","null","html-keyboard-response","121","355949","0.0-29.0-0.1","SS1619739995276","","","null","","","","","","<p><img src= images/blank.png width =""600"" height = ""600"" style=""position:fixed;top:50%; left:50%; transform: translate(-50%, -50%); border:5px solid black"">","","","","","","","",""
"","681.4149999991059","sequential-stimulus-presentation-old","122","357134","0.0-29.0-1.1","SS1619739995276","trial","","40","500","1181.414999999106","images/stimuli/spore_stims/complex_04_A_b.gif","images/stimuli/spore_stims/complex_05_A_a.gif","forced_long","","10","complex_dissimilar","images/stimuli/spore_stims/complex_05_A_a.gif","","","","",""
"","null","html-keyboard-response","123","358074","0.0-29.0-0.2","SS1619739995276","","","null","","","","","","<p><img src= images/blank.png width =""600"" height = ""600"" style=""position:fixed;top:50%; left:50%; transform: translate(-50%, -50%); border:5px solid black"">","","","","","","","",""
"","13571.145000001648","sequential-stimulus-presentation-old","124","372150","0.0-29.0-1.2","SS1619739995276","trial","","40","500","14071.145000001648","images/stimuli/spore_stims/complex_04_A_b.gif","images/stimuli/spore_stims/complex_05_A_a.gif","forced_long","","10","complex_dissimilar","images/stimuli/spore_stims/complex_04_A_b.gif","","","","",""
"","null","html-keyboard-response","125","372966","0.0-29.0-0.3","SS1619739995276","","","null","","","","","","<p><img src= images/blank.png width =""600"" height = ""600"" style=""position:fixed;top:50%; left:50%; transform: translate(-50%, -50%); border:5px solid black"">","","","","","","","",""
"","220.19499999808613","sequential-stimulus-presentation-old","126","373690","0.0-29.0-1.3","SS1619739995276","trial","","40","500","720.1949999980861","images/stimuli/spore_stims/complex_04_A_b.gif","images/stimuli/spore_stims/complex_05_A_a.gif","forced_long","","10","complex_dissimilar","images/stimuli/spore_stims/complex_05_A_a.gif","","","","",""
"","null","html-keyboard-response","127","374748","0.0-29.0-0.4","SS1619739995276","","","null","","","","","","<p><img src= images/blank.png width =""600"" height = ""600"" style=""position:fixed;top:50%; left:50%; transform: translate(-50%, -50%); border:5px solid black"">","","","","","","","",""
"","173.62499999947613","sequential-stimulus-presentation-old","128","375430","0.0-29.0-1.4","SS1619739995276","trial","","40","500","673.6249999994761","images/stimuli/spore_stims/complex_04_A_b.gif","images/stimuli/spore_stims/complex_05_A_a.gif","forced_long","","10","complex_dissimilar","images/stimuli/spore_stims/complex_05_A_a.gif","","","","",""
"","null","html-keyboard-response","129","376604","0.0-29.0-0.5","SS1619739995276","","","null","","","","","","<p><img src= images/blank.png width =""600"" height = ""600"" style=""position:fixed;top:50%; left:50%; transform: translate(-50%, -50%); border:5px solid black"">","","","","","","","",""
"","17.745000000984874","sequential-stimulus-presentation-old","130","377126","0.0-29.0-1.5","SS1619739995276","trial","","40","500","517.7450000009849","images/stimuli/spore_stims/complex_04_A_b.gif","images/stimuli/spore_stims/complex_05_A_a.gif","forced_long","","10","complex_dissimilar","images/stimuli/spore_stims/complex_05_A_a.gif","","","","",""
"","2368.6650000017835","survey-multi-choice","131","379498","0.0-30.0","SS1619739995276","math_question","","","","","","","","","","","","{""Q0"":""7""}","[0]","7","",""
"","null","html-keyboard-response","132","380560","0.0-31.0-0.0","SS1619739995276","","","null","","","","","","<p><img src= images/blank.png width =""600"" height = ""600"" style=""position:fixed;top:50%; left:50%; transform: translate(-50%, -50%); border:5px solid black"">","","","","","","","",""
"","1892.135000001872","sequential-stimulus-presentation-old","133","382961","0.0-31.0-1.0","SS1619739995276","trial","","40","500","2392.135000001872","images/stimuli/spore_stims/complex_07_A_b.gif","images/stimuli/spore_stims/complex_11_A_a.gif","forced_short","","11","complex_dissimilar","images/stimuli/spore_stims/complex_11_A_a.gif","","","","",""
"","null","html-keyboard-response","134","383901","0.0-31.0-0.1","SS1619739995276","","","null","","","","","","<p><img src= images/blank.png width =""600"" height = ""600"" style=""position:fixed;top:50%; left:50%; transform: translate(-50%, -50%); border:5px solid black"">","","","","","","","",""
"","2751.720000000205","sequential-stimulus-presentation-old","135","387156","0.0-31.0-1.1","SS1619739995276","trial","","40","500","3251.720000000205","images/stimuli/spore_stims/complex_07_A_b.gif","images/stimuli/spore_stims/complex_11_A_a.gif","forced_short","","11","complex_dissimilar","images/stimuli/spore_stims/complex_11_A_a.gif","","","","",""
"","null","html-keyboard-response","136","388364","0.0-31.0-0.2","SS1619739995276","","","null","","","","","","<p><img src= images/blank.png width =""600"" height = ""600"" style=""position:fixed;top:50%; left:50%; transform: translate(-50%, -50%); border:5px solid black"">","","","","","","","",""
"","331.5599999987171","sequential-stimulus-presentation-old","137","389201","0.0-31.0-1.2","SS1619739995276","trial","","40","500","831.5599999987171","images/stimuli/spore_stims/complex_07_A_b.gif","images/stimuli/spore_stims/complex_11_A_a.gif","forced_short","","11","complex_dissimilar","images/stimuli/spore_stims/complex_11_A_a.gif","","","","",""
"","null","html-keyboard-response","138","390208","0.0-31.0-0.3","SS1619739995276","","","null","","","","","","<p><img src= images/blank.png width =""600"" height = ""600"" style=""position:fixed;top:50%; left:50%; transform: translate(-50%, -50%); border:5px solid black"">","","","","","","","",""
"","1073.2999999999884","sequential-stimulus-presentation-old","139","391792","0.0-31.0-1.3","SS1619739995276","trial","","40","500","1573.2999999999884","images/stimuli/spore_stims/complex_07_A_b.gif","images/stimuli/spore_stims/complex_11_A_a.gif","forced_short","","11","complex_dissimilar","images/stimuli/spore_stims/complex_11_A_a.gif","","","","",""
"","null","html-keyboard-response","140","392607","0.0-31.0-0.4","SS1619739995276","","","null","","","","","","<p><img src= images/blank.png width =""600"" height = ""600"" style=""position:fixed;top:50%; left:50%; transform: translate(-50%, -50%); border:5px solid black"">","","","","","","","",""
"","158.2200000011362","sequential-stimulus-presentation-old","141","393269","0.0-31.0-1.4","SS1619739995276","trial","","40","500","658.2200000011362","images/stimuli/spore_stims/complex_07_A_b.gif","images/stimuli/spore_stims/complex_11_A_a.gif","forced_short","","11","complex_dissimilar","images/stimuli/spore_stims/complex_11_A_a.gif","","","","",""
"[{""page_index"":0,""viewing_time"":3919.499999999942}]","3919.7449999992386","instructions","142","397191","0.0-32.0","SS1619739995276","instructions","","","","","","","","","","","","","","","",""
"","5163.34000000282","survey-likert","143","402359","0.0-33.0","SS1619739995276","similarity_question","","","","","","","","","","","","{""Q0"":1}","[0]","","images/stimuli/spore_stims/simple_11_A_a.gif","images/stimuli/spore_stims/simple_17_A_b.gif"
"","2886.0849999982747","survey-likert","144","405250","0.0-34.0","SS1619739995276","similarity_question","","","","","","","","","","","","{""Q0"":2}","[0]","","images/stimuli/spore_stims/simple_13_A_b.gif","images/stimuli/spore_stims/simple_03_A_a.gif"
"","5375.6350000003","survey-likert","145","410629","0.0-35.0","SS1619739995276","similarity_question","","","","","","","","","","","","{""Q0"":1}","[0]","","images/stimuli/spore_stims/simple_05_A_b.gif","images/stimuli/spore_stims/simple_10_A_a.gif"
"","10212.110000000393","survey-likert","146","420845","0.0-36.0","SS1619739995276","similarity_question","","","","","","","","","","","","{""Q0"":1}","[0]","","images/stimuli/spore_stims/complex_07_A_b.gif","images/stimuli/spore_stims/complex_11_A_a.gif"
"","4009.90499999898","survey-likert","147","424859","0.0-37.0","SS1619739995276","similarity_question","","","","","","","","","","","","{""Q0"":3}","[0]","","images/stimuli/spore_stims/simple_16_A_b.gif","images/stimuli/spore_stims/simple_20_A_a.gif"
"","3720.150000001071","survey-likert","148","428583","0.0-38.0","SS1619739995276","similarity_question","","","","","","","","","","","","{""Q0"":5}","[0]","","images/stimuli/spore_stims/simple_09_A_a.gif","images/stimuli/spore_stims/simple_04_A_b.gif"
"","2583.7549999996554","survey-likert","149","431173","0.0-39.0","SS1619739995276","similarity_question","","","","","","","","","","","","{""Q0"":3}","[0]","","images/stimuli/spore_stims/complex_08_A_a.gif","images/stimuli/spore_stims/complex_10_A_b.gif"
"","2995.955000002112","survey-likert","150","434173","0.0-40.0","SS1619739995276","similarity_question","","","","","","","","","","","","{""Q0"":2}","[0]","","images/stimuli/spore_stims/complex_17_A_a.gif","images/stimuli/spore_stims/complex_19_A_b.gif"
"","2674.650000000838","survey-likert","151","436851","0.0-41.0","SS1619739995276","similarity_question","","","","","","","","","","","","{""Q0"":1}","[0]","","images/stimuli/spore_stims/complex_04_A_b.gif","images/stimuli/spore_stims/complex_05_A_a.gif"
"","1911.579999999958","survey-likert","152","438766","0.0-42.0","SS1619739995276","similarity_question","","","","","","","","","","","","{""Q0"":4}","[0]","","images/stimuli/spore_stims/simple_07_A_b.gif","images/stimuli/spore_stims/simple_14_A_a.gif"
"","1883.475000002305","survey-likert","153","440654","0.0-43.0","SS1619739995276","similarity_question","","","","","","","","","","","","{""Q0"":0}","[0]","","images/stimuli/spore_stims/complex_05_A_b.gif","images/stimuli/spore_stims/complex_13_A_a.gif"
"","3369.44500000024","survey-likert","154","444027","0.0-44.0","SS1619739995276","similarity_question","","","","","","","","","","","","{""Q0"":1}","[0]","","images/stimuli/spore_stims/complex_18_A_b.gif","images/stimuli/spore_stims/complex_14_A_a.gif"
"[{""page_index"":0,""viewing_time"":3386.73999999807}]","3386.9049999993294","instructions","155","447417","0.0-45.0","SS1619739995276","instructions","","","","","","","","","","","","","","","",""
"","7100.800000000163","survey-likert","156","454521","0.0-46.0","SS1619739995276","","","","","","","","","images/stimuli/spore_stims/simple_17_A_b.gif","","","","{""Q0"":2}","[0]","","",""
"","1982.0049999980256","survey-likert","157","456506","0.0-47.0","SS1619739995276","","","","","","","","","images/stimuli/spore_stims/simple_13_A_b.gif","","","","{""Q0"":1}","[0]","","",""
"","2777.465000002878","survey-likert","158","459288","0.0-48.0","SS1619739995276","","","","","","","","","images/stimuli/spore_stims/complex_05_A_a.gif","","","","{""Q0"":4}","[0]","","",""
"","1722.8800000011688","survey-likert","159","461015","0.0-49.0","SS1619739995276","","","","","","","","","images/stimuli/spore_stims/complex_14_A_a.gif","","","","{""Q0"":5}","[0]","","",""
"","2109.10000000149","survey-likert","160","463129","0.0-50.0","SS1619739995276","","","","","","","","","images/stimuli/spore_stims/simple_10_A_a.gif","","","","{""Q0"":1}","[0]","","",""
"","2547.4150000009686","survey-likert","161","465681","0.0-51.0","SS1619739995276","","","","","","","","","images/stimuli/spore_stims/complex_17_A_a.gif","","","","{""Q0"":6}","[0]","","",""
"","2851.954999998212","survey-likert","162","468538","0.0-52.0","SS1619739995276","","","","","","","","","images/stimuli/spore_stims/complex_13_A_a.gif","","","","{""Q0"":6}","[0]","","",""
"","2290.4900000030757","survey-likert","163","470832","0.0-53.0","SS1619739995276","","","","","","","","","images/stimuli/spore_stims/complex_08_A_a.gif","","","","{""Q0"":6}","[0]","","",""
"","2211.394999998389","survey-likert","164","473046","0.0-54.0","SS1619739995276","","","","","","","","","images/stimuli/spore_stims/complex_07_A_b.gif","","","","{""Q0"":5}","[0]","","",""
"","2656.4199999993434","survey-likert","165","475707","0.0-55.0","SS1619739995276","","","","","","","","","images/stimuli/spore_stims/simple_20_A_a.gif","","","","{""Q0"":2}","[0]","","",""
"","3201.1550000024727","survey-likert","166","478911","0.0-56.0","SS1619739995276","","","","","","","","","images/stimuli/spore_stims/simple_14_A_a.gif","","","","{""Q0"":0}","[0]","","",""
"","2401.364999997895","survey-likert","167","481317","0.0-57.0","SS1619739995276","","","","","","","","","images/stimuli/spore_stims/simple_09_A_a.gif","","","","{""Q0"":0}","[0]","","",""
"[{""page_index"":0,""viewing_time"":1795.5849999998463}]","1795.7749999986845","instructions","168","483116","0.0-58.0","SS1619739995276","instructions","","","","","","","","","","","","","","","",""
"","2284.4499999991385","demog-age","169","485405","0.0-59.0","SS1619739995276","","","","","","","","","","","","","{""age"":""22""}","","","",""
"","2460.074999999022","demog-ethnic-US","170","487872","0.0-60.0","SS1619739995276","","","","","","","","","","","","","{""ethnicity"":[""Hispanic or Latino""]}","[0]","","",""
"","9684.825000000244","demog-gender-and-education","171","497561","0.0-61.0","SS1619739995276","","","","","","","","","","","","","{""gender"":""Male"",""education"":""High school diploma""}","[0,1]","","",""
"","30373.145000001416","survey-text","172","527939","0.0-62.0","SS1619739995276","feedback","","","","","","","","","","","","{""Q0"":""no, no and it was a really interesting experiment""}","","","",""
"[{""page_index"":0,""viewing_time"":979.670000000624}]","979.9500000008848","instructions","173","528922","0.0-63.0","SS1619739995276","instructions","","","","","","","","","","","","","","","",""
