"view_history","rt","trial_type","trial_index","time_elapsed","internal_node_id","subject","stimulus_type","trial_stimulus","key_press","minimum_viewing_duration","trial_looking_time","block_deviant","block_background","exposure_type","stimulus","block_number","block_type","stimulus_displayed","responses","question_order","math_correct_answer","stimulus_left","stimulus_right"
"[{""page_index"":0,""viewing_time"":22410.945000000538}]","22411.43000000011","instructions","0","22412","0.0-0.0","SS1619740108345","","","","","","","","","","","","","","","","",""
"[{""page_index"":0,""viewing_time"":12856.509999999616},{""page_index"":1,""viewing_time"":5871.90499999997}]","18728.610000000117","instructions","1","43142","0.0-1.0","SS1619740108345","instructions","","","","","","","","","","","","","","","",""
"","6031.41499999947","sequential-stimulus-presentation-old","2","49676","0.0-2.0","SS1619740108345","","","40","500","6531.41499999947","null","null","self_paced","","","","","","","","",""
"","6206.385000000402","sequential-stimulus-presentation-old","3","56383","0.0-3.0","SS1619740108345","","","40","500","6706.385000000402","null","null","self_paced","","","","","","","","",""
"[{""page_index"":0,""viewing_time"":19820.09000000017}]","19820.354999999836","instructions","4","76204","0.0-4.0","SS1619740108345","instructions","","","","","","","","","","","","","","","",""
"","1416.284999999334","sequential-stimulus-presentation-old","5","92622","0.0-5.0","SS1619740108345","","","40","500","1916.284999999334","null","null","forced_long","","","","","","","","",""
"","2709.354999999967","sequential-stimulus-presentation-old","6","95833","0.0-6.0","SS1619740108345","","","40","500","3209.354999999967","null","null","forced_long","","","","","","","","",""
"[{""page_index"":0,""viewing_time"":3189.03000000045}]","3189.2299999999523","instructions","7","99024","0.0-7.0","SS1619740108345","instructions","","","","","","","","","","","","","","","",""
"[{""page_index"":0,""viewing_time"":9721.354999999661},{""page_index"":1,""viewing_time"":9994.689999999537},{""page_index"":2,""viewing_time"":7253.059999999998},{""page_index"":3,""viewing_time"":2190.830000000482},{""page_index"":4,""viewing_time"":1113.4000000001688}]","30273.534999999363","instructions","8","129298","0.0-8.0","SS1619740108345","instructions","","","","","","","","","","","","","","","",""
"","null","html-keyboard-response","9","130257","0.0-9.0-0.0","SS1619740108345","","","null","","","","","","<p><img src= images/blank.png width =""600"" height = ""600"" style=""position:fixed;top:50%; left:50%; transform: translate(-50%, -50%); border:5px solid black"">","","","","","","","",""
"","4633.684999999765","sequential-stimulus-presentation-old","10","135393","0.0-9.0-1.0","SS1619740108345","trial","","40","500","5133.684999999765","images/stimuli/spore_stims/simple_19_A_a.gif","images/stimuli/spore_stims/simple_17_A_b.gif","forced_short","","0","simple_dissimilar","images/stimuli/spore_stims/simple_17_A_b.gif","","","","",""
"","null","html-keyboard-response","11","136254","0.0-9.0-0.1","SS1619740108345","","","null","","","","","","<p><img src= images/blank.png width =""600"" height = ""600"" style=""position:fixed;top:50%; left:50%; transform: translate(-50%, -50%); border:5px solid black"">","","","","","","","",""
"","8836.135000000475","sequential-stimulus-presentation-old","12","145593","0.0-9.0-1.1","SS1619740108345","trial","","40","500","9336.135000000475","images/stimuli/spore_stims/simple_19_A_a.gif","images/stimuli/spore_stims/simple_17_A_b.gif","forced_short","","0","simple_dissimilar","images/stimuli/spore_stims/simple_19_A_a.gif","","","","",""
"","null","html-keyboard-response","13","146539","0.0-9.0-0.2","SS1619740108345","","","null","","","","","","<p><img src= images/blank.png width =""600"" height = ""600"" style=""position:fixed;top:50%; left:50%; transform: translate(-50%, -50%); border:5px solid black"">","","","","","","","",""
"","10924.05500000043","sequential-stimulus-presentation-old","14","157966","0.0-9.0-1.2","SS1619740108345","trial","","40","500","11424.05500000043","images/stimuli/spore_stims/simple_19_A_a.gif","images/stimuli/spore_stims/simple_17_A_b.gif","forced_short","","0","simple_dissimilar","images/stimuli/spore_stims/simple_19_A_a.gif","","","","",""
"","null","html-keyboard-response","15","158821","0.0-9.0-0.3","SS1619740108345","","","null","","","","","","<p><img src= images/blank.png width =""600"" height = ""600"" style=""position:fixed;top:50%; left:50%; transform: translate(-50%, -50%); border:5px solid black"">","","","","","","","",""
"","9085.120000000665","sequential-stimulus-presentation-old","16","168408","0.0-9.0-1.3","SS1619740108345","trial","","40","500","9585.120000000665","images/stimuli/spore_stims/simple_19_A_a.gif","images/stimuli/spore_stims/simple_17_A_b.gif","forced_short","","0","simple_dissimilar","images/stimuli/spore_stims/simple_17_A_b.gif","","","","",""
"","3937.6600000004983","survey-multi-choice","17","172348","0.0-10.0","SS1619740108345","math_question","","","","","","","","","","","","{""Q0"":""16""}","[0]","16","",""
"","null","html-keyboard-response","18","173611","0.0-11.0-0.0","SS1619740108345","","","null","","","","","","<p><img src= images/blank.png width =""600"" height = ""600"" style=""position:fixed;top:50%; left:50%; transform: translate(-50%, -50%); border:5px solid black"">","","","","","","","",""
"","4711.839999999938","sequential-stimulus-presentation-old","19","178826","0.0-11.0-1.0","SS1619740108345","trial","","40","500","5211.839999999938","images/stimuli/spore_stims/simple_08_A_a.gif","images/stimuli/spore_stims/simple_10_A_b.gif","self_paced","","1","simple_dissimilar","images/stimuli/spore_stims/simple_10_A_b.gif","","","","",""
"","null","html-keyboard-response","20","180078","0.0-11.0-0.1","SS1619740108345","","","null","","","","","","<p><img src= images/blank.png width =""600"" height = ""600"" style=""position:fixed;top:50%; left:50%; transform: translate(-50%, -50%); border:5px solid black"">","","","","","","","",""
"","7492.110000000132","sequential-stimulus-presentation-old","21","188072","0.0-11.0-1.1","SS1619740108345","trial","","40","500","7992.110000000132","images/stimuli/spore_stims/simple_08_A_a.gif","images/stimuli/spore_stims/simple_10_A_b.gif","self_paced","","1","simple_dissimilar","images/stimuli/spore_stims/simple_08_A_a.gif","","","","",""
"","null","html-keyboard-response","22","189162","0.0-11.0-0.2","SS1619740108345","","","null","","","","","","<p><img src= images/blank.png width =""600"" height = ""600"" style=""position:fixed;top:50%; left:50%; transform: translate(-50%, -50%); border:5px solid black"">","","","","","","","",""
"","1015.8400000000256","sequential-stimulus-presentation-old","23","190680","0.0-11.0-1.2","SS1619740108345","trial","","40","500","1515.8400000000256","images/stimuli/spore_stims/simple_08_A_a.gif","images/stimuli/spore_stims/simple_10_A_b.gif","self_paced","","1","simple_dissimilar","images/stimuli/spore_stims/simple_08_A_a.gif","","","","",""
"","null","html-keyboard-response","24","191857","0.0-11.0-0.3","SS1619740108345","","","null","","","","","","<p><img src= images/blank.png width =""600"" height = ""600"" style=""position:fixed;top:50%; left:50%; transform: translate(-50%, -50%); border:5px solid black"">","","","","","","","",""
"","2410.6249999995343","sequential-stimulus-presentation-old","25","194781","0.0-11.0-1.3","SS1619740108345","trial","","40","500","2910.6249999995343","images/stimuli/spore_stims/simple_08_A_a.gif","images/stimuli/spore_stims/simple_10_A_b.gif","self_paced","","1","simple_dissimilar","images/stimuli/spore_stims/simple_10_A_b.gif","","","","",""
"","2599.3399999997346","survey-multi-choice","26","197382","0.0-12.0","SS1619740108345","math_question","","","","","","","","","","","","{""Q0"":""10""}","[0]","10","",""
"","null","html-keyboard-response","27","198265","0.0-13.0-0.0","SS1619740108345","","","null","","","","","","<p><img src= images/blank.png width =""600"" height = ""600"" style=""position:fixed;top:50%; left:50%; transform: translate(-50%, -50%); border:5px solid black"">","","","","","","","",""
"","1287.7149999994726","sequential-stimulus-presentation-old","28","200055","0.0-13.0-1.0","SS1619740108345","trial","","40","500","1787.7149999994726","images/stimuli/spore_stims/complex_16_A_a.gif","images/stimuli/spore_stims/complex_11_A_b.gif","forced_short","","2","complex_dissimilar","images/stimuli/spore_stims/complex_11_A_b.gif","","","","",""
"","null","html-keyboard-response","29","201269","0.0-13.0-0.1","SS1619740108345","","","null","","","","","","<p><img src= images/blank.png width =""600"" height = ""600"" style=""position:fixed;top:50%; left:50%; transform: translate(-50%, -50%); border:5px solid black"">","","","","","","","",""
"","7858.369999999908","sequential-stimulus-presentation-old","30","209630","0.0-13.0-1.1","SS1619740108345","trial","","40","500","8358.369999999908","images/stimuli/spore_stims/complex_16_A_a.gif","images/stimuli/spore_stims/complex_11_A_b.gif","forced_short","","2","complex_dissimilar","images/stimuli/spore_stims/complex_16_A_a.gif","","","","",""
"","null","html-keyboard-response","31","210628","0.0-13.0-0.2","SS1619740108345","","","null","","","","","","<p><img src= images/blank.png width =""600"" height = ""600"" style=""position:fixed;top:50%; left:50%; transform: translate(-50%, -50%); border:5px solid black"">","","","","","","","",""
"","9366.444999999658","sequential-stimulus-presentation-old","32","220497","0.0-13.0-1.2","SS1619740108345","trial","","40","500","9866.444999999658","images/stimuli/spore_stims/complex_16_A_a.gif","images/stimuli/spore_stims/complex_11_A_b.gif","forced_short","","2","complex_dissimilar","images/stimuli/spore_stims/complex_11_A_b.gif","","","","",""
"","null","html-keyboard-response","33","221450","0.0-13.0-0.3","SS1619740108345","","","null","","","","","","<p><img src= images/blank.png width =""600"" height = ""600"" style=""position:fixed;top:50%; left:50%; transform: translate(-50%, -50%); border:5px solid black"">","","","","","","","",""
"","1114.255000000412","sequential-stimulus-presentation-old","34","223066","0.0-13.0-1.3","SS1619740108345","trial","","40","500","1614.255000000412","images/stimuli/spore_stims/complex_16_A_a.gif","images/stimuli/spore_stims/complex_11_A_b.gif","forced_short","","2","complex_dissimilar","images/stimuli/spore_stims/complex_11_A_b.gif","","","","",""
"","null","html-keyboard-response","35","224340","0.0-13.0-0.4","SS1619740108345","","","null","","","","","","<p><img src= images/blank.png width =""600"" height = ""600"" style=""position:fixed;top:50%; left:50%; transform: translate(-50%, -50%); border:5px solid black"">","","","","","","","",""
"","386.21500000043306","sequential-stimulus-presentation-old","36","225229","0.0-13.0-1.4","SS1619740108345","trial","","40","500","886.2150000004331","images/stimuli/spore_stims/complex_16_A_a.gif","images/stimuli/spore_stims/complex_11_A_b.gif","forced_short","","2","complex_dissimilar","images/stimuli/spore_stims/complex_11_A_b.gif","","","","",""
"","null","html-keyboard-response","37","226357","0.0-13.0-0.5","SS1619740108345","","","null","","","","","","<p><img src= images/blank.png width =""600"" height = ""600"" style=""position:fixed;top:50%; left:50%; transform: translate(-50%, -50%); border:5px solid black"">","","","","","","","",""
"","779.190000000177","sequential-stimulus-presentation-old","38","227640","0.0-13.0-1.5","SS1619740108345","trial","","40","500","1279.190000000177","images/stimuli/spore_stims/complex_16_A_a.gif","images/stimuli/spore_stims/complex_11_A_b.gif","forced_short","","2","complex_dissimilar","images/stimuli/spore_stims/complex_11_A_b.gif","","","","",""
"","2395.9350000004633","survey-multi-choice","39","230037","0.0-14.0","SS1619740108345","math_question","","","","","","","","","","","","{""Q0"":""10""}","[0]","10","",""
"","null","html-keyboard-response","40","231207","0.0-15.0-0.0","SS1619740108345","","","null","","","","","","<p><img src= images/blank.png width =""600"" height = ""600"" style=""position:fixed;top:50%; left:50%; transform: translate(-50%, -50%); border:5px solid black"">","","","","","","","",""
"","859.5600000007544","sequential-stimulus-presentation-old","41","247070","0.0-15.0-1.0","SS1619740108345","trial","","40","500","1359.5600000007544","images/stimuli/spore_stims/simple_15_A_a.gif","images/stimuli/spore_stims/simple_01_A_b.gif","forced_long","","3","simple_dissimilar","images/stimuli/spore_stims/simple_01_A_b.gif","","","","",""
"","null","html-keyboard-response","42","248306","0.0-15.0-0.1","SS1619740108345","","","null","","","","","","<p><img src= images/blank.png width =""600"" height = ""600"" style=""position:fixed;top:50%; left:50%; transform: translate(-50%, -50%); border:5px solid black"">","","","","","","","",""
"","1093.2050000001327","sequential-stimulus-presentation-old","43","249901","0.0-15.0-1.1","SS1619740108345","trial","","40","500","1593.2050000001327","images/stimuli/spore_stims/simple_15_A_a.gif","images/stimuli/spore_stims/simple_01_A_b.gif","forced_long","","3","simple_dissimilar","images/stimuli/spore_stims/simple_15_A_a.gif","","","","",""
"","null","html-keyboard-response","44","251184","0.0-15.0-0.2","SS1619740108345","","","null","","","","","","<p><img src= images/blank.png width =""600"" height = ""600"" style=""position:fixed;top:50%; left:50%; transform: translate(-50%, -50%); border:5px solid black"">","","","","","","","",""
"","584.305000000284","sequential-stimulus-presentation-old","45","252271","0.0-15.0-1.2","SS1619740108345","trial","","40","500","1084.305000000284","images/stimuli/spore_stims/simple_15_A_a.gif","images/stimuli/spore_stims/simple_01_A_b.gif","forced_long","","3","simple_dissimilar","images/stimuli/spore_stims/simple_01_A_b.gif","","","","",""
"","null","html-keyboard-response","46","253398","0.0-15.0-0.3","SS1619740108345","","","null","","","","","","<p><img src= images/blank.png width =""600"" height = ""600"" style=""position:fixed;top:50%; left:50%; transform: translate(-50%, -50%); border:5px solid black"">","","","","","","","",""
"","4347.2050000000745","sequential-stimulus-presentation-old","47","258248","0.0-15.0-1.3","SS1619740108345","trial","","40","500","4847.2050000000745","images/stimuli/spore_stims/simple_15_A_a.gif","images/stimuli/spore_stims/simple_01_A_b.gif","forced_long","","3","simple_dissimilar","images/stimuli/spore_stims/simple_15_A_a.gif","","","","",""
"","6484.285000000498","survey-multi-choice","48","264734","0.0-16.0","SS1619740108345","math_question","","","","","","","","","","","","{""Q0"":""13""}","[0]","13","",""
"","null","html-keyboard-response","49","265867","0.0-17.0-0.0","SS1619740108345","","","null","","","","","","<p><img src= images/blank.png width =""600"" height = ""600"" style=""position:fixed;top:50%; left:50%; transform: translate(-50%, -50%); border:5px solid black"">","","","","","","","",""
"","1766.944999999425","sequential-stimulus-presentation-old","50","268136","0.0-17.0-1.0","SS1619740108345","trial","","40","500","2266.944999999425","images/stimuli/spore_stims/complex_20_A_a.gif","images/stimuli/spore_stims/complex_02_A_b.gif","self_paced","","4","complex_dissimilar","images/stimuli/spore_stims/complex_02_A_b.gif","","","","",""
"","null","html-keyboard-response","51","269294","0.0-17.0-0.1","SS1619740108345","","","null","","","","","","<p><img src= images/blank.png width =""600"" height = ""600"" style=""position:fixed;top:50%; left:50%; transform: translate(-50%, -50%); border:5px solid black"">","","","","","","","",""
"","4344.475000000792","sequential-stimulus-presentation-old","52","274141","0.0-17.0-1.1","SS1619740108345","trial","","40","500","4844.475000000792","images/stimuli/spore_stims/complex_20_A_a.gif","images/stimuli/spore_stims/complex_02_A_b.gif","self_paced","","4","complex_dissimilar","images/stimuli/spore_stims/complex_02_A_b.gif","","","","",""
"","null","html-keyboard-response","53","275245","0.0-17.0-0.2","SS1619740108345","","","null","","","","","","<p><img src= images/blank.png width =""600"" height = ""600"" style=""position:fixed;top:50%; left:50%; transform: translate(-50%, -50%); border:5px solid black"">","","","","","","","",""
"","4667.730000000098","sequential-stimulus-presentation-old","54","280415","0.0-17.0-1.2","SS1619740108345","trial","","40","500","5167.730000000098","images/stimuli/spore_stims/complex_20_A_a.gif","images/stimuli/spore_stims/complex_02_A_b.gif","self_paced","","4","complex_dissimilar","images/stimuli/spore_stims/complex_02_A_b.gif","","","","",""
"","null","html-keyboard-response","55","281451","0.0-17.0-0.3","SS1619740108345","","","null","","","","","","<p><img src= images/blank.png width =""600"" height = ""600"" style=""position:fixed;top:50%; left:50%; transform: translate(-50%, -50%); border:5px solid black"">","","","","","","","",""
"","1867.7999999999884","sequential-stimulus-presentation-old","56","283821","0.0-17.0-1.3","SS1619740108345","trial","","40","500","2367.7999999999884","images/stimuli/spore_stims/complex_20_A_a.gif","images/stimuli/spore_stims/complex_02_A_b.gif","self_paced","","4","complex_dissimilar","images/stimuli/spore_stims/complex_02_A_b.gif","","","","",""
"","2883.0699999998324","survey-multi-choice","57","286705","0.0-18.0","SS1619740108345","math_question","","","","","","","","","","","","{""Q0"":""15""}","[0]","15","",""
"","null","html-keyboard-response","58","287808","0.0-19.0-0.0","SS1619740108345","","","null","","","","","","<p><img src= images/blank.png width =""600"" height = ""600"" style=""position:fixed;top:50%; left:50%; transform: translate(-50%, -50%); border:5px solid black"">","","","","","","","",""
"","1351.4699999996228","sequential-stimulus-presentation-old","59","289662","0.0-19.0-1.0","SS1619740108345","trial","","40","500","1851.4699999996228","images/stimuli/spore_stims/simple_19_A_b.gif","images/stimuli/spore_stims/simple_14_A_a.gif","forced_short","","5","simple_dissimilar","images/stimuli/spore_stims/simple_14_A_a.gif","","","","",""
"","null","html-keyboard-response","60","290906","0.0-19.0-0.1","SS1619740108345","","","null","","","","","","<p><img src= images/blank.png width =""600"" height = ""600"" style=""position:fixed;top:50%; left:50%; transform: translate(-50%, -50%); border:5px solid black"">","","","","","","","",""
"","3010.5849999999627","sequential-stimulus-presentation-old","61","294419","0.0-19.0-1.1","SS1619740108345","trial","","40","500","3510.5849999999627","images/stimuli/spore_stims/simple_19_A_b.gif","images/stimuli/spore_stims/simple_14_A_a.gif","forced_short","","5","simple_dissimilar","images/stimuli/spore_stims/simple_14_A_a.gif","","","","",""
"","null","html-keyboard-response","62","295377","0.0-19.0-0.2","SS1619740108345","","","null","","","","","","<p><img src= images/blank.png width =""600"" height = ""600"" style=""position:fixed;top:50%; left:50%; transform: translate(-50%, -50%); border:5px solid black"">","","","","","","","",""
"","3213.394999999786","sequential-stimulus-presentation-old","63","299093","0.0-19.0-1.2","SS1619740108345","trial","","40","500","3713.394999999786","images/stimuli/spore_stims/simple_19_A_b.gif","images/stimuli/spore_stims/simple_14_A_a.gif","forced_short","","5","simple_dissimilar","images/stimuli/spore_stims/simple_14_A_a.gif","","","","",""
"","null","html-keyboard-response","64","300025","0.0-19.0-0.3","SS1619740108345","","","null","","","","","","<p><img src= images/blank.png width =""600"" height = ""600"" style=""position:fixed;top:50%; left:50%; transform: translate(-50%, -50%); border:5px solid black"">","","","","","","","",""
"","2929.0250000003725","sequential-stimulus-presentation-old","65","303461","0.0-19.0-1.3","SS1619740108345","trial","","40","500","3429.0250000003725","images/stimuli/spore_stims/simple_19_A_b.gif","images/stimuli/spore_stims/simple_14_A_a.gif","forced_short","","5","simple_dissimilar","images/stimuli/spore_stims/simple_14_A_a.gif","","","","",""
"","null","html-keyboard-response","66","304634","0.0-19.0-0.4","SS1619740108345","","","null","","","","","","<p><img src= images/blank.png width =""600"" height = ""600"" style=""position:fixed;top:50%; left:50%; transform: translate(-50%, -50%); border:5px solid black"">","","","","","","","",""
"","1071.324999999837","sequential-stimulus-presentation-old","67","306220","0.0-19.0-1.4","SS1619740108345","trial","","40","500","1571.324999999837","images/stimuli/spore_stims/simple_19_A_b.gif","images/stimuli/spore_stims/simple_14_A_a.gif","forced_short","","5","simple_dissimilar","images/stimuli/spore_stims/simple_14_A_a.gif","","","","",""
"","null","html-keyboard-response","68","307470","0.0-19.0-0.5","SS1619740108345","","","null","","","","","","<p><img src= images/blank.png width =""600"" height = ""600"" style=""position:fixed;top:50%; left:50%; transform: translate(-50%, -50%); border:5px solid black"">","","","","","","","",""
"","677.5899999993271","sequential-stimulus-presentation-old","69","308651","0.0-19.0-1.5","SS1619740108345","trial","","40","500","1177.5899999993271","images/stimuli/spore_stims/simple_19_A_b.gif","images/stimuli/spore_stims/simple_14_A_a.gif","forced_short","","5","simple_dissimilar","images/stimuli/spore_stims/simple_14_A_a.gif","","","","",""
"","4844.935000000056","survey-multi-choice","70","313498","0.0-20.0","SS1619740108345","math_question","","","","","","","","","","","","{""Q0"":""15""}","[0]","15","",""
"","null","html-keyboard-response","71","314353","0.0-21.0-0.0","SS1619740108345","","","null","","","","","","<p><img src= images/blank.png width =""600"" height = ""600"" style=""position:fixed;top:50%; left:50%; transform: translate(-50%, -50%); border:5px solid black"">","","","","","","","",""
"","1336.949999999837","sequential-stimulus-presentation-old","72","316193","0.0-21.0-1.0","SS1619740108345","trial","","40","500","1836.949999999837","images/stimuli/spore_stims/complex_03_A_b.gif","images/stimuli/spore_stims/complex_07_A_a.gif","forced_short","","6","complex_dissimilar","images/stimuli/spore_stims/complex_07_A_a.gif","","","","",""
"","null","html-keyboard-response","73","317395","0.0-21.0-0.1","SS1619740108345","","","null","","","","","","<p><img src= images/blank.png width =""600"" height = ""600"" style=""position:fixed;top:50%; left:50%; transform: translate(-50%, -50%); border:5px solid black"">","","","","","","","",""
"","5914.420000000042","sequential-stimulus-presentation-old","74","323812","0.0-21.0-1.1","SS1619740108345","trial","","40","500","6414.420000000042","images/stimuli/spore_stims/complex_03_A_b.gif","images/stimuli/spore_stims/complex_07_A_a.gif","forced_short","","6","complex_dissimilar","images/stimuli/spore_stims/complex_07_A_a.gif","","","","",""
"","null","html-keyboard-response","75","324979","0.0-21.0-0.2","SS1619740108345","","","null","","","","","","<p><img src= images/blank.png width =""600"" height = ""600"" style=""position:fixed;top:50%; left:50%; transform: translate(-50%, -50%); border:5px solid black"">","","","","","","","",""
"","1296.1999999997788","sequential-stimulus-presentation-old","76","326778","0.0-21.0-1.2","SS1619740108345","trial","","40","500","1796.1999999997788","images/stimuli/spore_stims/complex_03_A_b.gif","images/stimuli/spore_stims/complex_07_A_a.gif","forced_short","","6","complex_dissimilar","images/stimuli/spore_stims/complex_07_A_a.gif","","","","",""
"","null","html-keyboard-response","77","327654","0.0-21.0-0.3","SS1619740108345","","","null","","","","","","<p><img src= images/blank.png width =""600"" height = ""600"" style=""position:fixed;top:50%; left:50%; transform: translate(-50%, -50%); border:5px solid black"">","","","","","","","",""
"","499.41000000032363","sequential-stimulus-presentation-old","78","328669","0.0-21.0-1.3","SS1619740108345","trial","","40","500","999.4100000003236","images/stimuli/spore_stims/complex_03_A_b.gif","images/stimuli/spore_stims/complex_07_A_a.gif","forced_short","","6","complex_dissimilar","images/stimuli/spore_stims/complex_07_A_a.gif","","","","",""
"","null","html-keyboard-response","79","329617","0.0-21.0-0.4","SS1619740108345","","","null","","","","","","<p><img src= images/blank.png width =""600"" height = ""600"" style=""position:fixed;top:50%; left:50%; transform: translate(-50%, -50%); border:5px solid black"">","","","","","","","",""
"","3200.4299999998766","sequential-stimulus-presentation-old","80","333320","0.0-21.0-1.4","SS1619740108345","trial","","40","500","3700.4299999998766","images/stimuli/spore_stims/complex_03_A_b.gif","images/stimuli/spore_stims/complex_07_A_a.gif","forced_short","","6","complex_dissimilar","images/stimuli/spore_stims/complex_03_A_b.gif","","","","",""
"","null","html-keyboard-response","81","334261","0.0-21.0-0.5","SS1619740108345","","","null","","","","","","<p><img src= images/blank.png width =""600"" height = ""600"" style=""position:fixed;top:50%; left:50%; transform: translate(-50%, -50%); border:5px solid black"">","","","","","","","",""
"","626.5900000007241","sequential-stimulus-presentation-old","82","335404","0.0-21.0-1.5","SS1619740108345","trial","","40","500","1126.590000000724","images/stimuli/spore_stims/complex_03_A_b.gif","images/stimuli/spore_stims/complex_07_A_a.gif","forced_short","","6","complex_dissimilar","images/stimuli/spore_stims/complex_03_A_b.gif","","","","",""
"","2584.525000000256","survey-multi-choice","83","337990","0.0-22.0","SS1619740108345","math_question","","","","","","","","","","","","{""Q0"":""3""}","[0]","3","",""
"","null","html-keyboard-response","84","338905","0.0-23.0-0.0","SS1619740108345","","","null","","","","","","<p><img src= images/blank.png width =""600"" height = ""600"" style=""position:fixed;top:50%; left:50%; transform: translate(-50%, -50%); border:5px solid black"">","","","","","","","",""
"","1156.0250000002561","sequential-stimulus-presentation-old","85","355064","0.0-23.0-1.0","SS1619740108345","trial","","40","500","1656.0250000002561","images/stimuli/spore_stims/complex_08_A_b.gif","images/stimuli/spore_stims/complex_12_A_a.gif","forced_long","","7","complex_dissimilar","images/stimuli/spore_stims/complex_12_A_a.gif","","","","",""
"","null","html-keyboard-response","86","356317","0.0-23.0-0.1","SS1619740108345","","","null","","","","","","<p><img src= images/blank.png width =""600"" height = ""600"" style=""position:fixed;top:50%; left:50%; transform: translate(-50%, -50%); border:5px solid black"">","","","","","","","",""
"","9043.609999999695","sequential-stimulus-presentation-old","87","365863","0.0-23.0-1.1","SS1619740108345","trial","","40","500","9543.609999999695","images/stimuli/spore_stims/complex_08_A_b.gif","images/stimuli/spore_stims/complex_12_A_a.gif","forced_long","","7","complex_dissimilar","images/stimuli/spore_stims/complex_08_A_b.gif","","","","",""
"","null","html-keyboard-response","88","367030","0.0-23.0-0.2","SS1619740108345","","","null","","","","","","<p><img src= images/blank.png width =""600"" height = ""600"" style=""position:fixed;top:50%; left:50%; transform: translate(-50%, -50%); border:5px solid black"">","","","","","","","",""
"","3685.840000000084","sequential-stimulus-presentation-old","89","371219","0.0-23.0-1.2","SS1619740108345","trial","","40","500","4185.840000000084","images/stimuli/spore_stims/complex_08_A_b.gif","images/stimuli/spore_stims/complex_12_A_a.gif","forced_long","","7","complex_dissimilar","images/stimuli/spore_stims/complex_12_A_a.gif","","","","",""
"","null","html-keyboard-response","90","372069","0.0-23.0-0.3","SS1619740108345","","","null","","","","","","<p><img src= images/blank.png width =""600"" height = ""600"" style=""position:fixed;top:50%; left:50%; transform: translate(-50%, -50%); border:5px solid black"">","","","","","","","",""
"","1365.955000000191","sequential-stimulus-presentation-old","91","373938","0.0-23.0-1.3","SS1619740108345","trial","","40","500","1865.955000000191","images/stimuli/spore_stims/complex_08_A_b.gif","images/stimuli/spore_stims/complex_12_A_a.gif","forced_long","","7","complex_dissimilar","images/stimuli/spore_stims/complex_12_A_a.gif","","","","",""
"","null","html-keyboard-response","92","374988","0.0-23.0-0.4","SS1619740108345","","","null","","","","","","<p><img src= images/blank.png width =""600"" height = ""600"" style=""position:fixed;top:50%; left:50%; transform: translate(-50%, -50%); border:5px solid black"">","","","","","","","",""
"","274.33500000002095","sequential-stimulus-presentation-old","93","375765","0.0-23.0-1.4","SS1619740108345","trial","","40","500","774.335000000021","images/stimuli/spore_stims/complex_08_A_b.gif","images/stimuli/spore_stims/complex_12_A_a.gif","forced_long","","7","complex_dissimilar","images/stimuli/spore_stims/complex_12_A_a.gif","","","","",""
"","null","html-keyboard-response","94","376690","0.0-23.0-0.5","SS1619740108345","","","null","","","","","","<p><img src= images/blank.png width =""600"" height = ""600"" style=""position:fixed;top:50%; left:50%; transform: translate(-50%, -50%); border:5px solid black"">","","","","","","","",""
"","364.72500000032596","sequential-stimulus-presentation-old","95","377564","0.0-23.0-1.5","SS1619740108345","trial","","40","500","864.725000000326","images/stimuli/spore_stims/complex_08_A_b.gif","images/stimuli/spore_stims/complex_12_A_a.gif","forced_long","","7","complex_dissimilar","images/stimuli/spore_stims/complex_08_A_b.gif","","","","",""
"","3986.030000000028","survey-multi-choice","96","381552","0.0-24.0","SS1619740108345","math_question","","","","","","","","","","","","{""Q0"":""13""}","[0]","13","",""
"","null","html-keyboard-response","97","382702","0.0-25.0-0.0","SS1619740108345","","","null","","","","","","<p><img src= images/blank.png width =""600"" height = ""600"" style=""position:fixed;top:50%; left:50%; transform: translate(-50%, -50%); border:5px solid black"">","","","","","","","",""
"","520.7350000000442","sequential-stimulus-presentation-old","98","398226","0.0-25.0-1.0","SS1619740108345","trial","","40","500","1020.7350000000442","images/stimuli/spore_stims/complex_15_A_a.gif","images/stimuli/spore_stims/complex_04_A_b.gif","forced_long","","8","complex_dissimilar","images/stimuli/spore_stims/complex_04_A_b.gif","","","","",""
"","null","html-keyboard-response","99","399298","0.0-25.0-0.1","SS1619740108345","","","null","","","","","","<p><img src= images/blank.png width =""600"" height = ""600"" style=""position:fixed;top:50%; left:50%; transform: translate(-50%, -50%); border:5px solid black"">","","","","","","","",""
"","280.53000000002794","sequential-stimulus-presentation-old","100","400081","0.0-25.0-1.1","SS1619740108345","trial","","40","500","780.5300000000279","images/stimuli/spore_stims/complex_15_A_a.gif","images/stimuli/spore_stims/complex_04_A_b.gif","forced_long","","8","complex_dissimilar","images/stimuli/spore_stims/complex_04_A_b.gif","","","","",""
"","null","html-keyboard-response","101","401295","0.0-25.0-0.2","SS1619740108345","","","null","","","","","","<p><img src= images/blank.png width =""600"" height = ""600"" style=""position:fixed;top:50%; left:50%; transform: translate(-50%, -50%); border:5px solid black"">","","","","","","","",""
"","3.7750000001396984","sequential-stimulus-presentation-old","102","401801","0.0-25.0-1.2","SS1619740108345","trial","","40","500","503.7750000001397","images/stimuli/spore_stims/complex_15_A_a.gif","images/stimuli/spore_stims/complex_04_A_b.gif","forced_long","","8","complex_dissimilar","images/stimuli/spore_stims/complex_04_A_b.gif","","","","",""
"","null","html-keyboard-response","103","403046","0.0-25.0-0.3","SS1619740108345","","","null","","","","","","<p><img src= images/blank.png width =""600"" height = ""600"" style=""position:fixed;top:50%; left:50%; transform: translate(-50%, -50%); border:5px solid black"">","","","","","","","",""
"","218.50499999983003","sequential-stimulus-presentation-old","104","403767","0.0-25.0-1.3","SS1619740108345","trial","","40","500","718.50499999983","images/stimuli/spore_stims/complex_15_A_a.gif","images/stimuli/spore_stims/complex_04_A_b.gif","forced_long","","8","complex_dissimilar","images/stimuli/spore_stims/complex_04_A_b.gif","","","","",""
"","null","html-keyboard-response","105","404796","0.0-25.0-0.4","SS1619740108345","","","null","","","","","","<p><img src= images/blank.png width =""600"" height = ""600"" style=""position:fixed;top:50%; left:50%; transform: translate(-50%, -50%); border:5px solid black"">","","","","","","","",""
"","6713.899999999732","sequential-stimulus-presentation-old","106","412013","0.0-25.0-1.4","SS1619740108345","trial","","40","500","7213.899999999732","images/stimuli/spore_stims/complex_15_A_a.gif","images/stimuli/spore_stims/complex_04_A_b.gif","forced_long","","8","complex_dissimilar","images/stimuli/spore_stims/complex_15_A_a.gif","","","","",""
"","2794.8500000002095","survey-multi-choice","107","414809","0.0-26.0","SS1619740108345","math_question","","","","","","","","","","","","{""Q0"":""17""}","[0]","17","",""
"","null","html-keyboard-response","108","416059","0.0-27.0-0.0","SS1619740108345","","","null","","","","","","<p><img src= images/blank.png width =""600"" height = ""600"" style=""position:fixed;top:50%; left:50%; transform: translate(-50%, -50%); border:5px solid black"">","","","","","","","",""
"","4503.684999999648","sequential-stimulus-presentation-old","109","421065","0.0-27.0-1.0","SS1619740108345","trial","","40","500","5003.684999999648","images/stimuli/spore_stims/simple_10_A_a.gif","images/stimuli/spore_stims/simple_02_A_b.gif","self_paced","","9","simple_dissimilar","images/stimuli/spore_stims/simple_02_A_b.gif","","","","",""
"","null","html-keyboard-response","110","422033","0.0-27.0-0.1","SS1619740108345","","","null","","","","","","<p><img src= images/blank.png width =""600"" height = ""600"" style=""position:fixed;top:50%; left:50%; transform: translate(-50%, -50%); border:5px solid black"">","","","","","","","",""
"","518.4049999997951","sequential-stimulus-presentation-old","111","423055","0.0-27.0-1.1","SS1619740108345","trial","","40","500","1018.4049999997951","images/stimuli/spore_stims/simple_10_A_a.gif","images/stimuli/spore_stims/simple_02_A_b.gif","self_paced","","9","simple_dissimilar","images/stimuli/spore_stims/simple_02_A_b.gif","","","","",""
"","null","html-keyboard-response","112","424342","0.0-27.0-0.2","SS1619740108345","","","null","","","","","","<p><img src= images/blank.png width =""600"" height = ""600"" style=""position:fixed;top:50%; left:50%; transform: translate(-50%, -50%); border:5px solid black"">","","","","","","","",""
"","1878.555000000284","sequential-stimulus-presentation-old","113","426723","0.0-27.0-1.2","SS1619740108345","trial","","40","500","2378.555000000284","images/stimuli/spore_stims/simple_10_A_a.gif","images/stimuli/spore_stims/simple_02_A_b.gif","self_paced","","9","simple_dissimilar","images/stimuli/spore_stims/simple_10_A_a.gif","","","","",""
"","null","html-keyboard-response","114","427628","0.0-27.0-0.3","SS1619740108345","","","null","","","","","","<p><img src= images/blank.png width =""600"" height = ""600"" style=""position:fixed;top:50%; left:50%; transform: translate(-50%, -50%); border:5px solid black"">","","","","","","","",""
"","803.4549999992596","sequential-stimulus-presentation-old","115","428934","0.0-27.0-1.3","SS1619740108345","trial","","40","500","1303.4549999992596","images/stimuli/spore_stims/simple_10_A_a.gif","images/stimuli/spore_stims/simple_02_A_b.gif","self_paced","","9","simple_dissimilar","images/stimuli/spore_stims/simple_02_A_b.gif","","","","",""
"","null","html-keyboard-response","116","430116","0.0-27.0-0.4","SS1619740108345","","","null","","","","","","<p><img src= images/blank.png width =""600"" height = ""600"" style=""position:fixed;top:50%; left:50%; transform: translate(-50%, -50%); border:5px solid black"">","","","","","","","",""
"","694.9549999999581","sequential-stimulus-presentation-old","117","431314","0.0-27.0-1.4","SS1619740108345","trial","","40","500","1194.954999999958","images/stimuli/spore_stims/simple_10_A_a.gif","images/stimuli/spore_stims/simple_02_A_b.gif","self_paced","","9","simple_dissimilar","images/stimuli/spore_stims/simple_10_A_a.gif","","","","",""
"","null","html-keyboard-response","118","432180","0.0-27.0-0.5","SS1619740108345","","","null","","","","","","<p><img src= images/blank.png width =""600"" height = ""600"" style=""position:fixed;top:50%; left:50%; transform: translate(-50%, -50%); border:5px solid black"">","","","","","","","",""
"","410.43499999982305","sequential-stimulus-presentation-old","119","433093","0.0-27.0-1.5","SS1619740108345","trial","","40","500","910.434999999823","images/stimuli/spore_stims/simple_10_A_a.gif","images/stimuli/spore_stims/simple_02_A_b.gif","self_paced","","9","simple_dissimilar","images/stimuli/spore_stims/simple_02_A_b.gif","","","","",""
"","2717.2799999998533","survey-multi-choice","120","435812","0.0-28.0","SS1619740108345","math_question","","","","","","","","","","","","{""Q0"":""7""}","[0]","7","",""
"","null","html-keyboard-response","121","436664","0.0-29.0-0.0","SS1619740108345","","","null","","","","","","<p><img src= images/blank.png width =""600"" height = ""600"" style=""position:fixed;top:50%; left:50%; transform: translate(-50%, -50%); border:5px solid black"">","","","","","","","",""
"","553.0049999997718","sequential-stimulus-presentation-old","122","452220","0.0-29.0-1.0","SS1619740108345","trial","","40","500","1053.0049999997718","images/stimuli/spore_stims/simple_20_A_b.gif","images/stimuli/spore_stims/simple_11_A_a.gif","forced_long","","10","simple_dissimilar","images/stimuli/spore_stims/simple_11_A_a.gif","","","","",""
"","null","html-keyboard-response","123","453478","0.0-29.0-0.1","SS1619740108345","","","null","","","","","","<p><img src= images/blank.png width =""600"" height = ""600"" style=""position:fixed;top:50%; left:50%; transform: translate(-50%, -50%); border:5px solid black"">","","","","","","","",""
"","359.0299999995623","sequential-stimulus-presentation-old","124","454339","0.0-29.0-1.1","SS1619740108345","trial","","40","500","859.0299999995623","images/stimuli/spore_stims/simple_20_A_b.gif","images/stimuli/spore_stims/simple_11_A_a.gif","forced_long","","10","simple_dissimilar","images/stimuli/spore_stims/simple_11_A_a.gif","","","","",""
"","null","html-keyboard-response","125","455631","0.0-29.0-0.2","SS1619740108345","","","null","","","","","","<p><img src= images/blank.png width =""600"" height = ""600"" style=""position:fixed;top:50%; left:50%; transform: translate(-50%, -50%); border:5px solid black"">","","","","","","","",""
"","265.8950000004261","sequential-stimulus-presentation-old","126","456400","0.0-29.0-1.2","SS1619740108345","trial","","40","500","765.8950000004261","images/stimuli/spore_stims/simple_20_A_b.gif","images/stimuli/spore_stims/simple_11_A_a.gif","forced_long","","10","simple_dissimilar","images/stimuli/spore_stims/simple_11_A_a.gif","","","","",""
"","null","html-keyboard-response","127","457445","0.0-29.0-0.3","SS1619740108345","","","null","","","","","","<p><img src= images/blank.png width =""600"" height = ""600"" style=""position:fixed;top:50%; left:50%; transform: translate(-50%, -50%); border:5px solid black"">","","","","","","","",""
"","759.6550000007846","sequential-stimulus-presentation-old","128","458707","0.0-29.0-1.3","SS1619740108345","trial","","40","500","1259.6550000007846","images/stimuli/spore_stims/simple_20_A_b.gif","images/stimuli/spore_stims/simple_11_A_a.gif","forced_long","","10","simple_dissimilar","images/stimuli/spore_stims/simple_11_A_a.gif","","","","",""
"","null","html-keyboard-response","129","459858","0.0-29.0-0.4","SS1619740108345","","","null","","","","","","<p><img src= images/blank.png width =""600"" height = ""600"" style=""position:fixed;top:50%; left:50%; transform: translate(-50%, -50%); border:5px solid black"">","","","","","","","",""
"","320.1699999999837","sequential-stimulus-presentation-old","130","460680","0.0-29.0-1.4","SS1619740108345","trial","","40","500","820.1699999999837","images/stimuli/spore_stims/simple_20_A_b.gif","images/stimuli/spore_stims/simple_11_A_a.gif","forced_long","","10","simple_dissimilar","images/stimuli/spore_stims/simple_11_A_a.gif","","","","",""
"","null","html-keyboard-response","131","461535","0.0-29.0-0.5","SS1619740108345","","","null","","","","","","<p><img src= images/blank.png width =""600"" height = ""600"" style=""position:fixed;top:50%; left:50%; transform: translate(-50%, -50%); border:5px solid black"">","","","","","","","",""
"","645.5050000004121","sequential-stimulus-presentation-old","132","462684","0.0-29.0-1.5","SS1619740108345","trial","","40","500","1145.505000000412","images/stimuli/spore_stims/simple_20_A_b.gif","images/stimuli/spore_stims/simple_11_A_a.gif","forced_long","","10","simple_dissimilar","images/stimuli/spore_stims/simple_11_A_a.gif","","","","",""
"","2469.8300000000163","survey-multi-choice","133","465155","0.0-30.0","SS1619740108345","math_question","","","","","","","","","","","","{""Q0"":""4""}","[0]","4","",""
"","null","html-keyboard-response","134","466310","0.0-31.0-0.0","SS1619740108345","","","null","","","","","","<p><img src= images/blank.png width =""600"" height = ""600"" style=""position:fixed;top:50%; left:50%; transform: translate(-50%, -50%); border:5px solid black"">","","","","","","","",""
"","1386.6650000000373","sequential-stimulus-presentation-old","135","468199","0.0-31.0-1.0","SS1619740108345","trial","","40","500","1886.6650000000373","images/stimuli/spore_stims/complex_02_A_a.gif","images/stimuli/spore_stims/complex_01_A_b.gif","self_paced","","11","complex_dissimilar","images/stimuli/spore_stims/complex_01_A_b.gif","","","","",""
"","null","html-keyboard-response","136","469057","0.0-31.0-0.1","SS1619740108345","","","null","","","","","","<p><img src= images/blank.png width =""600"" height = ""600"" style=""position:fixed;top:50%; left:50%; transform: translate(-50%, -50%); border:5px solid black"">","","","","","","","",""
"","3011.484999999986","sequential-stimulus-presentation-old","137","472571","0.0-31.0-1.1","SS1619740108345","trial","","40","500","3511.484999999986","images/stimuli/spore_stims/complex_02_A_a.gif","images/stimuli/spore_stims/complex_01_A_b.gif","self_paced","","11","complex_dissimilar","images/stimuli/spore_stims/complex_01_A_b.gif","","","","",""
"","null","html-keyboard-response","138","473730","0.0-31.0-0.2","SS1619740108345","","","null","","","","","","<p><img src= images/blank.png width =""600"" height = ""600"" style=""position:fixed;top:50%; left:50%; transform: translate(-50%, -50%); border:5px solid black"">","","","","","","","",""
"","452.20500000048196","sequential-stimulus-presentation-old","139","474685","0.0-31.0-1.2","SS1619740108345","trial","","40","500","952.205000000482","images/stimuli/spore_stims/complex_02_A_a.gif","images/stimuli/spore_stims/complex_01_A_b.gif","self_paced","","11","complex_dissimilar","images/stimuli/spore_stims/complex_01_A_b.gif","","","","",""
"","null","html-keyboard-response","140","475623","0.0-31.0-0.3","SS1619740108345","","","null","","","","","","<p><img src= images/blank.png width =""600"" height = ""600"" style=""position:fixed;top:50%; left:50%; transform: translate(-50%, -50%); border:5px solid black"">","","","","","","","",""
"","606.4500000001863","sequential-stimulus-presentation-old","141","476732","0.0-31.0-1.3","SS1619740108345","trial","","40","500","1106.4500000001863","images/stimuli/spore_stims/complex_02_A_a.gif","images/stimuli/spore_stims/complex_01_A_b.gif","self_paced","","11","complex_dissimilar","images/stimuli/spore_stims/complex_01_A_b.gif","","","","",""
"","null","html-keyboard-response","142","477831","0.0-31.0-0.4","SS1619740108345","","","null","","","","","","<p><img src= images/blank.png width =""600"" height = ""600"" style=""position:fixed;top:50%; left:50%; transform: translate(-50%, -50%); border:5px solid black"">","","","","","","","",""
"","477.7850000000908","sequential-stimulus-presentation-old","143","478811","0.0-31.0-1.4","SS1619740108345","trial","","40","500","977.7850000000908","images/stimuli/spore_stims/complex_02_A_a.gif","images/stimuli/spore_stims/complex_01_A_b.gif","self_paced","","11","complex_dissimilar","images/stimuli/spore_stims/complex_01_A_b.gif","","","","",""
"","null","html-keyboard-response","144","479913","0.0-31.0-0.5","SS1619740108345","","","null","","","","","","<p><img src= images/blank.png width =""600"" height = ""600"" style=""position:fixed;top:50%; left:50%; transform: translate(-50%, -50%); border:5px solid black"">","","","","","","","",""
"","440.7900000005611","sequential-stimulus-presentation-old","145","480858","0.0-31.0-1.5","SS1619740108345","trial","","40","500","940.7900000005611","images/stimuli/spore_stims/complex_02_A_a.gif","images/stimuli/spore_stims/complex_01_A_b.gif","self_paced","","11","complex_dissimilar","images/stimuli/spore_stims/complex_01_A_b.gif","","","","",""
"[{""page_index"":0,""viewing_time"":5222.52500000014}]","5222.75999999966","instructions","146","486082","0.0-32.0","SS1619740108345","instructions","","","","","","","","","","","","","","","",""
"","16808.549999999756","survey-likert","147","502894","0.0-33.0","SS1619740108345","similarity_question","","","","","","","","","","","","{""Q0"":1}","[0]","","images/stimuli/spore_stims/complex_08_A_b.gif","images/stimuli/spore_stims/complex_12_A_a.gif"
"","4203.844999999972","survey-likert","148","507100","0.0-34.0","SS1619740108345","similarity_question","","","","","","","","","","","","{""Q0"":5}","[0]","","images/stimuli/spore_stims/simple_02_A_b.gif","images/stimuli/spore_stims/simple_10_A_a.gif"
"","7468.295000000624","survey-likert","149","514571","0.0-35.0","SS1619740108345","similarity_question","","","","","","","","","","","","{""Q0"":1}","[0]","","images/stimuli/spore_stims/complex_16_A_a.gif","images/stimuli/spore_stims/complex_11_A_b.gif"
"","5482.820000000065","survey-likert","150","520056","0.0-36.0","SS1619740108345","similarity_question","","","","","","","","","","","","{""Q0"":2}","[0]","","images/stimuli/spore_stims/complex_01_A_b.gif","images/stimuli/spore_stims/complex_02_A_a.gif"
"","7610.599999999977","survey-likert","151","527669","0.0-37.0","SS1619740108345","similarity_question","","","","","","","","","","","","{""Q0"":6}","[0]","","images/stimuli/spore_stims/simple_10_A_b.gif","images/stimuli/spore_stims/simple_08_A_a.gif"
"","3880.5350000002654","survey-likert","152","531552","0.0-38.0","SS1619740108345","similarity_question","","","","","","","","","","","","{""Q0"":4}","[0]","","images/stimuli/spore_stims/simple_11_A_a.gif","images/stimuli/spore_stims/simple_20_A_b.gif"
"","13529.399999999441","survey-likert","153","545084","0.0-39.0","SS1619740108345","similarity_question","","","","","","","","","","","","{""Q0"":0}","[0]","","images/stimuli/spore_stims/complex_04_A_b.gif","images/stimuli/spore_stims/complex_15_A_a.gif"
"","3068.9549999997253","survey-likert","154","548155","0.0-40.0","SS1619740108345","similarity_question","","","","","","","","","","","","{""Q0"":4}","[0]","","images/stimuli/spore_stims/simple_19_A_b.gif","images/stimuli/spore_stims/simple_14_A_a.gif"
"","12999.56500000006","survey-likert","155","561157","0.0-41.0","SS1619740108345","similarity_question","","","","","","","","","","","","{""Q0"":1}","[0]","","images/stimuli/spore_stims/complex_03_A_b.gif","images/stimuli/spore_stims/complex_07_A_a.gif"
"","7210.764999999781","survey-likert","156","568370","0.0-42.0","SS1619740108345","similarity_question","","","","","","","","","","","","{""Q0"":2}","[0]","","images/stimuli/spore_stims/complex_20_A_a.gif","images/stimuli/spore_stims/complex_02_A_b.gif"
"","2948.294999999227","survey-likert","157","571321","0.0-43.0","SS1619740108345","similarity_question","","","","","","","","","","","","{""Q0"":5}","[0]","","images/stimuli/spore_stims/simple_01_A_b.gif","images/stimuli/spore_stims/simple_15_A_a.gif"
"","2337.609999999637","survey-likert","158","573661","0.0-44.0","SS1619740108345","similarity_question","","","","","","","","","","","","{""Q0"":4}","[0]","","images/stimuli/spore_stims/simple_17_A_b.gif","images/stimuli/spore_stims/simple_19_A_a.gif"
"[{""page_index"":0,""viewing_time"":4917.61500000034}]","4917.84999999986","instructions","159","578581","0.0-45.0","SS1619740108345","instructions","","","","","","","","","","","","","","","",""
"","5694.625000000116","survey-likert","160","584278","0.0-46.0","SS1619740108345","","","","","","","","","images/stimuli/spore_stims/complex_01_A_b.gif","","","","{""Q0"":4}","[0]","","",""
"","3502.304999999935","survey-likert","161","587782","0.0-47.0","SS1619740108345","","","","","","","","","images/stimuli/spore_stims/simple_19_A_b.gif","","","","{""Q0"":2}","[0]","","",""
"","2295.430000000051","survey-likert","162","590080","0.0-48.0","SS1619740108345","","","","","","","","","images/stimuli/spore_stims/simple_08_A_a.gif","","","","{""Q0"":0}","[0]","","",""
"","3338.7950000005076","survey-likert","163","593421","0.0-49.0","SS1619740108345","","","","","","","","","images/stimuli/spore_stims/simple_11_A_a.gif","","","","{""Q0"":1}","[0]","","",""
"","4746.554999999702","survey-likert","164","598170","0.0-50.0","SS1619740108345","","","","","","","","","images/stimuli/spore_stims/complex_15_A_a.gif","","","","{""Q0"":5}","[0]","","",""
"","2747.9700000004377","survey-likert","165","600920","0.0-51.0","SS1619740108345","","","","","","","","","images/stimuli/spore_stims/complex_16_A_a.gif","","","","{""Q0"":6}","[0]","","",""
"","2452.5849999999627","survey-likert","166","603376","0.0-52.0","SS1619740108345","","","","","","","","","images/stimuli/spore_stims/complex_03_A_b.gif","","","","{""Q0"":5}","[0]","","",""
"","2496.3850000003586","survey-likert","167","605874","0.0-53.0","SS1619740108345","","","","","","","","","images/stimuli/spore_stims/complex_20_A_a.gif","","","","{""Q0"":5}","[0]","","",""
"","3140.179999999469","survey-likert","168","609017","0.0-54.0","SS1619740108345","","","","","","","","","images/stimuli/spore_stims/simple_19_A_a.gif","","","","{""Q0"":2}","[0]","","",""
"","2302.760000000475","survey-likert","169","611322","0.0-55.0","SS1619740108345","","","","","","","","","images/stimuli/spore_stims/simple_15_A_a.gif","","","","{""Q0"":1}","[0]","","",""
"","2240.7200000006706","survey-likert","170","613565","0.0-56.0","SS1619740108345","","","","","","","","","images/stimuli/spore_stims/simple_10_A_a.gif","","","","{""Q0"":0}","[0]","","",""
"","2769.4199999995762","survey-likert","171","616337","0.0-57.0","SS1619740108345","","","","","","","","","images/stimuli/spore_stims/complex_08_A_b.gif","","","","{""Q0"":5}","[0]","","",""
"[{""page_index"":0,""viewing_time"":2526.66500000027}]","2526.8900000001304","instructions","172","618866","0.0-58.0","SS1619740108345","instructions","","","","","","","","","","","","","","","",""
"","2952.099999999511","demog-age","173","621821","0.0-59.0","SS1619740108345","","","","","","","","","","","","","{""age"":""27""}","","","",""
"","7113.124999999767","demog-ethnic-US","174","628938","0.0-60.0","SS1619740108345","","","","","","","","","","","","","{""ethnicity"":[""Hispanic or Latino""]}","[0]","","",""
"","14505.259999999893","demog-gender-and-education","175","643446","0.0-61.0","SS1619740108345","","","","","","","","","","","","","{""gender"":""Non-binary"",""education"":""High school diploma""}","[0,1]","","",""
"","6458.2849999998","survey-text","176","649907","0.0-62.0","SS1619740108345","feedback","","","","","","","","","","","","{""Q0"":""No""}","","","",""
"[{""page_index"":0,""viewing_time"":1285.3450000003213}]","1285.5749999999534","instructions","177","651195","0.0-63.0","SS1619740108345","instructions","","","","","","","","","","","","","","","",""
