"view_history","rt","trial_type","trial_index","time_elapsed","internal_node_id","subject","stimulus_type","trial_stimulus","key_press","minimum_viewing_duration","trial_looking_time","block_deviant","block_background","exposure_type","stimulus","block_number","block_type","stimulus_displayed","responses","question_order","math_correct_answer","stimulus_left","stimulus_right"
"[{""page_index"":0,""viewing_time"":19500.219999987166}]","19500.68499997724","instructions","0","19502","0.0-0.0","SS1619739450196","","","","","","","","","","","","","","","","",""
"[{""page_index"":0,""viewing_time"":18331.810000003316},{""page_index"":1,""viewing_time"":7434.16000000434}]","25766.165000008186","instructions","1","47269","0.0-1.0","SS1619739450196","instructions","","","","","","","","","","","","","","","",""
"","18884.87000000896","sequential-stimulus-presentation-old","2","66657","0.0-2.0","SS1619739450196","","","40","500","19384.87000000896","null","null","self_paced","","","","","","","","",""
"","6053.134999994654","sequential-stimulus-presentation-old","3","73225","0.0-3.0","SS1619739450196","","","40","500","6553.134999994654","null","null","self_paced","","","","","","","","",""
"[{""page_index"":0,""viewing_time"":31253.3800000092}]","31253.595000016503","instructions","4","104479","0.0-4.0","SS1619739450196","instructions","","","","","","","","","","","","","","","",""
"","816.274999990128","sequential-stimulus-presentation-old","5","120306","0.0-5.0","SS1619739450196","","","40","500","1316.274999990128","null","null","forced_long","","","","","","","","",""
"","5034.500000008848","sequential-stimulus-presentation-old","6","125850","0.0-6.0","SS1619739450196","","","40","500","5534.500000008848","null","null","forced_long","","","","","","","","",""
"[{""page_index"":0,""viewing_time"":5087.564999994356}]","5087.774999992689","instructions","7","130938","0.0-7.0","SS1619739450196","instructions","","","","","","","","","","","","","","","",""
"[{""page_index"":0,""viewing_time"":14032.71999998833},{""page_index"":1,""viewing_time"":16057.945000007749},{""page_index"":2,""viewing_time"":7679.954999999609},{""page_index"":3,""viewing_time"":2558.095000014873},{""page_index"":4,""viewing_time"":2346.04499998386}]","42674.98499999056","instructions","8","173613","0.0-8.0","SS1619739450196","instructions","","","","","","","","","","","","","","","",""
"","null","html-keyboard-response","9","174850","0.0-9.0-0.0","SS1619739450196","","","null","","","","","","<p><img src= images/blank.png width =""600"" height = ""600"" style=""position:fixed;top:50%; left:50%; transform: translate(-50%, -50%); border:5px solid black"">","","","","","","","",""
"","11392.980000004172","sequential-stimulus-presentation-old","10","186753","0.0-9.0-1.0","SS1619739450196","trial","","40","500","11892.980000004172","images/stimuli/spore_stims/simple_12_A_a.gif","images/stimuli/spore_stims/simple_16_A_b.gif","self_paced","","0","simple_dissimilar","images/stimuli/spore_stims/simple_16_A_b.gif","","","","",""
"","null","html-keyboard-response","11","187896","0.0-9.0-0.1","SS1619739450196","","","null","","","","","","<p><img src= images/blank.png width =""600"" height = ""600"" style=""position:fixed;top:50%; left:50%; transform: translate(-50%, -50%); border:5px solid black"">","","","","","","","",""
"","5714.529999997467","sequential-stimulus-presentation-old","12","194121","0.0-9.0-1.1","SS1619739450196","trial","","40","500","6214.529999997467","images/stimuli/spore_stims/simple_12_A_a.gif","images/stimuli/spore_stims/simple_16_A_b.gif","self_paced","","0","simple_dissimilar","images/stimuli/spore_stims/simple_12_A_a.gif","","","","",""
"","null","html-keyboard-response","13","195046","0.0-9.0-0.2","SS1619739450196","","","null","","","","","","<p><img src= images/blank.png width =""600"" height = ""600"" style=""position:fixed;top:50%; left:50%; transform: translate(-50%, -50%); border:5px solid black"">","","","","","","","",""
"","5802.539999975124","sequential-stimulus-presentation-old","14","201361","0.0-9.0-1.2","SS1619739450196","trial","","40","500","6302.539999975124","images/stimuli/spore_stims/simple_12_A_a.gif","images/stimuli/spore_stims/simple_16_A_b.gif","self_paced","","0","simple_dissimilar","images/stimuli/spore_stims/simple_12_A_a.gif","","","","",""
"","null","html-keyboard-response","15","202282","0.0-9.0-0.3","SS1619739450196","","","null","","","","","","<p><img src= images/blank.png width =""600"" height = ""600"" style=""position:fixed;top:50%; left:50%; transform: translate(-50%, -50%); border:5px solid black"">","","","","","","","",""
"","54328.84999999078","sequential-stimulus-presentation-old","16","257113","0.0-9.0-1.3","SS1619739450196","trial","","40","500","54828.84999999078","images/stimuli/spore_stims/simple_12_A_a.gif","images/stimuli/spore_stims/simple_16_A_b.gif","self_paced","","0","simple_dissimilar","images/stimuli/spore_stims/simple_16_A_b.gif","","","","",""
"","4936.5949999773875","survey-multi-choice","17","262051","0.0-10.0","SS1619739450196","math_question","","","","","","","","","","","","{""Q0"":""10""}","[0]","10","",""
"","null","html-keyboard-response","18","263235","0.0-11.0-0.0","SS1619739450196","","","null","","","","","","<p><img src= images/blank.png width =""600"" height = ""600"" style=""position:fixed;top:50%; left:50%; transform: translate(-50%, -50%); border:5px solid black"">","","","","","","","",""
"","3763.6550000170246","sequential-stimulus-presentation-old","19","267513","0.0-11.0-1.0","SS1619739450196","trial","","40","500","4263.655000017025","images/stimuli/spore_stims/complex_12_A_a.gif","images/stimuli/spore_stims/complex_17_A_b.gif","forced_short","","1","complex_dissimilar","images/stimuli/spore_stims/complex_17_A_b.gif","","","","",""
"","null","html-keyboard-response","20","268689","0.0-11.0-0.1","SS1619739450196","","","null","","","","","","<p><img src= images/blank.png width =""600"" height = ""600"" style=""position:fixed;top:50%; left:50%; transform: translate(-50%, -50%); border:5px solid black"">","","","","","","","",""
"","35646.710000000894","sequential-stimulus-presentation-old","21","304849","0.0-11.0-1.1","SS1619739450196","trial","","40","500","36146.710000000894","images/stimuli/spore_stims/complex_12_A_a.gif","images/stimuli/spore_stims/complex_17_A_b.gif","forced_short","","1","complex_dissimilar","images/stimuli/spore_stims/complex_17_A_b.gif","","","","",""
"","null","html-keyboard-response","22","306082","0.0-11.0-0.2","SS1619739450196","","","null","","","","","","<p><img src= images/blank.png width =""600"" height = ""600"" style=""position:fixed;top:50%; left:50%; transform: translate(-50%, -50%); border:5px solid black"">","","","","","","","",""
"","21127.18500001938","sequential-stimulus-presentation-old","23","327712","0.0-11.0-1.2","SS1619739450196","trial","","40","500","21627.18500001938","images/stimuli/spore_stims/complex_12_A_a.gif","images/stimuli/spore_stims/complex_17_A_b.gif","forced_short","","1","complex_dissimilar","images/stimuli/spore_stims/complex_12_A_a.gif","","","","",""
"","null","html-keyboard-response","24","328896","0.0-11.0-0.3","SS1619739450196","","","null","","","","","","<p><img src= images/blank.png width =""600"" height = ""600"" style=""position:fixed;top:50%; left:50%; transform: translate(-50%, -50%); border:5px solid black"">","","","","","","","",""
"","16130.054999986896","sequential-stimulus-presentation-old","25","345528","0.0-11.0-1.3","SS1619739450196","trial","","40","500","16630.054999986896","images/stimuli/spore_stims/complex_12_A_a.gif","images/stimuli/spore_stims/complex_17_A_b.gif","forced_short","","1","complex_dissimilar","images/stimuli/spore_stims/complex_12_A_a.gif","","","","",""
"","3377.4200000043493","survey-multi-choice","26","348907","0.0-12.0","SS1619739450196","math_question","","","","","","","","","","","","{""Q0"":""3""}","[0]","3","",""
"","null","html-keyboard-response","27","350053","0.0-13.0-0.0","SS1619739450196","","","null","","","","","","<p><img src= images/blank.png width =""600"" height = ""600"" style=""position:fixed;top:50%; left:50%; transform: translate(-50%, -50%); border:5px solid black"">","","","","","","","",""
"","16149.654999986524","sequential-stimulus-presentation-old","28","366704","0.0-13.0-1.0","SS1619739450196","trial","","40","500","16649.654999986524","images/stimuli/spore_stims/complex_08_A_b.gif","images/stimuli/spore_stims/complex_14_A_a.gif","self_paced","","2","complex_dissimilar","images/stimuli/spore_stims/complex_14_A_a.gif","","","","",""
"","null","html-keyboard-response","29","367831","0.0-13.0-0.1","SS1619739450196","","","null","","","","","","<p><img src= images/blank.png width =""600"" height = ""600"" style=""position:fixed;top:50%; left:50%; transform: translate(-50%, -50%); border:5px solid black"">","","","","","","","",""
"","9163.49999999511","sequential-stimulus-presentation-old","30","377497","0.0-13.0-1.1","SS1619739450196","trial","","40","500","9663.49999999511","images/stimuli/spore_stims/complex_08_A_b.gif","images/stimuli/spore_stims/complex_14_A_a.gif","self_paced","","2","complex_dissimilar","images/stimuli/spore_stims/complex_14_A_a.gif","","","","",""
"","null","html-keyboard-response","31","378389","0.0-13.0-0.2","SS1619739450196","","","null","","","","","","<p><img src= images/blank.png width =""600"" height = ""600"" style=""position:fixed;top:50%; left:50%; transform: translate(-50%, -50%); border:5px solid black"">","","","","","","","",""
"","14949.224999989383","sequential-stimulus-presentation-old","32","393840","0.0-13.0-1.2","SS1619739450196","trial","","40","500","15449.224999989383","images/stimuli/spore_stims/complex_08_A_b.gif","images/stimuli/spore_stims/complex_14_A_a.gif","self_paced","","2","complex_dissimilar","images/stimuli/spore_stims/complex_14_A_a.gif","","","","",""
"","null","html-keyboard-response","33","394939","0.0-13.0-0.3","SS1619739450196","","","null","","","","","","<p><img src= images/blank.png width =""600"" height = ""600"" style=""position:fixed;top:50%; left:50%; transform: translate(-50%, -50%); border:5px solid black"">","","","","","","","",""
"","21812.97500000801","sequential-stimulus-presentation-old","34","417256","0.0-13.0-1.3","SS1619739450196","trial","","40","500","22312.97500000801","images/stimuli/spore_stims/complex_08_A_b.gif","images/stimuli/spore_stims/complex_14_A_a.gif","self_paced","","2","complex_dissimilar","images/stimuli/spore_stims/complex_14_A_a.gif","","","","",""
"","null","html-keyboard-response","35","418370","0.0-13.0-0.4","SS1619739450196","","","null","","","","","","<p><img src= images/blank.png width =""600"" height = ""600"" style=""position:fixed;top:50%; left:50%; transform: translate(-50%, -50%); border:5px solid black"">","","","","","","","",""
"","11892.214999999851","sequential-stimulus-presentation-old","36","430776","0.0-13.0-1.4","SS1619739450196","trial","","40","500","12392.214999999851","images/stimuli/spore_stims/complex_08_A_b.gif","images/stimuli/spore_stims/complex_14_A_a.gif","self_paced","","2","complex_dissimilar","images/stimuli/spore_stims/complex_08_A_b.gif","","","","",""
"","5493.095000012545","survey-multi-choice","37","436270","0.0-14.0","SS1619739450196","math_question","","","","","","","","","","","","{""Q0"":""15""}","[0]","15","",""
"","null","html-keyboard-response","38","437251","0.0-15.0-0.0","SS1619739450196","","","null","","","","","","<p><img src= images/blank.png width =""600"" height = ""600"" style=""position:fixed;top:50%; left:50%; transform: translate(-50%, -50%); border:5px solid black"">","","","","","","","",""
"","5580.375000019558","sequential-stimulus-presentation-old","39","457840","0.0-15.0-1.0","SS1619739450196","trial","","40","500","6080.375000019558","images/stimuli/spore_stims/complex_07_A_b.gif","images/stimuli/spore_stims/complex_20_A_a.gif","forced_long","","3","complex_dissimilar","images/stimuli/spore_stims/complex_20_A_a.gif","","","","",""
"","null","html-keyboard-response","40","458739","0.0-15.0-0.1","SS1619739450196","","","null","","","","","","<p><img src= images/blank.png width =""600"" height = ""600"" style=""position:fixed;top:50%; left:50%; transform: translate(-50%, -50%); border:5px solid black"">","","","","","","","",""
"","23311.35999999242","sequential-stimulus-presentation-old","41","482560","0.0-15.0-1.1","SS1619739450196","trial","","40","500","23811.35999999242","images/stimuli/spore_stims/complex_07_A_b.gif","images/stimuli/spore_stims/complex_20_A_a.gif","forced_long","","3","complex_dissimilar","images/stimuli/spore_stims/complex_07_A_b.gif","","","","",""
"","null","html-keyboard-response","42","483551","0.0-15.0-0.2","SS1619739450196","","","null","","","","","","<p><img src= images/blank.png width =""600"" height = ""600"" style=""position:fixed;top:50%; left:50%; transform: translate(-50%, -50%); border:5px solid black"">","","","","","","","",""
"","13226.955000020098","sequential-stimulus-presentation-old","43","497280","0.0-15.0-1.2","SS1619739450196","trial","","40","500","13726.955000020098","images/stimuli/spore_stims/complex_07_A_b.gif","images/stimuli/spore_stims/complex_20_A_a.gif","forced_long","","3","complex_dissimilar","images/stimuli/spore_stims/complex_20_A_a.gif","","","","",""
"","null","html-keyboard-response","44","498229","0.0-15.0-0.3","SS1619739450196","","","null","","","","","","<p><img src= images/blank.png width =""600"" height = ""600"" style=""position:fixed;top:50%; left:50%; transform: translate(-50%, -50%); border:5px solid black"">","","","","","","","",""
"","3638.600000005681","sequential-stimulus-presentation-old","45","502376","0.0-15.0-1.3","SS1619739450196","trial","","40","500","4138.600000005681","images/stimuli/spore_stims/complex_07_A_b.gif","images/stimuli/spore_stims/complex_20_A_a.gif","forced_long","","3","complex_dissimilar","images/stimuli/spore_stims/complex_20_A_a.gif","","","","",""
"","null","html-keyboard-response","46","503413","0.0-15.0-0.4","SS1619739450196","","","null","","","","","","<p><img src= images/blank.png width =""600"" height = ""600"" style=""position:fixed;top:50%; left:50%; transform: translate(-50%, -50%); border:5px solid black"">","","","","","","","",""
"","16336.855000001378","sequential-stimulus-presentation-old","47","520265","0.0-15.0-1.4","SS1619739450196","trial","","40","500","16836.85500000138","images/stimuli/spore_stims/complex_07_A_b.gif","images/stimuli/spore_stims/complex_20_A_a.gif","forced_long","","3","complex_dissimilar","images/stimuli/spore_stims/complex_07_A_b.gif","","","","",""
"","null","html-keyboard-response","48","521471","0.0-15.0-0.5","SS1619739450196","","","null","","","","","","<p><img src= images/blank.png width =""600"" height = ""600"" style=""position:fixed;top:50%; left:50%; transform: translate(-50%, -50%); border:5px solid black"">","","","","","","","",""
"","13444.040000002133","sequential-stimulus-presentation-old","49","535417","0.0-15.0-1.5","SS1619739450196","trial","","40","500","13944.040000002133","images/stimuli/spore_stims/complex_07_A_b.gif","images/stimuli/spore_stims/complex_20_A_a.gif","forced_long","","3","complex_dissimilar","images/stimuli/spore_stims/complex_20_A_a.gif","","","","",""
"","3724.984999978915","survey-multi-choice","50","539143","0.0-16.0","SS1619739450196","math_question","","","","","","","","","","","","{""Q0"":""12""}","[0]","12","",""
"","null","html-keyboard-response","51","539996","0.0-17.0-0.0","SS1619739450196","","","null","","","","","","<p><img src= images/blank.png width =""600"" height = ""600"" style=""position:fixed;top:50%; left:50%; transform: translate(-50%, -50%); border:5px solid black"">","","","","","","","",""
"","1797.5699999951757","sequential-stimulus-presentation-old","52","542297","0.0-17.0-1.0","SS1619739450196","trial","","40","500","2297.5699999951757","images/stimuli/spore_stims/simple_05_A_a.gif","images/stimuli/spore_stims/simple_18_A_b.gif","forced_short","","4","simple_dissimilar","images/stimuli/spore_stims/simple_18_A_b.gif","","","","",""
"","null","html-keyboard-response","53","543163","0.0-17.0-0.1","SS1619739450196","","","null","","","","","","<p><img src= images/blank.png width =""600"" height = ""600"" style=""position:fixed;top:50%; left:50%; transform: translate(-50%, -50%); border:5px solid black"">","","","","","","","",""
"","17112.254999985453","sequential-stimulus-presentation-old","54","560777","0.0-17.0-1.1","SS1619739450196","trial","","40","500","17612.254999985453","images/stimuli/spore_stims/simple_05_A_a.gif","images/stimuli/spore_stims/simple_18_A_b.gif","forced_short","","4","simple_dissimilar","images/stimuli/spore_stims/simple_18_A_b.gif","","","","",""
"","null","html-keyboard-response","55","561630","0.0-17.0-0.2","SS1619739450196","","","null","","","","","","<p><img src= images/blank.png width =""600"" height = ""600"" style=""position:fixed;top:50%; left:50%; transform: translate(-50%, -50%); border:5px solid black"">","","","","","","","",""
"","13093.790000013541","sequential-stimulus-presentation-old","56","575233","0.0-17.0-1.2","SS1619739450196","trial","","40","500","13593.790000013541","images/stimuli/spore_stims/simple_05_A_a.gif","images/stimuli/spore_stims/simple_18_A_b.gif","forced_short","","4","simple_dissimilar","images/stimuli/spore_stims/simple_18_A_b.gif","","","","",""
"","null","html-keyboard-response","57","576501","0.0-17.0-0.3","SS1619739450196","","","null","","","","","","<p><img src= images/blank.png width =""600"" height = ""600"" style=""position:fixed;top:50%; left:50%; transform: translate(-50%, -50%); border:5px solid black"">","","","","","","","",""
"","13354.759999987436","sequential-stimulus-presentation-old","58","590369","0.0-17.0-1.3","SS1619739450196","trial","","40","500","13854.759999987436","images/stimuli/spore_stims/simple_05_A_a.gif","images/stimuli/spore_stims/simple_18_A_b.gif","forced_short","","4","simple_dissimilar","images/stimuli/spore_stims/simple_18_A_b.gif","","","","",""
"","null","html-keyboard-response","59","591586","0.0-17.0-0.4","SS1619739450196","","","null","","","","","","<p><img src= images/blank.png width =""600"" height = ""600"" style=""position:fixed;top:50%; left:50%; transform: translate(-50%, -50%); border:5px solid black"">","","","","","","","",""
"","9871.490000019548","sequential-stimulus-presentation-old","60","601961","0.0-17.0-1.4","SS1619739450196","trial","","40","500","10371.490000019548","images/stimuli/spore_stims/simple_05_A_a.gif","images/stimuli/spore_stims/simple_18_A_b.gif","forced_short","","4","simple_dissimilar","images/stimuli/spore_stims/simple_18_A_b.gif","","","","",""
"","null","html-keyboard-response","61","603172","0.0-17.0-0.5","SS1619739450196","","","null","","","","","","<p><img src= images/blank.png width =""600"" height = ""600"" style=""position:fixed;top:50%; left:50%; transform: translate(-50%, -50%); border:5px solid black"">","","","","","","","",""
"","15998.170000006212","sequential-stimulus-presentation-old","62","619672","0.0-17.0-1.5","SS1619739450196","trial","","40","500","16498.170000006212","images/stimuli/spore_stims/simple_05_A_a.gif","images/stimuli/spore_stims/simple_18_A_b.gif","forced_short","","4","simple_dissimilar","images/stimuli/spore_stims/simple_18_A_b.gif","","","","",""
"","3076.999999990221","survey-multi-choice","63","622751","0.0-18.0","SS1619739450196","math_question","","","","","","","","","","","","{""Q0"":""10""}","[0]","10","",""
"","null","html-keyboard-response","64","623678","0.0-19.0-0.0","SS1619739450196","","","null","","","","","","<p><img src= images/blank.png width =""600"" height = ""600"" style=""position:fixed;top:50%; left:50%; transform: translate(-50%, -50%); border:5px solid black"">","","","","","","","",""
"","6989.399999991292","sequential-stimulus-presentation-old","65","631177","0.0-19.0-1.0","SS1619739450196","trial","","40","500","7489.399999991292","images/stimuli/spore_stims/complex_12_A_b.gif","images/stimuli/spore_stims/complex_09_A_a.gif","forced_short","","5","complex_dissimilar","images/stimuli/spore_stims/complex_09_A_a.gif","","","","",""
"","null","html-keyboard-response","66","632204","0.0-19.0-0.1","SS1619739450196","","","null","","","","","","<p><img src= images/blank.png width =""600"" height = ""600"" style=""position:fixed;top:50%; left:50%; transform: translate(-50%, -50%); border:5px solid black"">","","","","","","","",""
"","15846.335000009276","sequential-stimulus-presentation-old","67","648553","0.0-19.0-1.1","SS1619739450196","trial","","40","500","16346.335000009276","images/stimuli/spore_stims/complex_12_A_b.gif","images/stimuli/spore_stims/complex_09_A_a.gif","forced_short","","5","complex_dissimilar","images/stimuli/spore_stims/complex_09_A_a.gif","","","","",""
"","null","html-keyboard-response","68","649436","0.0-19.0-0.2","SS1619739450196","","","null","","","","","","<p><img src= images/blank.png width =""600"" height = ""600"" style=""position:fixed;top:50%; left:50%; transform: translate(-50%, -50%); border:5px solid black"">","","","","","","","",""
"","7933.53500001831","sequential-stimulus-presentation-old","69","657880","0.0-19.0-1.2","SS1619739450196","trial","","40","500","8433.53500001831","images/stimuli/spore_stims/complex_12_A_b.gif","images/stimuli/spore_stims/complex_09_A_a.gif","forced_short","","5","complex_dissimilar","images/stimuli/spore_stims/complex_12_A_b.gif","","","","",""
"","null","html-keyboard-response","70","659135","0.0-19.0-0.3","SS1619739450196","","","null","","","","","","<p><img src= images/blank.png width =""600"" height = ""600"" style=""position:fixed;top:50%; left:50%; transform: translate(-50%, -50%); border:5px solid black"">","","","","","","","",""
"","9803.989999985788","sequential-stimulus-presentation-old","71","669448","0.0-19.0-1.3","SS1619739450196","trial","","40","500","10303.989999985788","images/stimuli/spore_stims/complex_12_A_b.gif","images/stimuli/spore_stims/complex_09_A_a.gif","forced_short","","5","complex_dissimilar","images/stimuli/spore_stims/complex_09_A_a.gif","","","","",""
"","null","html-keyboard-response","72","670544","0.0-19.0-0.4","SS1619739450196","","","null","","","","","","<p><img src= images/blank.png width =""600"" height = ""600"" style=""position:fixed;top:50%; left:50%; transform: translate(-50%, -50%); border:5px solid black"">","","","","","","","",""
"","12603.285000019241","sequential-stimulus-presentation-old","73","683656","0.0-19.0-1.4","SS1619739450196","trial","","40","500","13103.285000019241","images/stimuli/spore_stims/complex_12_A_b.gif","images/stimuli/spore_stims/complex_09_A_a.gif","forced_short","","5","complex_dissimilar","images/stimuli/spore_stims/complex_12_A_b.gif","","","","",""
"","3154.9400000076275","survey-multi-choice","74","686812","0.0-20.0","SS1619739450196","math_question","","","","","","","","","","","","{""Q0"":""8""}","[0]","8","",""
"","null","html-keyboard-response","75","687796","0.0-21.0-0.0","SS1619739450196","","","null","","","","","","<p><img src= images/blank.png width =""600"" height = ""600"" style=""position:fixed;top:50%; left:50%; transform: translate(-50%, -50%); border:5px solid black"">","","","","","","","",""
"","15387.840000010328","sequential-stimulus-presentation-old","76","703688","0.0-21.0-1.0","SS1619739450196","trial","","40","500","15887.840000010328","images/stimuli/spore_stims/complex_15_A_b.gif","images/stimuli/spore_stims/complex_10_A_a.gif","self_paced","","6","complex_dissimilar","images/stimuli/spore_stims/complex_10_A_a.gif","","","","",""
"","null","html-keyboard-response","77","704879","0.0-21.0-0.1","SS1619739450196","","","null","","","","","","<p><img src= images/blank.png width =""600"" height = ""600"" style=""position:fixed;top:50%; left:50%; transform: translate(-50%, -50%); border:5px solid black"">","","","","","","","",""
"","9442.339999979595","sequential-stimulus-presentation-old","78","714824","0.0-21.0-1.1","SS1619739450196","trial","","40","500","9942.339999979595","images/stimuli/spore_stims/complex_15_A_b.gif","images/stimuli/spore_stims/complex_10_A_a.gif","self_paced","","6","complex_dissimilar","images/stimuli/spore_stims/complex_10_A_a.gif","","","","",""
"","null","html-keyboard-response","79","715872","0.0-21.0-0.2","SS1619739450196","","","null","","","","","","<p><img src= images/blank.png width =""600"" height = ""600"" style=""position:fixed;top:50%; left:50%; transform: translate(-50%, -50%); border:5px solid black"">","","","","","","","",""
"","9698.085000010906","sequential-stimulus-presentation-old","80","726073","0.0-21.0-1.2","SS1619739450196","trial","","40","500","10198.085000010906","images/stimuli/spore_stims/complex_15_A_b.gif","images/stimuli/spore_stims/complex_10_A_a.gif","self_paced","","6","complex_dissimilar","images/stimuli/spore_stims/complex_10_A_a.gif","","","","",""
"","null","html-keyboard-response","81","727144","0.0-21.0-0.3","SS1619739450196","","","null","","","","","","<p><img src= images/blank.png width =""600"" height = ""600"" style=""position:fixed;top:50%; left:50%; transform: translate(-50%, -50%); border:5px solid black"">","","","","","","","",""
"","8186.4549999882","sequential-stimulus-presentation-old","82","735832","0.0-21.0-1.3","SS1619739450196","trial","","40","500","8686.4549999882","images/stimuli/spore_stims/complex_15_A_b.gif","images/stimuli/spore_stims/complex_10_A_a.gif","self_paced","","6","complex_dissimilar","images/stimuli/spore_stims/complex_10_A_a.gif","","","","",""
"","null","html-keyboard-response","83","737059","0.0-21.0-0.4","SS1619739450196","","","null","","","","","","<p><img src= images/blank.png width =""600"" height = ""600"" style=""position:fixed;top:50%; left:50%; transform: translate(-50%, -50%); border:5px solid black"">","","","","","","","",""
"","2323.2549999956973","sequential-stimulus-presentation-old","84","739897","0.0-21.0-1.4","SS1619739450196","trial","","40","500","2823.2549999956973","images/stimuli/spore_stims/complex_15_A_b.gif","images/stimuli/spore_stims/complex_10_A_a.gif","self_paced","","6","complex_dissimilar","images/stimuli/spore_stims/complex_10_A_a.gif","","","","",""
"","null","html-keyboard-response","85","741161","0.0-21.0-0.5","SS1619739450196","","","null","","","","","","<p><img src= images/blank.png width =""600"" height = ""600"" style=""position:fixed;top:50%; left:50%; transform: translate(-50%, -50%); border:5px solid black"">","","","","","","","",""
"","7667.075000004843","sequential-stimulus-presentation-old","86","749344","0.0-21.0-1.5","SS1619739450196","trial","","40","500","8167.075000004843","images/stimuli/spore_stims/complex_15_A_b.gif","images/stimuli/spore_stims/complex_10_A_a.gif","self_paced","","6","complex_dissimilar","images/stimuli/spore_stims/complex_10_A_a.gif","","","","",""
"","4101.430000009714","survey-multi-choice","87","753447","0.0-22.0","SS1619739450196","math_question","","","","","","","","","","","","{""Q0"":""16""}","[0]","12","",""
"","null","html-keyboard-response","88","754571","0.0-23.0-0.0","SS1619739450196","","","null","","","","","","<p><img src= images/blank.png width =""600"" height = ""600"" style=""position:fixed;top:50%; left:50%; transform: translate(-50%, -50%); border:5px solid black"">","","","","","","","",""
"","6758.369999995921","sequential-stimulus-presentation-old","89","761832","0.0-23.0-1.0","SS1619739450196","trial","","40","500","7258.369999995921","images/stimuli/spore_stims/simple_05_A_b.gif","images/stimuli/spore_stims/simple_09_A_a.gif","forced_short","","7","simple_dissimilar","images/stimuli/spore_stims/simple_09_A_a.gif","","","","",""
"","null","html-keyboard-response","90","762948","0.0-23.0-0.1","SS1619739450196","","","null","","","","","","<p><img src= images/blank.png width =""600"" height = ""600"" style=""position:fixed;top:50%; left:50%; transform: translate(-50%, -50%); border:5px solid black"">","","","","","","","",""
"","9014.815000002272","sequential-stimulus-presentation-old","91","772465","0.0-23.0-1.1","SS1619739450196","trial","","40","500","9514.815000002272","images/stimuli/spore_stims/simple_05_A_b.gif","images/stimuli/spore_stims/simple_09_A_a.gif","forced_short","","7","simple_dissimilar","images/stimuli/spore_stims/simple_09_A_a.gif","","","","",""
"","null","html-keyboard-response","92","773493","0.0-23.0-0.2","SS1619739450196","","","null","","","","","","<p><img src= images/blank.png width =""600"" height = ""600"" style=""position:fixed;top:50%; left:50%; transform: translate(-50%, -50%); border:5px solid black"">","","","","","","","",""
"","7056.559999997262","sequential-stimulus-presentation-old","93","781064","0.0-23.0-1.2","SS1619739450196","trial","","40","500","7556.559999997262","images/stimuli/spore_stims/simple_05_A_b.gif","images/stimuli/spore_stims/simple_09_A_a.gif","forced_short","","7","simple_dissimilar","images/stimuli/spore_stims/simple_05_A_b.gif","","","","",""
"","null","html-keyboard-response","94","782041","0.0-23.0-0.3","SS1619739450196","","","null","","","","","","<p><img src= images/blank.png width =""600"" height = ""600"" style=""position:fixed;top:50%; left:50%; transform: translate(-50%, -50%); border:5px solid black"">","","","","","","","",""
"","4558.569999993779","sequential-stimulus-presentation-old","95","787113","0.0-23.0-1.3","SS1619739450196","trial","","40","500","5058.569999993779","images/stimuli/spore_stims/simple_05_A_b.gif","images/stimuli/spore_stims/simple_09_A_a.gif","forced_short","","7","simple_dissimilar","images/stimuli/spore_stims/simple_05_A_b.gif","","","","",""
"","null","html-keyboard-response","96","787925","0.0-23.0-0.4","SS1619739450196","","","null","","","","","","<p><img src= images/blank.png width =""600"" height = ""600"" style=""position:fixed;top:50%; left:50%; transform: translate(-50%, -50%); border:5px solid black"">","","","","","","","",""
"","8684.600000007777","sequential-stimulus-presentation-old","97","797120","0.0-23.0-1.4","SS1619739450196","trial","","40","500","9184.600000007777","images/stimuli/spore_stims/simple_05_A_b.gif","images/stimuli/spore_stims/simple_09_A_a.gif","forced_short","","7","simple_dissimilar","images/stimuli/spore_stims/simple_09_A_a.gif","","","","",""
"","null","html-keyboard-response","98","798118","0.0-23.0-0.5","SS1619739450196","","","null","","","","","","<p><img src= images/blank.png width =""600"" height = ""600"" style=""position:fixed;top:50%; left:50%; transform: translate(-50%, -50%); border:5px solid black"">","","","","","","","",""
"","2883.304999995744","sequential-stimulus-presentation-old","99","801504","0.0-23.0-1.5","SS1619739450196","trial","","40","500","3383.304999995744","images/stimuli/spore_stims/simple_05_A_b.gif","images/stimuli/spore_stims/simple_09_A_a.gif","forced_short","","7","simple_dissimilar","images/stimuli/spore_stims/simple_09_A_a.gif","","","","",""
"","4192.790000000969","survey-multi-choice","100","805699","0.0-24.0","SS1619739450196","math_question","","","","","","","","","","","","{""Q0"":""10""}","[0]","10","",""
"","null","html-keyboard-response","101","806743","0.0-25.0-0.0","SS1619739450196","","","null","","","","","","<p><img src= images/blank.png width =""600"" height = ""600"" style=""position:fixed;top:50%; left:50%; transform: translate(-50%, -50%); border:5px solid black"">","","","","","","","",""
"","22034.989999985555","sequential-stimulus-presentation-old","102","829288","0.0-25.0-1.0","SS1619739450196","trial","","40","500","22534.989999985555","images/stimuli/spore_stims/simple_07_A_b.gif","images/stimuli/spore_stims/simple_15_A_a.gif","self_paced","","8","simple_dissimilar","images/stimuli/spore_stims/simple_15_A_a.gif","","","","",""
"","null","html-keyboard-response","103","830451","0.0-25.0-0.1","SS1619739450196","","","null","","","","","","<p><img src= images/blank.png width =""600"" height = ""600"" style=""position:fixed;top:50%; left:50%; transform: translate(-50%, -50%); border:5px solid black"">","","","","","","","",""
"","42886.484999995446","sequential-stimulus-presentation-old","104","873840","0.0-25.0-1.1","SS1619739450196","trial","","40","500","43386.484999995446","images/stimuli/spore_stims/simple_07_A_b.gif","images/stimuli/spore_stims/simple_15_A_a.gif","self_paced","","8","simple_dissimilar","images/stimuli/spore_stims/simple_15_A_a.gif","","","","",""
"","null","html-keyboard-response","105","875141","0.0-25.0-0.2","SS1619739450196","","","null","","","","","","<p><img src= images/blank.png width =""600"" height = ""600"" style=""position:fixed;top:50%; left:50%; transform: translate(-50%, -50%); border:5px solid black"">","","","","","","","",""
"","16886.699999973644","sequential-stimulus-presentation-old","106","892536","0.0-25.0-1.2","SS1619739450196","trial","","40","500","17386.699999973644","images/stimuli/spore_stims/simple_07_A_b.gif","images/stimuli/spore_stims/simple_15_A_a.gif","self_paced","","8","simple_dissimilar","images/stimuli/spore_stims/simple_07_A_b.gif","","","","",""
"","null","html-keyboard-response","107","893807","0.0-25.0-0.3","SS1619739450196","","","null","","","","","","<p><img src= images/blank.png width =""600"" height = ""600"" style=""position:fixed;top:50%; left:50%; transform: translate(-50%, -50%); border:5px solid black"">","","","","","","","",""
"","4481.724999990547","sequential-stimulus-presentation-old","108","898791","0.0-25.0-1.3","SS1619739450196","trial","","40","500","4981.724999990547","images/stimuli/spore_stims/simple_07_A_b.gif","images/stimuli/spore_stims/simple_15_A_a.gif","self_paced","","8","simple_dissimilar","images/stimuli/spore_stims/simple_15_A_a.gif","","","","",""
"","3636.7849999805912","survey-multi-choice","109","902431","0.0-26.0","SS1619739450196","math_question","","","","","","","","","","","","{""Q0"":""7""}","[0]","7","",""
"","null","html-keyboard-response","110","903440","0.0-27.0-0.0","SS1619739450196","","","null","","","","","","<p><img src= images/blank.png width =""600"" height = ""600"" style=""position:fixed;top:50%; left:50%; transform: translate(-50%, -50%); border:5px solid black"">","","","","","","","",""
"","2733.970000001136","sequential-stimulus-presentation-old","111","921192","0.0-27.0-1.0","SS1619739450196","trial","","40","500","3233.970000001136","images/stimuli/spore_stims/complex_16_A_b.gif","images/stimuli/spore_stims/complex_07_A_a.gif","forced_long","","9","complex_dissimilar","images/stimuli/spore_stims/complex_07_A_a.gif","","","","",""
"","null","html-keyboard-response","112","922319","0.0-27.0-0.1","SS1619739450196","","","null","","","","","","<p><img src= images/blank.png width =""600"" height = ""600"" style=""position:fixed;top:50%; left:50%; transform: translate(-50%, -50%); border:5px solid black"">","","","","","","","",""
"","22737.85500001395","sequential-stimulus-presentation-old","113","945560","0.0-27.0-1.1","SS1619739450196","trial","","40","500","23237.85500001395","images/stimuli/spore_stims/complex_16_A_b.gif","images/stimuli/spore_stims/complex_07_A_a.gif","forced_long","","9","complex_dissimilar","images/stimuli/spore_stims/complex_07_A_a.gif","","","","",""
"","null","html-keyboard-response","114","946687","0.0-27.0-0.2","SS1619739450196","","","null","","","","","","<p><img src= images/blank.png width =""600"" height = ""600"" style=""position:fixed;top:50%; left:50%; transform: translate(-50%, -50%); border:5px solid black"">","","","","","","","",""
"","5417.374999989988","sequential-stimulus-presentation-old","115","952616","0.0-27.0-1.2","SS1619739450196","trial","","40","500","5917.374999989988","images/stimuli/spore_stims/complex_16_A_b.gif","images/stimuli/spore_stims/complex_07_A_a.gif","forced_long","","9","complex_dissimilar","images/stimuli/spore_stims/complex_07_A_a.gif","","","","",""
"","null","html-keyboard-response","116","953662","0.0-27.0-0.3","SS1619739450196","","","null","","","","","","<p><img src= images/blank.png width =""600"" height = ""600"" style=""position:fixed;top:50%; left:50%; transform: translate(-50%, -50%); border:5px solid black"">","","","","","","","",""
"","4219.3699999770615","sequential-stimulus-presentation-old","117","958384","0.0-27.0-1.3","SS1619739450196","trial","","40","500","4719.3699999770615","images/stimuli/spore_stims/complex_16_A_b.gif","images/stimuli/spore_stims/complex_07_A_a.gif","forced_long","","9","complex_dissimilar","images/stimuli/spore_stims/complex_07_A_a.gif","","","","",""
"","null","html-keyboard-response","118","959581","0.0-27.0-0.4","SS1619739450196","","","null","","","","","","<p><img src= images/blank.png width =""600"" height = ""600"" style=""position:fixed;top:50%; left:50%; transform: translate(-50%, -50%); border:5px solid black"">","","","","","","","",""
"","10986.470000003465","sequential-stimulus-presentation-old","119","971072","0.0-27.0-1.4","SS1619739450196","trial","","40","500","11486.470000003465","images/stimuli/spore_stims/complex_16_A_b.gif","images/stimuli/spore_stims/complex_07_A_a.gif","forced_long","","9","complex_dissimilar","images/stimuli/spore_stims/complex_16_A_b.gif","","","","",""
"","3236.36500001885","survey-multi-choice","120","974310","0.0-28.0","SS1619739450196","math_question","","","","","","","","","","","","{""Q0"":""10""}","[0]","10","",""
"","null","html-keyboard-response","121","975424","0.0-29.0-0.0","SS1619739450196","","","null","","","","","","<p><img src= images/blank.png width =""600"" height = ""600"" style=""position:fixed;top:50%; left:50%; transform: translate(-50%, -50%); border:5px solid black"">","","","","","","","",""
"","1037.0600000023842","sequential-stimulus-presentation-old","122","991464","0.0-29.0-1.0","SS1619739450196","trial","","40","500","1537.0600000023842","images/stimuli/spore_stims/simple_12_A_b.gif","images/stimuli/spore_stims/simple_20_A_a.gif","forced_long","","10","simple_dissimilar","images/stimuli/spore_stims/simple_20_A_a.gif","","","","",""
"","null","html-keyboard-response","123","992579","0.0-29.0-0.1","SS1619739450196","","","null","","","","","","<p><img src= images/blank.png width =""600"" height = ""600"" style=""position:fixed;top:50%; left:50%; transform: translate(-50%, -50%); border:5px solid black"">","","","","","","","",""
"","3949.9049999867566","sequential-stimulus-presentation-old","124","997032","0.0-29.0-1.1","SS1619739450196","trial","","40","500","4449.904999986757","images/stimuli/spore_stims/simple_12_A_b.gif","images/stimuli/spore_stims/simple_20_A_a.gif","forced_long","","10","simple_dissimilar","images/stimuli/spore_stims/simple_20_A_a.gif","","","","",""
"","null","html-keyboard-response","125","998116","0.0-29.0-0.2","SS1619739450196","","","null","","","","","","<p><img src= images/blank.png width =""600"" height = ""600"" style=""position:fixed;top:50%; left:50%; transform: translate(-50%, -50%); border:5px solid black"">","","","","","","","",""
"","5100.009999994654","sequential-stimulus-presentation-old","126","1003728","0.0-29.0-1.2","SS1619739450196","trial","","40","500","5600.009999994654","images/stimuli/spore_stims/simple_12_A_b.gif","images/stimuli/spore_stims/simple_20_A_a.gif","forced_long","","10","simple_dissimilar","images/stimuli/spore_stims/simple_12_A_b.gif","","","","",""
"","null","html-keyboard-response","127","1004659","0.0-29.0-0.3","SS1619739450196","","","null","","","","","","<p><img src= images/blank.png width =""600"" height = ""600"" style=""position:fixed;top:50%; left:50%; transform: translate(-50%, -50%); border:5px solid black"">","","","","","","","",""
"","3683.759999985341","sequential-stimulus-presentation-old","128","1008856","0.0-29.0-1.3","SS1619739450196","trial","","40","500","4183.759999985341","images/stimuli/spore_stims/simple_12_A_b.gif","images/stimuli/spore_stims/simple_20_A_a.gif","forced_long","","10","simple_dissimilar","images/stimuli/spore_stims/simple_12_A_b.gif","","","","",""
"","3098.370000021532","survey-multi-choice","129","1011956","0.0-30.0","SS1619739450196","math_question","","","","","","","","","","","","{""Q0"":""6""}","[0]","6","",""
"","null","html-keyboard-response","130","1012998","0.0-31.0-0.0","SS1619739450196","","","null","","","","","","<p><img src= images/blank.png width =""600"" height = ""600"" style=""position:fixed;top:50%; left:50%; transform: translate(-50%, -50%); border:5px solid black"">","","","","","","","",""
"","5126.775000011548","sequential-stimulus-presentation-old","131","1033136","0.0-31.0-1.0","SS1619739450196","trial","","40","500","5626.775000011548","images/stimuli/spore_stims/simple_08_A_b.gif","images/stimuli/spore_stims/simple_01_A_a.gif","forced_long","","11","simple_dissimilar","images/stimuli/spore_stims/simple_01_A_a.gif","","","","",""
"","null","html-keyboard-response","132","1034236","0.0-31.0-0.1","SS1619739450196","","","null","","","","","","<p><img src= images/blank.png width =""600"" height = ""600"" style=""position:fixed;top:50%; left:50%; transform: translate(-50%, -50%); border:5px solid black"">","","","","","","","",""
"","2364.7449999989476","sequential-stimulus-presentation-old","133","1037104","0.0-31.0-1.1","SS1619739450196","trial","","40","500","2864.7449999989476","images/stimuli/spore_stims/simple_08_A_b.gif","images/stimuli/spore_stims/simple_01_A_a.gif","forced_long","","11","simple_dissimilar","images/stimuli/spore_stims/simple_01_A_a.gif","","","","",""
"","null","html-keyboard-response","134","1037975","0.0-31.0-0.2","SS1619739450196","","","null","","","","","","<p><img src= images/blank.png width =""600"" height = ""600"" style=""position:fixed;top:50%; left:50%; transform: translate(-50%, -50%); border:5px solid black"">","","","","","","","",""
"","1728.9600000076462","sequential-stimulus-presentation-old","135","1040216","0.0-31.0-1.2","SS1619739450196","trial","","40","500","2228.960000007646","images/stimuli/spore_stims/simple_08_A_b.gif","images/stimuli/spore_stims/simple_01_A_a.gif","forced_long","","11","simple_dissimilar","images/stimuli/spore_stims/simple_01_A_a.gif","","","","",""
"","null","html-keyboard-response","136","1041145","0.0-31.0-0.3","SS1619739450196","","","null","","","","","","<p><img src= images/blank.png width =""600"" height = ""600"" style=""position:fixed;top:50%; left:50%; transform: translate(-50%, -50%); border:5px solid black"">","","","","","","","",""
"","2548.685000016121","sequential-stimulus-presentation-old","137","1044208","0.0-31.0-1.3","SS1619739450196","trial","","40","500","3048.685000016121","images/stimuli/spore_stims/simple_08_A_b.gif","images/stimuli/spore_stims/simple_01_A_a.gif","forced_long","","11","simple_dissimilar","images/stimuli/spore_stims/simple_01_A_a.gif","","","","",""
"","null","html-keyboard-response","138","1045355","0.0-31.0-0.4","SS1619739450196","","","null","","","","","","<p><img src= images/blank.png width =""600"" height = ""600"" style=""position:fixed;top:50%; left:50%; transform: translate(-50%, -50%); border:5px solid black"">","","","","","","","",""
"","1813.1850000063423","sequential-stimulus-presentation-old","139","1047680","0.0-31.0-1.4","SS1619739450196","trial","","40","500","2313.1850000063423","images/stimuli/spore_stims/simple_08_A_b.gif","images/stimuli/spore_stims/simple_01_A_a.gif","forced_long","","11","simple_dissimilar","images/stimuli/spore_stims/simple_01_A_a.gif","","","","",""
"","null","html-keyboard-response","140","1048515","0.0-31.0-0.5","SS1619739450196","","","null","","","","","","<p><img src= images/blank.png width =""600"" height = ""600"" style=""position:fixed;top:50%; left:50%; transform: translate(-50%, -50%); border:5px solid black"">","","","","","","","",""
"","2270.6149999867193","sequential-stimulus-presentation-old","141","1051288","0.0-31.0-1.5","SS1619739450196","trial","","40","500","2770.6149999867193","images/stimuli/spore_stims/simple_08_A_b.gif","images/stimuli/spore_stims/simple_01_A_a.gif","forced_long","","11","simple_dissimilar","images/stimuli/spore_stims/simple_01_A_a.gif","","","","",""
"[{""page_index"":0,""viewing_time"":4873.790000012377}]","4874.05499999295","instructions","142","1056164","0.0-32.0","SS1619739450196","instructions","","","","","","","","","","","","","","","",""
"","11991.964999993797","survey-likert","143","1068159","0.0-33.0","SS1619739450196","similarity_question","","","","","","","","","","","","{""Q0"":4}","[0]","","images/stimuli/spore_stims/complex_12_A_b.gif","images/stimuli/spore_stims/complex_09_A_a.gif"
"","18464.91499998956","survey-likert","144","1086628","0.0-34.0","SS1619739450196","similarity_question","","","","","","","","","","","","{""Q0"":4}","[0]","","images/stimuli/spore_stims/complex_14_A_a.gif","images/stimuli/spore_stims/complex_08_A_b.gif"
"","10091.239999979734","survey-likert","145","1096724","0.0-35.0","SS1619739450196","similarity_question","","","","","","","","","","","","{""Q0"":2}","[0]","","images/stimuli/spore_stims/complex_12_A_a.gif","images/stimuli/spore_stims/complex_17_A_b.gif"
"","15749.344999989262","survey-likert","146","1112478","0.0-36.0","SS1619739450196","similarity_question","","","","","","","","","","","","{""Q0"":6}","[0]","","images/stimuli/spore_stims/simple_08_A_b.gif","images/stimuli/spore_stims/simple_01_A_a.gif"
"","3801.5549999836367","survey-likert","147","1116284","0.0-37.0","SS1619739450196","similarity_question","","","","","","","","","","","","{""Q0"":0}","[0]","","images/stimuli/spore_stims/simple_18_A_b.gif","images/stimuli/spore_stims/simple_05_A_a.gif"
"","8044.08500000136","survey-likert","148","1124334","0.0-38.0","SS1619739450196","similarity_question","","","","","","","","","","","","{""Q0"":3}","[0]","","images/stimuli/spore_stims/complex_07_A_a.gif","images/stimuli/spore_stims/complex_16_A_b.gif"
"","17665.00000000815","survey-likert","149","1142004","0.0-39.0","SS1619739450196","similarity_question","","","","","","","","","","","","{""Q0"":4}","[0]","","images/stimuli/spore_stims/complex_20_A_a.gif","images/stimuli/spore_stims/complex_07_A_b.gif"
"","9345.0249999878","survey-likert","150","1151354","0.0-40.0","SS1619739450196","similarity_question","","","","","","","","","","","","{""Q0"":1}","[0]","","images/stimuli/spore_stims/simple_07_A_b.gif","images/stimuli/spore_stims/simple_15_A_a.gif"
"","6231.205000018235","survey-likert","151","1157590","0.0-41.0","SS1619739450196","similarity_question","","","","","","","","","","","","{""Q0"":4}","[0]","","images/stimuli/spore_stims/simple_16_A_b.gif","images/stimuli/spore_stims/simple_12_A_a.gif"
"","14431.220000027679","survey-likert","152","1172026","0.0-42.0","SS1619739450196","similarity_question","","","","","","","","","","","","{""Q0"":2}","[0]","","images/stimuli/spore_stims/complex_10_A_a.gif","images/stimuli/spore_stims/complex_15_A_b.gif"
"","9873.099999997066","survey-likert","153","1181904","0.0-43.0","SS1619739450196","similarity_question","","","","","","","","","","","","{""Q0"":1}","[0]","","images/stimuli/spore_stims/simple_05_A_b.gif","images/stimuli/spore_stims/simple_09_A_a.gif"
"","5632.580000004964","survey-likert","154","1187542","0.0-44.0","SS1619739450196","similarity_question","","","","","","","","","","","","{""Q0"":5}","[0]","","images/stimuli/spore_stims/simple_12_A_b.gif","images/stimuli/spore_stims/simple_20_A_a.gif"
"[{""page_index"":0,""viewing_time"":4206.795000005513}]","4206.940000003669","instructions","155","1191753","0.0-45.0","SS1619739450196","instructions","","","","","","","","","","","","","","","",""
"","5121.769999997923","survey-likert","156","1196878","0.0-46.0","SS1619739450196","","","","","","","","","images/stimuli/spore_stims/simple_20_A_a.gif","","","","{""Q0"":2}","[0]","","",""
"","7429.564999998547","survey-likert","157","1204313","0.0-47.0","SS1619739450196","","","","","","","","","images/stimuli/spore_stims/complex_12_A_a.gif","","","","{""Q0"":6}","[0]","","",""
"","5225.189999997383","survey-likert","158","1209542","0.0-48.0","SS1619739450196","","","","","","","","","images/stimuli/spore_stims/complex_09_A_a.gif","","","","{""Q0"":5}","[0]","","",""
"","5728.354999999283","survey-likert","159","1215276","0.0-49.0","SS1619739450196","","","","","","","","","images/stimuli/spore_stims/simple_05_A_a.gif","","","","{""Q0"":0}","[0]","","",""
"","6767.354999989038","survey-likert","160","1222048","0.0-50.0","SS1619739450196","","","","","","","","","images/stimuli/spore_stims/simple_12_A_a.gif","","","","{""Q0"":1}","[0]","","",""
"","2645.0650000188034","survey-likert","161","1224698","0.0-51.0","SS1619739450196","","","","","","","","","images/stimuli/spore_stims/simple_15_A_a.gif","","","","{""Q0"":0}","[0]","","",""
"","5906.690000003437","survey-likert","162","1230610","0.0-52.0","SS1619739450196","","","","","","","","","images/stimuli/spore_stims/complex_07_A_b.gif","","","","{""Q0"":5}","[0]","","",""
"","3785.8150000101887","survey-likert","163","1234400","0.0-53.0","SS1619739450196","","","","","","","","","images/stimuli/spore_stims/complex_14_A_a.gif","","","","{""Q0"":4}","[0]","","",""
"","5308.43500001356","survey-likert","164","1239714","0.0-54.0","SS1619739450196","","","","","","","","","images/stimuli/spore_stims/simple_05_A_b.gif","","","","{""Q0"":0}","[0]","","",""
"","5342.535000003409","survey-likert","165","1245062","0.0-55.0","SS1619739450196","","","","","","","","","images/stimuli/spore_stims/simple_01_A_a.gif","","","","{""Q0"":1}","[0]","","",""
"","9845.000000001164","survey-likert","166","1254912","0.0-56.0","SS1619739450196","","","","","","","","","images/stimuli/spore_stims/complex_10_A_a.gif","","","","{""Q0"":5}","[0]","","",""
"","7421.609999990324","survey-likert","167","1262338","0.0-57.0","SS1619739450196","","","","","","","","","images/stimuli/spore_stims/complex_16_A_b.gif","","","","{""Q0"":6}","[0]","","",""
"[{""page_index"":0,""viewing_time"":2614.1000000061467}]","2614.2300000065006","instructions","168","1264956","0.0-58.0","SS1619739450196","instructions","","","","","","","","","","","","","","","",""
"","3536.0300000174902","demog-age","169","1268496","0.0-59.0","SS1619739450196","","","","","","","","","","","","","{""age"":""20""}","","","",""
"","4613.649999984773","demog-ethnic-US","170","1273114","0.0-60.0","SS1619739450196","","","","","","","","","","","","","{""ethnicity"":[""Hispanic or Latino""]}","[0]","","",""
"","26492.245000001276","demog-gender-and-education","171","1299612","0.0-61.0","SS1619739450196","","","","","","","","","","","","","{""gender"":""Female"",""education"":""High school diploma""}","[0,1]","","",""
"","208091.57999997842","survey-text","172","1507709","0.0-62.0","SS1619739450196","feedback","","","","","","","","","","","","{""Q0"":""Just i failed a sumatory. I can't one animation (disappear so fast)""}","","","",""
"[{""page_index"":0,""viewing_time"":2985.6199999921955}]","2985.759999981383","instructions","173","1510697","0.0-63.0","SS1619739450196","instructions","","","","","","","","","","","","","","","",""
