"view_history","rt","trial_type","trial_index","time_elapsed","internal_node_id","subject","stimulus_type","trial_stimulus","key_press","minimum_viewing_duration","trial_looking_time","block_deviant","block_background","exposure_type","stimulus","block_number","block_type","stimulus_displayed","responses","question_order","math_correct_answer","stimulus_left","stimulus_right"
"[{""page_index"":0,""viewing_time"":14975.720000002184}]","14976.715000004333","instructions","0","14979","0.0-0.0","SS1619743523358","","","","","","","","","","","","","","","","",""
"[{""page_index"":0,""viewing_time"":24304.230000001553},{""page_index"":1,""viewing_time"":8129.86500000261}]","32434.390000002168","instructions","1","49416","0.0-1.0","SS1619743523358","instructions","","","","","","","","","","","","","","","",""
"","7836.945000002743","sequential-stimulus-presentation-old","2","57756","0.0-2.0","SS1619743523358","","","40","500","8336.945000002743","null","null","self_paced","","","","","","","","",""
"","8489.629999996396","sequential-stimulus-presentation-old","3","66749","0.0-3.0","SS1619743523358","","","40","500","8989.629999996396","null","null","self_paced","","","","","","","","",""
"[{""page_index"":0,""viewing_time"":23446.154999997816}]","23446.38500000292","instructions","4","90197","0.0-4.0","SS1619743523358","instructions","","","","","","","","","","","","","","","",""
"","1450.525000000198","sequential-stimulus-presentation-old","5","106649","0.0-5.0","SS1619743523358","","","40","500","1950.525000000198","null","null","forced_long","","","","","","","","",""
"","4008.1199999985984","sequential-stimulus-presentation-old","6","111161","0.0-6.0","SS1619743523358","","","40","500","4508.119999998598","null","null","forced_long","","","","","","","","",""
"[{""page_index"":0,""viewing_time"":8395.409999997355}]","8395.620000002964","instructions","7","119558","0.0-7.0","SS1619743523358","instructions","","","","","","","","","","","","","","","",""
"[{""page_index"":0,""viewing_time"":20730.530000000726},{""page_index"":1,""viewing_time"":26431.079999994836},{""page_index"":2,""viewing_time"":8001.635000000533},{""page_index"":3,""viewing_time"":2467.7750000046217},{""page_index"":4,""viewing_time"":2351.9149999992806}]","59983.234999999695","instructions","8","179543","0.0-8.0","SS1619743523358","instructions","","","","","","","","","","","","","","","",""
"","null","html-keyboard-response","9","180529","0.0-9.0-0.0","SS1619743523358","","","null","","","","","","<p><img src= images/blank.png width =""600"" height = ""600"" style=""position:fixed;top:50%; left:50%; transform: translate(-50%, -50%); border:5px solid black"">","","","","","","","",""
"","13774.030000000494","sequential-stimulus-presentation-old","10","194816","0.0-9.0-1.0","SS1619743523358","trial","","40","500","14274.030000000494","images/stimuli/spore_stims/complex_15_A_b.gif","images/stimuli/spore_stims/complex_03_A_a.gif","self_paced","","0","complex_dissimilar","images/stimuli/spore_stims/complex_03_A_a.gif","","","","",""
"","null","html-keyboard-response","11","196085","0.0-9.0-0.1","SS1619743523358","","","null","","","","","","<p><img src= images/blank.png width =""600"" height = ""600"" style=""position:fixed;top:50%; left:50%; transform: translate(-50%, -50%); border:5px solid black"">","","","","","","","",""
"","11387.924999995448","sequential-stimulus-presentation-old","12","207987","0.0-9.0-1.1","SS1619743523358","trial","","40","500","11887.924999995448","images/stimuli/spore_stims/complex_15_A_b.gif","images/stimuli/spore_stims/complex_03_A_a.gif","self_paced","","0","complex_dissimilar","images/stimuli/spore_stims/complex_03_A_a.gif","","","","",""
"","null","html-keyboard-response","13","208877","0.0-9.0-0.2","SS1619743523358","","","null","","","","","","<p><img src= images/blank.png width =""600"" height = ""600"" style=""position:fixed;top:50%; left:50%; transform: translate(-50%, -50%); border:5px solid black"">","","","","","","","",""
"","7708.109999999579","sequential-stimulus-presentation-old","14","217092","0.0-9.0-1.2","SS1619743523358","trial","","40","500","8208.109999999579","images/stimuli/spore_stims/complex_15_A_b.gif","images/stimuli/spore_stims/complex_03_A_a.gif","self_paced","","0","complex_dissimilar","images/stimuli/spore_stims/complex_03_A_a.gif","","","","",""
"","null","html-keyboard-response","15","218136","0.0-9.0-0.3","SS1619743523358","","","null","","","","","","<p><img src= images/blank.png width =""600"" height = ""600"" style=""position:fixed;top:50%; left:50%; transform: translate(-50%, -50%); border:5px solid black"">","","","","","","","",""
"","10515.170000006037","sequential-stimulus-presentation-old","16","229163","0.0-9.0-1.3","SS1619743523358","trial","","40","500","11015.170000006037","images/stimuli/spore_stims/complex_15_A_b.gif","images/stimuli/spore_stims/complex_03_A_a.gif","self_paced","","0","complex_dissimilar","images/stimuli/spore_stims/complex_15_A_b.gif","","","","",""
"","8242.03000000125","survey-multi-choice","17","237409","0.0-10.0","SS1619743523358","math_question","","","","","","","","","","","","{""Q0"":""14""}","[0]","14","",""
"","null","html-keyboard-response","18","238707","0.0-11.0-0.0","SS1619743523358","","","null","","","","","","<p><img src= images/blank.png width =""600"" height = ""600"" style=""position:fixed;top:50%; left:50%; transform: translate(-50%, -50%); border:5px solid black"">","","","","","","","",""
"","13314.150000005611","sequential-stimulus-presentation-old","19","252528","0.0-11.0-1.0","SS1619743523358","trial","","40","500","13814.150000005611","images/stimuli/spore_stims/complex_07_A_a.gif","images/stimuli/spore_stims/complex_18_A_b.gif","self_paced","","1","complex_dissimilar","images/stimuli/spore_stims/complex_18_A_b.gif","","","","",""
"","null","html-keyboard-response","20","253586","0.0-11.0-0.1","SS1619743523358","","","null","","","","","","<p><img src= images/blank.png width =""600"" height = ""600"" style=""position:fixed;top:50%; left:50%; transform: translate(-50%, -50%); border:5px solid black"">","","","","","","","",""
"","7041.339999996126","sequential-stimulus-presentation-old","21","261136","0.0-11.0-1.1","SS1619743523358","trial","","40","500","7541.339999996126","images/stimuli/spore_stims/complex_07_A_a.gif","images/stimuli/spore_stims/complex_18_A_b.gif","self_paced","","1","complex_dissimilar","images/stimuli/spore_stims/complex_07_A_a.gif","","","","",""
"","null","html-keyboard-response","22","261972","0.0-11.0-0.2","SS1619743523358","","","null","","","","","","<p><img src= images/blank.png width =""600"" height = ""600"" style=""position:fixed;top:50%; left:50%; transform: translate(-50%, -50%); border:5px solid black"">","","","","","","","",""
"","5794.815000001108","sequential-stimulus-presentation-old","23","268270","0.0-11.0-1.2","SS1619743523358","trial","","40","500","6294.815000001108","images/stimuli/spore_stims/complex_07_A_a.gif","images/stimuli/spore_stims/complex_18_A_b.gif","self_paced","","1","complex_dissimilar","images/stimuli/spore_stims/complex_18_A_b.gif","","","","",""
"","null","html-keyboard-response","24","269457","0.0-11.0-0.3","SS1619743523358","","","null","","","","","","<p><img src= images/blank.png width =""600"" height = ""600"" style=""position:fixed;top:50%; left:50%; transform: translate(-50%, -50%); border:5px solid black"">","","","","","","","",""
"","5057.0800000059535","sequential-stimulus-presentation-old","25","275022","0.0-11.0-1.3","SS1619743523358","trial","","40","500","5557.0800000059535","images/stimuli/spore_stims/complex_07_A_a.gif","images/stimuli/spore_stims/complex_18_A_b.gif","self_paced","","1","complex_dissimilar","images/stimuli/spore_stims/complex_18_A_b.gif","","","","",""
"","null","html-keyboard-response","26","276228","0.0-11.0-0.4","SS1619743523358","","","null","","","","","","<p><img src= images/blank.png width =""600"" height = ""600"" style=""position:fixed;top:50%; left:50%; transform: translate(-50%, -50%); border:5px solid black"">","","","","","","","",""
"","7534.500000001572","sequential-stimulus-presentation-old","27","284269","0.0-11.0-1.4","SS1619743523358","trial","","40","500","8034.500000001572","images/stimuli/spore_stims/complex_07_A_a.gif","images/stimuli/spore_stims/complex_18_A_b.gif","self_paced","","1","complex_dissimilar","images/stimuli/spore_stims/complex_07_A_a.gif","","","","",""
"","7380.294999995385","survey-multi-choice","28","291651","0.0-12.0","SS1619743523358","math_question","","","","","","","","","","","","{""Q0"":""16""}","[0]","16","",""
"","null","html-keyboard-response","29","292479","0.0-13.0-0.0","SS1619743523358","","","null","","","","","","<p><img src= images/blank.png width =""600"" height = ""600"" style=""position:fixed;top:50%; left:50%; transform: translate(-50%, -50%); border:5px solid black"">","","","","","","","",""
"","1427.0699999979115","sequential-stimulus-presentation-old","30","308909","0.0-13.0-1.0","SS1619743523358","trial","","40","500","1927.0699999979115","images/stimuli/spore_stims/simple_01_A_b.gif","images/stimuli/spore_stims/simple_09_A_a.gif","forced_long","","2","simple_dissimilar","images/stimuli/spore_stims/simple_09_A_a.gif","","","","",""
"","null","html-keyboard-response","31","309851","0.0-13.0-0.1","SS1619743523358","","","null","","","","","","<p><img src= images/blank.png width =""600"" height = ""600"" style=""position:fixed;top:50%; left:50%; transform: translate(-50%, -50%); border:5px solid black"">","","","","","","","",""
"","18839.090000001306","sequential-stimulus-presentation-old","32","329195","0.0-13.0-1.1","SS1619743523358","trial","","40","500","19339.090000001306","images/stimuli/spore_stims/simple_01_A_b.gif","images/stimuli/spore_stims/simple_09_A_a.gif","forced_long","","2","simple_dissimilar","images/stimuli/spore_stims/simple_09_A_a.gif","","","","",""
"","null","html-keyboard-response","33","330270","0.0-13.0-0.2","SS1619743523358","","","null","","","","","","<p><img src= images/blank.png width =""600"" height = ""600"" style=""position:fixed;top:50%; left:50%; transform: translate(-50%, -50%); border:5px solid black"">","","","","","","","",""
"","8806.725000002189","sequential-stimulus-presentation-old","34","339580","0.0-13.0-1.2","SS1619743523358","trial","","40","500","9306.725000002189","images/stimuli/spore_stims/simple_01_A_b.gif","images/stimuli/spore_stims/simple_09_A_a.gif","forced_long","","2","simple_dissimilar","images/stimuli/spore_stims/simple_01_A_b.gif","","","","",""
"","null","html-keyboard-response","35","340458","0.0-13.0-0.3","SS1619743523358","","","null","","","","","","<p><img src= images/blank.png width =""600"" height = ""600"" style=""position:fixed;top:50%; left:50%; transform: translate(-50%, -50%); border:5px solid black"">","","","","","","","",""
"","11126.855000002251","sequential-stimulus-presentation-old","36","352091","0.0-13.0-1.3","SS1619743523358","trial","","40","500","11626.855000002251","images/stimuli/spore_stims/simple_01_A_b.gif","images/stimuli/spore_stims/simple_09_A_a.gif","forced_long","","2","simple_dissimilar","images/stimuli/spore_stims/simple_09_A_a.gif","","","","",""
"","null","html-keyboard-response","37","353031","0.0-13.0-0.4","SS1619743523358","","","null","","","","","","<p><img src= images/blank.png width =""600"" height = ""600"" style=""position:fixed;top:50%; left:50%; transform: translate(-50%, -50%); border:5px solid black"">","","","","","","","",""
"","7885.665000001609","sequential-stimulus-presentation-old","38","361423","0.0-13.0-1.4","SS1619743523358","trial","","40","500","8385.665000001609","images/stimuli/spore_stims/simple_01_A_b.gif","images/stimuli/spore_stims/simple_09_A_a.gif","forced_long","","2","simple_dissimilar","images/stimuli/spore_stims/simple_09_A_a.gif","","","","",""
"","null","html-keyboard-response","39","362410","0.0-13.0-0.5","SS1619743523358","","","null","","","","","","<p><img src= images/blank.png width =""600"" height = ""600"" style=""position:fixed;top:50%; left:50%; transform: translate(-50%, -50%); border:5px solid black"">","","","","","","","",""
"","5799.42999999912","sequential-stimulus-presentation-old","40","368718","0.0-13.0-1.5","SS1619743523358","trial","","40","500","6299.42999999912","images/stimuli/spore_stims/simple_01_A_b.gif","images/stimuli/spore_stims/simple_09_A_a.gif","forced_long","","2","simple_dissimilar","images/stimuli/spore_stims/simple_09_A_a.gif","","","","",""
"","4615.495000005467","survey-multi-choice","41","373337","0.0-14.0","SS1619743523358","math_question","","","","","","","","","","","","{""Q0"":""7""}","[0]","7","",""
"","null","html-keyboard-response","42","374170","0.0-15.0-0.0","SS1619743523358","","","null","","","","","","<p><img src= images/blank.png width =""600"" height = ""600"" style=""position:fixed;top:50%; left:50%; transform: translate(-50%, -50%); border:5px solid black"">","","","","","","","",""
"","1606.0849999994389","sequential-stimulus-presentation-old","43","376281","0.0-15.0-1.0","SS1619743523358","trial","","40","500","2106.084999999439","images/stimuli/spore_stims/complex_01_A_b.gif","images/stimuli/spore_stims/complex_04_A_a.gif","forced_short","","3","complex_dissimilar","images/stimuli/spore_stims/complex_04_A_a.gif","","","","",""
"","null","html-keyboard-response","44","377360","0.0-15.0-0.1","SS1619743523358","","","null","","","","","","<p><img src= images/blank.png width =""600"" height = ""600"" style=""position:fixed;top:50%; left:50%; transform: translate(-50%, -50%); border:5px solid black"">","","","","","","","",""
"","5992.81499999779","sequential-stimulus-presentation-old","45","383857","0.0-15.0-1.1","SS1619743523358","trial","","40","500","6492.81499999779","images/stimuli/spore_stims/complex_01_A_b.gif","images/stimuli/spore_stims/complex_04_A_a.gif","forced_short","","3","complex_dissimilar","images/stimuli/spore_stims/complex_04_A_a.gif","","","","",""
"","null","html-keyboard-response","46","384755","0.0-15.0-0.2","SS1619743523358","","","null","","","","","","<p><img src= images/blank.png width =""600"" height = ""600"" style=""position:fixed;top:50%; left:50%; transform: translate(-50%, -50%); border:5px solid black"">","","","","","","","",""
"","6805.269999997108","sequential-stimulus-presentation-old","47","392065","0.0-15.0-1.2","SS1619743523358","trial","","40","500","7305.269999997108","images/stimuli/spore_stims/complex_01_A_b.gif","images/stimuli/spore_stims/complex_04_A_a.gif","forced_short","","3","complex_dissimilar","images/stimuli/spore_stims/complex_04_A_a.gif","","","","",""
"","null","html-keyboard-response","48","393237","0.0-15.0-0.3","SS1619743523358","","","null","","","","","","<p><img src= images/blank.png width =""600"" height = ""600"" style=""position:fixed;top:50%; left:50%; transform: translate(-50%, -50%); border:5px solid black"">","","","","","","","",""
"","6687.689999998838","sequential-stimulus-presentation-old","49","400428","0.0-15.0-1.3","SS1619743523358","trial","","40","500","7187.689999998838","images/stimuli/spore_stims/complex_01_A_b.gif","images/stimuli/spore_stims/complex_04_A_a.gif","forced_short","","3","complex_dissimilar","images/stimuli/spore_stims/complex_01_A_b.gif","","","","",""
"","null","html-keyboard-response","50","401379","0.0-15.0-0.4","SS1619743523358","","","null","","","","","","<p><img src= images/blank.png width =""600"" height = ""600"" style=""position:fixed;top:50%; left:50%; transform: translate(-50%, -50%); border:5px solid black"">","","","","","","","",""
"","3453.1150000038906","sequential-stimulus-presentation-old","51","405337","0.0-15.0-1.4","SS1619743523358","trial","","40","500","3953.1150000038906","images/stimuli/spore_stims/complex_01_A_b.gif","images/stimuli/spore_stims/complex_04_A_a.gif","forced_short","","3","complex_dissimilar","images/stimuli/spore_stims/complex_01_A_b.gif","","","","",""
"","6120.179999998072","survey-multi-choice","52","411459","0.0-16.0","SS1619743523358","math_question","","","","","","","","","","","","{""Q0"":""17""}","[0]","17","",""
"","null","html-keyboard-response","53","412277","0.0-17.0-0.0","SS1619743523358","","","null","","","","","","<p><img src= images/blank.png width =""600"" height = ""600"" style=""position:fixed;top:50%; left:50%; transform: translate(-50%, -50%); border:5px solid black"">","","","","","","","",""
"","1018.7599999990198","sequential-stimulus-presentation-old","54","428302","0.0-17.0-1.0","SS1619743523358","trial","","40","500","1518.7599999990198","images/stimuli/spore_stims/complex_17_A_a.gif","images/stimuli/spore_stims/complex_06_A_b.gif","forced_long","","4","complex_dissimilar","images/stimuli/spore_stims/complex_06_A_b.gif","","","","",""
"","null","html-keyboard-response","55","429385","0.0-17.0-0.1","SS1619743523358","","","null","","","","","","<p><img src= images/blank.png width =""600"" height = ""600"" style=""position:fixed;top:50%; left:50%; transform: translate(-50%, -50%); border:5px solid black"">","","","","","","","",""
"","7224.010000005364","sequential-stimulus-presentation-old","56","437112","0.0-17.0-1.1","SS1619743523358","trial","","40","500","7724.010000005364","images/stimuli/spore_stims/complex_17_A_a.gif","images/stimuli/spore_stims/complex_06_A_b.gif","forced_long","","4","complex_dissimilar","images/stimuli/spore_stims/complex_17_A_a.gif","","","","",""
"","null","html-keyboard-response","57","438308","0.0-17.0-0.2","SS1619743523358","","","null","","","","","","<p><img src= images/blank.png width =""600"" height = ""600"" style=""position:fixed;top:50%; left:50%; transform: translate(-50%, -50%); border:5px solid black"">","","","","","","","",""
"","3465.7999999981257","sequential-stimulus-presentation-old","58","442280","0.0-17.0-1.2","SS1619743523358","trial","","40","500","3965.7999999981257","images/stimuli/spore_stims/complex_17_A_a.gif","images/stimuli/spore_stims/complex_06_A_b.gif","forced_long","","4","complex_dissimilar","images/stimuli/spore_stims/complex_06_A_b.gif","","","","",""
"","null","html-keyboard-response","59","443435","0.0-17.0-0.3","SS1619743523358","","","null","","","","","","<p><img src= images/blank.png width =""600"" height = ""600"" style=""position:fixed;top:50%; left:50%; transform: translate(-50%, -50%); border:5px solid black"">","","","","","","","",""
"","5949.690000001283","sequential-stimulus-presentation-old","60","449895","0.0-17.0-1.3","SS1619743523358","trial","","40","500","6449.690000001283","images/stimuli/spore_stims/complex_17_A_a.gif","images/stimuli/spore_stims/complex_06_A_b.gif","forced_long","","4","complex_dissimilar","images/stimuli/spore_stims/complex_17_A_a.gif","","","","",""
"","3948.3600000021397","survey-multi-choice","61","453846","0.0-18.0","SS1619743523358","math_question","","","","","","","","","","","","{""Q0"":""11""}","[0]","11","",""
"","null","html-keyboard-response","62","454843","0.0-19.0-0.0","SS1619743523358","","","null","","","","","","<p><img src= images/blank.png width =""600"" height = ""600"" style=""position:fixed;top:50%; left:50%; transform: translate(-50%, -50%); border:5px solid black"">","","","","","","","",""
"","4101.620000001276","sequential-stimulus-presentation-old","63","459452","0.0-19.0-1.0","SS1619743523358","trial","","40","500","4601.620000001276","images/stimuli/spore_stims/simple_09_A_b.gif","images/stimuli/spore_stims/simple_05_A_a.gif","self_paced","","5","simple_dissimilar","images/stimuli/spore_stims/simple_05_A_a.gif","","","","",""
"","null","html-keyboard-response","64","460329","0.0-19.0-0.1","SS1619743523358","","","null","","","","","","<p><img src= images/blank.png width =""600"" height = ""600"" style=""position:fixed;top:50%; left:50%; transform: translate(-50%, -50%); border:5px solid black"">","","","","","","","",""
"","2085.8700000026147","sequential-stimulus-presentation-old","65","462920","0.0-19.0-1.1","SS1619743523358","trial","","40","500","2585.8700000026147","images/stimuli/spore_stims/simple_09_A_b.gif","images/stimuli/spore_stims/simple_05_A_a.gif","self_paced","","5","simple_dissimilar","images/stimuli/spore_stims/simple_05_A_a.gif","","","","",""
"","null","html-keyboard-response","66","463937","0.0-19.0-0.2","SS1619743523358","","","null","","","","","","<p><img src= images/blank.png width =""600"" height = ""600"" style=""position:fixed;top:50%; left:50%; transform: translate(-50%, -50%); border:5px solid black"">","","","","","","","",""
"","2981.979999996838","sequential-stimulus-presentation-old","67","467430","0.0-19.0-1.2","SS1619743523358","trial","","40","500","3481.979999996838","images/stimuli/spore_stims/simple_09_A_b.gif","images/stimuli/spore_stims/simple_05_A_a.gif","self_paced","","5","simple_dissimilar","images/stimuli/spore_stims/simple_05_A_a.gif","","","","",""
"","null","html-keyboard-response","68","468536","0.0-19.0-0.3","SS1619743523358","","","null","","","","","","<p><img src= images/blank.png width =""600"" height = ""600"" style=""position:fixed;top:50%; left:50%; transform: translate(-50%, -50%); border:5px solid black"">","","","","","","","",""
"","4115.044999998645","sequential-stimulus-presentation-old","69","473160","0.0-19.0-1.3","SS1619743523358","trial","","40","500","4615.044999998645","images/stimuli/spore_stims/simple_09_A_b.gif","images/stimuli/spore_stims/simple_05_A_a.gif","self_paced","","5","simple_dissimilar","images/stimuli/spore_stims/simple_05_A_a.gif","","","","",""
"","null","html-keyboard-response","70","474073","0.0-19.0-0.4","SS1619743523358","","","null","","","","","","<p><img src= images/blank.png width =""600"" height = ""600"" style=""position:fixed;top:50%; left:50%; transform: translate(-50%, -50%); border:5px solid black"">","","","","","","","",""
"","2632.304999999178","sequential-stimulus-presentation-old","71","477213","0.0-19.0-1.4","SS1619743523358","trial","","40","500","3132.304999999178","images/stimuli/spore_stims/simple_09_A_b.gif","images/stimuli/spore_stims/simple_05_A_a.gif","self_paced","","5","simple_dissimilar","images/stimuli/spore_stims/simple_09_A_b.gif","","","","",""
"","null","html-keyboard-response","72","478144","0.0-19.0-0.5","SS1619743523358","","","null","","","","","","<p><img src= images/blank.png width =""600"" height = ""600"" style=""position:fixed;top:50%; left:50%; transform: translate(-50%, -50%); border:5px solid black"">","","","","","","","",""
"","5595.38999999495","sequential-stimulus-presentation-old","73","484246","0.0-19.0-1.5","SS1619743523358","trial","","40","500","6095.38999999495","images/stimuli/spore_stims/simple_09_A_b.gif","images/stimuli/spore_stims/simple_05_A_a.gif","self_paced","","5","simple_dissimilar","images/stimuli/spore_stims/simple_05_A_a.gif","","","","",""
"","5258.334999998624","survey-multi-choice","74","489506","0.0-20.0","SS1619743523358","math_question","","","","","","","","","","","","{""Q0"":""18""}","[0]","18","",""
"","null","html-keyboard-response","75","490773","0.0-21.0-0.0","SS1619743523358","","","null","","","","","","<p><img src= images/blank.png width =""600"" height = ""600"" style=""position:fixed;top:50%; left:50%; transform: translate(-50%, -50%); border:5px solid black"">","","","","","","","",""
"","10607.570000000123","sequential-stimulus-presentation-old","76","516399","0.0-21.0-1.0","SS1619743523358","trial","","40","500","11107.570000000123","images/stimuli/spore_stims/simple_14_A_b.gif","images/stimuli/spore_stims/simple_18_A_a.gif","forced_long","","6","simple_dissimilar","images/stimuli/spore_stims/simple_18_A_a.gif","","","","",""
"","null","html-keyboard-response","77","517599","0.0-21.0-0.1","SS1619743523358","","","null","","","","","","<p><img src= images/blank.png width =""600"" height = ""600"" style=""position:fixed;top:50%; left:50%; transform: translate(-50%, -50%); border:5px solid black"">","","","","","","","",""
"","2465.049999998824","sequential-stimulus-presentation-old","78","520570","0.0-21.0-1.1","SS1619743523358","trial","","40","500","2965.049999998824","images/stimuli/spore_stims/simple_14_A_b.gif","images/stimuli/spore_stims/simple_18_A_a.gif","forced_long","","6","simple_dissimilar","images/stimuli/spore_stims/simple_18_A_a.gif","","","","",""
"","null","html-keyboard-response","79","521509","0.0-21.0-0.2","SS1619743523358","","","null","","","","","","<p><img src= images/blank.png width =""600"" height = ""600"" style=""position:fixed;top:50%; left:50%; transform: translate(-50%, -50%); border:5px solid black"">","","","","","","","",""
"","1438.6850000009872","sequential-stimulus-presentation-old","80","523454","0.0-21.0-1.2","SS1619743523358","trial","","40","500","1938.6850000009872","images/stimuli/spore_stims/simple_14_A_b.gif","images/stimuli/spore_stims/simple_18_A_a.gif","forced_long","","6","simple_dissimilar","images/stimuli/spore_stims/simple_18_A_a.gif","","","","",""
"","null","html-keyboard-response","81","524543","0.0-21.0-0.3","SS1619743523358","","","null","","","","","","<p><img src= images/blank.png width =""600"" height = ""600"" style=""position:fixed;top:50%; left:50%; transform: translate(-50%, -50%); border:5px solid black"">","","","","","","","",""
"","2240.9800000023097","sequential-stimulus-presentation-old","82","527294","0.0-21.0-1.3","SS1619743523358","trial","","40","500","2740.9800000023097","images/stimuli/spore_stims/simple_14_A_b.gif","images/stimuli/spore_stims/simple_18_A_a.gif","forced_long","","6","simple_dissimilar","images/stimuli/spore_stims/simple_18_A_a.gif","","","","",""
"","null","html-keyboard-response","83","528576","0.0-21.0-0.4","SS1619743523358","","","null","","","","","","<p><img src= images/blank.png width =""600"" height = ""600"" style=""position:fixed;top:50%; left:50%; transform: translate(-50%, -50%); border:5px solid black"">","","","","","","","",""
"","2189.0550000026124","sequential-stimulus-presentation-old","84","531278","0.0-21.0-1.4","SS1619743523358","trial","","40","500","2689.0550000026124","images/stimuli/spore_stims/simple_14_A_b.gif","images/stimuli/spore_stims/simple_18_A_a.gif","forced_long","","6","simple_dissimilar","images/stimuli/spore_stims/simple_18_A_a.gif","","","","",""
"","null","html-keyboard-response","85","532106","0.0-21.0-0.5","SS1619743523358","","","null","","","","","","<p><img src= images/blank.png width =""600"" height = ""600"" style=""position:fixed;top:50%; left:50%; transform: translate(-50%, -50%); border:5px solid black"">","","","","","","","",""
"","2374.0000000034925","sequential-stimulus-presentation-old","86","534994","0.0-21.0-1.5","SS1619743523358","trial","","40","500","2874.0000000034925","images/stimuli/spore_stims/simple_14_A_b.gif","images/stimuli/spore_stims/simple_18_A_a.gif","forced_long","","6","simple_dissimilar","images/stimuli/spore_stims/simple_18_A_a.gif","","","","",""
"","4131.699999998091","survey-multi-choice","87","539130","0.0-22.0","SS1619743523358","math_question","","","","","","","","","","","","{""Q0"":""5""}","[0]","5","",""
"","null","html-keyboard-response","88","540053","0.0-23.0-0.0","SS1619743523358","","","null","","","","","","<p><img src= images/blank.png width =""600"" height = ""600"" style=""position:fixed;top:50%; left:50%; transform: translate(-50%, -50%); border:5px solid black"">","","","","","","","",""
"","1612.6350000050152","sequential-stimulus-presentation-old","89","542199","0.0-23.0-1.0","SS1619743523358","trial","","40","500","2112.635000005015","images/stimuli/spore_stims/simple_08_A_b.gif","images/stimuli/spore_stims/simple_16_A_a.gif","forced_short","","7","simple_dissimilar","images/stimuli/spore_stims/simple_16_A_a.gif","","","","",""
"","null","html-keyboard-response","90","543106","0.0-23.0-0.1","SS1619743523358","","","null","","","","","","<p><img src= images/blank.png width =""600"" height = ""600"" style=""position:fixed;top:50%; left:50%; transform: translate(-50%, -50%); border:5px solid black"">","","","","","","","",""
"","3485.5800000004238","sequential-stimulus-presentation-old","91","547097","0.0-23.0-1.1","SS1619743523358","trial","","40","500","3985.5800000004238","images/stimuli/spore_stims/simple_08_A_b.gif","images/stimuli/spore_stims/simple_16_A_a.gif","forced_short","","7","simple_dissimilar","images/stimuli/spore_stims/simple_16_A_a.gif","","","","",""
"","null","html-keyboard-response","92","548397","0.0-23.0-0.2","SS1619743523358","","","null","","","","","","<p><img src= images/blank.png width =""600"" height = ""600"" style=""position:fixed;top:50%; left:50%; transform: translate(-50%, -50%); border:5px solid black"">","","","","","","","",""
"","2788.5349999996834","sequential-stimulus-presentation-old","93","551701","0.0-23.0-1.2","SS1619743523358","trial","","40","500","3288.5349999996834","images/stimuli/spore_stims/simple_08_A_b.gif","images/stimuli/spore_stims/simple_16_A_a.gif","forced_short","","7","simple_dissimilar","images/stimuli/spore_stims/simple_16_A_a.gif","","","","",""
"","null","html-keyboard-response","94","552617","0.0-23.0-0.3","SS1619743523358","","","null","","","","","","<p><img src= images/blank.png width =""600"" height = ""600"" style=""position:fixed;top:50%; left:50%; transform: translate(-50%, -50%); border:5px solid black"">","","","","","","","",""
"","4731.005000001518","sequential-stimulus-presentation-old","95","557861","0.0-23.0-1.3","SS1619743523358","trial","","40","500","5231.005000001518","images/stimuli/spore_stims/simple_08_A_b.gif","images/stimuli/spore_stims/simple_16_A_a.gif","forced_short","","7","simple_dissimilar","images/stimuli/spore_stims/simple_16_A_a.gif","","","","",""
"","null","html-keyboard-response","96","558888","0.0-23.0-0.4","SS1619743523358","","","null","","","","","","<p><img src= images/blank.png width =""600"" height = ""600"" style=""position:fixed;top:50%; left:50%; transform: translate(-50%, -50%); border:5px solid black"">","","","","","","","",""
"","2323.0649999969173","sequential-stimulus-presentation-old","97","561719","0.0-23.0-1.4","SS1619743523358","trial","","40","500","2823.0649999969173","images/stimuli/spore_stims/simple_08_A_b.gif","images/stimuli/spore_stims/simple_16_A_a.gif","forced_short","","7","simple_dissimilar","images/stimuli/spore_stims/simple_16_A_a.gif","","","","",""
"","null","html-keyboard-response","98","562576","0.0-23.0-0.5","SS1619743523358","","","null","","","","","","<p><img src= images/blank.png width =""600"" height = ""600"" style=""position:fixed;top:50%; left:50%; transform: translate(-50%, -50%); border:5px solid black"">","","","","","","","",""
"","3503.770000002929","sequential-stimulus-presentation-old","99","566592","0.0-23.0-1.5","SS1619743523358","trial","","40","500","4003.770000002929","images/stimuli/spore_stims/simple_08_A_b.gif","images/stimuli/spore_stims/simple_16_A_a.gif","forced_short","","7","simple_dissimilar","images/stimuli/spore_stims/simple_16_A_a.gif","","","","",""
"","4042.0949999970617","survey-multi-choice","100","570638","0.0-24.0","SS1619743523358","math_question","","","","","","","","","","","","{""Q0"":""6""}","[0]","6","",""
"","null","html-keyboard-response","101","571786","0.0-25.0-0.0","SS1619743523358","","","null","","","","","","<p><img src= images/blank.png width =""600"" height = ""600"" style=""position:fixed;top:50%; left:50%; transform: translate(-50%, -50%); border:5px solid black"">","","","","","","","",""
"","1684.4899999996414","sequential-stimulus-presentation-old","102","573981","0.0-25.0-1.0","SS1619743523358","trial","","40","500","2184.4899999996414","images/stimuli/spore_stims/simple_17_A_a.gif","images/stimuli/spore_stims/simple_19_A_b.gif","forced_short","","8","simple_dissimilar","images/stimuli/spore_stims/simple_19_A_b.gif","","","","",""
"","null","html-keyboard-response","103","575095","0.0-25.0-0.1","SS1619743523358","","","null","","","","","","<p><img src= images/blank.png width =""600"" height = ""600"" style=""position:fixed;top:50%; left:50%; transform: translate(-50%, -50%); border:5px solid black"">","","","","","","","",""
"","3497.2049999997253","sequential-stimulus-presentation-old","104","579108","0.0-25.0-1.1","SS1619743523358","trial","","40","500","3997.2049999997253","images/stimuli/spore_stims/simple_17_A_a.gif","images/stimuli/spore_stims/simple_19_A_b.gif","forced_short","","8","simple_dissimilar","images/stimuli/spore_stims/simple_19_A_b.gif","","","","",""
"","null","html-keyboard-response","105","580018","0.0-25.0-0.2","SS1619743523358","","","null","","","","","","<p><img src= images/blank.png width =""600"" height = ""600"" style=""position:fixed;top:50%; left:50%; transform: translate(-50%, -50%); border:5px solid black"">","","","","","","","",""
"","3128.23499999661","sequential-stimulus-presentation-old","106","583668","0.0-25.0-1.2","SS1619743523358","trial","","40","500","3628.23499999661","images/stimuli/spore_stims/simple_17_A_a.gif","images/stimuli/spore_stims/simple_19_A_b.gif","forced_short","","8","simple_dissimilar","images/stimuli/spore_stims/simple_19_A_b.gif","","","","",""
"","null","html-keyboard-response","107","584630","0.0-25.0-0.3","SS1619743523358","","","null","","","","","","<p><img src= images/blank.png width =""600"" height = ""600"" style=""position:fixed;top:50%; left:50%; transform: translate(-50%, -50%); border:5px solid black"">","","","","","","","",""
"","3775.8749999993015","sequential-stimulus-presentation-old","108","588921","0.0-25.0-1.3","SS1619743523358","trial","","40","500","4275.8749999993015","images/stimuli/spore_stims/simple_17_A_a.gif","images/stimuli/spore_stims/simple_19_A_b.gif","forced_short","","8","simple_dissimilar","images/stimuli/spore_stims/simple_19_A_b.gif","","","","",""
"","null","html-keyboard-response","109","589827","0.0-25.0-0.4","SS1619743523358","","","null","","","","","","<p><img src= images/blank.png width =""600"" height = ""600"" style=""position:fixed;top:50%; left:50%; transform: translate(-50%, -50%); border:5px solid black"">","","","","","","","",""
"","4021.180000003311","sequential-stimulus-presentation-old","110","594360","0.0-25.0-1.4","SS1619743523358","trial","","40","500","4521.180000003311","images/stimuli/spore_stims/simple_17_A_a.gif","images/stimuli/spore_stims/simple_19_A_b.gif","forced_short","","8","simple_dissimilar","images/stimuli/spore_stims/simple_19_A_b.gif","","","","",""
"","null","html-keyboard-response","111","595289","0.0-25.0-0.5","SS1619743523358","","","null","","","","","","<p><img src= images/blank.png width =""600"" height = ""600"" style=""position:fixed;top:50%; left:50%; transform: translate(-50%, -50%); border:5px solid black"">","","","","","","","",""
"","2210.384999998496","sequential-stimulus-presentation-old","112","598005","0.0-25.0-1.5","SS1619743523358","trial","","40","500","2710.384999998496","images/stimuli/spore_stims/simple_17_A_a.gif","images/stimuli/spore_stims/simple_19_A_b.gif","forced_short","","8","simple_dissimilar","images/stimuli/spore_stims/simple_19_A_b.gif","","","","",""
"","5335.28500000108","survey-multi-choice","113","603346","0.0-26.0","SS1619743523358","math_question","","","","","","","","","","","","{""Q0"":""10""}","[0]","10","",""
"","null","html-keyboard-response","114","604429","0.0-27.0-0.0","SS1619743523358","","","null","","","","","","<p><img src= images/blank.png width =""600"" height = ""600"" style=""position:fixed;top:50%; left:50%; transform: translate(-50%, -50%); border:5px solid black"">","","","","","","","",""
"","1056.6250000046566","sequential-stimulus-presentation-old","115","620511","0.0-27.0-1.0","SS1619743523358","trial","","40","500","1556.6250000046566","images/stimuli/spore_stims/complex_18_A_a.gif","images/stimuli/spore_stims/complex_10_A_b.gif","forced_long","","9","complex_dissimilar","images/stimuli/spore_stims/complex_10_A_b.gif","","","","",""
"","null","html-keyboard-response","116","621519","0.0-27.0-0.1","SS1619743523358","","","null","","","","","","<p><img src= images/blank.png width =""600"" height = ""600"" style=""position:fixed;top:50%; left:50%; transform: translate(-50%, -50%); border:5px solid black"">","","","","","","","",""
"","1062.7549999990733","sequential-stimulus-presentation-old","117","623106","0.0-27.0-1.1","SS1619743523358","trial","","40","500","1562.7549999990733","images/stimuli/spore_stims/complex_18_A_a.gif","images/stimuli/spore_stims/complex_10_A_b.gif","forced_long","","9","complex_dissimilar","images/stimuli/spore_stims/complex_18_A_a.gif","","","","",""
"","null","html-keyboard-response","118","624401","0.0-27.0-0.2","SS1619743523358","","","null","","","","","","<p><img src= images/blank.png width =""600"" height = ""600"" style=""position:fixed;top:50%; left:50%; transform: translate(-50%, -50%); border:5px solid black"">","","","","","","","",""
"","353.304999996908","sequential-stimulus-presentation-old","119","625260","0.0-27.0-1.2","SS1619743523358","trial","","40","500","853.304999996908","images/stimuli/spore_stims/complex_18_A_a.gif","images/stimuli/spore_stims/complex_10_A_b.gif","forced_long","","9","complex_dissimilar","images/stimuli/spore_stims/complex_18_A_a.gif","","","","",""
"","null","html-keyboard-response","120","626412","0.0-27.0-0.3","SS1619743523358","","","null","","","","","","<p><img src= images/blank.png width =""600"" height = ""600"" style=""position:fixed;top:50%; left:50%; transform: translate(-50%, -50%); border:5px solid black"">","","","","","","","",""
"","1717.0849999964703","sequential-stimulus-presentation-old","121","628636","0.0-27.0-1.3","SS1619743523358","trial","","40","500","2217.0849999964703","images/stimuli/spore_stims/complex_18_A_a.gif","images/stimuli/spore_stims/complex_10_A_b.gif","forced_long","","9","complex_dissimilar","images/stimuli/spore_stims/complex_10_A_b.gif","","","","",""
"","7615.5650000000605","survey-multi-choice","122","636256","0.0-28.0","SS1619743523358","math_question","","","","","","","","","","","","{""Q0"":""13""}","[0]","13","",""
"","null","html-keyboard-response","123","637161","0.0-29.0-0.0","SS1619743523358","","","null","","","","","","<p><img src= images/blank.png width =""600"" height = ""600"" style=""position:fixed;top:50%; left:50%; transform: translate(-50%, -50%); border:5px solid black"">","","","","","","","",""
"","3042.0450000019046","sequential-stimulus-presentation-old","124","640708","0.0-29.0-1.0","SS1619743523358","trial","","40","500","3542.0450000019046","images/stimuli/spore_stims/simple_12_A_b.gif","images/stimuli/spore_stims/simple_06_A_a.gif","self_paced","","10","simple_dissimilar","images/stimuli/spore_stims/simple_06_A_a.gif","","","","",""
"","null","html-keyboard-response","125","642004","0.0-29.0-0.1","SS1619743523358","","","null","","","","","","<p><img src= images/blank.png width =""600"" height = ""600"" style=""position:fixed;top:50%; left:50%; transform: translate(-50%, -50%); border:5px solid black"">","","","","","","","",""
"","1735.4500000000698","sequential-stimulus-presentation-old","126","644247","0.0-29.0-1.1","SS1619743523358","trial","","40","500","2235.45000000007","images/stimuli/spore_stims/simple_12_A_b.gif","images/stimuli/spore_stims/simple_06_A_a.gif","self_paced","","10","simple_dissimilar","images/stimuli/spore_stims/simple_06_A_a.gif","","","","",""
"","null","html-keyboard-response","127","645344","0.0-29.0-0.2","SS1619743523358","","","null","","","","","","<p><img src= images/blank.png width =""600"" height = ""600"" style=""position:fixed;top:50%; left:50%; transform: translate(-50%, -50%); border:5px solid black"">","","","","","","","",""
"","1626.5949999942677","sequential-stimulus-presentation-old","128","647475","0.0-29.0-1.2","SS1619743523358","trial","","40","500","2126.5949999942677","images/stimuli/spore_stims/simple_12_A_b.gif","images/stimuli/spore_stims/simple_06_A_a.gif","self_paced","","10","simple_dissimilar","images/stimuli/spore_stims/simple_06_A_a.gif","","","","",""
"","null","html-keyboard-response","129","648770","0.0-29.0-0.3","SS1619743523358","","","null","","","","","","<p><img src= images/blank.png width =""600"" height = ""600"" style=""position:fixed;top:50%; left:50%; transform: translate(-50%, -50%); border:5px solid black"">","","","","","","","",""
"","952.020000004326","sequential-stimulus-presentation-old","130","650237","0.0-29.0-1.3","SS1619743523358","trial","","40","500","1452.020000004326","images/stimuli/spore_stims/simple_12_A_b.gif","images/stimuli/spore_stims/simple_06_A_a.gif","self_paced","","10","simple_dissimilar","images/stimuli/spore_stims/simple_06_A_a.gif","","","","",""
"","null","html-keyboard-response","131","651379","0.0-29.0-0.4","SS1619743523358","","","null","","","","","","<p><img src= images/blank.png width =""600"" height = ""600"" style=""position:fixed;top:50%; left:50%; transform: translate(-50%, -50%); border:5px solid black"">","","","","","","","",""
"","1327.1549999990966","sequential-stimulus-presentation-old","132","653212","0.0-29.0-1.4","SS1619743523358","trial","","40","500","1827.1549999990966","images/stimuli/spore_stims/simple_12_A_b.gif","images/stimuli/spore_stims/simple_06_A_a.gif","self_paced","","10","simple_dissimilar","images/stimuli/spore_stims/simple_06_A_a.gif","","","","",""
"","4552.354999999865","survey-multi-choice","133","657769","0.0-30.0","SS1619743523358","math_question","","","","","","","","","","","","{""Q0"":""7""}","[0]","7","",""
"","null","html-keyboard-response","134","659074","0.0-31.0-0.0","SS1619743523358","","","null","","","","","","<p><img src= images/blank.png width =""600"" height = ""600"" style=""position:fixed;top:50%; left:50%; transform: translate(-50%, -50%); border:5px solid black"">","","","","","","","",""
"","1279.5350000014296","sequential-stimulus-presentation-old","135","660858","0.0-31.0-1.0","SS1619743523358","trial","","40","500","1779.5350000014296","images/stimuli/spore_stims/complex_04_A_b.gif","images/stimuli/spore_stims/complex_09_A_a.gif","forced_short","","11","complex_dissimilar","images/stimuli/spore_stims/complex_09_A_a.gif","","","","",""
"","null","html-keyboard-response","136","662148","0.0-31.0-0.1","SS1619743523358","","","null","","","","","","<p><img src= images/blank.png width =""600"" height = ""600"" style=""position:fixed;top:50%; left:50%; transform: translate(-50%, -50%); border:5px solid black"">","","","","","","","",""
"","1202.8849999988452","sequential-stimulus-presentation-old","137","663861","0.0-31.0-1.1","SS1619743523358","trial","","40","500","1702.8849999988452","images/stimuli/spore_stims/complex_04_A_b.gif","images/stimuli/spore_stims/complex_09_A_a.gif","forced_short","","11","complex_dissimilar","images/stimuli/spore_stims/complex_09_A_a.gif","","","","",""
"","null","html-keyboard-response","138","665015","0.0-31.0-0.2","SS1619743523358","","","null","","","","","","<p><img src= images/blank.png width =""600"" height = ""600"" style=""position:fixed;top:50%; left:50%; transform: translate(-50%, -50%); border:5px solid black"">","","","","","","","",""
"","1824.7000000047265","sequential-stimulus-presentation-old","139","667356","0.0-31.0-1.2","SS1619743523358","trial","","40","500","2324.7000000047265","images/stimuli/spore_stims/complex_04_A_b.gif","images/stimuli/spore_stims/complex_09_A_a.gif","forced_short","","11","complex_dissimilar","images/stimuli/spore_stims/complex_09_A_a.gif","","","","",""
"","null","html-keyboard-response","140","668351","0.0-31.0-0.3","SS1619743523358","","","null","","","","","","<p><img src= images/blank.png width =""600"" height = ""600"" style=""position:fixed;top:50%; left:50%; transform: translate(-50%, -50%); border:5px solid black"">","","","","","","","",""
"","579.9149999947986","sequential-stimulus-presentation-old","141","669449","0.0-31.0-1.3","SS1619743523358","trial","","40","500","1079.9149999947986","images/stimuli/spore_stims/complex_04_A_b.gif","images/stimuli/spore_stims/complex_09_A_a.gif","forced_short","","11","complex_dissimilar","images/stimuli/spore_stims/complex_09_A_a.gif","","","","",""
"","null","html-keyboard-response","142","670475","0.0-31.0-0.4","SS1619743523358","","","null","","","","","","<p><img src= images/blank.png width =""600"" height = ""600"" style=""position:fixed;top:50%; left:50%; transform: translate(-50%, -50%); border:5px solid black"">","","","","","","","",""
"","2144.9199999987613","sequential-stimulus-presentation-old","143","673152","0.0-31.0-1.4","SS1619743523358","trial","","40","500","2644.9199999987613","images/stimuli/spore_stims/complex_04_A_b.gif","images/stimuli/spore_stims/complex_09_A_a.gif","forced_short","","11","complex_dissimilar","images/stimuli/spore_stims/complex_09_A_a.gif","","","","",""
"","null","html-keyboard-response","144","674004","0.0-31.0-0.5","SS1619743523358","","","null","","","","","","<p><img src= images/blank.png width =""600"" height = ""600"" style=""position:fixed;top:50%; left:50%; transform: translate(-50%, -50%); border:5px solid black"">","","","","","","","",""
"","6156.515000002342","sequential-stimulus-presentation-old","145","680672","0.0-31.0-1.5","SS1619743523358","trial","","40","500","6656.515000002342","images/stimuli/spore_stims/complex_04_A_b.gif","images/stimuli/spore_stims/complex_09_A_a.gif","forced_short","","11","complex_dissimilar","images/stimuli/spore_stims/complex_04_A_b.gif","","","","",""
"[{""page_index"":0,""viewing_time"":5283.745000000694}]","5284.030000002589","instructions","146","685967","0.0-32.0","SS1619743523358","instructions","","","","","","","","","","","","","","","",""
"","8380.100000002072","survey-likert","147","694352","0.0-33.0","SS1619743523358","similarity_question","","","","","","","","","","","","{""Q0"":2}","[0]","","images/stimuli/spore_stims/complex_18_A_a.gif","images/stimuli/spore_stims/complex_10_A_b.gif"
"","5028.979999995558","survey-likert","148","699393","0.0-34.0","SS1619743523358","similarity_question","","","","","","","","","","","","{""Q0"":4}","[0]","","images/stimuli/spore_stims/simple_16_A_a.gif","images/stimuli/spore_stims/simple_08_A_b.gif"
"","8617.890000001295","survey-likert","149","708019","0.0-35.0","SS1619743523358","similarity_question","","","","","","","","","","","","{""Q0"":4}","[0]","","images/stimuli/spore_stims/simple_05_A_a.gif","images/stimuli/spore_stims/simple_09_A_b.gif"
"","6226.1600000056205","survey-likert","150","714253","0.0-36.0","SS1619743523358","similarity_question","","","","","","","","","","","","{""Q0"":1}","[0]","","images/stimuli/spore_stims/complex_03_A_a.gif","images/stimuli/spore_stims/complex_15_A_b.gif"
"","8181.195000004605","survey-likert","151","722443","0.0-37.0","SS1619743523358","similarity_question","","","","","","","","","","","","{""Q0"":4}","[0]","","images/stimuli/spore_stims/complex_06_A_b.gif","images/stimuli/spore_stims/complex_17_A_a.gif"
"","8468.39000000176","survey-likert","152","730922","0.0-38.0","SS1619743523358","similarity_question","","","","","","","","","","","","{""Q0"":1}","[0]","","images/stimuli/spore_stims/simple_12_A_b.gif","images/stimuli/spore_stims/simple_06_A_a.gif"
"","10025.139999997802","survey-likert","153","740959","0.0-39.0","SS1619743523358","similarity_question","","","","","","","","","","","","{""Q0"":2}","[0]","","images/stimuli/spore_stims/simple_17_A_a.gif","images/stimuli/spore_stims/simple_19_A_b.gif"
"","8887.674999998184","survey-likert","154","749860","0.0-40.0","SS1619743523358","similarity_question","","","","","","","","","","","","{""Q0"":2}","[0]","","images/stimuli/spore_stims/simple_09_A_a.gif","images/stimuli/spore_stims/simple_01_A_b.gif"
"","12169.815000001108","survey-likert","155","762039","0.0-41.0","SS1619743523358","similarity_question","","","","","","","","","","","","{""Q0"":4}","[0]","","images/stimuli/spore_stims/complex_09_A_a.gif","images/stimuli/spore_stims/complex_04_A_b.gif"
"","6117.350000000442","survey-likert","156","768166","0.0-42.0","SS1619743523358","similarity_question","","","","","","","","","","","","{""Q0"":4}","[0]","","images/stimuli/spore_stims/complex_18_A_b.gif","images/stimuli/spore_stims/complex_07_A_a.gif"
"","9439.46000000136","survey-likert","157","777616","0.0-43.0","SS1619743523358","similarity_question","","","","","","","","","","","","{""Q0"":3}","[0]","","images/stimuli/spore_stims/complex_04_A_a.gif","images/stimuli/spore_stims/complex_01_A_b.gif"
"","9972.820000002743","survey-likert","158","787599","0.0-44.0","SS1619743523358","similarity_question","","","","","","","","","","","","{""Q0"":0}","[0]","","images/stimuli/spore_stims/simple_18_A_a.gif","images/stimuli/spore_stims/simple_14_A_b.gif"
"[{""page_index"":0,""viewing_time"":5508.044999995036}]","5508.314999999013","instructions","159","793115","0.0-45.0","SS1619743523358","instructions","","","","","","","","","","","","","","","",""
"","4867.559999998659","survey-likert","160","797989","0.0-46.0","SS1619743523358","","","","","","","","","images/stimuli/spore_stims/complex_18_A_b.gif","","","","{""Q0"":5}","[0]","","",""
"","4457.085000001825","survey-likert","161","802456","0.0-47.0","SS1619743523358","","","","","","","","","images/stimuli/spore_stims/simple_19_A_b.gif","","","","{""Q0"":2}","[0]","","",""
"","3049.1500000061933","survey-likert","162","805515","0.0-48.0","SS1619743523358","","","","","","","","","images/stimuli/spore_stims/simple_01_A_b.gif","","","","{""Q0"":1}","[0]","","",""
"","3254.8800000004703","survey-likert","163","808777","0.0-49.0","SS1619743523358","","","","","","","","","images/stimuli/spore_stims/complex_03_A_a.gif","","","","{""Q0"":5}","[0]","","",""
"","9313.00499999628","survey-likert","164","818100","0.0-50.0","SS1619743523358","","","","","","","","","images/stimuli/spore_stims/simple_12_A_b.gif","","","","{""Q0"":3}","[0]","","",""
"","5697.350000002189","survey-likert","165","823808","0.0-51.0","SS1619743523358","","","","","","","","","images/stimuli/spore_stims/complex_18_A_a.gif","","","","{""Q0"":5}","[0]","","",""
"","5244.834999997634","survey-likert","166","829063","0.0-52.0","SS1619743523358","","","","","","","","","images/stimuli/spore_stims/simple_05_A_a.gif","","","","{""Q0"":1}","[0]","","",""
"","4321.700000000419","survey-likert","167","833394","0.0-53.0","SS1619743523358","","","","","","","","","images/stimuli/spore_stims/complex_17_A_a.gif","","","","{""Q0"":5}","[0]","","",""
"","4221.574999995879","survey-likert","168","837628","0.0-54.0","SS1619743523358","","","","","","","","","images/stimuli/spore_stims/simple_18_A_a.gif","","","","{""Q0"":3}","[0]","","",""
"","4961.615000000107","survey-likert","169","842601","0.0-55.0","SS1619743523358","","","","","","","","","images/stimuli/spore_stims/complex_01_A_b.gif","","","","{""Q0"":4}","[0]","","",""
"","5028.669999999693","survey-likert","170","847639","0.0-56.0","SS1619743523358","","","","","","","","","images/stimuli/spore_stims/complex_09_A_a.gif","","","","{""Q0"":6}","[0]","","",""
"","3999.700000000419","survey-likert","171","851649","0.0-57.0","SS1619743523358","","","","","","","","","images/stimuli/spore_stims/simple_08_A_b.gif","","","","{""Q0"":2}","[0]","","",""
"[{""page_index"":0,""viewing_time"":3951.9799999981187}]","3952.230000002659","instructions","172","855611","0.0-58.0","SS1619743523358","instructions","","","","","","","","","","","","","","","",""
"","3381.8649999957997","demog-age","173","859002","0.0-59.0","SS1619743523358","","","","","","","","","","","","","{""age"":""28""}","","","",""
"","3185.010000001057","demog-ethnic-US","174","862196","0.0-60.0","SS1619743523358","","","","","","","","","","","","","{""ethnicity"":[""Hispanic or Latino""]}","[0]","","",""
"","6833.84500000102","demog-gender-and-education","175","869040","0.0-61.0","SS1619743523358","","","","","","","","","","","","","{""gender"":""Female"",""education"":""Master's Degree""}","[0,1]","","",""
"","6360.180000003194","survey-text","176","875425","0.0-62.0","SS1619743523358","feedback","","","","","","","","","","","","{""Q0"":""NO""}","","","",""
"[{""page_index"":0,""viewing_time"":2364.7649999985006}]","2365.0800000032177","instructions","177","877795","0.0-63.0","SS1619743523358","instructions","","","","","","","","","","","","","","","",""
