"view_history","rt","trial_type","trial_index","time_elapsed","internal_node_id","subject","stimulus_type","trial_stimulus","key_press","minimum_viewing_duration","trial_looking_time","block_deviant","block_background","exposure_type","stimulus","block_number","block_type","stimulus_displayed","responses","question_order","math_correct_answer","stimulus_left","stimulus_right"
"[{""page_index"":0,""viewing_time"":3801.2249999446794}]","3801.3999999966472","instructions","0","3811","0.0-0.0","SS1619740396232","","","","","","","","","","","","","","","","",""
"[{""page_index"":0,""viewing_time"":2401.6100000590086},{""page_index"":1,""viewing_time"":1834.0249999891967}]","4235.780000104569","instructions","1","10049","0.0-1.0","SS1619740396232","instructions","","","","","","","","","","","","","","","",""
"","947.7000000188127","sequential-stimulus-presentation-old","2","11499","0.0-2.0","SS1619740396232","","","40","500","1447.7000000188127","null","null","self_paced","","","","","","","","",""
"","2814.864999963902","sequential-stimulus-presentation-old","3","14815","0.0-3.0","SS1619740396232","","","40","500","3314.864999963902","null","null","self_paced","","","","","","","","",""
"[{""page_index"":0,""viewing_time"":2114.1650000354275}]","2114.295000093989","instructions","4","16930","0.0-4.0","SS1619740396232","instructions","","","","","","","","","","","","","","","",""
"","864.6650000009686","sequential-stimulus-presentation-old","5","32796","0.0-5.0","SS1619740396232","","","40","500","1364.6650000009686","null","null","forced_long","","","","","","","","",""
"","775.7299999939278","sequential-stimulus-presentation-old","6","34086","0.0-6.0","SS1619740396232","","","40","500","1275.7299999939278","null","null","forced_long","","","","","","","","",""
"[{""page_index"":0,""viewing_time"":2217.265000101179}]","2217.380000045523","instructions","7","36304","0.0-7.0","SS1619740396232","instructions","","","","","","","","","","","","","","","",""
"[{""page_index"":0,""viewing_time"":994.2499999888241},{""page_index"":1,""viewing_time"":988.9899999834597},{""page_index"":2,""viewing_time"":769.0400000428781},{""page_index"":3,""viewing_time"":778.1299999915063},{""page_index"":4,""viewing_time"":695.9149999311194}]","4226.454999996349","instructions","8","40531","0.0-8.0","SS1619740396232","instructions","","","","","","","","","","","","","","","",""
"","null","html-keyboard-response","9","41633","0.0-9.0-0.0","SS1619740396232","","","null","","","","","","<p><img src= images/blank.png width =""600"" height = ""600"" style=""position:fixed;top:50%; left:50%; transform: translate(-50%, -50%); border:5px solid black"">","","","","","","","",""
"","1185.4549999115989","sequential-stimulus-presentation-old","10","57821","0.0-9.0-1.0","SS1619740396232","trial","","40","500","1685.4549999115989","images/stimuli/spore_stims/complex_05_A_a.gif","images/stimuli/spore_stims/complex_12_A_b.gif","forced_long","","0","complex_dissimilar","images/stimuli/spore_stims/complex_12_A_b.gif","","","","",""
"","null","html-keyboard-response","11","59014","0.0-9.0-0.1","SS1619740396232","","","null","","","","","","<p><img src= images/blank.png width =""600"" height = ""600"" style=""position:fixed;top:50%; left:50%; transform: translate(-50%, -50%); border:5px solid black"">","","","","","","","",""
"","50519.77000001352","sequential-stimulus-presentation-old","12","110035","0.0-9.0-1.1","SS1619740396232","trial","","40","500","51019.77000001352","images/stimuli/spore_stims/complex_05_A_a.gif","images/stimuli/spore_stims/complex_12_A_b.gif","forced_long","","0","complex_dissimilar","images/stimuli/spore_stims/complex_12_A_b.gif","","","","",""
"","null","html-keyboard-response","13","111235","0.0-9.0-0.2","SS1619740396232","","","null","","","","","","<p><img src= images/blank.png width =""600"" height = ""600"" style=""position:fixed;top:50%; left:50%; transform: translate(-50%, -50%); border:5px solid black"">","","","","","","","",""
"","24278.619999997318","sequential-stimulus-presentation-old","14","136028","0.0-9.0-1.2","SS1619740396232","trial","","40","500","24778.619999997318","images/stimuli/spore_stims/complex_05_A_a.gif","images/stimuli/spore_stims/complex_12_A_b.gif","forced_long","","0","complex_dissimilar","images/stimuli/spore_stims/complex_12_A_b.gif","","","","",""
"","null","html-keyboard-response","15","136975","0.0-9.0-0.3","SS1619740396232","","","null","","","","","","<p><img src= images/blank.png width =""600"" height = ""600"" style=""position:fixed;top:50%; left:50%; transform: translate(-50%, -50%); border:5px solid black"">","","","","","","","",""
"","439.5350000122562","sequential-stimulus-presentation-old","16","137918","0.0-9.0-1.3","SS1619740396232","trial","","40","500","939.5350000122562","images/stimuli/spore_stims/complex_05_A_a.gif","images/stimuli/spore_stims/complex_12_A_b.gif","forced_long","","0","complex_dissimilar","images/stimuli/spore_stims/complex_12_A_b.gif","","","","",""
"","null","html-keyboard-response","17","138831","0.0-9.0-0.4","SS1619740396232","","","null","","","","","","<p><img src= images/blank.png width =""600"" height = ""600"" style=""position:fixed;top:50%; left:50%; transform: translate(-50%, -50%); border:5px solid black"">","","","","","","","",""
"","133.27500002924353","sequential-stimulus-presentation-old","18","139476","0.0-9.0-1.4","SS1619740396232","trial","","40","500","633.2750000292435","images/stimuli/spore_stims/complex_05_A_a.gif","images/stimuli/spore_stims/complex_12_A_b.gif","forced_long","","0","complex_dissimilar","images/stimuli/spore_stims/complex_12_A_b.gif","","","","",""
"","null","html-keyboard-response","19","140541","0.0-9.0-0.5","SS1619740396232","","","null","","","","","","<p><img src= images/blank.png width =""600"" height = ""600"" style=""position:fixed;top:50%; left:50%; transform: translate(-50%, -50%); border:5px solid black"">","","","","","","","",""
"","99.49000005144626","sequential-stimulus-presentation-old","20","141143","0.0-9.0-1.5","SS1619740396232","trial","","40","500","599.4900000514463","images/stimuli/spore_stims/complex_05_A_a.gif","images/stimuli/spore_stims/complex_12_A_b.gif","forced_long","","0","complex_dissimilar","images/stimuli/spore_stims/complex_12_A_b.gif","","","","",""
"","9488.825000007637","survey-multi-choice","21","150633","0.0-10.0","SS1619740396232","math_question","","","","","","","","","","","","{""Q0"":""8""}","[0]","8","",""
"","null","html-keyboard-response","22","151780","0.0-11.0-0.0","SS1619740396232","","","null","","","","","","<p><img src= images/blank.png width =""600"" height = ""600"" style=""position:fixed;top:50%; left:50%; transform: translate(-50%, -50%); border:5px solid black"">","","","","","","","",""
"","1029.024999937974","sequential-stimulus-presentation-old","23","153312","0.0-11.0-1.0","SS1619740396232","trial","","40","500","1529.024999937974","images/stimuli/spore_stims/complex_13_A_b.gif","images/stimuli/spore_stims/complex_03_A_a.gif","forced_short","","1","complex_dissimilar","images/stimuli/spore_stims/complex_03_A_a.gif","","","","",""
"","null","html-keyboard-response","24","154395","0.0-11.0-0.1","SS1619740396232","","","null","","","","","","<p><img src= images/blank.png width =""600"" height = ""600"" style=""position:fixed;top:50%; left:50%; transform: translate(-50%, -50%); border:5px solid black"">","","","","","","","",""
"","17882.240000064485","sequential-stimulus-presentation-old","25","172780","0.0-11.0-1.1","SS1619740396232","trial","","40","500","18382.240000064485","images/stimuli/spore_stims/complex_13_A_b.gif","images/stimuli/spore_stims/complex_03_A_a.gif","forced_short","","1","complex_dissimilar","images/stimuli/spore_stims/complex_13_A_b.gif","","","","",""
"","null","html-keyboard-response","26","174039","0.0-11.0-0.2","SS1619740396232","","","null","","","","","","<p><img src= images/blank.png width =""600"" height = ""600"" style=""position:fixed;top:50%; left:50%; transform: translate(-50%, -50%); border:5px solid black"">","","","","","","","",""
"","8223.07000006549","sequential-stimulus-presentation-old","27","182764","0.0-11.0-1.2","SS1619740396232","trial","","40","500","8723.07000006549","images/stimuli/spore_stims/complex_13_A_b.gif","images/stimuli/spore_stims/complex_03_A_a.gif","forced_short","","1","complex_dissimilar","images/stimuli/spore_stims/complex_03_A_a.gif","","","","",""
"","null","html-keyboard-response","28","183865","0.0-11.0-0.3","SS1619740396232","","","null","","","","","","<p><img src= images/blank.png width =""600"" height = ""600"" style=""position:fixed;top:50%; left:50%; transform: translate(-50%, -50%); border:5px solid black"">","","","","","","","",""
"","4310.090000042692","sequential-stimulus-presentation-old","29","188677","0.0-11.0-1.3","SS1619740396232","trial","","40","500","4810.090000042692","images/stimuli/spore_stims/complex_13_A_b.gif","images/stimuli/spore_stims/complex_03_A_a.gif","forced_short","","1","complex_dissimilar","images/stimuli/spore_stims/complex_03_A_a.gif","","","","",""
"","null","html-keyboard-response","30","189979","0.0-11.0-0.4","SS1619740396232","","","null","","","","","","<p><img src= images/blank.png width =""600"" height = ""600"" style=""position:fixed;top:50%; left:50%; transform: translate(-50%, -50%); border:5px solid black"">","","","","","","","",""
"","2826.6799999400973","sequential-stimulus-presentation-old","31","193307","0.0-11.0-1.4","SS1619740396232","trial","","40","500","3326.6799999400973","images/stimuli/spore_stims/complex_13_A_b.gif","images/stimuli/spore_stims/complex_03_A_a.gif","forced_short","","1","complex_dissimilar","images/stimuli/spore_stims/complex_03_A_a.gif","","","","",""
"","null","html-keyboard-response","32","194572","0.0-11.0-0.5","SS1619740396232","","","null","","","","","","<p><img src= images/blank.png width =""600"" height = ""600"" style=""position:fixed;top:50%; left:50%; transform: translate(-50%, -50%); border:5px solid black"">","","","","","","","",""
"","73.20500002242625","sequential-stimulus-presentation-old","33","195151","0.0-11.0-1.5","SS1619740396232","trial","","40","500","573.2050000224262","images/stimuli/spore_stims/complex_13_A_b.gif","images/stimuli/spore_stims/complex_03_A_a.gif","forced_short","","1","complex_dissimilar","images/stimuli/spore_stims/complex_03_A_a.gif","","","","",""
"","3595.5799999646842","survey-multi-choice","34","198748","0.0-12.0","SS1619740396232","math_question","","","","","","","","","","","","{""Q0"":""10""}","[0]","10","",""
"","null","html-keyboard-response","35","199852","0.0-13.0-0.0","SS1619740396232","","","null","","","","","","<p><img src= images/blank.png width =""600"" height = ""600"" style=""position:fixed;top:50%; left:50%; transform: translate(-50%, -50%); border:5px solid black"">","","","","","","","",""
"","1366.5599999949336","sequential-stimulus-presentation-old","36","201721","0.0-13.0-1.0","SS1619740396232","trial","","40","500","1866.5599999949336","images/stimuli/spore_stims/complex_03_A_b.gif","images/stimuli/spore_stims/complex_11_A_a.gif","forced_short","","2","complex_dissimilar","images/stimuli/spore_stims/complex_11_A_a.gif","","","","",""
"","null","html-keyboard-response","37","202825","0.0-13.0-0.1","SS1619740396232","","","null","","","","","","<p><img src= images/blank.png width =""600"" height = ""600"" style=""position:fixed;top:50%; left:50%; transform: translate(-50%, -50%); border:5px solid black"">","","","","","","","",""
"","5243.8250000122935","sequential-stimulus-presentation-old","38","208571","0.0-13.0-1.1","SS1619740396232","trial","","40","500","5743.8250000122935","images/stimuli/spore_stims/complex_03_A_b.gif","images/stimuli/spore_stims/complex_11_A_a.gif","forced_short","","2","complex_dissimilar","images/stimuli/spore_stims/complex_11_A_a.gif","","","","",""
"","null","html-keyboard-response","39","209694","0.0-13.0-0.2","SS1619740396232","","","null","","","","","","<p><img src= images/blank.png width =""600"" height = ""600"" style=""position:fixed;top:50%; left:50%; transform: translate(-50%, -50%); border:5px solid black"">","","","","","","","",""
"","3923.24000003282","sequential-stimulus-presentation-old","40","214119","0.0-13.0-1.2","SS1619740396232","trial","","40","500","4423.24000003282","images/stimuli/spore_stims/complex_03_A_b.gif","images/stimuli/spore_stims/complex_11_A_a.gif","forced_short","","2","complex_dissimilar","images/stimuli/spore_stims/complex_11_A_a.gif","","","","",""
"","null","html-keyboard-response","41","215023","0.0-13.0-0.3","SS1619740396232","","","null","","","","","","<p><img src= images/blank.png width =""600"" height = ""600"" style=""position:fixed;top:50%; left:50%; transform: translate(-50%, -50%); border:5px solid black"">","","","","","","","",""
"","174.7050000121817","sequential-stimulus-presentation-old","42","215700","0.0-13.0-1.3","SS1619740396232","trial","","40","500","674.7050000121817","images/stimuli/spore_stims/complex_03_A_b.gif","images/stimuli/spore_stims/complex_11_A_a.gif","forced_short","","2","complex_dissimilar","images/stimuli/spore_stims/complex_11_A_a.gif","","","","",""
"","3022.9550000512972","survey-multi-choice","43","218724","0.0-14.0","SS1619740396232","math_question","","","","","","","","","","","","{""Q0"":""9""}","[0]","9","",""
"","null","html-keyboard-response","44","220030","0.0-15.0-0.0","SS1619740396232","","","null","","","","","","<p><img src= images/blank.png width =""600"" height = ""600"" style=""position:fixed;top:50%; left:50%; transform: translate(-50%, -50%); border:5px solid black"">","","","","","","","",""
"","8799.679999938235","sequential-stimulus-presentation-old","45","229331","0.0-15.0-1.0","SS1619740396232","trial","","40","500","9299.679999938235","images/stimuli/spore_stims/complex_04_A_a.gif","images/stimuli/spore_stims/complex_01_A_b.gif","self_paced","","3","complex_dissimilar","images/stimuli/spore_stims/complex_01_A_b.gif","","","","",""
"","null","html-keyboard-response","46","230603","0.0-15.0-0.1","SS1619740396232","","","null","","","","","","<p><img src= images/blank.png width =""600"" height = ""600"" style=""position:fixed;top:50%; left:50%; transform: translate(-50%, -50%); border:5px solid black"">","","","","","","","",""
"","2524.5450000511482","sequential-stimulus-presentation-old","47","233629","0.0-15.0-1.1","SS1619740396232","trial","","40","500","3024.5450000511482","images/stimuli/spore_stims/complex_04_A_a.gif","images/stimuli/spore_stims/complex_01_A_b.gif","self_paced","","3","complex_dissimilar","images/stimuli/spore_stims/complex_01_A_b.gif","","","","",""
"","null","html-keyboard-response","48","234867","0.0-15.0-0.2","SS1619740396232","","","null","","","","","","<p><img src= images/blank.png width =""600"" height = ""600"" style=""position:fixed;top:50%; left:50%; transform: translate(-50%, -50%); border:5px solid black"">","","","","","","","",""
"","96.48499998729676","sequential-stimulus-presentation-old","49","235473","0.0-15.0-1.2","SS1619740396232","trial","","40","500","596.4849999872968","images/stimuli/spore_stims/complex_04_A_a.gif","images/stimuli/spore_stims/complex_01_A_b.gif","self_paced","","3","complex_dissimilar","images/stimuli/spore_stims/complex_01_A_b.gif","","","","",""
"","null","html-keyboard-response","50","236686","0.0-15.0-0.3","SS1619740396232","","","null","","","","","","<p><img src= images/blank.png width =""600"" height = ""600"" style=""position:fixed;top:50%; left:50%; transform: translate(-50%, -50%); border:5px solid black"">","","","","","","","",""
"","478.5200000042096","sequential-stimulus-presentation-old","51","237676","0.0-15.0-1.3","SS1619740396232","trial","","40","500","978.5200000042096","images/stimuli/spore_stims/complex_04_A_a.gif","images/stimuli/spore_stims/complex_01_A_b.gif","self_paced","","3","complex_dissimilar","images/stimuli/spore_stims/complex_01_A_b.gif","","","","",""
"","null","html-keyboard-response","52","238925","0.0-15.0-0.4","SS1619740396232","","","null","","","","","","<p><img src= images/blank.png width =""600"" height = ""600"" style=""position:fixed;top:50%; left:50%; transform: translate(-50%, -50%); border:5px solid black"">","","","","","","","",""
"","1.6150000737980008","sequential-stimulus-presentation-old","53","239428","0.0-15.0-1.4","SS1619740396232","trial","","40","500","501.615000073798","images/stimuli/spore_stims/complex_04_A_a.gif","images/stimuli/spore_stims/complex_01_A_b.gif","self_paced","","3","complex_dissimilar","images/stimuli/spore_stims/complex_01_A_b.gif","","","","",""
"","4268.3149999938905","survey-multi-choice","54","243698","0.0-16.0","SS1619740396232","math_question","","","","","","","","","","","","{""Q0"":""13""}","[0]","13","",""
"","null","html-keyboard-response","55","244653","0.0-17.0-0.0","SS1619740396232","","","null","","","","","","<p><img src= images/blank.png width =""600"" height = ""600"" style=""position:fixed;top:50%; left:50%; transform: translate(-50%, -50%); border:5px solid black"">","","","","","","","",""
"","9759.554999996908","sequential-stimulus-presentation-old","56","254915","0.0-17.0-1.0","SS1619740396232","trial","","40","500","10259.554999996908","images/stimuli/spore_stims/simple_02_A_b.gif","images/stimuli/spore_stims/simple_04_A_a.gif","self_paced","","4","simple_dissimilar","images/stimuli/spore_stims/simple_04_A_a.gif","","","","",""
"","null","html-keyboard-response","57","255806","0.0-17.0-0.1","SS1619740396232","","","null","","","","","","<p><img src= images/blank.png width =""600"" height = ""600"" style=""position:fixed;top:50%; left:50%; transform: translate(-50%, -50%); border:5px solid black"">","","","","","","","",""
"","142.37999997567385","sequential-stimulus-presentation-old","58","256451","0.0-17.0-1.1","SS1619740396232","trial","","40","500","642.3799999756739","images/stimuli/spore_stims/simple_02_A_b.gif","images/stimuli/spore_stims/simple_04_A_a.gif","self_paced","","4","simple_dissimilar","images/stimuli/spore_stims/simple_04_A_a.gif","","","","",""
"","null","html-keyboard-response","59","257303","0.0-17.0-0.2","SS1619740396232","","","null","","","","","","<p><img src= images/blank.png width =""600"" height = ""600"" style=""position:fixed;top:50%; left:50%; transform: translate(-50%, -50%); border:5px solid black"">","","","","","","","",""
"","273.47499993629754","sequential-stimulus-presentation-old","60","258078","0.0-17.0-1.2","SS1619740396232","trial","","40","500","773.4749999362975","images/stimuli/spore_stims/simple_02_A_b.gif","images/stimuli/spore_stims/simple_04_A_a.gif","self_paced","","4","simple_dissimilar","images/stimuli/spore_stims/simple_04_A_a.gif","","","","",""
"","null","html-keyboard-response","61","258949","0.0-17.0-0.3","SS1619740396232","","","null","","","","","","<p><img src= images/blank.png width =""600"" height = ""600"" style=""position:fixed;top:50%; left:50%; transform: translate(-50%, -50%); border:5px solid black"">","","","","","","","",""
"","48.294999985955656","sequential-stimulus-presentation-old","62","259499","0.0-17.0-1.3","SS1619740396232","trial","","40","500","548.2949999859557","images/stimuli/spore_stims/simple_02_A_b.gif","images/stimuli/spore_stims/simple_04_A_a.gif","self_paced","","4","simple_dissimilar","images/stimuli/spore_stims/simple_04_A_a.gif","","","","",""
"","null","html-keyboard-response","63","260618","0.0-17.0-0.4","SS1619740396232","","","null","","","","","","<p><img src= images/blank.png width =""600"" height = ""600"" style=""position:fixed;top:50%; left:50%; transform: translate(-50%, -50%); border:5px solid black"">","","","","","","","",""
"","182.95000004582107","sequential-stimulus-presentation-old","64","261303","0.0-17.0-1.4","SS1619740396232","trial","","40","500","682.9500000458211","images/stimuli/spore_stims/simple_02_A_b.gif","images/stimuli/spore_stims/simple_04_A_a.gif","self_paced","","4","simple_dissimilar","images/stimuli/spore_stims/simple_04_A_a.gif","","","","",""
"","null","html-keyboard-response","65","262321","0.0-17.0-0.5","SS1619740396232","","","null","","","","","","<p><img src= images/blank.png width =""600"" height = ""600"" style=""position:fixed;top:50%; left:50%; transform: translate(-50%, -50%); border:5px solid black"">","","","","","","","",""
"","27.224999968893826","sequential-stimulus-presentation-old","66","262850","0.0-17.0-1.5","SS1619740396232","trial","","40","500","527.2249999688938","images/stimuli/spore_stims/simple_02_A_b.gif","images/stimuli/spore_stims/simple_04_A_a.gif","self_paced","","4","simple_dissimilar","images/stimuli/spore_stims/simple_02_A_b.gif","","","","",""
"","3034.3850000062957","survey-multi-choice","67","265886","0.0-18.0","SS1619740396232","math_question","","","","","","","","","","","","{""Q0"":""14""}","[0]","14","",""
"","null","html-keyboard-response","68","266750","0.0-19.0-0.0","SS1619740396232","","","null","","","","","","<p><img src= images/blank.png width =""600"" height = ""600"" style=""position:fixed;top:50%; left:50%; transform: translate(-50%, -50%); border:5px solid black"">","","","","","","","",""
"","1198.2200000202283","sequential-stimulus-presentation-old","69","268450","0.0-19.0-1.0","SS1619740396232","trial","","40","500","1698.2200000202283","images/stimuli/spore_stims/simple_17_A_a.gif","images/stimuli/spore_stims/simple_14_A_b.gif","forced_short","","5","simple_dissimilar","images/stimuli/spore_stims/simple_14_A_b.gif","","","","",""
"","null","html-keyboard-response","70","269283","0.0-19.0-0.1","SS1619740396232","","","null","","","","","","<p><img src= images/blank.png width =""600"" height = ""600"" style=""position:fixed;top:50%; left:50%; transform: translate(-50%, -50%); border:5px solid black"">","","","","","","","",""
"","5629.015000071377","sequential-stimulus-presentation-old","71","275414","0.0-19.0-1.1","SS1619740396232","trial","","40","500","6129.015000071377","images/stimuli/spore_stims/simple_17_A_a.gif","images/stimuli/spore_stims/simple_14_A_b.gif","forced_short","","5","simple_dissimilar","images/stimuli/spore_stims/simple_14_A_b.gif","","","","",""
"","null","html-keyboard-response","72","276423","0.0-19.0-0.2","SS1619740396232","","","null","","","","","","<p><img src= images/blank.png width =""600"" height = ""600"" style=""position:fixed;top:50%; left:50%; transform: translate(-50%, -50%); border:5px solid black"">","","","","","","","",""
"","473.8849999848753","sequential-stimulus-presentation-old","73","277412","0.0-19.0-1.2","SS1619740396232","trial","","40","500","973.8849999848753","images/stimuli/spore_stims/simple_17_A_a.gif","images/stimuli/spore_stims/simple_14_A_b.gif","forced_short","","5","simple_dissimilar","images/stimuli/spore_stims/simple_14_A_b.gif","","","","",""
"","null","html-keyboard-response","74","278364","0.0-19.0-0.3","SS1619740396232","","","null","","","","","","<p><img src= images/blank.png width =""600"" height = ""600"" style=""position:fixed;top:50%; left:50%; transform: translate(-50%, -50%); border:5px solid black"">","","","","","","","",""
"","493.09500004164875","sequential-stimulus-presentation-old","75","279359","0.0-19.0-1.3","SS1619740396232","trial","","40","500","993.0950000416487","images/stimuli/spore_stims/simple_17_A_a.gif","images/stimuli/spore_stims/simple_14_A_b.gif","forced_short","","5","simple_dissimilar","images/stimuli/spore_stims/simple_14_A_b.gif","","","","",""
"","null","html-keyboard-response","76","280172","0.0-19.0-0.4","SS1619740396232","","","null","","","","","","<p><img src= images/blank.png width =""600"" height = ""600"" style=""position:fixed;top:50%; left:50%; transform: translate(-50%, -50%); border:5px solid black"">","","","","","","","",""
"","238.89499995857477","sequential-stimulus-presentation-old","77","280923","0.0-19.0-1.4","SS1619740396232","trial","","40","500","738.8949999585748","images/stimuli/spore_stims/simple_17_A_a.gif","images/stimuli/spore_stims/simple_14_A_b.gif","forced_short","","5","simple_dissimilar","images/stimuli/spore_stims/simple_14_A_b.gif","","","","",""
"","null","html-keyboard-response","78","281758","0.0-19.0-0.5","SS1619740396232","","","null","","","","","","<p><img src= images/blank.png width =""600"" height = ""600"" style=""position:fixed;top:50%; left:50%; transform: translate(-50%, -50%); border:5px solid black"">","","","","","","","",""
"","1139.3300000345334","sequential-stimulus-presentation-old","79","283400","0.0-19.0-1.5","SS1619740396232","trial","","40","500","1639.3300000345334","images/stimuli/spore_stims/simple_17_A_a.gif","images/stimuli/spore_stims/simple_14_A_b.gif","forced_short","","5","simple_dissimilar","images/stimuli/spore_stims/simple_17_A_a.gif","","","","",""
"","4058.695000014268","survey-multi-choice","80","287460","0.0-20.0","SS1619740396232","math_question","","","","","","","","","","","","{""Q0"":""14""}","[0]","14","",""
"","null","html-keyboard-response","81","288703","0.0-21.0-0.0","SS1619740396232","","","null","","","","","","<p><img src= images/blank.png width =""600"" height = ""600"" style=""position:fixed;top:50%; left:50%; transform: translate(-50%, -50%); border:5px solid black"">","","","","","","","",""
"","102.41499997209758","sequential-stimulus-presentation-old","82","303812","0.0-21.0-1.0","SS1619740396232","trial","","40","500","602.4149999720976","images/stimuli/spore_stims/simple_16_A_a.gif","images/stimuli/spore_stims/simple_11_A_b.gif","forced_long","","6","simple_dissimilar","images/stimuli/spore_stims/simple_11_A_b.gif","","","","",""
"","null","html-keyboard-response","83","304940","0.0-21.0-0.1","SS1619740396232","","","null","","","","","","<p><img src= images/blank.png width =""600"" height = ""600"" style=""position:fixed;top:50%; left:50%; transform: translate(-50%, -50%); border:5px solid black"">","","","","","","","",""
"","149.80000001378357","sequential-stimulus-presentation-old","84","305593","0.0-21.0-1.1","SS1619740396232","trial","","40","500","649.8000000137836","images/stimuli/spore_stims/simple_16_A_a.gif","images/stimuli/spore_stims/simple_11_A_b.gif","forced_long","","6","simple_dissimilar","images/stimuli/spore_stims/simple_16_A_a.gif","","","","",""
"","null","html-keyboard-response","85","306562","0.0-21.0-0.2","SS1619740396232","","","null","","","","","","<p><img src= images/blank.png width =""600"" height = ""600"" style=""position:fixed;top:50%; left:50%; transform: translate(-50%, -50%); border:5px solid black"">","","","","","","","",""
"","241.92499998025596","sequential-stimulus-presentation-old","86","307306","0.0-21.0-1.2","SS1619740396232","trial","","40","500","741.924999980256","images/stimuli/spore_stims/simple_16_A_a.gif","images/stimuli/spore_stims/simple_11_A_b.gif","forced_long","","6","simple_dissimilar","images/stimuli/spore_stims/simple_11_A_b.gif","","","","",""
"","null","html-keyboard-response","87","308304","0.0-21.0-0.3","SS1619740396232","","","null","","","","","","<p><img src= images/blank.png width =""600"" height = ""600"" style=""position:fixed;top:50%; left:50%; transform: translate(-50%, -50%); border:5px solid black"">","","","","","","","",""
"","29.744999948889017","sequential-stimulus-presentation-old","88","308836","0.0-21.0-1.3","SS1619740396232","trial","","40","500","529.744999948889","images/stimuli/spore_stims/simple_16_A_a.gif","images/stimuli/spore_stims/simple_11_A_b.gif","forced_long","","6","simple_dissimilar","images/stimuli/spore_stims/simple_16_A_a.gif","","","","",""
"","3512.430000002496","survey-multi-choice","89","312349","0.0-22.0","SS1619740396232","math_question","","","","","","","","","","","","{""Q0"":""6""}","[0]","6","",""
"","null","html-keyboard-response","90","313368","0.0-23.0-0.0","SS1619740396232","","","null","","","","","","<p><img src= images/blank.png width =""600"" height = ""600"" style=""position:fixed;top:50%; left:50%; transform: translate(-50%, -50%); border:5px solid black"">","","","","","","","",""
"","6028.469999902882","sequential-stimulus-presentation-old","91","319904","0.0-23.0-1.0","SS1619740396232","trial","","40","500","6528.469999902882","images/stimuli/spore_stims/simple_15_A_b.gif","images/stimuli/spore_stims/simple_06_A_a.gif","self_paced","","7","simple_dissimilar","images/stimuli/spore_stims/simple_06_A_a.gif","","","","",""
"","null","html-keyboard-response","92","320901","0.0-23.0-0.1","SS1619740396232","","","null","","","","","","<p><img src= images/blank.png width =""600"" height = ""600"" style=""position:fixed;top:50%; left:50%; transform: translate(-50%, -50%); border:5px solid black"">","","","","","","","",""
"","241.60499998833984","sequential-stimulus-presentation-old","93","321644","0.0-23.0-1.1","SS1619740396232","trial","","40","500","741.6049999883398","images/stimuli/spore_stims/simple_15_A_b.gif","images/stimuli/spore_stims/simple_06_A_a.gif","self_paced","","7","simple_dissimilar","images/stimuli/spore_stims/simple_06_A_a.gif","","","","",""
"","null","html-keyboard-response","94","322504","0.0-23.0-0.2","SS1619740396232","","","null","","","","","","<p><img src= images/blank.png width =""600"" height = ""600"" style=""position:fixed;top:50%; left:50%; transform: translate(-50%, -50%); border:5px solid black"">","","","","","","","",""
"","173.64499997347593","sequential-stimulus-presentation-old","95","323179","0.0-23.0-1.2","SS1619740396232","trial","","40","500","673.6449999734759","images/stimuli/spore_stims/simple_15_A_b.gif","images/stimuli/spore_stims/simple_06_A_a.gif","self_paced","","7","simple_dissimilar","images/stimuli/spore_stims/simple_06_A_a.gif","","","","",""
"","null","html-keyboard-response","96","324433","0.0-23.0-0.3","SS1619740396232","","","null","","","","","","<p><img src= images/blank.png width =""600"" height = ""600"" style=""position:fixed;top:50%; left:50%; transform: translate(-50%, -50%); border:5px solid black"">","","","","","","","",""
"","59.61000011302531","sequential-stimulus-presentation-old","97","324994","0.0-23.0-1.3","SS1619740396232","trial","","40","500","559.6100001130253","images/stimuli/spore_stims/simple_15_A_b.gif","images/stimuli/spore_stims/simple_06_A_a.gif","self_paced","","7","simple_dissimilar","images/stimuli/spore_stims/simple_15_A_b.gif","","","","",""
"","3459.7549999598414","survey-multi-choice","98","328456","0.0-24.0","SS1619740396232","math_question","","","","","","","","","","","","{""Q0"":""2""}","[0]","2","",""
"","null","html-keyboard-response","99","329532","0.0-25.0-0.0","SS1619740396232","","","null","","","","","","<p><img src= images/blank.png width =""600"" height = ""600"" style=""position:fixed;top:50%; left:50%; transform: translate(-50%, -50%); border:5px solid black"">","","","","","","","",""
"","550.1099999528378","sequential-stimulus-presentation-old","100","345097","0.0-25.0-1.0","SS1619740396232","trial","","40","500","1050.1099999528378","images/stimuli/spore_stims/simple_10_A_b.gif","images/stimuli/spore_stims/simple_19_A_a.gif","forced_long","","8","simple_dissimilar","images/stimuli/spore_stims/simple_19_A_a.gif","","","","",""
"","null","html-keyboard-response","101","346324","0.0-25.0-0.1","SS1619740396232","","","null","","","","","","<p><img src= images/blank.png width =""600"" height = ""600"" style=""position:fixed;top:50%; left:50%; transform: translate(-50%, -50%); border:5px solid black"">","","","","","","","",""
"","2506.0199999716133","sequential-stimulus-presentation-old","102","349332","0.0-25.0-1.1","SS1619740396232","trial","","40","500","3006.0199999716133","images/stimuli/spore_stims/simple_10_A_b.gif","images/stimuli/spore_stims/simple_19_A_a.gif","forced_long","","8","simple_dissimilar","images/stimuli/spore_stims/simple_19_A_a.gif","","","","",""
"","null","html-keyboard-response","103","350202","0.0-25.0-0.2","SS1619740396232","","","null","","","","","","<p><img src= images/blank.png width =""600"" height = ""600"" style=""position:fixed;top:50%; left:50%; transform: translate(-50%, -50%); border:5px solid black"">","","","","","","","",""
"","168.72999991755933","sequential-stimulus-presentation-old","104","350873","0.0-25.0-1.2","SS1619740396232","trial","","40","500","668.7299999175593","images/stimuli/spore_stims/simple_10_A_b.gif","images/stimuli/spore_stims/simple_19_A_a.gif","forced_long","","8","simple_dissimilar","images/stimuli/spore_stims/simple_19_A_a.gif","","","","",""
"","null","html-keyboard-response","105","351869","0.0-25.0-0.3","SS1619740396232","","","null","","","","","","<p><img src= images/blank.png width =""600"" height = ""600"" style=""position:fixed;top:50%; left:50%; transform: translate(-50%, -50%); border:5px solid black"">","","","","","","","",""
"","99.34499999508262","sequential-stimulus-presentation-old","106","352483","0.0-25.0-1.3","SS1619740396232","trial","","40","500","599.3449999950826","images/stimuli/spore_stims/simple_10_A_b.gif","images/stimuli/spore_stims/simple_19_A_a.gif","forced_long","","8","simple_dissimilar","images/stimuli/spore_stims/simple_19_A_a.gif","","","","",""
"","null","html-keyboard-response","107","353691","0.0-25.0-0.4","SS1619740396232","","","null","","","","","","<p><img src= images/blank.png width =""600"" height = ""600"" style=""position:fixed;top:50%; left:50%; transform: translate(-50%, -50%); border:5px solid black"">","","","","","","","",""
"","93.03999994881451","sequential-stimulus-presentation-old","108","354286","0.0-25.0-1.4","SS1619740396232","trial","","40","500","593.0399999488145","images/stimuli/spore_stims/simple_10_A_b.gif","images/stimuli/spore_stims/simple_19_A_a.gif","forced_long","","8","simple_dissimilar","images/stimuli/spore_stims/simple_19_A_a.gif","","","","",""
"","null","html-keyboard-response","109","355451","0.0-25.0-0.5","SS1619740396232","","","null","","","","","","<p><img src= images/blank.png width =""600"" height = ""600"" style=""position:fixed;top:50%; left:50%; transform: translate(-50%, -50%); border:5px solid black"">","","","","","","","",""
"","40.489999926649034","sequential-stimulus-presentation-old","110","355993","0.0-25.0-1.5","SS1619740396232","trial","","40","500","540.489999926649","images/stimuli/spore_stims/simple_10_A_b.gif","images/stimuli/spore_stims/simple_19_A_a.gif","forced_long","","8","simple_dissimilar","images/stimuli/spore_stims/simple_19_A_a.gif","","","","",""
"","28428.23999992106","survey-multi-choice","111","384423","0.0-26.0","SS1619740396232","math_question","","","","","","","","","","","","{""Q0"":""12""}","[0]","12","",""
"","null","html-keyboard-response","112","385605","0.0-27.0-0.0","SS1619740396232","","","null","","","","","","<p><img src= images/blank.png width =""600"" height = ""600"" style=""position:fixed;top:50%; left:50%; transform: translate(-50%, -50%); border:5px solid black"">","","","","","","","",""
"","1883.9849999640137","sequential-stimulus-presentation-old","113","387991","0.0-27.0-1.0","SS1619740396232","trial","","40","500","2383.9849999640137","images/stimuli/spore_stims/simple_02_A_a.gif","images/stimuli/spore_stims/simple_08_A_b.gif","forced_short","","9","simple_dissimilar","images/stimuli/spore_stims/simple_08_A_b.gif","","","","",""
"","null","html-keyboard-response","114","389148","0.0-27.0-0.1","SS1619740396232","","","null","","","","","","<p><img src= images/blank.png width =""600"" height = ""600"" style=""position:fixed;top:50%; left:50%; transform: translate(-50%, -50%); border:5px solid black"">","","","","","","","",""
"","298.98000007960945","sequential-stimulus-presentation-old","115","389949","0.0-27.0-1.1","SS1619740396232","trial","","40","500","798.9800000796095","images/stimuli/spore_stims/simple_02_A_a.gif","images/stimuli/spore_stims/simple_08_A_b.gif","forced_short","","9","simple_dissimilar","images/stimuli/spore_stims/simple_08_A_b.gif","","","","",""
"","null","html-keyboard-response","116","391218","0.0-27.0-0.2","SS1619740396232","","","null","","","","","","<p><img src= images/blank.png width =""600"" height = ""600"" style=""position:fixed;top:50%; left:50%; transform: translate(-50%, -50%); border:5px solid black"">","","","","","","","",""
"","191.92500005010515","sequential-stimulus-presentation-old","117","391912","0.0-27.0-1.2","SS1619740396232","trial","","40","500","691.9250000501052","images/stimuli/spore_stims/simple_02_A_a.gif","images/stimuli/spore_stims/simple_08_A_b.gif","forced_short","","9","simple_dissimilar","images/stimuli/spore_stims/simple_08_A_b.gif","","","","",""
"","null","html-keyboard-response","118","393083","0.0-27.0-0.3","SS1619740396232","","","null","","","","","","<p><img src= images/blank.png width =""600"" height = ""600"" style=""position:fixed;top:50%; left:50%; transform: translate(-50%, -50%); border:5px solid black"">","","","","","","","",""
"","159.06500001437962","sequential-stimulus-presentation-old","119","393744","0.0-27.0-1.3","SS1619740396232","trial","","40","500","659.0650000143796","images/stimuli/spore_stims/simple_02_A_a.gif","images/stimuli/spore_stims/simple_08_A_b.gif","forced_short","","9","simple_dissimilar","images/stimuli/spore_stims/simple_08_A_b.gif","","","","",""
"","null","html-keyboard-response","120","394602","0.0-27.0-0.4","SS1619740396232","","","null","","","","","","<p><img src= images/blank.png width =""600"" height = ""600"" style=""position:fixed;top:50%; left:50%; transform: translate(-50%, -50%); border:5px solid black"">","","","","","","","",""
"","209.17499996721745","sequential-stimulus-presentation-old","121","395314","0.0-27.0-1.4","SS1619740396232","trial","","40","500","709.1749999672174","images/stimuli/spore_stims/simple_02_A_a.gif","images/stimuli/spore_stims/simple_08_A_b.gif","forced_short","","9","simple_dissimilar","images/stimuli/spore_stims/simple_02_A_a.gif","","","","",""
"","2981.065000058152","survey-multi-choice","122","398297","0.0-28.0","SS1619740396232","math_question","","","","","","","","","","","","{""Q0"":""6""}","[0]","6","",""
"","null","html-keyboard-response","123","399442","0.0-29.0-0.0","SS1619740396232","","","null","","","","","","<p><img src= images/blank.png width =""600"" height = ""600"" style=""position:fixed;top:50%; left:50%; transform: translate(-50%, -50%); border:5px solid black"">","","","","","","","",""
"","3563.7600000482053","sequential-stimulus-presentation-old","124","418008","0.0-29.0-1.0","SS1619740396232","trial","","40","500","4063.7600000482053","images/stimuli/spore_stims/complex_01_A_a.gif","images/stimuli/spore_stims/complex_14_A_b.gif","forced_long","","10","complex_dissimilar","images/stimuli/spore_stims/complex_14_A_b.gif","","","","",""
"","null","html-keyboard-response","125","418843","0.0-29.0-0.1","SS1619740396232","","","null","","","","","","<p><img src= images/blank.png width =""600"" height = ""600"" style=""position:fixed;top:50%; left:50%; transform: translate(-50%, -50%); border:5px solid black"">","","","","","","","",""
"","8542.310000048019","sequential-stimulus-presentation-old","126","427888","0.0-29.0-1.1","SS1619740396232","trial","","40","500","9042.310000048019","images/stimuli/spore_stims/complex_01_A_a.gif","images/stimuli/spore_stims/complex_14_A_b.gif","forced_long","","10","complex_dissimilar","images/stimuli/spore_stims/complex_01_A_a.gif","","","","",""
"","null","html-keyboard-response","127","428867","0.0-29.0-0.2","SS1619740396232","","","null","","","","","","<p><img src= images/blank.png width =""600"" height = ""600"" style=""position:fixed;top:50%; left:50%; transform: translate(-50%, -50%); border:5px solid black"">","","","","","","","",""
"","5979.684999911115","sequential-stimulus-presentation-old","128","435365","0.0-29.0-1.2","SS1619740396232","trial","","40","500","6479.684999911115","images/stimuli/spore_stims/complex_01_A_a.gif","images/stimuli/spore_stims/complex_14_A_b.gif","forced_long","","10","complex_dissimilar","images/stimuli/spore_stims/complex_14_A_b.gif","","","","",""
"","null","html-keyboard-response","129","436447","0.0-29.0-0.3","SS1619740396232","","","null","","","","","","<p><img src= images/blank.png width =""600"" height = ""600"" style=""position:fixed;top:50%; left:50%; transform: translate(-50%, -50%); border:5px solid black"">","","","","","","","",""
"","104.50499993748963","sequential-stimulus-presentation-old","130","437054","0.0-29.0-1.3","SS1619740396232","trial","","40","500","604.5049999374896","images/stimuli/spore_stims/complex_01_A_a.gif","images/stimuli/spore_stims/complex_14_A_b.gif","forced_long","","10","complex_dissimilar","images/stimuli/spore_stims/complex_14_A_b.gif","","","","",""
"","3783.004999975674","survey-multi-choice","131","440839","0.0-30.0","SS1619740396232","math_question","","","","","","","","","","","","{""Q0"":""4""}","[0]","4","",""
"","null","html-keyboard-response","132","442020","0.0-31.0-0.0","SS1619740396232","","","null","","","","","","<p><img src= images/blank.png width =""600"" height = ""600"" style=""position:fixed;top:50%; left:50%; transform: translate(-50%, -50%); border:5px solid black"">","","","","","","","",""
"","8812.514999997802","sequential-stimulus-presentation-old","133","451334","0.0-31.0-1.0","SS1619740396232","trial","","40","500","9312.514999997802","images/stimuli/spore_stims/complex_19_A_a.gif","images/stimuli/spore_stims/complex_15_A_b.gif","self_paced","","11","complex_dissimilar","images/stimuli/spore_stims/complex_15_A_b.gif","","","","",""
"","null","html-keyboard-response","134","452601","0.0-31.0-0.1","SS1619740396232","","","null","","","","","","<p><img src= images/blank.png width =""600"" height = ""600"" style=""position:fixed;top:50%; left:50%; transform: translate(-50%, -50%); border:5px solid black"">","","","","","","","",""
"","450.50000003539026","sequential-stimulus-presentation-old","135","453554","0.0-31.0-1.1","SS1619740396232","trial","","40","500","950.5000000353903","images/stimuli/spore_stims/complex_19_A_a.gif","images/stimuli/spore_stims/complex_15_A_b.gif","self_paced","","11","complex_dissimilar","images/stimuli/spore_stims/complex_15_A_b.gif","","","","",""
"","null","html-keyboard-response","136","454472","0.0-31.0-0.2","SS1619740396232","","","null","","","","","","<p><img src= images/blank.png width =""600"" height = ""600"" style=""position:fixed;top:50%; left:50%; transform: translate(-50%, -50%); border:5px solid black"">","","","","","","","",""
"","5195.765000069514","sequential-stimulus-presentation-old","137","460170","0.0-31.0-1.2","SS1619740396232","trial","","40","500","5695.765000069514","images/stimuli/spore_stims/complex_19_A_a.gif","images/stimuli/spore_stims/complex_15_A_b.gif","self_paced","","11","complex_dissimilar","images/stimuli/spore_stims/complex_19_A_a.gif","","","","",""
"","null","html-keyboard-response","138","461044","0.0-31.0-0.3","SS1619740396232","","","null","","","","","","<p><img src= images/blank.png width =""600"" height = ""600"" style=""position:fixed;top:50%; left:50%; transform: translate(-50%, -50%); border:5px solid black"">","","","","","","","",""
"","325.10500005446374","sequential-stimulus-presentation-old","139","461871","0.0-31.0-1.3","SS1619740396232","trial","","40","500","825.1050000544637","images/stimuli/spore_stims/complex_19_A_a.gif","images/stimuli/spore_stims/complex_15_A_b.gif","self_paced","","11","complex_dissimilar","images/stimuli/spore_stims/complex_15_A_b.gif","","","","",""
"","null","html-keyboard-response","140","463149","0.0-31.0-0.4","SS1619740396232","","","null","","","","","","<p><img src= images/blank.png width =""600"" height = ""600"" style=""position:fixed;top:50%; left:50%; transform: translate(-50%, -50%); border:5px solid black"">","","","","","","","",""
"","2698.9149999571964","sequential-stimulus-presentation-old","141","466351","0.0-31.0-1.4","SS1619740396232","trial","","40","500","3198.9149999571964","images/stimuli/spore_stims/complex_19_A_a.gif","images/stimuli/spore_stims/complex_15_A_b.gif","self_paced","","11","complex_dissimilar","images/stimuli/spore_stims/complex_19_A_a.gif","","","","",""
"[{""page_index"":0,""viewing_time"":5376.064999960363}]","5376.199999940582","instructions","142","471729","0.0-32.0","SS1619740396232","instructions","","","","","","","","","","","","","","","",""
"","10146.140000084415","survey-likert","143","481877","0.0-33.0","SS1619740396232","similarity_question","","","","","","","","","","","","{""Q0"":4}","[0]","","images/stimuli/spore_stims/simple_14_A_b.gif","images/stimuli/spore_stims/simple_17_A_a.gif"
"","6572.805000003427","survey-likert","144","488452","0.0-34.0","SS1619740396232","similarity_question","","","","","","","","","","","","{""Q0"":1}","[0]","","images/stimuli/spore_stims/complex_01_A_a.gif","images/stimuli/spore_stims/complex_14_A_b.gif"
"","13977.940000011586","survey-likert","145","502432","0.0-35.0","SS1619740396232","similarity_question","","","","","","","","","","","","{""Q0"":2}","[0]","","images/stimuli/spore_stims/complex_15_A_b.gif","images/stimuli/spore_stims/complex_19_A_a.gif"
"","7716.8750000419095","survey-likert","146","510151","0.0-36.0","SS1619740396232","similarity_question","","","","","","","","","","","","{""Q0"":4}","[0]","","images/stimuli/spore_stims/simple_10_A_b.gif","images/stimuli/spore_stims/simple_19_A_a.gif"
"","4514.975000056438","survey-likert","147","514667","0.0-37.0","SS1619740396232","similarity_question","","","","","","","","","","","","{""Q0"":3}","[0]","","images/stimuli/spore_stims/complex_04_A_a.gif","images/stimuli/spore_stims/complex_01_A_b.gif"
"","4465.184999979101","survey-likert","148","519135","0.0-38.0","SS1619740396232","similarity_question","","","","","","","","","","","","{""Q0"":5}","[0]","","images/stimuli/spore_stims/simple_04_A_a.gif","images/stimuli/spore_stims/simple_02_A_b.gif"
"","8054.849999956787","survey-likert","149","527191","0.0-39.0","SS1619740396232","similarity_question","","","","","","","","","","","","{""Q0"":4}","[0]","","images/stimuli/spore_stims/simple_06_A_a.gif","images/stimuli/spore_stims/simple_15_A_b.gif"
"","13860.979999997653","survey-likert","150","541055","0.0-40.0","SS1619740396232","similarity_question","","","","","","","","","","","","{""Q0"":1}","[0]","","images/stimuli/spore_stims/complex_05_A_a.gif","images/stimuli/spore_stims/complex_12_A_b.gif"
"","5860.005000024103","survey-likert","151","546916","0.0-41.0","SS1619740396232","similarity_question","","","","","","","","","","","","{""Q0"":6}","[0]","","images/stimuli/spore_stims/simple_08_A_b.gif","images/stimuli/spore_stims/simple_02_A_a.gif"
"","10059.05000003986","survey-likert","152","556978","0.0-42.0","SS1619740396232","similarity_question","","","","","","","","","","","","{""Q0"":2}","[0]","","images/stimuli/spore_stims/complex_11_A_a.gif","images/stimuli/spore_stims/complex_03_A_b.gif"
"","5048.754999996163","survey-likert","153","562028","0.0-43.0","SS1619740396232","similarity_question","","","","","","","","","","","","{""Q0"":6}","[0]","","images/stimuli/spore_stims/simple_11_A_b.gif","images/stimuli/spore_stims/simple_16_A_a.gif"
"","5174.239999963902","survey-likert","154","567205","0.0-44.0","SS1619740396232","similarity_question","","","","","","","","","","","","{""Q0"":1}","[0]","","images/stimuli/spore_stims/complex_13_A_b.gif","images/stimuli/spore_stims/complex_03_A_a.gif"
"[{""page_index"":0,""viewing_time"":7064.265000051819}]","7064.4250001059845","instructions","155","574271","0.0-45.0","SS1619740396232","instructions","","","","","","","","","","","","","","","",""
"","7622.834999929182","survey-likert","156","581896","0.0-46.0","SS1619740396232","","","","","","","","","images/stimuli/spore_stims/complex_01_A_a.gif","","","","{""Q0"":3}","[0]","","",""
"","2875.8350000716746","survey-likert","157","584773","0.0-47.0","SS1619740396232","","","","","","","","","images/stimuli/spore_stims/complex_03_A_b.gif","","","","{""Q0"":4}","[0]","","",""
"","2865.805000066757","survey-likert","158","587642","0.0-48.0","SS1619740396232","","","","","","","","","images/stimuli/spore_stims/simple_17_A_a.gif","","","","{""Q0"":1}","[0]","","",""
"","3161.94500005804","survey-likert","159","590805","0.0-49.0","SS1619740396232","","","","","","","","","images/stimuli/spore_stims/simple_15_A_b.gif","","","","{""Q0"":0}","[0]","","",""
"","4961.860000039451","survey-likert","160","595770","0.0-50.0","SS1619740396232","","","","","","","","","images/stimuli/spore_stims/complex_12_A_b.gif","","","","{""Q0"":3}","[0]","","",""
"","3165.8949999837205","survey-likert","161","598938","0.0-51.0","SS1619740396232","","","","","","","","","images/stimuli/spore_stims/complex_19_A_a.gif","","","","{""Q0"":5}","[0]","","",""
"","2244.025000021793","survey-likert","162","601184","0.0-52.0","SS1619740396232","","","","","","","","","images/stimuli/spore_stims/simple_19_A_a.gif","","","","{""Q0"":1}","[0]","","",""
"","3976.9599999999627","survey-likert","163","605163","0.0-53.0","SS1619740396232","","","","","","","","","images/stimuli/spore_stims/complex_03_A_a.gif","","","","{""Q0"":4}","[0]","","",""
"","2747.6849999511614","survey-likert","164","607913","0.0-54.0","SS1619740396232","","","","","","","","","images/stimuli/spore_stims/simple_02_A_a.gif","","","","{""Q0"":0}","[0]","","",""
"","3478.010000078939","survey-likert","165","611393","0.0-55.0","SS1619740396232","","","","","","","","","images/stimuli/spore_stims/complex_04_A_a.gif","","","","{""Q0"":4}","[0]","","",""
"","3476.9349999260157","survey-likert","166","614872","0.0-56.0","SS1619740396232","","","","","","","","","images/stimuli/spore_stims/simple_02_A_b.gif","","","","{""Q0"":0}","[0]","","",""
"","1990.5049999943003","survey-likert","167","616865","0.0-57.0","SS1619740396232","","","","","","","","","images/stimuli/spore_stims/simple_11_A_b.gif","","","","{""Q0"":1}","[0]","","",""
"[{""page_index"":0,""viewing_time"":2437.2450000373647}]","2437.374999979511","instructions","168","619304","0.0-58.0","SS1619740396232","instructions","","","","","","","","","","","","","","","",""
"","2274.544999934733","demog-age","169","621581","0.0-59.0","SS1619740396232","","","","","","","","","","","","","{""age"":""21""}","","","",""
"","6627.175000030547","demog-ethnic-US","170","628211","0.0-60.0","SS1619740396232","","","","","","","","","","","","","{""ethnicity"":[""White""]}","[0]","","",""
"","22852.57999994792","demog-gender-and-education","171","651066","0.0-61.0","SS1619740396232","","","","","","","","","","","","","{""gender"":""Male"",""education"":""High school diploma""}","[0,1]","","",""
"","48173.400000086986","survey-text","172","699242","0.0-62.0","SS1619740396232","feedback","","","","","","","","","","","","{""Q0"":""As I am a gamer, I assume that all the creatures were created in \""Spore\"" game""}","","","",""
"[{""page_index"":0,""viewing_time"":2653.5400000866503}]","2653.675000066869","instructions","173","701897","0.0-63.0","SS1619740396232","instructions","","","","","","","","","","","","","","","",""
