"view_history","rt","trial_type","trial_index","time_elapsed","internal_node_id","subject","stimulus_type","trial_stimulus","key_press","minimum_viewing_duration","trial_looking_time","block_deviant","block_background","exposure_type","stimulus","block_number","block_type","stimulus_displayed","responses","question_order","math_correct_answer","stimulus_left","stimulus_right"
"[{""page_index"":0,""viewing_time"":1824.3449999717996}]","1824.625000008382","instructions","0","1826","0.0-0.0","SS1619740071889","","","","","","","","","","","","","","","","",""
"[{""page_index"":0,""viewing_time"":3053.09999990277},{""page_index"":1,""viewing_time"":2623.9400000777096}]","5677.249999949709","instructions","1","9505","0.0-1.0","SS1619740071889","instructions","","","","","","","","","","","","","","","",""
"","3530.514999991283","sequential-stimulus-presentation-old","2","13538","0.0-2.0","SS1619740071889","","","40","500","4030.514999991283","null","null","self_paced","","","","","","","","",""
"","2585.105000063777","sequential-stimulus-presentation-old","3","16625","0.0-3.0","SS1619740071889","","","40","500","3085.105000063777","null","null","self_paced","","","","","","","","",""
"[{""page_index"":0,""viewing_time"":12103.015000000596}]","12103.265000041574","instructions","4","28729","0.0-4.0","SS1619740071889","instructions","","","","","","","","","","","","","","","",""
"","2852.3699999786913","sequential-stimulus-presentation-old","5","47441","0.0-5.0","SS1619740071889","","","40","500","3352.3699999786913","null","null","forced_long","","","","","","","","",""
"","1122.1499999519438","sequential-stimulus-presentation-old","6","49065","0.0-6.0","SS1619740071889","","","40","500","1622.1499999519438","null","null","forced_long","","","","","","","","",""
"[{""page_index"":0,""viewing_time"":2863.000000012107}]","2863.255000091158","instructions","7","51930","0.0-7.0","SS1619740071889","instructions","","","","","","","","","","","","","","","",""
"[{""page_index"":0,""viewing_time"":4382.850000052713},{""page_index"":1,""viewing_time"":3432.0699999807402},{""page_index"":2,""viewing_time"":2983.955000061542},{""page_index"":3,""viewing_time"":1144.2549999337643},{""page_index"":4,""viewing_time"":839.7050000494346}]","12783.010000013746","instructions","8","64713","0.0-8.0","SS1619740071889","instructions","","","","","","","","","","","","","","","",""
"","null","html-keyboard-response","9","65582","0.0-9.0-0.0","SS1619740071889","","","null","","","","","","<p><img src= images/blank.png width =""600"" height = ""600"" style=""position:fixed;top:50%; left:50%; transform: translate(-50%, -50%); border:5px solid black"">","","","","","","","",""
"","407.4899998959154","sequential-stimulus-presentation-old","10","80993","0.0-9.0-1.0","SS1619740071889","trial","","40","500","907.4899998959154","images/stimuli/spore_stims/complex_01_A_a.gif","images/stimuli/spore_stims/complex_16_A_b.gif","forced_long","","0","complex_dissimilar","images/stimuli/spore_stims/complex_16_A_b.gif","","","","",""
"","null","html-keyboard-response","11","82243","0.0-9.0-0.1","SS1619740071889","","","null","","","","","","<p><img src= images/blank.png width =""600"" height = ""600"" style=""position:fixed;top:50%; left:50%; transform: translate(-50%, -50%); border:5px solid black"">","","","","","","","",""
"","2231.8499999819323","sequential-stimulus-presentation-old","12","84978","0.0-9.0-1.1","SS1619740071889","trial","","40","500","2731.8499999819323","images/stimuli/spore_stims/complex_01_A_a.gif","images/stimuli/spore_stims/complex_16_A_b.gif","forced_long","","0","complex_dissimilar","images/stimuli/spore_stims/complex_16_A_b.gif","","","","",""
"","null","html-keyboard-response","13","86050","0.0-9.0-0.2","SS1619740071889","","","null","","","","","","<p><img src= images/blank.png width =""600"" height = ""600"" style=""position:fixed;top:50%; left:50%; transform: translate(-50%, -50%); border:5px solid black"">","","","","","","","",""
"","1512.1600000420585","sequential-stimulus-presentation-old","14","88065","0.0-9.0-1.2","SS1619740071889","trial","","40","500","2012.1600000420585","images/stimuli/spore_stims/complex_01_A_a.gif","images/stimuli/spore_stims/complex_16_A_b.gif","forced_long","","0","complex_dissimilar","images/stimuli/spore_stims/complex_16_A_b.gif","","","","",""
"","null","html-keyboard-response","15","89161","0.0-9.0-0.3","SS1619740071889","","","null","","","","","","<p><img src= images/blank.png width =""600"" height = ""600"" style=""position:fixed;top:50%; left:50%; transform: translate(-50%, -50%); border:5px solid black"">","","","","","","","",""
"","1265.4099999926984","sequential-stimulus-presentation-old","16","90929","0.0-9.0-1.3","SS1619740071889","trial","","40","500","1765.4099999926984","images/stimuli/spore_stims/complex_01_A_a.gif","images/stimuli/spore_stims/complex_16_A_b.gif","forced_long","","0","complex_dissimilar","images/stimuli/spore_stims/complex_01_A_a.gif","","","","",""
"","null","html-keyboard-response","17","91825","0.0-9.0-0.4","SS1619740071889","","","null","","","","","","<p><img src= images/blank.png width =""600"" height = ""600"" style=""position:fixed;top:50%; left:50%; transform: translate(-50%, -50%); border:5px solid black"">","","","","","","","",""
"","522.3900000564754","sequential-stimulus-presentation-old","18","92849","0.0-9.0-1.4","SS1619740071889","trial","","40","500","1022.3900000564754","images/stimuli/spore_stims/complex_01_A_a.gif","images/stimuli/spore_stims/complex_16_A_b.gif","forced_long","","0","complex_dissimilar","images/stimuli/spore_stims/complex_16_A_b.gif","","","","",""
"","2925.950000062585","survey-multi-choice","19","95778","0.0-10.0","SS1619740071889","math_question","","","","","","","","","","","","{""Q0"":""12""}","[0]","12","",""
"","null","html-keyboard-response","20","96941","0.0-11.0-0.0","SS1619740071889","","","null","","","","","","<p><img src= images/blank.png width =""600"" height = ""600"" style=""position:fixed;top:50%; left:50%; transform: translate(-50%, -50%); border:5px solid black"">","","","","","","","",""
"","622.8000000119209","sequential-stimulus-presentation-old","21","98065","0.0-11.0-1.0","SS1619740071889","trial","","40","500","1122.800000011921","images/stimuli/spore_stims/simple_01_A_a.gif","images/stimuli/spore_stims/simple_16_A_b.gif","self_paced","","1","simple_dissimilar","images/stimuli/spore_stims/simple_16_A_b.gif","","","","",""
"","null","html-keyboard-response","22","99155","0.0-11.0-0.1","SS1619740071889","","","null","","","","","","<p><img src= images/blank.png width =""600"" height = ""600"" style=""position:fixed;top:50%; left:50%; transform: translate(-50%, -50%); border:5px solid black"">","","","","","","","",""
"","87.68999995663762","sequential-stimulus-presentation-old","23","99745","0.0-11.0-1.1","SS1619740071889","trial","","40","500","587.6899999566376","images/stimuli/spore_stims/simple_01_A_a.gif","images/stimuli/spore_stims/simple_16_A_b.gif","self_paced","","1","simple_dissimilar","images/stimuli/spore_stims/simple_16_A_b.gif","","","","",""
"","null","html-keyboard-response","24","100984","0.0-11.0-0.2","SS1619740071889","","","null","","","","","","<p><img src= images/blank.png width =""600"" height = ""600"" style=""position:fixed;top:50%; left:50%; transform: translate(-50%, -50%); border:5px solid black"">","","","","","","","",""
"","1122.8799999225885","sequential-stimulus-presentation-old","25","102609","0.0-11.0-1.2","SS1619740071889","trial","","40","500","1622.8799999225885","images/stimuli/spore_stims/simple_01_A_a.gif","images/stimuli/spore_stims/simple_16_A_b.gif","self_paced","","1","simple_dissimilar","images/stimuli/spore_stims/simple_01_A_a.gif","","","","",""
"","null","html-keyboard-response","26","103879","0.0-11.0-0.3","SS1619740071889","","","null","","","","","","<p><img src= images/blank.png width =""600"" height = ""600"" style=""position:fixed;top:50%; left:50%; transform: translate(-50%, -50%); border:5px solid black"">","","","","","","","",""
"","955.7550000026822","sequential-stimulus-presentation-old","27","105338","0.0-11.0-1.3","SS1619740071889","trial","","40","500","1455.7550000026822","images/stimuli/spore_stims/simple_01_A_a.gif","images/stimuli/spore_stims/simple_16_A_b.gif","self_paced","","1","simple_dissimilar","images/stimuli/spore_stims/simple_16_A_b.gif","","","","",""
"","null","html-keyboard-response","28","106587","0.0-11.0-0.4","SS1619740071889","","","null","","","","","","<p><img src= images/blank.png width =""600"" height = ""600"" style=""position:fixed;top:50%; left:50%; transform: translate(-50%, -50%); border:5px solid black"">","","","","","","","",""
"","768.0599999148399","sequential-stimulus-presentation-old","29","107858","0.0-11.0-1.4","SS1619740071889","trial","","40","500","1268.0599999148399","images/stimuli/spore_stims/simple_01_A_a.gif","images/stimuli/spore_stims/simple_16_A_b.gif","self_paced","","1","simple_dissimilar","images/stimuli/spore_stims/simple_01_A_a.gif","","","","",""
"","2054.9349999055266","survey-multi-choice","30","109913","0.0-12.0","SS1619740071889","math_question","","","","","","","","","","","","{""Q0"":""5""}","[0]","5","",""
"","null","html-keyboard-response","31","110937","0.0-13.0-0.0","SS1619740071889","","","null","","","","","","<p><img src= images/blank.png width =""600"" height = ""600"" style=""position:fixed;top:50%; left:50%; transform: translate(-50%, -50%); border:5px solid black"">","","","","","","","",""
"","1453.540000016801","sequential-stimulus-presentation-old","32","127393","0.0-13.0-1.0","SS1619740071889","trial","","40","500","1953.540000016801","images/stimuli/spore_stims/complex_19_A_b.gif","images/stimuli/spore_stims/complex_07_A_a.gif","forced_long","","2","complex_dissimilar","images/stimuli/spore_stims/complex_07_A_a.gif","","","","",""
"","null","html-keyboard-response","33","128373","0.0-13.0-0.1","SS1619740071889","","","null","","","","","","<p><img src= images/blank.png width =""600"" height = ""600"" style=""position:fixed;top:50%; left:50%; transform: translate(-50%, -50%); border:5px solid black"">","","","","","","","",""
"","69.5349999004975","sequential-stimulus-presentation-old","34","128945","0.0-13.0-1.1","SS1619740071889","trial","","40","500","569.5349999004975","images/stimuli/spore_stims/complex_19_A_b.gif","images/stimuli/spore_stims/complex_07_A_a.gif","forced_long","","2","complex_dissimilar","images/stimuli/spore_stims/complex_07_A_a.gif","","","","",""
"","null","html-keyboard-response","35","130175","0.0-13.0-0.2","SS1619740071889","","","null","","","","","","<p><img src= images/blank.png width =""600"" height = ""600"" style=""position:fixed;top:50%; left:50%; transform: translate(-50%, -50%); border:5px solid black"">","","","","","","","",""
"","539.3700000131503","sequential-stimulus-presentation-old","36","131217","0.0-13.0-1.2","SS1619740071889","trial","","40","500","1039.3700000131503","images/stimuli/spore_stims/complex_19_A_b.gif","images/stimuli/spore_stims/complex_07_A_a.gif","forced_long","","2","complex_dissimilar","images/stimuli/spore_stims/complex_19_A_b.gif","","","","",""
"","null","html-keyboard-response","37","132456","0.0-13.0-0.3","SS1619740071889","","","null","","","","","","<p><img src= images/blank.png width =""600"" height = ""600"" style=""position:fixed;top:50%; left:50%; transform: translate(-50%, -50%); border:5px solid black"">","","","","","","","",""
"","10.439999983645976","sequential-stimulus-presentation-old","38","132969","0.0-13.0-1.3","SS1619740071889","trial","","40","500","510.439999983646","images/stimuli/spore_stims/complex_19_A_b.gif","images/stimuli/spore_stims/complex_07_A_a.gif","forced_long","","2","complex_dissimilar","images/stimuli/spore_stims/complex_19_A_b.gif","","","","",""
"","2119.2299999529496","survey-multi-choice","39","135089","0.0-14.0","SS1619740071889","math_question","","","","","","","","","","","","{""Q0"":""2""}","[0]","2","",""
"","null","html-keyboard-response","40","136267","0.0-15.0-0.0","SS1619740071889","","","null","","","","","","<p><img src= images/blank.png width =""600"" height = ""600"" style=""position:fixed;top:50%; left:50%; transform: translate(-50%, -50%); border:5px solid black"">","","","","","","","",""
"","2262.4799999175593","sequential-stimulus-presentation-old","41","139033","0.0-15.0-1.0","SS1619740071889","trial","","40","500","2762.4799999175593","images/stimuli/spore_stims/simple_12_A_a.gif","images/stimuli/spore_stims/simple_06_A_b.gif","forced_short","","3","simple_dissimilar","images/stimuli/spore_stims/simple_06_A_b.gif","","","","",""
"","null","html-keyboard-response","42","140334","0.0-15.0-0.1","SS1619740071889","","","null","","","","","","<p><img src= images/blank.png width =""600"" height = ""600"" style=""position:fixed;top:50%; left:50%; transform: translate(-50%, -50%); border:5px solid black"">","","","","","","","",""
"","84.50999995693564","sequential-stimulus-presentation-old","43","140921","0.0-15.0-1.1","SS1619740071889","trial","","40","500","584.5099999569356","images/stimuli/spore_stims/simple_12_A_a.gif","images/stimuli/spore_stims/simple_06_A_b.gif","forced_short","","3","simple_dissimilar","images/stimuli/spore_stims/simple_06_A_b.gif","","","","",""
"","null","html-keyboard-response","44","141931","0.0-15.0-0.2","SS1619740071889","","","null","","","","","","<p><img src= images/blank.png width =""600"" height = ""600"" style=""position:fixed;top:50%; left:50%; transform: translate(-50%, -50%); border:5px solid black"">","","","","","","","",""
"","999.3800000520423","sequential-stimulus-presentation-old","45","143433","0.0-15.0-1.2","SS1619740071889","trial","","40","500","1499.3800000520423","images/stimuli/spore_stims/simple_12_A_a.gif","images/stimuli/spore_stims/simple_06_A_b.gif","forced_short","","3","simple_dissimilar","images/stimuli/spore_stims/simple_06_A_b.gif","","","","",""
"","null","html-keyboard-response","46","144451","0.0-15.0-0.3","SS1619740071889","","","null","","","","","","<p><img src= images/blank.png width =""600"" height = ""600"" style=""position:fixed;top:50%; left:50%; transform: translate(-50%, -50%); border:5px solid black"">","","","","","","","",""
"","687.2399999992922","sequential-stimulus-presentation-old","47","145641","0.0-15.0-1.3","SS1619740071889","trial","","40","500","1187.2399999992922","images/stimuli/spore_stims/simple_12_A_a.gif","images/stimuli/spore_stims/simple_06_A_b.gif","forced_short","","3","simple_dissimilar","images/stimuli/spore_stims/simple_06_A_b.gif","","","","",""
"","null","html-keyboard-response","48","146573","0.0-15.0-0.4","SS1619740071889","","","null","","","","","","<p><img src= images/blank.png width =""600"" height = ""600"" style=""position:fixed;top:50%; left:50%; transform: translate(-50%, -50%); border:5px solid black"">","","","","","","","",""
"","1268.614999949932","sequential-stimulus-presentation-old","49","148345","0.0-15.0-1.4","SS1619740071889","trial","","40","500","1768.614999949932","images/stimuli/spore_stims/simple_12_A_a.gif","images/stimuli/spore_stims/simple_06_A_b.gif","forced_short","","3","simple_dissimilar","images/stimuli/spore_stims/simple_06_A_b.gif","","","","",""
"","null","html-keyboard-response","50","149421","0.0-15.0-0.5","SS1619740071889","","","null","","","","","","<p><img src= images/blank.png width =""600"" height = ""600"" style=""position:fixed;top:50%; left:50%; transform: translate(-50%, -50%); border:5px solid black"">","","","","","","","",""
"","997.8399999672547","sequential-stimulus-presentation-old","51","150921","0.0-15.0-1.5","SS1619740071889","trial","","40","500","1497.8399999672547","images/stimuli/spore_stims/simple_12_A_a.gif","images/stimuli/spore_stims/simple_06_A_b.gif","forced_short","","3","simple_dissimilar","images/stimuli/spore_stims/simple_06_A_b.gif","","","","",""
"","2086.945000104606","survey-multi-choice","52","153009","0.0-16.0","SS1619740071889","math_question","","","","","","","","","","","","{""Q0"":""5""}","[0]","5","",""
"","null","html-keyboard-response","53","154086","0.0-17.0-0.0","SS1619740071889","","","null","","","","","","<p><img src= images/blank.png width =""600"" height = ""600"" style=""position:fixed;top:50%; left:50%; transform: translate(-50%, -50%); border:5px solid black"">","","","","","","","",""
"","1124.4500000029802","sequential-stimulus-presentation-old","54","155713","0.0-17.0-1.0","SS1619740071889","trial","","40","500","1624.4500000029802","images/stimuli/spore_stims/complex_18_A_a.gif","images/stimuli/spore_stims/complex_02_A_b.gif","self_paced","","4","complex_dissimilar","images/stimuli/spore_stims/complex_02_A_b.gif","","","","",""
"","null","html-keyboard-response","55","156660","0.0-17.0-0.1","SS1619740071889","","","null","","","","","","<p><img src= images/blank.png width =""600"" height = ""600"" style=""position:fixed;top:50%; left:50%; transform: translate(-50%, -50%); border:5px solid black"">","","","","","","","",""
"","735.0350000197068","sequential-stimulus-presentation-old","56","157897","0.0-17.0-1.1","SS1619740071889","trial","","40","500","1235.0350000197068","images/stimuli/spore_stims/complex_18_A_a.gif","images/stimuli/spore_stims/complex_02_A_b.gif","self_paced","","4","complex_dissimilar","images/stimuli/spore_stims/complex_02_A_b.gif","","","","",""
"","null","html-keyboard-response","57","158962","0.0-17.0-0.2","SS1619740071889","","","null","","","","","","<p><img src= images/blank.png width =""600"" height = ""600"" style=""position:fixed;top:50%; left:50%; transform: translate(-50%, -50%); border:5px solid black"">","","","","","","","",""
"","256.0149999335408","sequential-stimulus-presentation-old","58","159721","0.0-17.0-1.2","SS1619740071889","trial","","40","500","756.0149999335408","images/stimuli/spore_stims/complex_18_A_a.gif","images/stimuli/spore_stims/complex_02_A_b.gif","self_paced","","4","complex_dissimilar","images/stimuli/spore_stims/complex_02_A_b.gif","","","","",""
"","null","html-keyboard-response","59","160696","0.0-17.0-0.3","SS1619740071889","","","null","","","","","","<p><img src= images/blank.png width =""600"" height = ""600"" style=""position:fixed;top:50%; left:50%; transform: translate(-50%, -50%); border:5px solid black"">","","","","","","","",""
"","34.405000042170286","sequential-stimulus-presentation-old","60","161233","0.0-17.0-1.3","SS1619740071889","trial","","40","500","534.4050000421703","images/stimuli/spore_stims/complex_18_A_a.gif","images/stimuli/spore_stims/complex_02_A_b.gif","self_paced","","4","complex_dissimilar","images/stimuli/spore_stims/complex_18_A_a.gif","","","","",""
"","null","html-keyboard-response","61","162154","0.0-17.0-0.4","SS1619740071889","","","null","","","","","","<p><img src= images/blank.png width =""600"" height = ""600"" style=""position:fixed;top:50%; left:50%; transform: translate(-50%, -50%); border:5px solid black"">","","","","","","","",""
"","816.56499998644","sequential-stimulus-presentation-old","62","163473","0.0-17.0-1.4","SS1619740071889","trial","","40","500","1316.56499998644","images/stimuli/spore_stims/complex_18_A_a.gif","images/stimuli/spore_stims/complex_02_A_b.gif","self_paced","","4","complex_dissimilar","images/stimuli/spore_stims/complex_18_A_a.gif","","","","",""
"","2166.124999988824","survey-multi-choice","63","165642","0.0-18.0","SS1619740071889","math_question","","","","","","","","","","","","{""Q0"":""12""}","[0]","12","",""
"","null","html-keyboard-response","64","166619","0.0-19.0-0.0","SS1619740071889","","","null","","","","","","<p><img src= images/blank.png width =""600"" height = ""600"" style=""position:fixed;top:50%; left:50%; transform: translate(-50%, -50%); border:5px solid black"">","","","","","","","",""
"","179.9050000263378","sequential-stimulus-presentation-old","65","181802","0.0-19.0-1.0","SS1619740071889","trial","","40","500","679.9050000263378","images/stimuli/spore_stims/simple_01_A_b.gif","images/stimuli/spore_stims/simple_10_A_a.gif","forced_long","","5","simple_dissimilar","images/stimuli/spore_stims/simple_10_A_a.gif","","","","",""
"","null","html-keyboard-response","66","182706","0.0-19.0-0.1","SS1619740071889","","","null","","","","","","<p><img src= images/blank.png width =""600"" height = ""600"" style=""position:fixed;top:50%; left:50%; transform: translate(-50%, -50%); border:5px solid black"">","","","","","","","",""
"","56.08999996911734","sequential-stimulus-presentation-old","67","183265","0.0-19.0-1.1","SS1619740071889","trial","","40","500","556.0899999691173","images/stimuli/spore_stims/simple_01_A_b.gif","images/stimuli/spore_stims/simple_10_A_a.gif","forced_long","","5","simple_dissimilar","images/stimuli/spore_stims/simple_01_A_b.gif","","","","",""
"","null","html-keyboard-response","68","184180","0.0-19.0-0.2","SS1619740071889","","","null","","","","","","<p><img src= images/blank.png width =""600"" height = ""600"" style=""position:fixed;top:50%; left:50%; transform: translate(-50%, -50%); border:5px solid black"">","","","","","","","",""
"","63.3799999486655","sequential-stimulus-presentation-old","69","184745","0.0-19.0-1.2","SS1619740071889","trial","","40","500","563.3799999486655","images/stimuli/spore_stims/simple_01_A_b.gif","images/stimuli/spore_stims/simple_10_A_a.gif","forced_long","","5","simple_dissimilar","images/stimuli/spore_stims/simple_10_A_a.gif","","","","",""
"","null","html-keyboard-response","70","185792","0.0-19.0-0.3","SS1619740071889","","","null","","","","","","<p><img src= images/blank.png width =""600"" height = ""600"" style=""position:fixed;top:50%; left:50%; transform: translate(-50%, -50%); border:5px solid black"">","","","","","","","",""
"","26.95500000845641","sequential-stimulus-presentation-old","71","186322","0.0-19.0-1.3","SS1619740071889","trial","","40","500","526.9550000084564","images/stimuli/spore_stims/simple_01_A_b.gif","images/stimuli/spore_stims/simple_10_A_a.gif","forced_long","","5","simple_dissimilar","images/stimuli/spore_stims/simple_01_A_b.gif","","","","",""
"","2430.6199999991804","survey-multi-choice","72","188754","0.0-20.0","SS1619740071889","math_question","","","","","","","","","","","","{""Q0"":""3""}","[0]","3","",""
"","null","html-keyboard-response","73","189721","0.0-21.0-0.0","SS1619740071889","","","null","","","","","","<p><img src= images/blank.png width =""600"" height = ""600"" style=""position:fixed;top:50%; left:50%; transform: translate(-50%, -50%); border:5px solid black"">","","","","","","","",""
"","369.3400000920519","sequential-stimulus-presentation-old","74","190593","0.0-21.0-1.0","SS1619740071889","trial","","40","500","869.3400000920519","images/stimuli/spore_stims/complex_09_A_b.gif","images/stimuli/spore_stims/complex_03_A_a.gif","self_paced","","6","complex_dissimilar","images/stimuli/spore_stims/complex_03_A_a.gif","","","","",""
"","null","html-keyboard-response","75","191753","0.0-21.0-0.1","SS1619740071889","","","null","","","","","","<p><img src= images/blank.png width =""600"" height = ""600"" style=""position:fixed;top:50%; left:50%; transform: translate(-50%, -50%); border:5px solid black"">","","","","","","","",""
"","377.15499999467283","sequential-stimulus-presentation-old","76","192633","0.0-21.0-1.1","SS1619740071889","trial","","40","500","877.1549999946728","images/stimuli/spore_stims/complex_09_A_b.gif","images/stimuli/spore_stims/complex_03_A_a.gif","self_paced","","6","complex_dissimilar","images/stimuli/spore_stims/complex_03_A_a.gif","","","","",""
"","null","html-keyboard-response","77","193767","0.0-21.0-0.2","SS1619740071889","","","null","","","","","","<p><img src= images/blank.png width =""600"" height = ""600"" style=""position:fixed;top:50%; left:50%; transform: translate(-50%, -50%); border:5px solid black"">","","","","","","","",""
"","227.07000002264977","sequential-stimulus-presentation-old","78","194498","0.0-21.0-1.2","SS1619740071889","trial","","40","500","727.0700000226498","images/stimuli/spore_stims/complex_09_A_b.gif","images/stimuli/spore_stims/complex_03_A_a.gif","self_paced","","6","complex_dissimilar","images/stimuli/spore_stims/complex_09_A_b.gif","","","","",""
"","null","html-keyboard-response","79","195662","0.0-21.0-0.3","SS1619740071889","","","null","","","","","","<p><img src= images/blank.png width =""600"" height = ""600"" style=""position:fixed;top:50%; left:50%; transform: translate(-50%, -50%); border:5px solid black"">","","","","","","","",""
"","404.949999996461","sequential-stimulus-presentation-old","80","196570","0.0-21.0-1.3","SS1619740071889","trial","","40","500","904.949999996461","images/stimuli/spore_stims/complex_09_A_b.gif","images/stimuli/spore_stims/complex_03_A_a.gif","self_paced","","6","complex_dissimilar","images/stimuli/spore_stims/complex_09_A_b.gif","","","","",""
"","null","html-keyboard-response","81","197533","0.0-21.0-0.4","SS1619740071889","","","null","","","","","","<p><img src= images/blank.png width =""600"" height = ""600"" style=""position:fixed;top:50%; left:50%; transform: translate(-50%, -50%); border:5px solid black"">","","","","","","","",""
"","77.31500000227243","sequential-stimulus-presentation-old","82","198113","0.0-21.0-1.4","SS1619740071889","trial","","40","500","577.3150000022724","images/stimuli/spore_stims/complex_09_A_b.gif","images/stimuli/spore_stims/complex_03_A_a.gif","self_paced","","6","complex_dissimilar","images/stimuli/spore_stims/complex_03_A_a.gif","","","","",""
"","2838.4550000773743","survey-multi-choice","83","200954","0.0-22.0","SS1619740071889","math_question","","","","","","","","","","","","{""Q0"":""12""}","[0]","12","",""
"","null","html-keyboard-response","84","202230","0.0-23.0-0.0","SS1619740071889","","","null","","","","","","<p><img src= images/blank.png width =""600"" height = ""600"" style=""position:fixed;top:50%; left:50%; transform: translate(-50%, -50%); border:5px solid black"">","","","","","","","",""
"","2292.7899999776855","sequential-stimulus-presentation-old","85","205026","0.0-23.0-1.0","SS1619740071889","trial","","40","500","2792.7899999776855","images/stimuli/spore_stims/complex_18_A_b.gif","images/stimuli/spore_stims/complex_05_A_a.gif","forced_short","","7","complex_dissimilar","images/stimuli/spore_stims/complex_05_A_a.gif","","","","",""
"","null","html-keyboard-response","86","206328","0.0-23.0-0.1","SS1619740071889","","","null","","","","","","<p><img src= images/blank.png width =""600"" height = ""600"" style=""position:fixed;top:50%; left:50%; transform: translate(-50%, -50%); border:5px solid black"">","","","","","","","",""
"","122.64499999582767","sequential-stimulus-presentation-old","87","206954","0.0-23.0-1.1","SS1619740071889","trial","","40","500","622.6449999958277","images/stimuli/spore_stims/complex_18_A_b.gif","images/stimuli/spore_stims/complex_05_A_a.gif","forced_short","","7","complex_dissimilar","images/stimuli/spore_stims/complex_05_A_a.gif","","","","",""
"","null","html-keyboard-response","88","207927","0.0-23.0-0.2","SS1619740071889","","","null","","","","","","<p><img src= images/blank.png width =""600"" height = ""600"" style=""position:fixed;top:50%; left:50%; transform: translate(-50%, -50%); border:5px solid black"">","","","","","","","",""
"","170.08000006899238","sequential-stimulus-presentation-old","89","208601","0.0-23.0-1.2","SS1619740071889","trial","","40","500","670.0800000689924","images/stimuli/spore_stims/complex_18_A_b.gif","images/stimuli/spore_stims/complex_05_A_a.gif","forced_short","","7","complex_dissimilar","images/stimuli/spore_stims/complex_05_A_a.gif","","","","",""
"","null","html-keyboard-response","90","209876","0.0-23.0-0.3","SS1619740071889","","","null","","","","","","<p><img src= images/blank.png width =""600"" height = ""600"" style=""position:fixed;top:50%; left:50%; transform: translate(-50%, -50%); border:5px solid black"">","","","","","","","",""
"","2798.9550000056624","sequential-stimulus-presentation-old","91","213178","0.0-23.0-1.3","SS1619740071889","trial","","40","500","3298.9550000056624","images/stimuli/spore_stims/complex_18_A_b.gif","images/stimuli/spore_stims/complex_05_A_a.gif","forced_short","","7","complex_dissimilar","images/stimuli/spore_stims/complex_18_A_b.gif","","","","",""
"","null","html-keyboard-response","92","214467","0.0-23.0-0.4","SS1619740071889","","","null","","","","","","<p><img src= images/blank.png width =""600"" height = ""600"" style=""position:fixed;top:50%; left:50%; transform: translate(-50%, -50%); border:5px solid black"">","","","","","","","",""
"","133.95499996840954","sequential-stimulus-presentation-old","93","215105","0.0-23.0-1.4","SS1619740071889","trial","","40","500","633.9549999684095","images/stimuli/spore_stims/complex_18_A_b.gif","images/stimuli/spore_stims/complex_05_A_a.gif","forced_short","","7","complex_dissimilar","images/stimuli/spore_stims/complex_05_A_a.gif","","","","",""
"","null","html-keyboard-response","94","216023","0.0-23.0-0.5","SS1619740071889","","","null","","","","","","<p><img src= images/blank.png width =""600"" height = ""600"" style=""position:fixed;top:50%; left:50%; transform: translate(-50%, -50%); border:5px solid black"">","","","","","","","",""
"","1068.0750000756234","sequential-stimulus-presentation-old","95","217594","0.0-23.0-1.5","SS1619740071889","trial","","40","500","1568.0750000756234","images/stimuli/spore_stims/complex_18_A_b.gif","images/stimuli/spore_stims/complex_05_A_a.gif","forced_short","","7","complex_dissimilar","images/stimuli/spore_stims/complex_18_A_b.gif","","","","",""
"","6798.520000069402","survey-multi-choice","96","224394","0.0-24.0","SS1619740071889","math_question","","","","","","","","","","","","{""Q0"":""6""}","[0]","6","",""
"","null","html-keyboard-response","97","225588","0.0-25.0-0.0","SS1619740071889","","","null","","","","","","<p><img src= images/blank.png width =""600"" height = ""600"" style=""position:fixed;top:50%; left:50%; transform: translate(-50%, -50%); border:5px solid black"">","","","","","","","",""
"","38.70999999344349","sequential-stimulus-presentation-old","98","226130","0.0-25.0-1.0","SS1619740071889","trial","","40","500","538.7099999934435","images/stimuli/spore_stims/simple_15_A_b.gif","images/stimuli/spore_stims/simple_11_A_a.gif","forced_short","","8","simple_dissimilar","images/stimuli/spore_stims/simple_11_A_a.gif","","","","",""
"","null","html-keyboard-response","99","226952","0.0-25.0-0.1","SS1619740071889","","","null","","","","","","<p><img src= images/blank.png width =""600"" height = ""600"" style=""position:fixed;top:50%; left:50%; transform: translate(-50%, -50%); border:5px solid black"">","","","","","","","",""
"","81.4249999821186","sequential-stimulus-presentation-old","100","227537","0.0-25.0-1.1","SS1619740071889","trial","","40","500","581.4249999821186","images/stimuli/spore_stims/simple_15_A_b.gif","images/stimuli/spore_stims/simple_11_A_a.gif","forced_short","","8","simple_dissimilar","images/stimuli/spore_stims/simple_11_A_a.gif","","","","",""
"","null","html-keyboard-response","101","228812","0.0-25.0-0.2","SS1619740071889","","","null","","","","","","<p><img src= images/blank.png width =""600"" height = ""600"" style=""position:fixed;top:50%; left:50%; transform: translate(-50%, -50%); border:5px solid black"">","","","","","","","",""
"","206.10000006854534","sequential-stimulus-presentation-old","102","229521","0.0-25.0-1.2","SS1619740071889","trial","","40","500","706.1000000685453","images/stimuli/spore_stims/simple_15_A_b.gif","images/stimuli/spore_stims/simple_11_A_a.gif","forced_short","","8","simple_dissimilar","images/stimuli/spore_stims/simple_11_A_a.gif","","","","",""
"","null","html-keyboard-response","103","230426","0.0-25.0-0.3","SS1619740071889","","","null","","","","","","<p><img src= images/blank.png width =""600"" height = ""600"" style=""position:fixed;top:50%; left:50%; transform: translate(-50%, -50%); border:5px solid black"">","","","","","","","",""
"","801.4850000618026","sequential-stimulus-presentation-old","104","231730","0.0-25.0-1.3","SS1619740071889","trial","","40","500","1301.4850000618026","images/stimuli/spore_stims/simple_15_A_b.gif","images/stimuli/spore_stims/simple_11_A_a.gif","forced_short","","8","simple_dissimilar","images/stimuli/spore_stims/simple_15_A_b.gif","","","","",""
"","null","html-keyboard-response","105","232970","0.0-25.0-0.4","SS1619740071889","","","null","","","","","","<p><img src= images/blank.png width =""600"" height = ""600"" style=""position:fixed;top:50%; left:50%; transform: translate(-50%, -50%); border:5px solid black"">","","","","","","","",""
"","1143.7000000150874","sequential-stimulus-presentation-old","106","234618","0.0-25.0-1.4","SS1619740071889","trial","","40","500","1643.7000000150874","images/stimuli/spore_stims/simple_15_A_b.gif","images/stimuli/spore_stims/simple_11_A_a.gif","forced_short","","8","simple_dissimilar","images/stimuli/spore_stims/simple_11_A_a.gif","","","","",""
"","5693.8300000038","survey-multi-choice","107","240314","0.0-26.0","SS1619740071889","math_question","","","","","","","","","","","","{""Q0"":""13""}","[0]","13","",""
"","null","html-keyboard-response","108","241218","0.0-27.0-0.0","SS1619740071889","","","null","","","","","","<p><img src= images/blank.png width =""600"" height = ""600"" style=""position:fixed;top:50%; left:50%; transform: translate(-50%, -50%); border:5px solid black"">","","","","","","","",""
"","903.580000041984","sequential-stimulus-presentation-old","109","242625","0.0-27.0-1.0","SS1619740071889","trial","","40","500","1403.580000041984","images/stimuli/spore_stims/simple_02_A_b.gif","images/stimuli/spore_stims/simple_07_A_a.gif","self_paced","","9","simple_dissimilar","images/stimuli/spore_stims/simple_07_A_a.gif","","","","",""
"","null","html-keyboard-response","110","243884","0.0-27.0-0.1","SS1619740071889","","","null","","","","","","<p><img src= images/blank.png width =""600"" height = ""600"" style=""position:fixed;top:50%; left:50%; transform: translate(-50%, -50%); border:5px solid black"">","","","","","","","",""
"","415.1600000914186","sequential-stimulus-presentation-old","111","244802","0.0-27.0-1.1","SS1619740071889","trial","","40","500","915.1600000914186","images/stimuli/spore_stims/simple_02_A_b.gif","images/stimuli/spore_stims/simple_07_A_a.gif","self_paced","","9","simple_dissimilar","images/stimuli/spore_stims/simple_07_A_a.gif","","","","",""
"","null","html-keyboard-response","112","245845","0.0-27.0-0.2","SS1619740071889","","","null","","","","","","<p><img src= images/blank.png width =""600"" height = ""600"" style=""position:fixed;top:50%; left:50%; transform: translate(-50%, -50%); border:5px solid black"">","","","","","","","",""
"","92.78999990783632","sequential-stimulus-presentation-old","113","246441","0.0-27.0-1.2","SS1619740071889","trial","","40","500","592.7899999078363","images/stimuli/spore_stims/simple_02_A_b.gif","images/stimuli/spore_stims/simple_07_A_a.gif","self_paced","","9","simple_dissimilar","images/stimuli/spore_stims/simple_07_A_a.gif","","","","",""
"","null","html-keyboard-response","114","247559","0.0-27.0-0.3","SS1619740071889","","","null","","","","","","<p><img src= images/blank.png width =""600"" height = ""600"" style=""position:fixed;top:50%; left:50%; transform: translate(-50%, -50%); border:5px solid black"">","","","","","","","",""
"","1108.2600000081584","sequential-stimulus-presentation-old","115","249170","0.0-27.0-1.3","SS1619740071889","trial","","40","500","1608.2600000081584","images/stimuli/spore_stims/simple_02_A_b.gif","images/stimuli/spore_stims/simple_07_A_a.gif","self_paced","","9","simple_dissimilar","images/stimuli/spore_stims/simple_07_A_a.gif","","","","",""
"","null","html-keyboard-response","116","250196","0.0-27.0-0.4","SS1619740071889","","","null","","","","","","<p><img src= images/blank.png width =""600"" height = ""600"" style=""position:fixed;top:50%; left:50%; transform: translate(-50%, -50%); border:5px solid black"">","","","","","","","",""
"","1022.0599999884143","sequential-stimulus-presentation-old","117","251721","0.0-27.0-1.4","SS1619740071889","trial","","40","500","1522.0599999884143","images/stimuli/spore_stims/simple_02_A_b.gif","images/stimuli/spore_stims/simple_07_A_a.gif","self_paced","","9","simple_dissimilar","images/stimuli/spore_stims/simple_07_A_a.gif","","","","",""
"","3510.6399999931455","survey-multi-choice","118","255234","0.0-28.0","SS1619740071889","math_question","","","","","","","","","","","","{""Q0"":""17""}","[0]","17","",""
"","null","html-keyboard-response","119","256300","0.0-29.0-0.0","SS1619740071889","","","null","","","","","","<p><img src= images/blank.png width =""600"" height = ""600"" style=""position:fixed;top:50%; left:50%; transform: translate(-50%, -50%); border:5px solid black"">","","","","","","","",""
"","6485.150000080466","sequential-stimulus-presentation-old","120","263289","0.0-29.0-1.0","SS1619740071889","trial","","40","500","6985.150000080466","images/stimuli/spore_stims/complex_10_A_a.gif","images/stimuli/spore_stims/complex_17_A_b.gif","forced_short","","10","complex_dissimilar","images/stimuli/spore_stims/complex_17_A_b.gif","","","","",""
"","null","html-keyboard-response","121","264220","0.0-29.0-0.1","SS1619740071889","","","null","","","","","","<p><img src= images/blank.png width =""600"" height = ""600"" style=""position:fixed;top:50%; left:50%; transform: translate(-50%, -50%); border:5px solid black"">","","","","","","","",""
"","1469.344999990426","sequential-stimulus-presentation-old","122","266194","0.0-29.0-1.1","SS1619740071889","trial","","40","500","1969.344999990426","images/stimuli/spore_stims/complex_10_A_a.gif","images/stimuli/spore_stims/complex_17_A_b.gif","forced_short","","10","complex_dissimilar","images/stimuli/spore_stims/complex_17_A_b.gif","","","","",""
"","null","html-keyboard-response","123","267473","0.0-29.0-0.2","SS1619740071889","","","null","","","","","","<p><img src= images/blank.png width =""600"" height = ""600"" style=""position:fixed;top:50%; left:50%; transform: translate(-50%, -50%); border:5px solid black"">","","","","","","","",""
"","680.7650000555441","sequential-stimulus-presentation-old","124","268657","0.0-29.0-1.2","SS1619740071889","trial","","40","500","1180.765000055544","images/stimuli/spore_stims/complex_10_A_a.gif","images/stimuli/spore_stims/complex_17_A_b.gif","forced_short","","10","complex_dissimilar","images/stimuli/spore_stims/complex_17_A_b.gif","","","","",""
"","null","html-keyboard-response","125","269750","0.0-29.0-0.3","SS1619740071889","","","null","","","","","","<p><img src= images/blank.png width =""600"" height = ""600"" style=""position:fixed;top:50%; left:50%; transform: translate(-50%, -50%); border:5px solid black"">","","","","","","","",""
"","724.2450000485405","sequential-stimulus-presentation-old","126","270977","0.0-29.0-1.3","SS1619740071889","trial","","40","500","1224.2450000485405","images/stimuli/spore_stims/complex_10_A_a.gif","images/stimuli/spore_stims/complex_17_A_b.gif","forced_short","","10","complex_dissimilar","images/stimuli/spore_stims/complex_10_A_a.gif","","","","",""
"","null","html-keyboard-response","127","272167","0.0-29.0-0.4","SS1619740071889","","","null","","","","","","<p><img src= images/blank.png width =""600"" height = ""600"" style=""position:fixed;top:50%; left:50%; transform: translate(-50%, -50%); border:5px solid black"">","","","","","","","",""
"","266.37500000651926","sequential-stimulus-presentation-old","128","272937","0.0-29.0-1.4","SS1619740071889","trial","","40","500","766.3750000065193","images/stimuli/spore_stims/complex_10_A_a.gif","images/stimuli/spore_stims/complex_17_A_b.gif","forced_short","","10","complex_dissimilar","images/stimuli/spore_stims/complex_17_A_b.gif","","","","",""
"","4325.985000003129","survey-multi-choice","129","277266","0.0-30.0","SS1619740071889","math_question","","","","","","","","","","","","{""Q0"":""12""}","[0]","12","",""
"","null","html-keyboard-response","130","278326","0.0-31.0-0.0","SS1619740071889","","","null","","","","","","<p><img src= images/blank.png width =""600"" height = ""600"" style=""position:fixed;top:50%; left:50%; transform: translate(-50%, -50%); border:5px solid black"">","","","","","","","",""
"","3415.8250000327826","sequential-stimulus-presentation-old","131","296745","0.0-31.0-1.0","SS1619740071889","trial","","40","500","3915.8250000327826","images/stimuli/spore_stims/simple_03_A_b.gif","images/stimuli/spore_stims/simple_06_A_a.gif","forced_long","","11","simple_dissimilar","images/stimuli/spore_stims/simple_06_A_a.gif","","","","",""
"","null","html-keyboard-response","132","297632","0.0-31.0-0.1","SS1619740071889","","","null","","","","","","<p><img src= images/blank.png width =""600"" height = ""600"" style=""position:fixed;top:50%; left:50%; transform: translate(-50%, -50%); border:5px solid black"">","","","","","","","",""
"","48.59499994199723","sequential-stimulus-presentation-old","133","298185","0.0-31.0-1.1","SS1619740071889","trial","","40","500","548.5949999419972","images/stimuli/spore_stims/simple_03_A_b.gif","images/stimuli/spore_stims/simple_06_A_a.gif","forced_long","","11","simple_dissimilar","images/stimuli/spore_stims/simple_06_A_a.gif","","","","",""
"","null","html-keyboard-response","134","299279","0.0-31.0-0.2","SS1619740071889","","","null","","","","","","<p><img src= images/blank.png width =""600"" height = ""600"" style=""position:fixed;top:50%; left:50%; transform: translate(-50%, -50%); border:5px solid black"">","","","","","","","",""
"","1057.9150000121444","sequential-stimulus-presentation-old","135","300841","0.0-31.0-1.2","SS1619740071889","trial","","40","500","1557.9150000121444","images/stimuli/spore_stims/simple_03_A_b.gif","images/stimuli/spore_stims/simple_06_A_a.gif","forced_long","","11","simple_dissimilar","images/stimuli/spore_stims/simple_06_A_a.gif","","","","",""
"","null","html-keyboard-response","136","302086","0.0-31.0-0.3","SS1619740071889","","","null","","","","","","<p><img src= images/blank.png width =""600"" height = ""600"" style=""position:fixed;top:50%; left:50%; transform: translate(-50%, -50%); border:5px solid black"">","","","","","","","",""
"","11.595000047236681","sequential-stimulus-presentation-old","137","302601","0.0-31.0-1.3","SS1619740071889","trial","","40","500","511.5950000472367","images/stimuli/spore_stims/simple_03_A_b.gif","images/stimuli/spore_stims/simple_06_A_a.gif","forced_long","","11","simple_dissimilar","images/stimuli/spore_stims/simple_06_A_a.gif","","","","",""
"","null","html-keyboard-response","138","303454","0.0-31.0-0.4","SS1619740071889","","","null","","","","","","<p><img src= images/blank.png width =""600"" height = ""600"" style=""position:fixed;top:50%; left:50%; transform: translate(-50%, -50%); border:5px solid black"">","","","","","","","",""
"","11.394999921321869","sequential-stimulus-presentation-old","139","303969","0.0-31.0-1.4","SS1619740071889","trial","","40","500","511.39499992132187","images/stimuli/spore_stims/simple_03_A_b.gif","images/stimuli/spore_stims/simple_06_A_a.gif","forced_long","","11","simple_dissimilar","images/stimuli/spore_stims/simple_06_A_a.gif","","","","",""
"","null","html-keyboard-response","140","305256","0.0-31.0-0.5","SS1619740071889","","","null","","","","","","<p><img src= images/blank.png width =""600"" height = ""600"" style=""position:fixed;top:50%; left:50%; transform: translate(-50%, -50%); border:5px solid black"">","","","","","","","",""
"","632.3099998990074","sequential-stimulus-presentation-old","141","306393","0.0-31.0-1.5","SS1619740071889","trial","","40","500","1132.3099998990074","images/stimuli/spore_stims/simple_03_A_b.gif","images/stimuli/spore_stims/simple_06_A_a.gif","forced_long","","11","simple_dissimilar","images/stimuli/spore_stims/simple_03_A_b.gif","","","","",""
"[{""page_index"":0,""viewing_time"":3374.0550000220537}]","3374.2499999934807","instructions","142","309769","0.0-32.0","SS1619740071889","instructions","","","","","","","","","","","","","","","",""
"","5821.17000001017","survey-likert","143","315593","0.0-33.0","SS1619740071889","similarity_question","","","","","","","","","","","","{""Q0"":2}","[0]","","images/stimuli/spore_stims/complex_17_A_b.gif","images/stimuli/spore_stims/complex_10_A_a.gif"
"","2108.045000000857","survey-likert","144","317705","0.0-34.0","SS1619740071889","similarity_question","","","","","","","","","","","","{""Q0"":2}","[0]","","images/stimuli/spore_stims/complex_16_A_b.gif","images/stimuli/spore_stims/complex_01_A_a.gif"
"","1571.9249999383464","survey-likert","145","319281","0.0-35.0","SS1619740071889","similarity_question","","","","","","","","","","","","{""Q0"":2}","[0]","","images/stimuli/spore_stims/complex_07_A_a.gif","images/stimuli/spore_stims/complex_19_A_b.gif"
"","2100.689999992028","survey-likert","146","321385","0.0-36.0","SS1619740071889","similarity_question","","","","","","","","","","","","{""Q0"":4}","[0]","","images/stimuli/spore_stims/simple_11_A_a.gif","images/stimuli/spore_stims/simple_15_A_b.gif"
"","2243.995000026189","survey-likert","147","323633","0.0-37.0","SS1619740071889","similarity_question","","","","","","","","","","","","{""Q0"":2}","[0]","","images/stimuli/spore_stims/complex_05_A_a.gif","images/stimuli/spore_stims/complex_18_A_b.gif"
"","1475.800000014715","survey-likert","148","325113","0.0-38.0","SS1619740071889","similarity_question","","","","","","","","","","","","{""Q0"":4}","[0]","","images/stimuli/spore_stims/simple_01_A_a.gif","images/stimuli/spore_stims/simple_16_A_b.gif"
"","1284.609999973327","survey-likert","149","326401","0.0-39.0","SS1619740071889","similarity_question","","","","","","","","","","","","{""Q0"":4}","[0]","","images/stimuli/spore_stims/simple_07_A_a.gif","images/stimuli/spore_stims/simple_02_A_b.gif"
"","1379.7300000442192","survey-likert","150","327785","0.0-40.0","SS1619740071889","similarity_question","","","","","","","","","","","","{""Q0"":2}","[0]","","images/stimuli/spore_stims/complex_02_A_b.gif","images/stimuli/spore_stims/complex_18_A_a.gif"
"","1307.6799999689683","survey-likert","151","329097","0.0-41.0","SS1619740071889","similarity_question","","","","","","","","","","","","{""Q0"":4}","[0]","","images/stimuli/spore_stims/simple_06_A_a.gif","images/stimuli/spore_stims/simple_03_A_b.gif"
"","1148.4449999406934","survey-likert","152","330249","0.0-42.0","SS1619740071889","similarity_question","","","","","","","","","","","","{""Q0"":4}","[0]","","images/stimuli/spore_stims/simple_12_A_a.gif","images/stimuli/spore_stims/simple_06_A_b.gif"
"","1300.0600000377744","survey-likert","153","331553","0.0-43.0","SS1619740071889","similarity_question","","","","","","","","","","","","{""Q0"":2}","[0]","","images/stimuli/spore_stims/complex_09_A_b.gif","images/stimuli/spore_stims/complex_03_A_a.gif"
"","1355.0849999301136","survey-likert","154","332913","0.0-44.0","SS1619740071889","similarity_question","","","","","","","","","","","","{""Q0"":4}","[0]","","images/stimuli/spore_stims/simple_01_A_b.gif","images/stimuli/spore_stims/simple_10_A_a.gif"
"[{""page_index"":0,""viewing_time"":2316.8750000186265}]","2317.060000030324","instructions","155","335233","0.0-45.0","SS1619740071889","instructions","","","","","","","","","","","","","","","",""
"","2253.099999972619","survey-likert","156","337489","0.0-46.0","SS1619740071889","","","","","","","","","images/stimuli/spore_stims/simple_06_A_a.gif","","","","{""Q0"":2}","[0]","","",""
"","1483.820000081323","survey-likert","157","338977","0.0-47.0","SS1619740071889","","","","","","","","","images/stimuli/spore_stims/simple_06_A_b.gif","","","","{""Q0"":2}","[0]","","",""
"","1276.964999968186","survey-likert","158","340257","0.0-48.0","SS1619740071889","","","","","","","","","images/stimuli/spore_stims/simple_11_A_a.gif","","","","{""Q0"":2}","[0]","","",""
"","3756.234999978915","survey-likert","159","344017","0.0-49.0","SS1619740071889","","","","","","","","","images/stimuli/spore_stims/complex_07_A_a.gif","","","","{""Q0"":4}","[0]","","",""
"","1475.884999963455","survey-likert","160","345497","0.0-50.0","SS1619740071889","","","","","","","","","images/stimuli/spore_stims/complex_01_A_a.gif","","","","{""Q0"":4}","[0]","","",""
"","1140.9350000321865","survey-likert","161","346641","0.0-51.0","SS1619740071889","","","","","","","","","images/stimuli/spore_stims/complex_18_A_a.gif","","","","{""Q0"":4}","[0]","","",""
"","1228.1999998958781","survey-likert","162","347873","0.0-52.0","SS1619740071889","","","","","","","","","images/stimuli/spore_stims/complex_03_A_a.gif","","","","{""Q0"":4}","[0]","","",""
"","1819.7899999795482","survey-likert","163","349697","0.0-53.0","SS1619740071889","","","","","","","","","images/stimuli/spore_stims/simple_07_A_a.gif","","","","{""Q0"":2}","[0]","","",""
"","1637.0549999410287","survey-likert","164","351337","0.0-54.0","SS1619740071889","","","","","","","","","images/stimuli/spore_stims/simple_16_A_b.gif","","","","{""Q0"":2}","[0]","","",""
"","1804.0649999165908","survey-likert","165","353145","0.0-55.0","SS1619740071889","","","","","","","","","images/stimuli/spore_stims/complex_10_A_a.gif","","","","{""Q0"":4}","[0]","","",""
"","1283.6749999551103","survey-likert","166","354433","0.0-56.0","SS1619740071889","","","","","","","","","images/stimuli/spore_stims/complex_18_A_b.gif","","","","{""Q0"":4}","[0]","","",""
"","1460.7049999758601","survey-likert","167","355897","0.0-57.0","SS1619740071889","","","","","","","","","images/stimuli/spore_stims/simple_10_A_a.gif","","","","{""Q0"":2}","[0]","","",""
"[{""page_index"":0,""viewing_time"":1996.2750000413507}]","1996.5699999593198","instructions","168","357897","0.0-58.0","SS1619740071889","instructions","","","","","","","","","","","","","","","",""
"","2408.9449999155477","demog-age","169","360313","0.0-59.0","SS1619740071889","","","","","","","","","","","","","{""age"":""19""}","","","",""
"","3451.4750000089407","demog-ethnic-US","170","363769","0.0-60.0","SS1619740071889","","","","","","","","","","","","","{""ethnicity"":[""Asian""]}","[0]","","",""
"","8156.099999905564","demog-gender-and-education","171","371929","0.0-61.0","SS1619740071889","","","","","","","","","","","","","{""gender"":""Female"",""education"":""High school diploma""}","[0,1]","","",""
"","4762.555000022985","survey-text","172","376697","0.0-62.0","SS1619740071889","feedback","","","","","","","","","","","","{""Q0"":""n/a""}","","","",""
"[{""page_index"":0,""viewing_time"":2140.364999999292}]","2140.54000005126","instructions","173","378841","0.0-63.0","SS1619740071889","instructions","","","","","","","","","","","","","","","",""
