"view_history","rt","trial_type","trial_index","time_elapsed","internal_node_id","subject","stimulus_type","trial_stimulus","key_press","minimum_viewing_duration","trial_looking_time","block_deviant","block_background","exposure_type","stimulus","block_number","block_type","stimulus_displayed","responses","question_order","math_correct_answer","stimulus_left","stimulus_right"
"[{""page_index"":0,""viewing_time"":44107.880000025034}]","44108.98000001907","instructions","0","44110","0.0-0.0","SS1619740053610","","","","","","","","","","","","","","","","",""
"[{""page_index"":0,""viewing_time"":14476.589999976568},{""page_index"":1,""viewing_time"":11259.245000081137}]","25736.23999999836","instructions","1","71849","0.0-1.0","SS1619740053610","instructions","","","","","","","","","","","","","","","",""
"","10570.160000002943","sequential-stimulus-presentation-old","2","82924","0.0-2.0","SS1619740053610","","","40","500","11070.160000002943","null","null","self_paced","","","","","","","","",""
"","4399.704999988899","sequential-stimulus-presentation-old","3","87827","0.0-3.0","SS1619740053610","","","40","500","4899.704999988899","null","null","self_paced","","","","","","","","",""
"[{""page_index"":0,""viewing_time"":24570.189999998547}]","24570.49499999266","instructions","4","112399","0.0-4.0","SS1619740053610","instructions","","","","","","","","","","","","","","","",""
"","716.2849999731407","sequential-stimulus-presentation-old","5","128119","0.0-5.0","SS1619740053610","","","40","500","1216.2849999731407","null","null","forced_long","","","","","","","","",""
"","4062.969999969937","sequential-stimulus-presentation-old","6","132686","0.0-6.0","SS1619740053610","","","40","500","4562.969999969937","null","null","forced_long","","","","","","","","",""
"[{""page_index"":0,""viewing_time"":7262.680000043474}]","7263.024999992922","instructions","7","139950","0.0-7.0","SS1619740053610","instructions","","","","","","","","","","","","","","","",""
"[{""page_index"":0,""viewing_time"":10872.720000101253},{""page_index"":1,""viewing_time"":11424.57499995362},{""page_index"":2,""viewing_time"":7748.759999987669},{""page_index"":3,""viewing_time"":2080.169999971986},{""page_index"":4,""viewing_time"":2160.9250000910833}]","34287.455000099726","instructions","8","174239","0.0-8.0","SS1619740053610","instructions","","","","","","","","","","","","","","","",""
"","null","html-keyboard-response","9","175348","0.0-9.0-0.0","SS1619740053610","","","null","","","","","","<p><img src= images/blank.png width =""600"" height = ""600"" style=""position:fixed;top:50%; left:50%; transform: translate(-50%, -50%); border:5px solid black"">","","","","","","","",""
"","614.0100000193343","sequential-stimulus-presentation-old","10","190967","0.0-9.0-1.0","SS1619740053610","trial","","40","500","1114.0100000193343","images/stimuli/spore_stims/complex_01_A_b.gif","images/stimuli/spore_stims/complex_07_A_a.gif","forced_long","","0","complex_dissimilar","images/stimuli/spore_stims/complex_07_A_a.gif","","","","",""
"","null","html-keyboard-response","11","192241","0.0-9.0-0.1","SS1619740053610","","","null","","","","","","<p><img src= images/blank.png width =""600"" height = ""600"" style=""position:fixed;top:50%; left:50%; transform: translate(-50%, -50%); border:5px solid black"">","","","","","","","",""
"","16631.7300000228","sequential-stimulus-presentation-old","12","209377","0.0-9.0-1.1","SS1619740053610","trial","","40","500","17131.7300000228","images/stimuli/spore_stims/complex_01_A_b.gif","images/stimuli/spore_stims/complex_07_A_a.gif","forced_long","","0","complex_dissimilar","images/stimuli/spore_stims/complex_07_A_a.gif","","","","",""
"","null","html-keyboard-response","13","210443","0.0-9.0-0.2","SS1619740053610","","","null","","","","","","<p><img src= images/blank.png width =""600"" height = ""600"" style=""position:fixed;top:50%; left:50%; transform: translate(-50%, -50%); border:5px solid black"">","","","","","","","",""
"","5731.4100000076","sequential-stimulus-presentation-old","14","216680","0.0-9.0-1.2","SS1619740053610","trial","","40","500","6231.4100000076","images/stimuli/spore_stims/complex_01_A_b.gif","images/stimuli/spore_stims/complex_07_A_a.gif","forced_long","","0","complex_dissimilar","images/stimuli/spore_stims/complex_07_A_a.gif","","","","",""
"","null","html-keyboard-response","15","217490","0.0-9.0-0.3","SS1619740053610","","","null","","","","","","<p><img src= images/blank.png width =""600"" height = ""600"" style=""position:fixed;top:50%; left:50%; transform: translate(-50%, -50%); border:5px solid black"">","","","","","","","",""
"","3719.2200000863522","sequential-stimulus-presentation-old","16","221713","0.0-9.0-1.3","SS1619740053610","trial","","40","500","4219.220000086352","images/stimuli/spore_stims/complex_01_A_b.gif","images/stimuli/spore_stims/complex_07_A_a.gif","forced_long","","0","complex_dissimilar","images/stimuli/spore_stims/complex_07_A_a.gif","","","","",""
"","5493.984999950044","survey-multi-choice","17","227255","0.0-10.0","SS1619740053610","math_question","","","","","","","","","","","","{""Q0"":""11""}","[0]","11","",""
"","null","html-keyboard-response","18","228512","0.0-11.0-0.0","SS1619740053610","","","null","","","","","","<p><img src= images/blank.png width =""600"" height = ""600"" style=""position:fixed;top:50%; left:50%; transform: translate(-50%, -50%); border:5px solid black"">","","","","","","","",""
"","800.4849998978898","sequential-stimulus-presentation-old","19","244320","0.0-11.0-1.0","SS1619740053610","trial","","40","500","1300.4849998978898","images/stimuli/spore_stims/simple_19_A_b.gif","images/stimuli/spore_stims/simple_02_A_a.gif","forced_long","","1","simple_dissimilar","images/stimuli/spore_stims/simple_02_A_a.gif","","","","",""
"","null","html-keyboard-response","20","245311","0.0-11.0-0.1","SS1619740053610","","","null","","","","","","<p><img src= images/blank.png width =""600"" height = ""600"" style=""position:fixed;top:50%; left:50%; transform: translate(-50%, -50%); border:5px solid black"">","","","","","","","",""
"","4667.430000030436","sequential-stimulus-presentation-old","21","250482","0.0-11.0-1.1","SS1619740053610","trial","","40","500","5167.430000030436","images/stimuli/spore_stims/simple_19_A_b.gif","images/stimuli/spore_stims/simple_02_A_a.gif","forced_long","","1","simple_dissimilar","images/stimuli/spore_stims/simple_02_A_a.gif","","","","",""
"","null","html-keyboard-response","22","251544","0.0-11.0-0.2","SS1619740053610","","","null","","","","","","<p><img src= images/blank.png width =""600"" height = ""600"" style=""position:fixed;top:50%; left:50%; transform: translate(-50%, -50%); border:5px solid black"">","","","","","","","",""
"","1587.1299999998882","sequential-stimulus-presentation-old","23","253635","0.0-11.0-1.2","SS1619740053610","trial","","40","500","2087.1299999998882","images/stimuli/spore_stims/simple_19_A_b.gif","images/stimuli/spore_stims/simple_02_A_a.gif","forced_long","","1","simple_dissimilar","images/stimuli/spore_stims/simple_02_A_a.gif","","","","",""
"","null","html-keyboard-response","24","254748","0.0-11.0-0.3","SS1619740053610","","","null","","","","","","<p><img src= images/blank.png width =""600"" height = ""600"" style=""position:fixed;top:50%; left:50%; transform: translate(-50%, -50%); border:5px solid black"">","","","","","","","",""
"","2061.619999934919","sequential-stimulus-presentation-old","25","257313","0.0-11.0-1.3","SS1619740053610","trial","","40","500","2561.619999934919","images/stimuli/spore_stims/simple_19_A_b.gif","images/stimuli/spore_stims/simple_02_A_a.gif","forced_long","","1","simple_dissimilar","images/stimuli/spore_stims/simple_19_A_b.gif","","","","",""
"","null","html-keyboard-response","26","258156","0.0-11.0-0.4","SS1619740053610","","","null","","","","","","<p><img src= images/blank.png width =""600"" height = ""600"" style=""position:fixed;top:50%; left:50%; transform: translate(-50%, -50%); border:5px solid black"">","","","","","","","",""
"","3102.4449999677017","sequential-stimulus-presentation-old","27","261763","0.0-11.0-1.4","SS1619740053610","trial","","40","500","3602.4449999677017","images/stimuli/spore_stims/simple_19_A_b.gif","images/stimuli/spore_stims/simple_02_A_a.gif","forced_long","","1","simple_dissimilar","images/stimuli/spore_stims/simple_02_A_a.gif","","","","",""
"","null","html-keyboard-response","28","262635","0.0-11.0-0.5","SS1619740053610","","","null","","","","","","<p><img src= images/blank.png width =""600"" height = ""600"" style=""position:fixed;top:50%; left:50%; transform: translate(-50%, -50%); border:5px solid black"">","","","","","","","",""
"","1762.0850000530481","sequential-stimulus-presentation-old","29","264917","0.0-11.0-1.5","SS1619740053610","trial","","40","500","2262.085000053048","images/stimuli/spore_stims/simple_19_A_b.gif","images/stimuli/spore_stims/simple_02_A_a.gif","forced_long","","1","simple_dissimilar","images/stimuli/spore_stims/simple_02_A_a.gif","","","","",""
"","3370.4850000794977","survey-multi-choice","30","268290","0.0-12.0","SS1619740053610","math_question","","","","","","","","","","","","{""Q0"":""6""}","[0]","6","",""
"","null","html-keyboard-response","31","269531","0.0-13.0-0.0","SS1619740053610","","","null","","","","","","<p><img src= images/blank.png width =""600"" height = ""600"" style=""position:fixed;top:50%; left:50%; transform: translate(-50%, -50%); border:5px solid black"">","","","","","","","",""
"","1128.954999963753","sequential-stimulus-presentation-old","32","271166","0.0-13.0-1.0","SS1619740053610","trial","","40","500","1628.954999963753","images/stimuli/spore_stims/simple_01_A_a.gif","images/stimuli/spore_stims/simple_02_A_b.gif","forced_short","","2","simple_dissimilar","images/stimuli/spore_stims/simple_02_A_b.gif","","","","",""
"","null","html-keyboard-response","33","272185","0.0-13.0-0.1","SS1619740053610","","","null","","","","","","<p><img src= images/blank.png width =""600"" height = ""600"" style=""position:fixed;top:50%; left:50%; transform: translate(-50%, -50%); border:5px solid black"">","","","","","","","",""
"","2644.094999996014","sequential-stimulus-presentation-old","34","275334","0.0-13.0-1.1","SS1619740053610","trial","","40","500","3144.094999996014","images/stimuli/spore_stims/simple_01_A_a.gif","images/stimuli/spore_stims/simple_02_A_b.gif","forced_short","","2","simple_dissimilar","images/stimuli/spore_stims/simple_02_A_b.gif","","","","",""
"","null","html-keyboard-response","35","276616","0.0-13.0-0.2","SS1619740053610","","","null","","","","","","<p><img src= images/blank.png width =""600"" height = ""600"" style=""position:fixed;top:50%; left:50%; transform: translate(-50%, -50%); border:5px solid black"">","","","","","","","",""
"","1852.9900000430644","sequential-stimulus-presentation-old","36","278974","0.0-13.0-1.2","SS1619740053610","trial","","40","500","2352.9900000430644","images/stimuli/spore_stims/simple_01_A_a.gif","images/stimuli/spore_stims/simple_02_A_b.gif","forced_short","","2","simple_dissimilar","images/stimuli/spore_stims/simple_02_A_b.gif","","","","",""
"","null","html-keyboard-response","37","279781","0.0-13.0-0.3","SS1619740053610","","","null","","","","","","<p><img src= images/blank.png width =""600"" height = ""600"" style=""position:fixed;top:50%; left:50%; transform: translate(-50%, -50%); border:5px solid black"">","","","","","","","",""
"","593.0800000205636","sequential-stimulus-presentation-old","38","280878","0.0-13.0-1.3","SS1619740053610","trial","","40","500","1093.0800000205636","images/stimuli/spore_stims/simple_01_A_a.gif","images/stimuli/spore_stims/simple_02_A_b.gif","forced_short","","2","simple_dissimilar","images/stimuli/spore_stims/simple_02_A_b.gif","","","","",""
"","null","html-keyboard-response","39","282137","0.0-13.0-0.4","SS1619740053610","","","null","","","","","","<p><img src= images/blank.png width =""600"" height = ""600"" style=""position:fixed;top:50%; left:50%; transform: translate(-50%, -50%); border:5px solid black"">","","","","","","","",""
"","403.38999999221414","sequential-stimulus-presentation-old","40","283045","0.0-13.0-1.4","SS1619740053610","trial","","40","500","903.3899999922141","images/stimuli/spore_stims/simple_01_A_a.gif","images/stimuli/spore_stims/simple_02_A_b.gif","forced_short","","2","simple_dissimilar","images/stimuli/spore_stims/simple_02_A_b.gif","","","","",""
"","null","html-keyboard-response","41","284345","0.0-13.0-0.5","SS1619740053610","","","null","","","","","","<p><img src= images/blank.png width =""600"" height = ""600"" style=""position:fixed;top:50%; left:50%; transform: translate(-50%, -50%); border:5px solid black"">","","","","","","","",""
"","1087.874999968335","sequential-stimulus-presentation-old","42","285939","0.0-13.0-1.5","SS1619740053610","trial","","40","500","1587.874999968335","images/stimuli/spore_stims/simple_01_A_a.gif","images/stimuli/spore_stims/simple_02_A_b.gif","forced_short","","2","simple_dissimilar","images/stimuli/spore_stims/simple_02_A_b.gif","","","","",""
"","3568.19500005804","survey-multi-choice","43","289509","0.0-14.0","SS1619740053610","math_question","","","","","","","","","","","","{""Q0"":""12""}","[0]","12","",""
"","null","html-keyboard-response","44","290444","0.0-15.0-0.0","SS1619740053610","","","null","","","","","","<p><img src= images/blank.png width =""600"" height = ""600"" style=""position:fixed;top:50%; left:50%; transform: translate(-50%, -50%); border:5px solid black"">","","","","","","","",""
"","2865.8249999862164","sequential-stimulus-presentation-old","45","293815","0.0-15.0-1.0","SS1619740053610","trial","","40","500","3365.8249999862164","images/stimuli/spore_stims/simple_05_A_a.gif","images/stimuli/spore_stims/simple_17_A_b.gif","self_paced","","3","simple_dissimilar","images/stimuli/spore_stims/simple_17_A_b.gif","","","","",""
"","null","html-keyboard-response","46","294754","0.0-15.0-0.1","SS1619740053610","","","null","","","","","","<p><img src= images/blank.png width =""600"" height = ""600"" style=""position:fixed;top:50%; left:50%; transform: translate(-50%, -50%); border:5px solid black"">","","","","","","","",""
"","557.7350000385195","sequential-stimulus-presentation-old","47","295817","0.0-15.0-1.1","SS1619740053610","trial","","40","500","1057.7350000385195","images/stimuli/spore_stims/simple_05_A_a.gif","images/stimuli/spore_stims/simple_17_A_b.gif","self_paced","","3","simple_dissimilar","images/stimuli/spore_stims/simple_17_A_b.gif","","","","",""
"","null","html-keyboard-response","48","296627","0.0-15.0-0.2","SS1619740053610","","","null","","","","","","<p><img src= images/blank.png width =""600"" height = ""600"" style=""position:fixed;top:50%; left:50%; transform: translate(-50%, -50%); border:5px solid black"">","","","","","","","",""
"","1233.20000001695","sequential-stimulus-presentation-old","49","298364","0.0-15.0-1.2","SS1619740053610","trial","","40","500","1733.20000001695","images/stimuli/spore_stims/simple_05_A_a.gif","images/stimuli/spore_stims/simple_17_A_b.gif","self_paced","","3","simple_dissimilar","images/stimuli/spore_stims/simple_17_A_b.gif","","","","",""
"","null","html-keyboard-response","50","299348","0.0-15.0-0.3","SS1619740053610","","","null","","","","","","<p><img src= images/blank.png width =""600"" height = ""600"" style=""position:fixed;top:50%; left:50%; transform: translate(-50%, -50%); border:5px solid black"">","","","","","","","",""
"","2055.6099999230355","sequential-stimulus-presentation-old","51","301909","0.0-15.0-1.3","SS1619740053610","trial","","40","500","2555.6099999230355","images/stimuli/spore_stims/simple_05_A_a.gif","images/stimuli/spore_stims/simple_17_A_b.gif","self_paced","","3","simple_dissimilar","images/stimuli/spore_stims/simple_17_A_b.gif","","","","",""
"","null","html-keyboard-response","52","302857","0.0-15.0-0.4","SS1619740053610","","","null","","","","","","<p><img src= images/blank.png width =""600"" height = ""600"" style=""position:fixed;top:50%; left:50%; transform: translate(-50%, -50%); border:5px solid black"">","","","","","","","",""
"","1135.2249999763444","sequential-stimulus-presentation-old","53","304498","0.0-15.0-1.4","SS1619740053610","trial","","40","500","1635.2249999763444","images/stimuli/spore_stims/simple_05_A_a.gif","images/stimuli/spore_stims/simple_17_A_b.gif","self_paced","","3","simple_dissimilar","images/stimuli/spore_stims/simple_17_A_b.gif","","","","",""
"","5539.280000026338","survey-multi-choice","54","310039","0.0-16.0","SS1619740053610","math_question","","","","","","","","","","","","{""Q0"":""13""}","[0]","13","",""
"","null","html-keyboard-response","55","311270","0.0-17.0-0.0","SS1619740053610","","","null","","","","","","<p><img src= images/blank.png width =""600"" height = ""600"" style=""position:fixed;top:50%; left:50%; transform: translate(-50%, -50%); border:5px solid black"">","","","","","","","",""
"","3012.224999954924","sequential-stimulus-presentation-old","56","314787","0.0-17.0-1.0","SS1619740053610","trial","","40","500","3512.224999954924","images/stimuli/spore_stims/complex_16_A_a.gif","images/stimuli/spore_stims/complex_10_A_b.gif","self_paced","","4","complex_dissimilar","images/stimuli/spore_stims/complex_10_A_b.gif","","","","",""
"","null","html-keyboard-response","57","315967","0.0-17.0-0.1","SS1619740053610","","","null","","","","","","<p><img src= images/blank.png width =""600"" height = ""600"" style=""position:fixed;top:50%; left:50%; transform: translate(-50%, -50%); border:5px solid black"">","","","","","","","",""
"","818.3949999511242","sequential-stimulus-presentation-old","58","317290","0.0-17.0-1.1","SS1619740053610","trial","","40","500","1318.3949999511242","images/stimuli/spore_stims/complex_16_A_a.gif","images/stimuli/spore_stims/complex_10_A_b.gif","self_paced","","4","complex_dissimilar","images/stimuli/spore_stims/complex_10_A_b.gif","","","","",""
"","null","html-keyboard-response","59","318392","0.0-17.0-0.2","SS1619740053610","","","null","","","","","","<p><img src= images/blank.png width =""600"" height = ""600"" style=""position:fixed;top:50%; left:50%; transform: translate(-50%, -50%); border:5px solid black"">","","","","","","","",""
"","1498.410000000149","sequential-stimulus-presentation-old","60","320395","0.0-17.0-1.2","SS1619740053610","trial","","40","500","1998.410000000149","images/stimuli/spore_stims/complex_16_A_a.gif","images/stimuli/spore_stims/complex_10_A_b.gif","self_paced","","4","complex_dissimilar","images/stimuli/spore_stims/complex_10_A_b.gif","","","","",""
"","null","html-keyboard-response","61","321217","0.0-17.0-0.3","SS1619740053610","","","null","","","","","","<p><img src= images/blank.png width =""600"" height = ""600"" style=""position:fixed;top:50%; left:50%; transform: translate(-50%, -50%); border:5px solid black"">","","","","","","","",""
"","1391.3849999662489","sequential-stimulus-presentation-old","62","323113","0.0-17.0-1.3","SS1619740053610","trial","","40","500","1891.3849999662489","images/stimuli/spore_stims/complex_16_A_a.gif","images/stimuli/spore_stims/complex_10_A_b.gif","self_paced","","4","complex_dissimilar","images/stimuli/spore_stims/complex_16_A_a.gif","","","","",""
"","null","html-keyboard-response","63","324154","0.0-17.0-0.4","SS1619740053610","","","null","","","","","","<p><img src= images/blank.png width =""600"" height = ""600"" style=""position:fixed;top:50%; left:50%; transform: translate(-50%, -50%); border:5px solid black"">","","","","","","","",""
"","1446.059999987483","sequential-stimulus-presentation-old","64","326104","0.0-17.0-1.4","SS1619740053610","trial","","40","500","1946.059999987483","images/stimuli/spore_stims/complex_16_A_a.gif","images/stimuli/spore_stims/complex_10_A_b.gif","self_paced","","4","complex_dissimilar","images/stimuli/spore_stims/complex_16_A_a.gif","","","","",""
"","6452.220000093803","survey-multi-choice","65","332560","0.0-18.0","SS1619740053610","math_question","","","","","","","","","","","","{""Q0"":""8""}","[0]","8","",""
"","null","html-keyboard-response","66","333517","0.0-19.0-0.0","SS1619740053610","","","null","","","","","","<p><img src= images/blank.png width =""600"" height = ""600"" style=""position:fixed;top:50%; left:50%; transform: translate(-50%, -50%); border:5px solid black"">","","","","","","","",""
"","7459.2749999137595","sequential-stimulus-presentation-old","67","355982","0.0-19.0-1.0","SS1619740053610","trial","","40","500","7959.2749999137595","images/stimuli/spore_stims/complex_08_A_a.gif","images/stimuli/spore_stims/complex_15_A_b.gif","forced_long","","5","complex_dissimilar","images/stimuli/spore_stims/complex_15_A_b.gif","","","","",""
"","null","html-keyboard-response","68","357221","0.0-19.0-0.1","SS1619740053610","","","null","","","","","","<p><img src= images/blank.png width =""600"" height = ""600"" style=""position:fixed;top:50%; left:50%; transform: translate(-50%, -50%); border:5px solid black"">","","","","","","","",""
"","3761.7999999783933","sequential-stimulus-presentation-old","69","361488","0.0-19.0-1.1","SS1619740053610","trial","","40","500","4261.799999978393","images/stimuli/spore_stims/complex_08_A_a.gif","images/stimuli/spore_stims/complex_15_A_b.gif","forced_long","","5","complex_dissimilar","images/stimuli/spore_stims/complex_08_A_a.gif","","","","",""
"","null","html-keyboard-response","70","362638","0.0-19.0-0.2","SS1619740053610","","","null","","","","","","<p><img src= images/blank.png width =""600"" height = ""600"" style=""position:fixed;top:50%; left:50%; transform: translate(-50%, -50%); border:5px solid black"">","","","","","","","",""
"","5334.114999976009","sequential-stimulus-presentation-old","71","368477","0.0-19.0-1.2","SS1619740053610","trial","","40","500","5834.114999976009","images/stimuli/spore_stims/complex_08_A_a.gif","images/stimuli/spore_stims/complex_15_A_b.gif","forced_long","","5","complex_dissimilar","images/stimuli/spore_stims/complex_15_A_b.gif","","","","",""
"","null","html-keyboard-response","72","369322","0.0-19.0-0.3","SS1619740053610","","","null","","","","","","<p><img src= images/blank.png width =""600"" height = ""600"" style=""position:fixed;top:50%; left:50%; transform: translate(-50%, -50%); border:5px solid black"">","","","","","","","",""
"","3432.9150000121444","sequential-stimulus-presentation-old","73","373260","0.0-19.0-1.3","SS1619740053610","trial","","40","500","3932.9150000121444","images/stimuli/spore_stims/complex_08_A_a.gif","images/stimuli/spore_stims/complex_15_A_b.gif","forced_long","","5","complex_dissimilar","images/stimuli/spore_stims/complex_15_A_b.gif","","","","",""
"","null","html-keyboard-response","74","374154","0.0-19.0-0.4","SS1619740053610","","","null","","","","","","<p><img src= images/blank.png width =""600"" height = ""600"" style=""position:fixed;top:50%; left:50%; transform: translate(-50%, -50%); border:5px solid black"">","","","","","","","",""
"","4211.919999914244","sequential-stimulus-presentation-old","75","378873","0.0-19.0-1.4","SS1619740053610","trial","","40","500","4711.919999914244","images/stimuli/spore_stims/complex_08_A_a.gif","images/stimuli/spore_stims/complex_15_A_b.gif","forced_long","","5","complex_dissimilar","images/stimuli/spore_stims/complex_08_A_a.gif","","","","",""
"","4494.380000047386","survey-multi-choice","76","383370","0.0-20.0","SS1619740053610","math_question","","","","","","","","","","","","{""Q0"":""15""}","[0]","15","",""
"","null","html-keyboard-response","77","384541","0.0-21.0-0.0","SS1619740053610","","","null","","","","","","<p><img src= images/blank.png width =""600"" height = ""600"" style=""position:fixed;top:50%; left:50%; transform: translate(-50%, -50%); border:5px solid black"">","","","","","","","",""
"","2114.0550000127405","sequential-stimulus-presentation-old","78","387160","0.0-21.0-1.0","SS1619740053610","trial","","40","500","2614.0550000127405","images/stimuli/spore_stims/simple_20_A_b.gif","images/stimuli/spore_stims/simple_10_A_a.gif","self_paced","","6","simple_dissimilar","images/stimuli/spore_stims/simple_10_A_a.gif","","","","",""
"","null","html-keyboard-response","79","388454","0.0-21.0-0.1","SS1619740053610","","","null","","","","","","<p><img src= images/blank.png width =""600"" height = ""600"" style=""position:fixed;top:50%; left:50%; transform: translate(-50%, -50%); border:5px solid black"">","","","","","","","",""
"","743.7749999808148","sequential-stimulus-presentation-old","80","389705","0.0-21.0-1.1","SS1619740053610","trial","","40","500","1243.7749999808148","images/stimuli/spore_stims/simple_20_A_b.gif","images/stimuli/spore_stims/simple_10_A_a.gif","self_paced","","6","simple_dissimilar","images/stimuli/spore_stims/simple_10_A_a.gif","","","","",""
"","null","html-keyboard-response","81","390803","0.0-21.0-0.2","SS1619740053610","","","null","","","","","","<p><img src= images/blank.png width =""600"" height = ""600"" style=""position:fixed;top:50%; left:50%; transform: translate(-50%, -50%); border:5px solid black"">","","","","","","","",""
"","1719.4599999347702","sequential-stimulus-presentation-old","82","393027","0.0-21.0-1.2","SS1619740053610","trial","","40","500","2219.45999993477","images/stimuli/spore_stims/simple_20_A_b.gif","images/stimuli/spore_stims/simple_10_A_a.gif","self_paced","","6","simple_dissimilar","images/stimuli/spore_stims/simple_10_A_a.gif","","","","",""
"","null","html-keyboard-response","83","393982","0.0-21.0-0.3","SS1619740053610","","","null","","","","","","<p><img src= images/blank.png width =""600"" height = ""600"" style=""position:fixed;top:50%; left:50%; transform: translate(-50%, -50%); border:5px solid black"">","","","","","","","",""
"","1364.8800000082701","sequential-stimulus-presentation-old","84","395852","0.0-21.0-1.3","SS1619740053610","trial","","40","500","1864.8800000082701","images/stimuli/spore_stims/simple_20_A_b.gif","images/stimuli/spore_stims/simple_10_A_a.gif","self_paced","","6","simple_dissimilar","images/stimuli/spore_stims/simple_10_A_a.gif","","","","",""
"","3465.269999927841","survey-multi-choice","85","399320","0.0-22.0","SS1619740053610","math_question","","","","","","","","","","","","{""Q0"":""11""}","[0]","11","",""
"","null","html-keyboard-response","86","400247","0.0-23.0-0.0","SS1619740053610","","","null","","","","","","<p><img src= images/blank.png width =""600"" height = ""600"" style=""position:fixed;top:50%; left:50%; transform: translate(-50%, -50%); border:5px solid black"">","","","","","","","",""
"","832.1950000245124","sequential-stimulus-presentation-old","87","401586","0.0-23.0-1.0","SS1619740053610","trial","","40","500","1332.1950000245124","images/stimuli/spore_stims/simple_11_A_a.gif","images/stimuli/spore_stims/simple_03_A_b.gif","forced_short","","7","simple_dissimilar","images/stimuli/spore_stims/simple_03_A_b.gif","","","","",""
"","null","html-keyboard-response","88","402768","0.0-23.0-0.1","SS1619740053610","","","null","","","","","","<p><img src= images/blank.png width =""600"" height = ""600"" style=""position:fixed;top:50%; left:50%; transform: translate(-50%, -50%); border:5px solid black"">","","","","","","","",""
"","701.2950000353158","sequential-stimulus-presentation-old","89","403975","0.0-23.0-1.1","SS1619740053610","trial","","40","500","1201.2950000353158","images/stimuli/spore_stims/simple_11_A_a.gif","images/stimuli/spore_stims/simple_03_A_b.gif","forced_short","","7","simple_dissimilar","images/stimuli/spore_stims/simple_03_A_b.gif","","","","",""
"","null","html-keyboard-response","90","405221","0.0-23.0-0.2","SS1619740053610","","","null","","","","","","<p><img src= images/blank.png width =""600"" height = ""600"" style=""position:fixed;top:50%; left:50%; transform: translate(-50%, -50%); border:5px solid black"">","","","","","","","",""
"","320.44999999925494","sequential-stimulus-presentation-old","91","406045","0.0-23.0-1.2","SS1619740053610","trial","","40","500","820.4499999992549","images/stimuli/spore_stims/simple_11_A_a.gif","images/stimuli/spore_stims/simple_03_A_b.gif","forced_short","","7","simple_dissimilar","images/stimuli/spore_stims/simple_03_A_b.gif","","","","",""
"","null","html-keyboard-response","92","406896","0.0-23.0-0.3","SS1619740053610","","","null","","","","","","<p><img src= images/blank.png width =""600"" height = ""600"" style=""position:fixed;top:50%; left:50%; transform: translate(-50%, -50%); border:5px solid black"">","","","","","","","",""
"","660.3650000179186","sequential-stimulus-presentation-old","93","408061","0.0-23.0-1.3","SS1619740053610","trial","","40","500","1160.3650000179186","images/stimuli/spore_stims/simple_11_A_a.gif","images/stimuli/spore_stims/simple_03_A_b.gif","forced_short","","7","simple_dissimilar","images/stimuli/spore_stims/simple_03_A_b.gif","","","","",""
"","null","html-keyboard-response","94","408995","0.0-23.0-0.4","SS1619740053610","","","null","","","","","","<p><img src= images/blank.png width =""600"" height = ""600"" style=""position:fixed;top:50%; left:50%; transform: translate(-50%, -50%); border:5px solid black"">","","","","","","","",""
"","1139.3749999115244","sequential-stimulus-presentation-old","95","410639","0.0-23.0-1.4","SS1619740053610","trial","","40","500","1639.3749999115244","images/stimuli/spore_stims/simple_11_A_a.gif","images/stimuli/spore_stims/simple_03_A_b.gif","forced_short","","7","simple_dissimilar","images/stimuli/spore_stims/simple_03_A_b.gif","","","","",""
"","null","html-keyboard-response","96","411753","0.0-23.0-0.5","SS1619740053610","","","null","","","","","","<p><img src= images/blank.png width =""600"" height = ""600"" style=""position:fixed;top:50%; left:50%; transform: translate(-50%, -50%); border:5px solid black"">","","","","","","","",""
"","636.0299999359995","sequential-stimulus-presentation-old","97","412895","0.0-23.0-1.5","SS1619740053610","trial","","40","500","1136.0299999359995","images/stimuli/spore_stims/simple_11_A_a.gif","images/stimuli/spore_stims/simple_03_A_b.gif","forced_short","","7","simple_dissimilar","images/stimuli/spore_stims/simple_03_A_b.gif","","","","",""
"","3530.479999957606","survey-multi-choice","98","416429","0.0-24.0","SS1619740053610","math_question","","","","","","","","","","","","{""Q0"":""6""}","[0]","6","",""
"","null","html-keyboard-response","99","417374","0.0-25.0-0.0","SS1619740053610","","","null","","","","","","<p><img src= images/blank.png width =""600"" height = ""600"" style=""position:fixed;top:50%; left:50%; transform: translate(-50%, -50%); border:5px solid black"">","","","","","","","",""
"","802.5299999862909","sequential-stimulus-presentation-old","100","418683","0.0-25.0-1.0","SS1619740053610","trial","","40","500","1302.529999986291","images/stimuli/spore_stims/complex_10_A_a.gif","images/stimuli/spore_stims/complex_11_A_b.gif","forced_short","","8","complex_dissimilar","images/stimuli/spore_stims/complex_11_A_b.gif","","","","",""
"","null","html-keyboard-response","101","419558","0.0-25.0-0.1","SS1619740053610","","","null","","","","","","<p><img src= images/blank.png width =""600"" height = ""600"" style=""position:fixed;top:50%; left:50%; transform: translate(-50%, -50%); border:5px solid black"">","","","","","","","",""
"","1153.3250000793487","sequential-stimulus-presentation-old","102","421216","0.0-25.0-1.1","SS1619740053610","trial","","40","500","1653.3250000793487","images/stimuli/spore_stims/complex_10_A_a.gif","images/stimuli/spore_stims/complex_11_A_b.gif","forced_short","","8","complex_dissimilar","images/stimuli/spore_stims/complex_11_A_b.gif","","","","",""
"","null","html-keyboard-response","103","422442","0.0-25.0-0.2","SS1619740053610","","","null","","","","","","<p><img src= images/blank.png width =""600"" height = ""600"" style=""position:fixed;top:50%; left:50%; transform: translate(-50%, -50%); border:5px solid black"">","","","","","","","",""
"","608.2350000506267","sequential-stimulus-presentation-old","104","423556","0.0-25.0-1.2","SS1619740053610","trial","","40","500","1108.2350000506267","images/stimuli/spore_stims/complex_10_A_a.gif","images/stimuli/spore_stims/complex_11_A_b.gif","forced_short","","8","complex_dissimilar","images/stimuli/spore_stims/complex_11_A_b.gif","","","","",""
"","null","html-keyboard-response","105","424800","0.0-25.0-0.3","SS1619740053610","","","null","","","","","","<p><img src= images/blank.png width =""600"" height = ""600"" style=""position:fixed;top:50%; left:50%; transform: translate(-50%, -50%); border:5px solid black"">","","","","","","","",""
"","602.4399999296293","sequential-stimulus-presentation-old","106","425908","0.0-25.0-1.3","SS1619740053610","trial","","40","500","1102.4399999296293","images/stimuli/spore_stims/complex_10_A_a.gif","images/stimuli/spore_stims/complex_11_A_b.gif","forced_short","","8","complex_dissimilar","images/stimuli/spore_stims/complex_11_A_b.gif","","","","",""
"","null","html-keyboard-response","107","426723","0.0-25.0-0.4","SS1619740053610","","","null","","","","","","<p><img src= images/blank.png width =""600"" height = ""600"" style=""position:fixed;top:50%; left:50%; transform: translate(-50%, -50%); border:5px solid black"">","","","","","","","",""
"","1186.7700000293553","sequential-stimulus-presentation-old","108","428416","0.0-25.0-1.4","SS1619740053610","trial","","40","500","1686.7700000293553","images/stimuli/spore_stims/complex_10_A_a.gif","images/stimuli/spore_stims/complex_11_A_b.gif","forced_short","","8","complex_dissimilar","images/stimuli/spore_stims/complex_10_A_a.gif","","","","",""
"","null","html-keyboard-response","109","429593","0.0-25.0-0.5","SS1619740053610","","","null","","","","","","<p><img src= images/blank.png width =""600"" height = ""600"" style=""position:fixed;top:50%; left:50%; transform: translate(-50%, -50%); border:5px solid black"">","","","","","","","",""
"","1028.3849999541417","sequential-stimulus-presentation-old","110","431127","0.0-25.0-1.5","SS1619740053610","trial","","40","500","1528.3849999541417","images/stimuli/spore_stims/complex_10_A_a.gif","images/stimuli/spore_stims/complex_11_A_b.gif","forced_short","","8","complex_dissimilar","images/stimuli/spore_stims/complex_11_A_b.gif","","","","",""
"","3418.9400000032037","survey-multi-choice","111","434550","0.0-26.0","SS1619740053610","math_question","","","","","","","","","","","","{""Q0"":""9""}","[0]","9","",""
"","null","html-keyboard-response","112","435639","0.0-27.0-0.0","SS1619740053610","","","null","","","","","","<p><img src= images/blank.png width =""600"" height = ""600"" style=""position:fixed;top:50%; left:50%; transform: translate(-50%, -50%); border:5px solid black"">","","","","","","","",""
"","511.04999997187406","sequential-stimulus-presentation-old","113","451157","0.0-27.0-1.0","SS1619740053610","trial","","40","500","1011.0499999718741","images/stimuli/spore_stims/simple_14_A_a.gif","images/stimuli/spore_stims/simple_08_A_b.gif","forced_long","","9","simple_dissimilar","images/stimuli/spore_stims/simple_08_A_b.gif","","","","",""
"","null","html-keyboard-response","114","452187","0.0-27.0-0.1","SS1619740053610","","","null","","","","","","<p><img src= images/blank.png width =""600"" height = ""600"" style=""position:fixed;top:50%; left:50%; transform: translate(-50%, -50%); border:5px solid black"">","","","","","","","",""
"","1315.8250000560656","sequential-stimulus-presentation-old","115","454009","0.0-27.0-1.1","SS1619740053610","trial","","40","500","1815.8250000560656","images/stimuli/spore_stims/simple_14_A_a.gif","images/stimuli/spore_stims/simple_08_A_b.gif","forced_long","","9","simple_dissimilar","images/stimuli/spore_stims/simple_14_A_a.gif","","","","",""
"","null","html-keyboard-response","116","454866","0.0-27.0-0.2","SS1619740053610","","","null","","","","","","<p><img src= images/blank.png width =""600"" height = ""600"" style=""position:fixed;top:50%; left:50%; transform: translate(-50%, -50%); border:5px solid black"">","","","","","","","",""
"","1137.8649999387562","sequential-stimulus-presentation-old","117","456511","0.0-27.0-1.2","SS1619740053610","trial","","40","500","1637.8649999387562","images/stimuli/spore_stims/simple_14_A_a.gif","images/stimuli/spore_stims/simple_08_A_b.gif","forced_long","","9","simple_dissimilar","images/stimuli/spore_stims/simple_08_A_b.gif","","","","",""
"","null","html-keyboard-response","118","457752","0.0-27.0-0.3","SS1619740053610","","","null","","","","","","<p><img src= images/blank.png width =""600"" height = ""600"" style=""position:fixed;top:50%; left:50%; transform: translate(-50%, -50%); border:5px solid black"">","","","","","","","",""
"","829.0699999779463","sequential-stimulus-presentation-old","119","459087","0.0-27.0-1.3","SS1619740053610","trial","","40","500","1329.0699999779463","images/stimuli/spore_stims/simple_14_A_a.gif","images/stimuli/spore_stims/simple_08_A_b.gif","forced_long","","9","simple_dissimilar","images/stimuli/spore_stims/simple_08_A_b.gif","","","","",""
"","null","html-keyboard-response","120","460071","0.0-27.0-0.4","SS1619740053610","","","null","","","","","","<p><img src= images/blank.png width =""600"" height = ""600"" style=""position:fixed;top:50%; left:50%; transform: translate(-50%, -50%); border:5px solid black"">","","","","","","","",""
"","738.039999967441","sequential-stimulus-presentation-old","121","461314","0.0-27.0-1.4","SS1619740053610","trial","","40","500","1238.039999967441","images/stimuli/spore_stims/simple_14_A_a.gif","images/stimuli/spore_stims/simple_08_A_b.gif","forced_long","","9","simple_dissimilar","images/stimuli/spore_stims/simple_08_A_b.gif","","","","",""
"","null","html-keyboard-response","122","462503","0.0-27.0-0.5","SS1619740053610","","","null","","","","","","<p><img src= images/blank.png width =""600"" height = ""600"" style=""position:fixed;top:50%; left:50%; transform: translate(-50%, -50%); border:5px solid black"">","","","","","","","",""
"","612.6800000201911","sequential-stimulus-presentation-old","123","463621","0.0-27.0-1.5","SS1619740053610","trial","","40","500","1112.680000020191","images/stimuli/spore_stims/simple_14_A_a.gif","images/stimuli/spore_stims/simple_08_A_b.gif","forced_long","","9","simple_dissimilar","images/stimuli/spore_stims/simple_08_A_b.gif","","","","",""
"","3234.1299999970943","survey-multi-choice","124","466859","0.0-28.0","SS1619740053610","math_question","","","","","","","","","","","","{""Q0"":""7""}","[0]","7","",""
"","null","html-keyboard-response","125","467940","0.0-29.0-0.0","SS1619740053610","","","null","","","","","","<p><img src= images/blank.png width =""600"" height = ""600"" style=""position:fixed;top:50%; left:50%; transform: translate(-50%, -50%); border:5px solid black"">","","","","","","","",""
"","1240.570000023581","sequential-stimulus-presentation-old","126","469686","0.0-29.0-1.0","SS1619740053610","trial","","40","500","1740.570000023581","images/stimuli/spore_stims/complex_02_A_b.gif","images/stimuli/spore_stims/complex_14_A_a.gif","forced_short","","10","complex_dissimilar","images/stimuli/spore_stims/complex_14_A_a.gif","","","","",""
"","null","html-keyboard-response","127","470537","0.0-29.0-0.1","SS1619740053610","","","null","","","","","","<p><img src= images/blank.png width =""600"" height = ""600"" style=""position:fixed;top:50%; left:50%; transform: translate(-50%, -50%); border:5px solid black"">","","","","","","","",""
"","1819.37000004109","sequential-stimulus-presentation-old","128","472862","0.0-29.0-1.1","SS1619740053610","trial","","40","500","2319.37000004109","images/stimuli/spore_stims/complex_02_A_b.gif","images/stimuli/spore_stims/complex_14_A_a.gif","forced_short","","10","complex_dissimilar","images/stimuli/spore_stims/complex_14_A_a.gif","","","","",""
"","null","html-keyboard-response","129","474037","0.0-29.0-0.2","SS1619740053610","","","null","","","","","","<p><img src= images/blank.png width =""600"" height = ""600"" style=""position:fixed;top:50%; left:50%; transform: translate(-50%, -50%); border:5px solid black"">","","","","","","","",""
"","1128.499999991618","sequential-stimulus-presentation-old","130","475671","0.0-29.0-1.2","SS1619740053610","trial","","40","500","1628.499999991618","images/stimuli/spore_stims/complex_02_A_b.gif","images/stimuli/spore_stims/complex_14_A_a.gif","forced_short","","10","complex_dissimilar","images/stimuli/spore_stims/complex_14_A_a.gif","","","","",""
"","null","html-keyboard-response","131","476785","0.0-29.0-0.3","SS1619740053610","","","null","","","","","","<p><img src= images/blank.png width =""600"" height = ""600"" style=""position:fixed;top:50%; left:50%; transform: translate(-50%, -50%); border:5px solid black"">","","","","","","","",""
"","1179.465000052005","sequential-stimulus-presentation-old","132","478469","0.0-29.0-1.3","SS1619740053610","trial","","40","500","1679.465000052005","images/stimuli/spore_stims/complex_02_A_b.gif","images/stimuli/spore_stims/complex_14_A_a.gif","forced_short","","10","complex_dissimilar","images/stimuli/spore_stims/complex_14_A_a.gif","","","","",""
"","3566.400000010617","survey-multi-choice","133","482039","0.0-30.0","SS1619740053610","math_question","","","","","","","","","","","","{""Q0"":""5""}","[0]","5","",""
"","null","html-keyboard-response","134","482887","0.0-31.0-0.0","SS1619740053610","","","null","","","","","","<p><img src= images/blank.png width =""600"" height = ""600"" style=""position:fixed;top:50%; left:50%; transform: translate(-50%, -50%); border:5px solid black"">","","","","","","","",""
"","990.2099999599159","sequential-stimulus-presentation-old","135","484385","0.0-31.0-1.0","SS1619740053610","trial","","40","500","1490.2099999599159","images/stimuli/spore_stims/complex_02_A_a.gif","images/stimuli/spore_stims/complex_04_A_b.gif","self_paced","","11","complex_dissimilar","images/stimuli/spore_stims/complex_04_A_b.gif","","","","",""
"","null","html-keyboard-response","136","485320","0.0-31.0-0.1","SS1619740053610","","","null","","","","","","<p><img src= images/blank.png width =""600"" height = ""600"" style=""position:fixed;top:50%; left:50%; transform: translate(-50%, -50%); border:5px solid black"">","","","","","","","",""
"","818.5800000792369","sequential-stimulus-presentation-old","137","486644","0.0-31.0-1.1","SS1619740053610","trial","","40","500","1318.580000079237","images/stimuli/spore_stims/complex_02_A_a.gif","images/stimuli/spore_stims/complex_04_A_b.gif","self_paced","","11","complex_dissimilar","images/stimuli/spore_stims/complex_04_A_b.gif","","","","",""
"","null","html-keyboard-response","138","487828","0.0-31.0-0.2","SS1619740053610","","","null","","","","","","<p><img src= images/blank.png width =""600"" height = ""600"" style=""position:fixed;top:50%; left:50%; transform: translate(-50%, -50%); border:5px solid black"">","","","","","","","",""
"","674.5100000407547","sequential-stimulus-presentation-old","139","489007","0.0-31.0-1.2","SS1619740053610","trial","","40","500","1174.5100000407547","images/stimuli/spore_stims/complex_02_A_a.gif","images/stimuli/spore_stims/complex_04_A_b.gif","self_paced","","11","complex_dissimilar","images/stimuli/spore_stims/complex_04_A_b.gif","","","","",""
"","null","html-keyboard-response","140","489833","0.0-31.0-0.3","SS1619740053610","","","null","","","","","","<p><img src= images/blank.png width =""600"" height = ""600"" style=""position:fixed;top:50%; left:50%; transform: translate(-50%, -50%); border:5px solid black"">","","","","","","","",""
"","791.5499999653548","sequential-stimulus-presentation-old","141","491132","0.0-31.0-1.3","SS1619740053610","trial","","40","500","1291.5499999653548","images/stimuli/spore_stims/complex_02_A_a.gif","images/stimuli/spore_stims/complex_04_A_b.gif","self_paced","","11","complex_dissimilar","images/stimuli/spore_stims/complex_02_A_a.gif","","","","",""
"[{""page_index"":0,""viewing_time"":9864.369999966584}]","9864.6899999585","instructions","142","501000","0.0-32.0","SS1619740053610","instructions","","","","","","","","","","","","","","","",""
"","8592.560000019148","survey-likert","143","509599","0.0-33.0","SS1619740053610","similarity_question","","","","","","","","","","","","{""Q0"":1}","[0]","","images/stimuli/spore_stims/complex_10_A_b.gif","images/stimuli/spore_stims/complex_16_A_a.gif"
"","6366.619999986142","survey-likert","144","515986","0.0-34.0","SS1619740053610","similarity_question","","","","","","","","","","","","{""Q0"":1}","[0]","","images/stimuli/spore_stims/complex_04_A_b.gif","images/stimuli/spore_stims/complex_02_A_a.gif"
"","6677.864999976009","survey-likert","145","522679","0.0-35.0","SS1619740053610","similarity_question","","","","","","","","","","","","{""Q0"":1}","[0]","","images/stimuli/spore_stims/complex_01_A_b.gif","images/stimuli/spore_stims/complex_07_A_a.gif"
"","5667.604999965988","survey-likert","146","528362","0.0-36.0","SS1619740053610","similarity_question","","","","","","","","","","","","{""Q0"":5}","[0]","","images/stimuli/spore_stims/simple_01_A_a.gif","images/stimuli/spore_stims/simple_02_A_b.gif"
"","3415.6000000657514","survey-likert","147","531793","0.0-37.0","SS1619740053610","similarity_question","","","","","","","","","","","","{""Q0"":5}","[0]","","images/stimuli/spore_stims/simple_14_A_a.gif","images/stimuli/spore_stims/simple_08_A_b.gif"
"","3561.0550000565127","survey-likert","148","535368","0.0-38.0","SS1619740053610","similarity_question","","","","","","","","","","","","{""Q0"":4}","[0]","","images/stimuli/spore_stims/simple_05_A_a.gif","images/stimuli/spore_stims/simple_17_A_b.gif"
"","4773.655000026338","survey-likert","149","540156","0.0-39.0","SS1619740053610","similarity_question","","","","","","","","","","","","{""Q0"":3}","[0]","","images/stimuli/spore_stims/simple_20_A_b.gif","images/stimuli/spore_stims/simple_10_A_a.gif"
"","7648.0000000447035","survey-likert","150","547819","0.0-40.0","SS1619740053610","similarity_question","","","","","","","","","","","","{""Q0"":2}","[0]","","images/stimuli/spore_stims/complex_14_A_a.gif","images/stimuli/spore_stims/complex_02_A_b.gif"
"","6571.5399999171495","survey-likert","151","554405","0.0-41.0","SS1619740053610","similarity_question","","","","","","","","","","","","{""Q0"":1}","[0]","","images/stimuli/spore_stims/simple_19_A_b.gif","images/stimuli/spore_stims/simple_02_A_a.gif"
"","5337.324999971315","survey-likert","152","559758","0.0-42.0","SS1619740053610","similarity_question","","","","","","","","","","","","{""Q0"":2}","[0]","","images/stimuli/spore_stims/complex_11_A_b.gif","images/stimuli/spore_stims/complex_10_A_a.gif"
"","5258.005000068806","survey-likert","153","565030","0.0-43.0","SS1619740053610","similarity_question","","","","","","","","","","","","{""Q0"":1}","[0]","","images/stimuli/spore_stims/complex_08_A_a.gif","images/stimuli/spore_stims/complex_15_A_b.gif"
"","3553.3849999774247","survey-likert","154","568599","0.0-44.0","SS1619740053610","similarity_question","","","","","","","","","","","","{""Q0"":1}","[0]","","images/stimuli/spore_stims/simple_11_A_a.gif","images/stimuli/spore_stims/simple_03_A_b.gif"
"[{""page_index"":0,""viewing_time"":5553.154999972321}]","5553.47000004258","instructions","155","574169","0.0-45.0","SS1619740053610","instructions","","","","","","","","","","","","","","","",""
"","3952.780000050552","survey-likert","156","578127","0.0-46.0","SS1619740053610","","","","","","","","","images/stimuli/spore_stims/simple_11_A_a.gif","","","","{""Q0"":1}","[0]","","",""
"","3447.6299999514595","survey-likert","157","581589","0.0-47.0","SS1619740053610","","","","","","","","","images/stimuli/spore_stims/simple_10_A_a.gif","","","","{""Q0"":1}","[0]","","",""
"","5184.95999998413","survey-likert","158","586790","0.0-48.0","SS1619740053610","","","","","","","","","images/stimuli/spore_stims/complex_16_A_a.gif","","","","{""Q0"":5}","[0]","","",""
"","5408.655000035651","survey-likert","159","592214","0.0-49.0","SS1619740053610","","","","","","","","","images/stimuli/spore_stims/complex_01_A_b.gif","","","","{""Q0"":3}","[0]","","",""
"","3669.80000003241","survey-likert","160","595898","0.0-50.0","SS1619740053610","","","","","","","","","images/stimuli/spore_stims/complex_15_A_b.gif","","","","{""Q0"":3}","[0]","","",""
"","3735.3900000452995","survey-likert","161","599648","0.0-51.0","SS1619740053610","","","","","","","","","images/stimuli/spore_stims/complex_04_A_b.gif","","","","{""Q0"":5}","[0]","","",""
"","5007.990000071004","survey-likert","162","604670","0.0-52.0","SS1619740053610","","","","","","","","","images/stimuli/spore_stims/simple_19_A_b.gif","","","","{""Q0"":2}","[0]","","",""
"","3004.220000002533","survey-likert","163","607689","0.0-53.0","SS1619740053610","","","","","","","","","images/stimuli/spore_stims/simple_05_A_a.gif","","","","{""Q0"":0}","[0]","","",""
"","4373.490000027232","survey-likert","164","612079","0.0-54.0","SS1619740053610","","","","","","","","","images/stimuli/spore_stims/complex_11_A_b.gif","","","","{""Q0"":5}","[0]","","",""
"","3247.715000063181","survey-likert","165","615341","0.0-55.0","SS1619740053610","","","","","","","","","images/stimuli/spore_stims/simple_01_A_a.gif","","","","{""Q0"":0}","[0]","","",""
"","4012.8699999768287","survey-likert","166","619368","0.0-56.0","SS1619740053610","","","","","","","","","images/stimuli/spore_stims/complex_02_A_b.gif","","","","{""Q0"":6}","[0]","","",""
"","2662.6499999547377","survey-likert","167","622046","0.0-57.0","SS1619740053610","","","","","","","","","images/stimuli/spore_stims/simple_14_A_a.gif","","","","{""Q0"":1}","[0]","","",""
"[{""page_index"":0,""viewing_time"":2857.5399999972433}]","2857.884999946691","instructions","168","624919","0.0-58.0","SS1619740053610","instructions","","","","","","","","","","","","","","","",""
"","3392.905000015162","demog-age","169","628321","0.0-59.0","SS1619740053610","","","","","","","","","","","","","{""age"":""32""}","","","",""
"","4026.7199999652803","demog-ethnic-US","170","632409","0.0-60.0","SS1619740053610","","","","","","","","","","","","","{""ethnicity"":[""White""]}","[0]","","",""
"","12085.259999963455","demog-gender-and-education","171","644510","0.0-61.0","SS1619740053610","","","","","","","","","","","","","{""gender"":""Male"",""education"":""High school diploma""}","[0,1]","","",""
"","15130.170000018552","survey-text","172","659660","0.0-62.0","SS1619740053610","feedback","","","","","","","","","","","","{""Q0"":""I did not encounter any issues.""}","","","",""
"[{""page_index"":0,""viewing_time"":2383.6499999742955}]","2383.94500000868","instructions","173","662049","0.0-63.0","SS1619740053610","instructions","","","","","","","","","","","","","","","",""
