"view_history","rt","trial_type","trial_index","time_elapsed","internal_node_id","subject","stimulus_type","trial_stimulus","key_press","minimum_viewing_duration","trial_looking_time","block_deviant","block_background","exposure_type","stimulus","block_number","block_type","stimulus_displayed","responses","question_order","math_correct_answer","stimulus_left","stimulus_right"
"[{""page_index"":0,""viewing_time"":3301.725000026636}]","3301.980000018375","instructions","0","3303","0.0-0.0","SS1619740032953","","","","","","","","","","","","","","","","",""
"[{""page_index"":0,""viewing_time"":5015.335000003688},{""page_index"":1,""viewing_time"":5558.81000001682}]","10574.280000000726","instructions","1","15879","0.0-1.0","SS1619740032953","instructions","","","","","","","","","","","","","","","",""
"","7384.025000006659","sequential-stimulus-presentation-old","2","23766","0.0-2.0","SS1619740032953","","","40","500","7884.025000006659","null","null","self_paced","","","","","","","","",""
"","4270.879999996396","sequential-stimulus-presentation-old","3","28538","0.0-3.0","SS1619740032953","","","40","500","4770.879999996396","null","null","self_paced","","","","","","","","",""
"[{""page_index"":0,""viewing_time"":22390.520000015385}]","22390.700000018114","instructions","4","50930","0.0-4.0","SS1619740032953","instructions","","","","","","","","","","","","","","","",""
"","623.2700000109617","sequential-stimulus-presentation-old","5","66557","0.0-5.0","SS1619740032953","","","40","500","1123.2700000109617","null","null","forced_long","","","","","","","","",""
"","2101.010000013048","sequential-stimulus-presentation-old","6","69166","0.0-6.0","SS1619740032953","","","40","500","2601.010000013048","null","null","forced_long","","","","","","","","",""
"[{""page_index"":0,""viewing_time"":4890.290000010282}]","4890.459999995073","instructions","7","74057","0.0-7.0","SS1619740032953","instructions","","","","","","","","","","","","","","","",""
"[{""page_index"":0,""viewing_time"":9077.97500002198},{""page_index"":1,""viewing_time"":9097.169999993639},{""page_index"":2,""viewing_time"":5950.229999987641},{""page_index"":3,""viewing_time"":1652.2000000113621},{""page_index"":4,""viewing_time"":1241.8349999934435}]","27019.595000019763","instructions","8","101078","0.0-8.0","SS1619740032953","instructions","","","","","","","","","","","","","","","",""
"","null","html-keyboard-response","9","102267","0.0-9.0-0.0","SS1619740032953","","","null","","","","","","<p><img src= images/blank.png width =""600"" height = ""600"" style=""position:fixed;top:50%; left:50%; transform: translate(-50%, -50%); border:5px solid black"">","","","","","","","",""
"","178305.62500000815","sequential-stimulus-presentation-old","10","281077","0.0-9.0-1.0","SS1619740032953","trial","","40","500","178805.62500000815","images/stimuli/spore_stims/complex_11_A_a.gif","images/stimuli/spore_stims/complex_09_A_b.gif","self_paced","","0","complex_dissimilar","images/stimuli/spore_stims/complex_09_A_b.gif","","","","",""
"","null","html-keyboard-response","11","281915","0.0-9.0-0.1","SS1619740032953","","","null","","","","","","<p><img src= images/blank.png width =""600"" height = ""600"" style=""position:fixed;top:50%; left:50%; transform: translate(-50%, -50%); border:5px solid black"">","","","","","","","",""
"","68187.99999999464","sequential-stimulus-presentation-old","12","350604","0.0-9.0-1.1","SS1619740032953","trial","","40","500","68687.99999999464","images/stimuli/spore_stims/complex_11_A_a.gif","images/stimuli/spore_stims/complex_09_A_b.gif","self_paced","","0","complex_dissimilar","images/stimuli/spore_stims/complex_11_A_a.gif","","","","",""
"","null","html-keyboard-response","13","351663","0.0-9.0-0.2","SS1619740032953","","","null","","","","","","<p><img src= images/blank.png width =""600"" height = ""600"" style=""position:fixed;top:50%; left:50%; transform: translate(-50%, -50%); border:5px solid black"">","","","","","","","",""
"","20384.79000001098","sequential-stimulus-presentation-old","14","372556","0.0-9.0-1.2","SS1619740032953","trial","","40","500","20884.79000001098","images/stimuli/spore_stims/complex_11_A_a.gif","images/stimuli/spore_stims/complex_09_A_b.gif","self_paced","","0","complex_dissimilar","images/stimuli/spore_stims/complex_09_A_b.gif","","","","",""
"","null","html-keyboard-response","15","373698","0.0-9.0-0.3","SS1619740032953","","","null","","","","","","<p><img src= images/blank.png width =""600"" height = ""600"" style=""position:fixed;top:50%; left:50%; transform: translate(-50%, -50%); border:5px solid black"">","","","","","","","",""
"","3593.6449999862816","sequential-stimulus-presentation-old","16","377795","0.0-9.0-1.3","SS1619740032953","trial","","40","500","4093.6449999862816","images/stimuli/spore_stims/complex_11_A_a.gif","images/stimuli/spore_stims/complex_09_A_b.gif","self_paced","","0","complex_dissimilar","images/stimuli/spore_stims/complex_09_A_b.gif","","","","",""
"","6752.444999990985","survey-multi-choice","17","384550","0.0-10.0","SS1619740032953","math_question","","","","","","","","","","","","{""Q0"":""15""}","[0]","15","",""
"","null","html-keyboard-response","18","385744","0.0-11.0-0.0","SS1619740032953","","","null","","","","","","<p><img src= images/blank.png width =""600"" height = ""600"" style=""position:fixed;top:50%; left:50%; transform: translate(-50%, -50%); border:5px solid black"">","","","","","","","",""
"","1029.1199999919627","sequential-stimulus-presentation-old","19","387277","0.0-11.0-1.0","SS1619740032953","trial","","40","500","1529.1199999919627","images/stimuli/spore_stims/complex_14_A_b.gif","images/stimuli/spore_stims/complex_05_A_a.gif","forced_short","","1","complex_dissimilar","images/stimuli/spore_stims/complex_05_A_a.gif","","","","",""
"","null","html-keyboard-response","20","388452","0.0-11.0-0.1","SS1619740032953","","","null","","","","","","<p><img src= images/blank.png width =""600"" height = ""600"" style=""position:fixed;top:50%; left:50%; transform: translate(-50%, -50%); border:5px solid black"">","","","","","","","",""
"","5876.365000003716","sequential-stimulus-presentation-old","21","394833","0.0-11.0-1.1","SS1619740032953","trial","","40","500","6376.365000003716","images/stimuli/spore_stims/complex_14_A_b.gif","images/stimuli/spore_stims/complex_05_A_a.gif","forced_short","","1","complex_dissimilar","images/stimuli/spore_stims/complex_05_A_a.gif","","","","",""
"","null","html-keyboard-response","22","395958","0.0-11.0-0.2","SS1619740032953","","","null","","","","","","<p><img src= images/blank.png width =""600"" height = ""600"" style=""position:fixed;top:50%; left:50%; transform: translate(-50%, -50%); border:5px solid black"">","","","","","","","",""
"","10918.804999993881","sequential-stimulus-presentation-old","23","407380","0.0-11.0-1.2","SS1619740032953","trial","","40","500","11418.804999993881","images/stimuli/spore_stims/complex_14_A_b.gif","images/stimuli/spore_stims/complex_05_A_a.gif","forced_short","","1","complex_dissimilar","images/stimuli/spore_stims/complex_05_A_a.gif","","","","",""
"","null","html-keyboard-response","24","408591","0.0-11.0-0.3","SS1619740032953","","","null","","","","","","<p><img src= images/blank.png width =""600"" height = ""600"" style=""position:fixed;top:50%; left:50%; transform: translate(-50%, -50%); border:5px solid black"">","","","","","","","",""
"","13415.905000001658","sequential-stimulus-presentation-old","25","422510","0.0-11.0-1.3","SS1619740032953","trial","","40","500","13915.905000001658","images/stimuli/spore_stims/complex_14_A_b.gif","images/stimuli/spore_stims/complex_05_A_a.gif","forced_short","","1","complex_dissimilar","images/stimuli/spore_stims/complex_14_A_b.gif","","","","",""
"","null","html-keyboard-response","26","423534","0.0-11.0-0.4","SS1619740032953","","","null","","","","","","<p><img src= images/blank.png width =""600"" height = ""600"" style=""position:fixed;top:50%; left:50%; transform: translate(-50%, -50%); border:5px solid black"">","","","","","","","",""
"","5187.525000015739","sequential-stimulus-presentation-old","27","429225","0.0-11.0-1.4","SS1619740032953","trial","","40","500","5687.525000015739","images/stimuli/spore_stims/complex_14_A_b.gif","images/stimuli/spore_stims/complex_05_A_a.gif","forced_short","","1","complex_dissimilar","images/stimuli/spore_stims/complex_05_A_a.gif","","","","",""
"","null","html-keyboard-response","28","430318","0.0-11.0-0.5","SS1619740032953","","","null","","","","","","<p><img src= images/blank.png width =""600"" height = ""600"" style=""position:fixed;top:50%; left:50%; transform: translate(-50%, -50%); border:5px solid black"">","","","","","","","",""
"","6524.065000005066","sequential-stimulus-presentation-old","29","437354","0.0-11.0-1.5","SS1619740032953","trial","","40","500","7024.065000005066","images/stimuli/spore_stims/complex_14_A_b.gif","images/stimuli/spore_stims/complex_05_A_a.gif","forced_short","","1","complex_dissimilar","images/stimuli/spore_stims/complex_05_A_a.gif","","","","",""
"","5227.784999995492","survey-multi-choice","30","442583","0.0-12.0","SS1619740032953","math_question","","","","","","","","","","","","{""Q0"":""17""}","[0]","17","",""
"","null","html-keyboard-response","31","443546","0.0-13.0-0.0","SS1619740032953","","","null","","","","","","<p><img src= images/blank.png width =""600"" height = ""600"" style=""position:fixed;top:50%; left:50%; transform: translate(-50%, -50%); border:5px solid black"">","","","","","","","",""
"","877.3550000041723","sequential-stimulus-presentation-old","32","444928","0.0-13.0-1.0","SS1619740032953","trial","","40","500","1377.3550000041723","images/stimuli/spore_stims/complex_05_A_b.gif","images/stimuli/spore_stims/complex_10_A_a.gif","forced_short","","2","complex_dissimilar","images/stimuli/spore_stims/complex_10_A_a.gif","","","","",""
"","null","html-keyboard-response","33","446185","0.0-13.0-0.1","SS1619740032953","","","null","","","","","","<p><img src= images/blank.png width =""600"" height = ""600"" style=""position:fixed;top:50%; left:50%; transform: translate(-50%, -50%); border:5px solid black"">","","","","","","","",""
"","3204.089999984717","sequential-stimulus-presentation-old","34","449892","0.0-13.0-1.1","SS1619740032953","trial","","40","500","3704.089999984717","images/stimuli/spore_stims/complex_05_A_b.gif","images/stimuli/spore_stims/complex_10_A_a.gif","forced_short","","2","complex_dissimilar","images/stimuli/spore_stims/complex_10_A_a.gif","","","","",""
"","null","html-keyboard-response","35","450736","0.0-13.0-0.2","SS1619740032953","","","null","","","","","","<p><img src= images/blank.png width =""600"" height = ""600"" style=""position:fixed;top:50%; left:50%; transform: translate(-50%, -50%); border:5px solid black"">","","","","","","","",""
"","5180.464999983087","sequential-stimulus-presentation-old","36","456419","0.0-13.0-1.2","SS1619740032953","trial","","40","500","5680.464999983087","images/stimuli/spore_stims/complex_05_A_b.gif","images/stimuli/spore_stims/complex_10_A_a.gif","forced_short","","2","complex_dissimilar","images/stimuli/spore_stims/complex_10_A_a.gif","","","","",""
"","null","html-keyboard-response","37","457521","0.0-13.0-0.3","SS1619740032953","","","null","","","","","","<p><img src= images/blank.png width =""600"" height = ""600"" style=""position:fixed;top:50%; left:50%; transform: translate(-50%, -50%); border:5px solid black"">","","","","","","","",""
"","3916.739999986021","sequential-stimulus-presentation-old","38","461941","0.0-13.0-1.3","SS1619740032953","trial","","40","500","4416.739999986021","images/stimuli/spore_stims/complex_05_A_b.gif","images/stimuli/spore_stims/complex_10_A_a.gif","forced_short","","2","complex_dissimilar","images/stimuli/spore_stims/complex_10_A_a.gif","","","","",""
"","null","html-keyboard-response","39","463133","0.0-13.0-0.4","SS1619740032953","","","null","","","","","","<p><img src= images/blank.png width =""600"" height = ""600"" style=""position:fixed;top:50%; left:50%; transform: translate(-50%, -50%); border:5px solid black"">","","","","","","","",""
"","6232.994999998482","sequential-stimulus-presentation-old","40","469870","0.0-13.0-1.4","SS1619740032953","trial","","40","500","6732.994999998482","images/stimuli/spore_stims/complex_05_A_b.gif","images/stimuli/spore_stims/complex_10_A_a.gif","forced_short","","2","complex_dissimilar","images/stimuli/spore_stims/complex_05_A_b.gif","","","","",""
"","null","html-keyboard-response","41","470707","0.0-13.0-0.5","SS1619740032953","","","null","","","","","","<p><img src= images/blank.png width =""600"" height = ""600"" style=""position:fixed;top:50%; left:50%; transform: translate(-50%, -50%); border:5px solid black"">","","","","","","","",""
"","3115.734999999404","sequential-stimulus-presentation-old","42","474326","0.0-13.0-1.5","SS1619740032953","trial","","40","500","3615.734999999404","images/stimuli/spore_stims/complex_05_A_b.gif","images/stimuli/spore_stims/complex_10_A_a.gif","forced_short","","2","complex_dissimilar","images/stimuli/spore_stims/complex_10_A_a.gif","","","","",""
"","5963.114999991376","survey-multi-choice","43","480290","0.0-14.0","SS1619740032953","math_question","","","","","","","","","","","","{""Q0"":""4""}","[0]","4","",""
"","null","html-keyboard-response","44","481226","0.0-15.0-0.0","SS1619740032953","","","null","","","","","","<p><img src= images/blank.png width =""600"" height = ""600"" style=""position:fixed;top:50%; left:50%; transform: translate(-50%, -50%); border:5px solid black"">","","","","","","","",""
"","562.465000024531","sequential-stimulus-presentation-old","45","482303","0.0-15.0-1.0","SS1619740032953","trial","","40","500","1062.465000024531","images/stimuli/spore_stims/simple_06_A_a.gif","images/stimuli/spore_stims/simple_14_A_b.gif","forced_short","","3","simple_dissimilar","images/stimuli/spore_stims/simple_14_A_b.gif","","","","",""
"","null","html-keyboard-response","46","483364","0.0-15.0-0.1","SS1619740032953","","","null","","","","","","<p><img src= images/blank.png width =""600"" height = ""600"" style=""position:fixed;top:50%; left:50%; transform: translate(-50%, -50%); border:5px solid black"">","","","","","","","",""
"","1725.7749999989755","sequential-stimulus-presentation-old","47","485593","0.0-15.0-1.1","SS1619740032953","trial","","40","500","2225.7749999989755","images/stimuli/spore_stims/simple_06_A_a.gif","images/stimuli/spore_stims/simple_14_A_b.gif","forced_short","","3","simple_dissimilar","images/stimuli/spore_stims/simple_14_A_b.gif","","","","",""
"","null","html-keyboard-response","48","486480","0.0-15.0-0.2","SS1619740032953","","","null","","","","","","<p><img src= images/blank.png width =""600"" height = ""600"" style=""position:fixed;top:50%; left:50%; transform: translate(-50%, -50%); border:5px solid black"">","","","","","","","",""
"","2183.5399999981746","sequential-stimulus-presentation-old","49","489167","0.0-15.0-1.2","SS1619740032953","trial","","40","500","2683.5399999981746","images/stimuli/spore_stims/simple_06_A_a.gif","images/stimuli/spore_stims/simple_14_A_b.gif","forced_short","","3","simple_dissimilar","images/stimuli/spore_stims/simple_14_A_b.gif","","","","",""
"","null","html-keyboard-response","50","490242","0.0-15.0-0.3","SS1619740032953","","","null","","","","","","<p><img src= images/blank.png width =""600"" height = ""600"" style=""position:fixed;top:50%; left:50%; transform: translate(-50%, -50%); border:5px solid black"">","","","","","","","",""
"","1531.8400000105612","sequential-stimulus-presentation-old","51","492277","0.0-15.0-1.3","SS1619740032953","trial","","40","500","2031.8400000105612","images/stimuli/spore_stims/simple_06_A_a.gif","images/stimuli/spore_stims/simple_14_A_b.gif","forced_short","","3","simple_dissimilar","images/stimuli/spore_stims/simple_14_A_b.gif","","","","",""
"","3972.329999989597","survey-multi-choice","52","496250","0.0-16.0","SS1619740032953","math_question","","","","","","","","","","","","{""Q0"":""4""}","[0]","4","",""
"","null","html-keyboard-response","53","497074","0.0-17.0-0.0","SS1619740032953","","","null","","","","","","<p><img src= images/blank.png width =""600"" height = ""600"" style=""position:fixed;top:50%; left:50%; transform: translate(-50%, -50%); border:5px solid black"">","","","","","","","",""
"","1905.9899999992922","sequential-stimulus-presentation-old","54","499482","0.0-17.0-1.0","SS1619740032953","trial","","40","500","2405.989999999292","images/stimuli/spore_stims/simple_16_A_a.gif","images/stimuli/spore_stims/simple_15_A_b.gif","self_paced","","4","simple_dissimilar","images/stimuli/spore_stims/simple_15_A_b.gif","","","","",""
"","null","html-keyboard-response","55","500522","0.0-17.0-0.1","SS1619740032953","","","null","","","","","","<p><img src= images/blank.png width =""600"" height = ""600"" style=""position:fixed;top:50%; left:50%; transform: translate(-50%, -50%); border:5px solid black"">","","","","","","","",""
"","945.9550000028685","sequential-stimulus-presentation-old","56","501971","0.0-17.0-1.1","SS1619740032953","trial","","40","500","1445.9550000028685","images/stimuli/spore_stims/simple_16_A_a.gif","images/stimuli/spore_stims/simple_15_A_b.gif","self_paced","","4","simple_dissimilar","images/stimuli/spore_stims/simple_16_A_a.gif","","","","",""
"","null","html-keyboard-response","57","502942","0.0-17.0-0.2","SS1619740032953","","","null","","","","","","<p><img src= images/blank.png width =""600"" height = ""600"" style=""position:fixed;top:50%; left:50%; transform: translate(-50%, -50%); border:5px solid black"">","","","","","","","",""
"","1089.4649999972899","sequential-stimulus-presentation-old","58","504535","0.0-17.0-1.2","SS1619740032953","trial","","40","500","1589.4649999972899","images/stimuli/spore_stims/simple_16_A_a.gif","images/stimuli/spore_stims/simple_15_A_b.gif","self_paced","","4","simple_dissimilar","images/stimuli/spore_stims/simple_15_A_b.gif","","","","",""
"","null","html-keyboard-response","59","505664","0.0-17.0-0.3","SS1619740032953","","","null","","","","","","<p><img src= images/blank.png width =""600"" height = ""600"" style=""position:fixed;top:50%; left:50%; transform: translate(-50%, -50%); border:5px solid black"">","","","","","","","",""
"","1514.7199999773875","sequential-stimulus-presentation-old","60","507681","0.0-17.0-1.3","SS1619740032953","trial","","40","500","2014.7199999773875","images/stimuli/spore_stims/simple_16_A_a.gif","images/stimuli/spore_stims/simple_15_A_b.gif","self_paced","","4","simple_dissimilar","images/stimuli/spore_stims/simple_15_A_b.gif","","","","",""
"","3935.5199999990873","survey-multi-choice","61","511618","0.0-18.0","SS1619740032953","math_question","","","","","","","","","","","","{""Q0"":""9""}","[0]","9","",""
"","null","html-keyboard-response","62","512694","0.0-19.0-0.0","SS1619740032953","","","null","","","","","","<p><img src= images/blank.png width =""600"" height = ""600"" style=""position:fixed;top:50%; left:50%; transform: translate(-50%, -50%); border:5px solid black"">","","","","","","","",""
"","2880.1600000006147","sequential-stimulus-presentation-old","63","530577","0.0-19.0-1.0","SS1619740032953","trial","","40","500","3380.1600000006147","images/stimuli/spore_stims/simple_08_A_a.gif","images/stimuli/spore_stims/simple_03_A_b.gif","forced_long","","5","simple_dissimilar","images/stimuli/spore_stims/simple_03_A_b.gif","","","","",""
"","null","html-keyboard-response","64","531632","0.0-19.0-0.1","SS1619740032953","","","null","","","","","","<p><img src= images/blank.png width =""600"" height = ""600"" style=""position:fixed;top:50%; left:50%; transform: translate(-50%, -50%); border:5px solid black"">","","","","","","","",""
"","4495.059999986552","sequential-stimulus-presentation-old","65","536640","0.0-19.0-1.1","SS1619740032953","trial","","40","500","4995.059999986552","images/stimuli/spore_stims/simple_08_A_a.gif","images/stimuli/spore_stims/simple_03_A_b.gif","forced_long","","5","simple_dissimilar","images/stimuli/spore_stims/simple_08_A_a.gif","","","","",""
"","null","html-keyboard-response","66","537917","0.0-19.0-0.2","SS1619740032953","","","null","","","","","","<p><img src= images/blank.png width =""600"" height = ""600"" style=""position:fixed;top:50%; left:50%; transform: translate(-50%, -50%); border:5px solid black"">","","","","","","","",""
"","2725.284999993164","sequential-stimulus-presentation-old","67","541146","0.0-19.0-1.2","SS1619740032953","trial","","40","500","3225.284999993164","images/stimuli/spore_stims/simple_08_A_a.gif","images/stimuli/spore_stims/simple_03_A_b.gif","forced_long","","5","simple_dissimilar","images/stimuli/spore_stims/simple_03_A_b.gif","","","","",""
"","null","html-keyboard-response","68","542331","0.0-19.0-0.3","SS1619740032953","","","null","","","","","","<p><img src= images/blank.png width =""600"" height = ""600"" style=""position:fixed;top:50%; left:50%; transform: translate(-50%, -50%); border:5px solid black"">","","","","","","","",""
"","2496.594999975059","sequential-stimulus-presentation-old","69","545331","0.0-19.0-1.3","SS1619740032953","trial","","40","500","2996.594999975059","images/stimuli/spore_stims/simple_08_A_a.gif","images/stimuli/spore_stims/simple_03_A_b.gif","forced_long","","5","simple_dissimilar","images/stimuli/spore_stims/simple_03_A_b.gif","","","","",""
"","null","html-keyboard-response","70","546370","0.0-19.0-0.4","SS1619740032953","","","null","","","","","","<p><img src= images/blank.png width =""600"" height = ""600"" style=""position:fixed;top:50%; left:50%; transform: translate(-50%, -50%); border:5px solid black"">","","","","","","","",""
"","2962.564999994356","sequential-stimulus-presentation-old","71","549844","0.0-19.0-1.4","SS1619740032953","trial","","40","500","3462.564999994356","images/stimuli/spore_stims/simple_08_A_a.gif","images/stimuli/spore_stims/simple_03_A_b.gif","forced_long","","5","simple_dissimilar","images/stimuli/spore_stims/simple_08_A_a.gif","","","","",""
"","3691.1850000033155","survey-multi-choice","72","553537","0.0-20.0","SS1619740032953","math_question","","","","","","","","","","","","{""Q0"":""6""}","[0]","6","",""
"","null","html-keyboard-response","73","554540","0.0-21.0-0.0","SS1619740032953","","","null","","","","","","<p><img src= images/blank.png width =""600"" height = ""600"" style=""position:fixed;top:50%; left:50%; transform: translate(-50%, -50%); border:5px solid black"">","","","","","","","",""
"","585.7949999917764","sequential-stimulus-presentation-old","74","555630","0.0-21.0-1.0","SS1619740032953","trial","","40","500","1085.7949999917764","images/stimuli/spore_stims/simple_19_A_a.gif","images/stimuli/spore_stims/simple_09_A_b.gif","forced_short","","6","simple_dissimilar","images/stimuli/spore_stims/simple_09_A_b.gif","","","","",""
"","null","html-keyboard-response","75","556740","0.0-21.0-0.1","SS1619740032953","","","null","","","","","","<p><img src= images/blank.png width =""600"" height = ""600"" style=""position:fixed;top:50%; left:50%; transform: translate(-50%, -50%); border:5px solid black"">","","","","","","","",""
"","1175.6299999833573","sequential-stimulus-presentation-old","76","558419","0.0-21.0-1.1","SS1619740032953","trial","","40","500","1675.6299999833573","images/stimuli/spore_stims/simple_19_A_a.gif","images/stimuli/spore_stims/simple_09_A_b.gif","forced_short","","6","simple_dissimilar","images/stimuli/spore_stims/simple_09_A_b.gif","","","","",""
"","null","html-keyboard-response","77","559311","0.0-21.0-0.2","SS1619740032953","","","null","","","","","","<p><img src= images/blank.png width =""600"" height = ""600"" style=""position:fixed;top:50%; left:50%; transform: translate(-50%, -50%); border:5px solid black"">","","","","","","","",""
"","1154.0249999961816","sequential-stimulus-presentation-old","78","560968","0.0-21.0-1.2","SS1619740032953","trial","","40","500","1654.0249999961816","images/stimuli/spore_stims/simple_19_A_a.gif","images/stimuli/spore_stims/simple_09_A_b.gif","forced_short","","6","simple_dissimilar","images/stimuli/spore_stims/simple_09_A_b.gif","","","","",""
"","null","html-keyboard-response","79","561818","0.0-21.0-0.3","SS1619740032953","","","null","","","","","","<p><img src= images/blank.png width =""600"" height = ""600"" style=""position:fixed;top:50%; left:50%; transform: translate(-50%, -50%); border:5px solid black"">","","","","","","","",""
"","2531.235000002198","sequential-stimulus-presentation-old","80","564857","0.0-21.0-1.3","SS1619740032953","trial","","40","500","3031.235000002198","images/stimuli/spore_stims/simple_19_A_a.gif","images/stimuli/spore_stims/simple_09_A_b.gif","forced_short","","6","simple_dissimilar","images/stimuli/spore_stims/simple_09_A_b.gif","","","","",""
"","null","html-keyboard-response","81","566003","0.0-21.0-0.4","SS1619740032953","","","null","","","","","","<p><img src= images/blank.png width =""600"" height = ""600"" style=""position:fixed;top:50%; left:50%; transform: translate(-50%, -50%); border:5px solid black"">","","","","","","","",""
"","2278.3200000121724","sequential-stimulus-presentation-old","82","568793","0.0-21.0-1.4","SS1619740032953","trial","","40","500","2778.3200000121724","images/stimuli/spore_stims/simple_19_A_a.gif","images/stimuli/spore_stims/simple_09_A_b.gif","forced_short","","6","simple_dissimilar","images/stimuli/spore_stims/simple_09_A_b.gif","","","","",""
"","null","html-keyboard-response","83","569965","0.0-21.0-0.5","SS1619740032953","","","null","","","","","","<p><img src= images/blank.png width =""600"" height = ""600"" style=""position:fixed;top:50%; left:50%; transform: translate(-50%, -50%); border:5px solid black"">","","","","","","","",""
"","2498.3399999910034","sequential-stimulus-presentation-old","84","572967","0.0-21.0-1.5","SS1619740032953","trial","","40","500","2998.3399999910034","images/stimuli/spore_stims/simple_19_A_a.gif","images/stimuli/spore_stims/simple_09_A_b.gif","forced_short","","6","simple_dissimilar","images/stimuli/spore_stims/simple_19_A_a.gif","","","","",""
"","4006.345000001602","survey-multi-choice","85","576975","0.0-22.0","SS1619740032953","math_question","","","","","","","","","","","","{""Q0"":""10""}","[0]","10","",""
"","null","html-keyboard-response","86","577901","0.0-23.0-0.0","SS1619740032953","","","null","","","","","","<p><img src= images/blank.png width =""600"" height = ""600"" style=""position:fixed;top:50%; left:50%; transform: translate(-50%, -50%); border:5px solid black"">","","","","","","","",""
"","2397.0850000041537","sequential-stimulus-presentation-old","87","580801","0.0-23.0-1.0","SS1619740032953","trial","","40","500","2897.0850000041537","images/stimuli/spore_stims/simple_08_A_b.gif","images/stimuli/spore_stims/simple_17_A_a.gif","self_paced","","7","simple_dissimilar","images/stimuli/spore_stims/simple_17_A_a.gif","","","","",""
"","null","html-keyboard-response","88","581958","0.0-23.0-0.1","SS1619740032953","","","null","","","","","","<p><img src= images/blank.png width =""600"" height = ""600"" style=""position:fixed;top:50%; left:50%; transform: translate(-50%, -50%); border:5px solid black"">","","","","","","","",""
"","3332.265000004554","sequential-stimulus-presentation-old","89","585800","0.0-23.0-1.1","SS1619740032953","trial","","40","500","3832.265000004554","images/stimuli/spore_stims/simple_08_A_b.gif","images/stimuli/spore_stims/simple_17_A_a.gif","self_paced","","7","simple_dissimilar","images/stimuli/spore_stims/simple_17_A_a.gif","","","","",""
"","null","html-keyboard-response","90","587053","0.0-23.0-0.2","SS1619740032953","","","null","","","","","","<p><img src= images/blank.png width =""600"" height = ""600"" style=""position:fixed;top:50%; left:50%; transform: translate(-50%, -50%); border:5px solid black"">","","","","","","","",""
"","3296.665000001667","sequential-stimulus-presentation-old","91","590852","0.0-23.0-1.2","SS1619740032953","trial","","40","500","3796.665000001667","images/stimuli/spore_stims/simple_08_A_b.gif","images/stimuli/spore_stims/simple_17_A_a.gif","self_paced","","7","simple_dissimilar","images/stimuli/spore_stims/simple_17_A_a.gif","","","","",""
"","null","html-keyboard-response","92","591740","0.0-23.0-0.3","SS1619740032953","","","null","","","","","","<p><img src= images/blank.png width =""600"" height = ""600"" style=""position:fixed;top:50%; left:50%; transform: translate(-50%, -50%); border:5px solid black"">","","","","","","","",""
"","4950.725000002421","sequential-stimulus-presentation-old","93","597194","0.0-23.0-1.3","SS1619740032953","trial","","40","500","5450.725000002421","images/stimuli/spore_stims/simple_08_A_b.gif","images/stimuli/spore_stims/simple_17_A_a.gif","self_paced","","7","simple_dissimilar","images/stimuli/spore_stims/simple_08_A_b.gif","","","","",""
"","4190.660000022035","survey-multi-choice","94","601387","0.0-24.0","SS1619740032953","math_question","","","","","","","","","","","","{""Q0"":""16""}","[0]","16","",""
"","null","html-keyboard-response","95","602494","0.0-25.0-0.0","SS1619740032953","","","null","","","","","","<p><img src= images/blank.png width =""600"" height = ""600"" style=""position:fixed;top:50%; left:50%; transform: translate(-50%, -50%); border:5px solid black"">","","","","","","","",""
"","474.6950000117067","sequential-stimulus-presentation-old","96","617978","0.0-25.0-1.0","SS1619740032953","trial","","40","500","974.6950000117067","images/stimuli/spore_stims/complex_14_A_a.gif","images/stimuli/spore_stims/complex_03_A_b.gif","forced_long","","8","complex_dissimilar","images/stimuli/spore_stims/complex_03_A_b.gif","","","","",""
"","null","html-keyboard-response","97","619217","0.0-25.0-0.1","SS1619740032953","","","null","","","","","","<p><img src= images/blank.png width =""600"" height = ""600"" style=""position:fixed;top:50%; left:50%; transform: translate(-50%, -50%); border:5px solid black"">","","","","","","","",""
"","2105.0649999815505","sequential-stimulus-presentation-old","98","621826","0.0-25.0-1.1","SS1619740032953","trial","","40","500","2605.0649999815505","images/stimuli/spore_stims/complex_14_A_a.gif","images/stimuli/spore_stims/complex_03_A_b.gif","forced_long","","8","complex_dissimilar","images/stimuli/spore_stims/complex_03_A_b.gif","","","","",""
"","null","html-keyboard-response","99","623041","0.0-25.0-0.2","SS1619740032953","","","null","","","","","","<p><img src= images/blank.png width =""600"" height = ""600"" style=""position:fixed;top:50%; left:50%; transform: translate(-50%, -50%); border:5px solid black"">","","","","","","","",""
"","789.0950000146404","sequential-stimulus-presentation-old","100","624334","0.0-25.0-1.2","SS1619740032953","trial","","40","500","1289.0950000146404","images/stimuli/spore_stims/complex_14_A_a.gif","images/stimuli/spore_stims/complex_03_A_b.gif","forced_long","","8","complex_dissimilar","images/stimuli/spore_stims/complex_03_A_b.gif","","","","",""
"","null","html-keyboard-response","101","625263","0.0-25.0-0.3","SS1619740032953","","","null","","","","","","<p><img src= images/blank.png width =""600"" height = ""600"" style=""position:fixed;top:50%; left:50%; transform: translate(-50%, -50%); border:5px solid black"">","","","","","","","",""
"","5301.914999989094","sequential-stimulus-presentation-old","102","631069","0.0-25.0-1.3","SS1619740032953","trial","","40","500","5801.914999989094","images/stimuli/spore_stims/complex_14_A_a.gif","images/stimuli/spore_stims/complex_03_A_b.gif","forced_long","","8","complex_dissimilar","images/stimuli/spore_stims/complex_14_A_a.gif","","","","",""
"","null","html-keyboard-response","103","632307","0.0-25.0-0.4","SS1619740032953","","","null","","","","","","<p><img src= images/blank.png width =""600"" height = ""600"" style=""position:fixed;top:50%; left:50%; transform: translate(-50%, -50%); border:5px solid black"">","","","","","","","",""
"","2065.9949999826495","sequential-stimulus-presentation-old","104","634878","0.0-25.0-1.4","SS1619740032953","trial","","40","500","2565.9949999826495","images/stimuli/spore_stims/complex_14_A_a.gif","images/stimuli/spore_stims/complex_03_A_b.gif","forced_long","","8","complex_dissimilar","images/stimuli/spore_stims/complex_14_A_a.gif","","","","",""
"","4113.884999998845","survey-multi-choice","105","638995","0.0-26.0","SS1619740032953","math_question","","","","","","","","","","","","{""Q0"":""12""}","[0]","12","",""
"","null","html-keyboard-response","106","640044","0.0-27.0-0.0","SS1619740032953","","","null","","","","","","<p><img src= images/blank.png width =""600"" height = ""600"" style=""position:fixed;top:50%; left:50%; transform: translate(-50%, -50%); border:5px solid black"">","","","","","","","",""
"","445.44500001939014","sequential-stimulus-presentation-old","107","655494","0.0-27.0-1.0","SS1619740032953","trial","","40","500","945.4450000193901","images/stimuli/spore_stims/complex_06_A_b.gif","images/stimuli/spore_stims/complex_15_A_a.gif","forced_long","","9","complex_dissimilar","images/stimuli/spore_stims/complex_15_A_a.gif","","","","",""
"","null","html-keyboard-response","108","656304","0.0-27.0-0.1","SS1619740032953","","","null","","","","","","<p><img src= images/blank.png width =""600"" height = ""600"" style=""position:fixed;top:50%; left:50%; transform: translate(-50%, -50%); border:5px solid black"">","","","","","","","",""
"","6338.489999994636","sequential-stimulus-presentation-old","109","663147","0.0-27.0-1.1","SS1619740032953","trial","","40","500","6838.489999994636","images/stimuli/spore_stims/complex_06_A_b.gif","images/stimuli/spore_stims/complex_15_A_a.gif","forced_long","","9","complex_dissimilar","images/stimuli/spore_stims/complex_15_A_a.gif","","","","",""
"","null","html-keyboard-response","110","664122","0.0-27.0-0.2","SS1619740032953","","","null","","","","","","<p><img src= images/blank.png width =""600"" height = ""600"" style=""position:fixed;top:50%; left:50%; transform: translate(-50%, -50%); border:5px solid black"">","","","","","","","",""
"","1046.3900000031572","sequential-stimulus-presentation-old","111","665672","0.0-27.0-1.2","SS1619740032953","trial","","40","500","1546.3900000031572","images/stimuli/spore_stims/complex_06_A_b.gif","images/stimuli/spore_stims/complex_15_A_a.gif","forced_long","","9","complex_dissimilar","images/stimuli/spore_stims/complex_15_A_a.gif","","","","",""
"","null","html-keyboard-response","112","666492","0.0-27.0-0.3","SS1619740032953","","","null","","","","","","<p><img src= images/blank.png width =""600"" height = ""600"" style=""position:fixed;top:50%; left:50%; transform: translate(-50%, -50%); border:5px solid black"">","","","","","","","",""
"","5339.505000010831","sequential-stimulus-presentation-old","113","672335","0.0-27.0-1.3","SS1619740032953","trial","","40","500","5839.505000010831","images/stimuli/spore_stims/complex_06_A_b.gif","images/stimuli/spore_stims/complex_15_A_a.gif","forced_long","","9","complex_dissimilar","images/stimuli/spore_stims/complex_06_A_b.gif","","","","",""
"","null","html-keyboard-response","114","673280","0.0-27.0-0.4","SS1619740032953","","","null","","","","","","<p><img src= images/blank.png width =""600"" height = ""600"" style=""position:fixed;top:50%; left:50%; transform: translate(-50%, -50%); border:5px solid black"">","","","","","","","",""
"","946.5700000000652","sequential-stimulus-presentation-old","115","674730","0.0-27.0-1.4","SS1619740032953","trial","","40","500","1446.5700000000652","images/stimuli/spore_stims/complex_06_A_b.gif","images/stimuli/spore_stims/complex_15_A_a.gif","forced_long","","9","complex_dissimilar","images/stimuli/spore_stims/complex_15_A_a.gif","","","","",""
"","null","html-keyboard-response","116","675924","0.0-27.0-0.5","SS1619740032953","","","null","","","","","","<p><img src= images/blank.png width =""600"" height = ""600"" style=""position:fixed;top:50%; left:50%; transform: translate(-50%, -50%); border:5px solid black"">","","","","","","","",""
"","1714.3450000148732","sequential-stimulus-presentation-old","117","678143","0.0-27.0-1.5","SS1619740032953","trial","","40","500","2214.345000014873","images/stimuli/spore_stims/complex_06_A_b.gif","images/stimuli/spore_stims/complex_15_A_a.gif","forced_long","","9","complex_dissimilar","images/stimuli/spore_stims/complex_06_A_b.gif","","","","",""
"","4155.670000007376","survey-multi-choice","118","682301","0.0-28.0","SS1619740032953","math_question","","","","","","","","","","","","{""Q0"":""14""}","[0]","14","",""
"","null","html-keyboard-response","119","683211","0.0-29.0-0.0","SS1619740032953","","","null","","","","","","<p><img src= images/blank.png width =""600"" height = ""600"" style=""position:fixed;top:50%; left:50%; transform: translate(-50%, -50%); border:5px solid black"">","","","","","","","",""
"","1218.9049999869894","sequential-stimulus-presentation-old","120","699437","0.0-29.0-1.0","SS1619740032953","trial","","40","500","1718.9049999869894","images/stimuli/spore_stims/simple_19_A_b.gif","images/stimuli/spore_stims/simple_11_A_a.gif","forced_long","","10","simple_dissimilar","images/stimuli/spore_stims/simple_11_A_a.gif","","","","",""
"","null","html-keyboard-response","121","700401","0.0-29.0-0.1","SS1619740032953","","","null","","","","","","<p><img src= images/blank.png width =""600"" height = ""600"" style=""position:fixed;top:50%; left:50%; transform: translate(-50%, -50%); border:5px solid black"">","","","","","","","",""
"","3248.4950000070967","sequential-stimulus-presentation-old","122","704159","0.0-29.0-1.1","SS1619740032953","trial","","40","500","3748.4950000070967","images/stimuli/spore_stims/simple_19_A_b.gif","images/stimuli/spore_stims/simple_11_A_a.gif","forced_long","","10","simple_dissimilar","images/stimuli/spore_stims/simple_11_A_a.gif","","","","",""
"","null","html-keyboard-response","123","705244","0.0-29.0-0.2","SS1619740032953","","","null","","","","","","<p><img src= images/blank.png width =""600"" height = ""600"" style=""position:fixed;top:50%; left:50%; transform: translate(-50%, -50%); border:5px solid black"">","","","","","","","",""
"","1536.7149999947287","sequential-stimulus-presentation-old","124","707284","0.0-29.0-1.2","SS1619740032953","trial","","40","500","2036.7149999947287","images/stimuli/spore_stims/simple_19_A_b.gif","images/stimuli/spore_stims/simple_11_A_a.gif","forced_long","","10","simple_dissimilar","images/stimuli/spore_stims/simple_11_A_a.gif","","","","",""
"","null","html-keyboard-response","125","708193","0.0-29.0-0.3","SS1619740032953","","","null","","","","","","<p><img src= images/blank.png width =""600"" height = ""600"" style=""position:fixed;top:50%; left:50%; transform: translate(-50%, -50%); border:5px solid black"">","","","","","","","",""
"","65.68500000867061","sequential-stimulus-presentation-old","126","708768","0.0-29.0-1.3","SS1619740032953","trial","","40","500","565.6850000086706","images/stimuli/spore_stims/simple_19_A_b.gif","images/stimuli/spore_stims/simple_11_A_a.gif","forced_long","","10","simple_dissimilar","images/stimuli/spore_stims/simple_11_A_a.gif","","","","",""
"","null","html-keyboard-response","127","709597","0.0-29.0-0.4","SS1619740032953","","","null","","","","","","<p><img src= images/blank.png width =""600"" height = ""600"" style=""position:fixed;top:50%; left:50%; transform: translate(-50%, -50%); border:5px solid black"">","","","","","","","",""
"","295.5800000054296","sequential-stimulus-presentation-old","128","710396","0.0-29.0-1.4","SS1619740032953","trial","","40","500","795.5800000054296","images/stimuli/spore_stims/simple_19_A_b.gif","images/stimuli/spore_stims/simple_11_A_a.gif","forced_long","","10","simple_dissimilar","images/stimuli/spore_stims/simple_19_A_b.gif","","","","",""
"","null","html-keyboard-response","129","711352","0.0-29.0-0.5","SS1619740032953","","","null","","","","","","<p><img src= images/blank.png width =""600"" height = ""600"" style=""position:fixed;top:50%; left:50%; transform: translate(-50%, -50%); border:5px solid black"">","","","","","","","",""
"","8863.094999978784","sequential-stimulus-presentation-old","130","720720","0.0-29.0-1.5","SS1619740032953","trial","","40","500","9363.094999978784","images/stimuli/spore_stims/simple_19_A_b.gif","images/stimuli/spore_stims/simple_11_A_a.gif","forced_long","","10","simple_dissimilar","images/stimuli/spore_stims/simple_11_A_a.gif","","","","",""
"","5423.684999987017","survey-multi-choice","131","726146","0.0-30.0","SS1619740032953","math_question","","","","","","","","","","","","{""Q0"":""8""}","[0]","8","",""
"","null","html-keyboard-response","132","727102","0.0-31.0-0.0","SS1619740032953","","","null","","","","","","<p><img src= images/blank.png width =""600"" height = ""600"" style=""position:fixed;top:50%; left:50%; transform: translate(-50%, -50%); border:5px solid black"">","","","","","","","",""
"","2823.470000002999","sequential-stimulus-presentation-old","133","730429","0.0-31.0-1.0","SS1619740032953","trial","","40","500","3323.470000002999","images/stimuli/spore_stims/complex_08_A_b.gif","images/stimuli/spore_stims/complex_18_A_a.gif","self_paced","","11","complex_dissimilar","images/stimuli/spore_stims/complex_18_A_a.gif","","","","",""
"","null","html-keyboard-response","134","731356","0.0-31.0-0.1","SS1619740032953","","","null","","","","","","<p><img src= images/blank.png width =""600"" height = ""600"" style=""position:fixed;top:50%; left:50%; transform: translate(-50%, -50%); border:5px solid black"">","","","","","","","",""
"","6418.4149999928195","sequential-stimulus-presentation-old","135","738278","0.0-31.0-1.1","SS1619740032953","trial","","40","500","6918.4149999928195","images/stimuli/spore_stims/complex_08_A_b.gif","images/stimuli/spore_stims/complex_18_A_a.gif","self_paced","","11","complex_dissimilar","images/stimuli/spore_stims/complex_08_A_b.gif","","","","",""
"","null","html-keyboard-response","136","739573","0.0-31.0-0.2","SS1619740032953","","","null","","","","","","<p><img src= images/blank.png width =""600"" height = ""600"" style=""position:fixed;top:50%; left:50%; transform: translate(-50%, -50%); border:5px solid black"">","","","","","","","",""
"","2832.779999997001","sequential-stimulus-presentation-old","137","742910","0.0-31.0-1.2","SS1619740032953","trial","","40","500","3332.779999997001","images/stimuli/spore_stims/complex_08_A_b.gif","images/stimuli/spore_stims/complex_18_A_a.gif","self_paced","","11","complex_dissimilar","images/stimuli/spore_stims/complex_18_A_a.gif","","","","",""
"","null","html-keyboard-response","138","743977","0.0-31.0-0.3","SS1619740032953","","","null","","","","","","<p><img src= images/blank.png width =""600"" height = ""600"" style=""position:fixed;top:50%; left:50%; transform: translate(-50%, -50%); border:5px solid black"">","","","","","","","",""
"","289.1200000012759","sequential-stimulus-presentation-old","139","744778","0.0-31.0-1.3","SS1619740032953","trial","","40","500","789.1200000012759","images/stimuli/spore_stims/complex_08_A_b.gif","images/stimuli/spore_stims/complex_18_A_a.gif","self_paced","","11","complex_dissimilar","images/stimuli/spore_stims/complex_18_A_a.gif","","","","",""
"","null","html-keyboard-response","140","745987","0.0-31.0-0.4","SS1619740032953","","","null","","","","","","<p><img src= images/blank.png width =""600"" height = ""600"" style=""position:fixed;top:50%; left:50%; transform: translate(-50%, -50%); border:5px solid black"">","","","","","","","",""
"","133.65999999223277","sequential-stimulus-presentation-old","141","746628","0.0-31.0-1.4","SS1619740032953","trial","","40","500","633.6599999922328","images/stimuli/spore_stims/complex_08_A_b.gif","images/stimuli/spore_stims/complex_18_A_a.gif","self_paced","","11","complex_dissimilar","images/stimuli/spore_stims/complex_18_A_a.gif","","","","",""
"[{""page_index"":0,""viewing_time"":5706.095000001369}]","5706.260000006296","instructions","142","752337","0.0-32.0","SS1619740032953","instructions","","","","","","","","","","","","","","","",""
"","9371.26499999431","survey-likert","143","761713","0.0-33.0","SS1619740032953","similarity_question","","","","","","","","","","","","{""Q0"":2}","[0]","","images/stimuli/spore_stims/simple_16_A_a.gif","images/stimuli/spore_stims/simple_15_A_b.gif"
"","11056.440000014845","survey-likert","144","772773","0.0-34.0","SS1619740032953","similarity_question","","","","","","","","","","","","{""Q0"":2}","[0]","","images/stimuli/spore_stims/complex_11_A_a.gif","images/stimuli/spore_stims/complex_09_A_b.gif"
"","13007.784999994328","survey-likert","145","785785","0.0-35.0","SS1619740032953","similarity_question","","","","","","","","","","","","{""Q0"":1}","[0]","","images/stimuli/spore_stims/complex_14_A_b.gif","images/stimuli/spore_stims/complex_05_A_a.gif"
"","4967.8449999773875","survey-likert","146","790757","0.0-36.0","SS1619740032953","similarity_question","","","","","","","","","","","","{""Q0"":0}","[0]","","images/stimuli/spore_stims/complex_05_A_b.gif","images/stimuli/spore_stims/complex_10_A_a.gif"
"","6194.960000022547","survey-likert","147","796955","0.0-37.0","SS1619740032953","similarity_question","","","","","","","","","","","","{""Q0"":2}","[0]","","images/stimuli/spore_stims/simple_03_A_b.gif","images/stimuli/spore_stims/simple_08_A_a.gif"
"","8646.429999993416","survey-likert","148","805606","0.0-38.0","SS1619740032953","similarity_question","","","","","","","","","","","","{""Q0"":2}","[0]","","images/stimuli/spore_stims/simple_06_A_a.gif","images/stimuli/spore_stims/simple_14_A_b.gif"
"","4924.109999992652","survey-likert","149","810534","0.0-39.0","SS1619740032953","similarity_question","","","","","","","","","","","","{""Q0"":4}","[0]","","images/stimuli/spore_stims/complex_06_A_b.gif","images/stimuli/spore_stims/complex_15_A_a.gif"
"","5607.455000019399","survey-likert","150","816144","0.0-40.0","SS1619740032953","similarity_question","","","","","","","","","","","","{""Q0"":2}","[0]","","images/stimuli/spore_stims/simple_17_A_a.gif","images/stimuli/spore_stims/simple_08_A_b.gif"
"","5221.764999994775","survey-likert","151","821370","0.0-41.0","SS1619740032953","similarity_question","","","","","","","","","","","","{""Q0"":2}","[0]","","images/stimuli/spore_stims/complex_18_A_a.gif","images/stimuli/spore_stims/complex_08_A_b.gif"
"","3861.575000017183","survey-likert","152","825236","0.0-42.0","SS1619740032953","similarity_question","","","","","","","","","","","","{""Q0"":2}","[0]","","images/stimuli/spore_stims/simple_19_A_b.gif","images/stimuli/spore_stims/simple_11_A_a.gif"
"","3022.865000006277","survey-likert","153","828263","0.0-43.0","SS1619740032953","similarity_question","","","","","","","","","","","","{""Q0"":2}","[0]","","images/stimuli/spore_stims/simple_09_A_b.gif","images/stimuli/spore_stims/simple_19_A_a.gif"
"","6968.480000010459","survey-likert","154","835235","0.0-44.0","SS1619740032953","similarity_question","","","","","","","","","","","","{""Q0"":1}","[0]","","images/stimuli/spore_stims/complex_14_A_a.gif","images/stimuli/spore_stims/complex_03_A_b.gif"
"[{""page_index"":0,""viewing_time"":4768.769999995129}]","4768.96499999566","instructions","155","840008","0.0-45.0","SS1619740032953","instructions","","","","","","","","","","","","","","","",""
"","6124.630000005709","survey-likert","156","846136","0.0-46.0","SS1619740032953","","","","","","","","","images/stimuli/spore_stims/complex_10_A_a.gif","","","","{""Q0"":4}","[0]","","",""
"","3513.4150000230875","survey-likert","157","849653","0.0-47.0","SS1619740032953","","","","","","","","","images/stimuli/spore_stims/simple_17_A_a.gif","","","","{""Q0"":0}","[0]","","",""
"","2987.5400000019","survey-likert","158","852645","0.0-48.0","SS1619740032953","","","","","","","","","images/stimuli/spore_stims/complex_15_A_a.gif","","","","{""Q0"":5}","[0]","","",""
"","4198.535000003176","survey-likert","159","856847","0.0-49.0","SS1619740032953","","","","","","","","","images/stimuli/spore_stims/complex_09_A_b.gif","","","","{""Q0"":5}","[0]","","",""
"","2110.969999979716","survey-likert","160","858962","0.0-50.0","SS1619740032953","","","","","","","","","images/stimuli/spore_stims/simple_08_A_a.gif","","","","{""Q0"":0}","[0]","","",""
"","2298.549999977695","survey-likert","161","861265","0.0-51.0","SS1619740032953","","","","","","","","","images/stimuli/spore_stims/simple_11_A_a.gif","","","","{""Q0"":0}","[0]","","",""
"","5693.0649999994785","survey-likert","162","866961","0.0-52.0","SS1619740032953","","","","","","","","","images/stimuli/spore_stims/complex_08_A_b.gif","","","","{""Q0"":4}","[0]","","",""
"","3777.990000002319","survey-likert","163","870744","0.0-53.0","SS1619740032953","","","","","","","","","images/stimuli/spore_stims/simple_09_A_b.gif","","","","{""Q0"":0}","[0]","","",""
"","3806.045000004815","survey-likert","164","874554","0.0-54.0","SS1619740032953","","","","","","","","","images/stimuli/spore_stims/simple_16_A_a.gif","","","","{""Q0"":0}","[0]","","",""
"","2663.4999999951106","survey-likert","165","877221","0.0-55.0","SS1619740032953","","","","","","","","","images/stimuli/spore_stims/complex_14_A_a.gif","","","","{""Q0"":4}","[0]","","",""
"","3403.779999993276","survey-likert","166","880630","0.0-56.0","SS1619740032953","","","","","","","","","images/stimuli/spore_stims/complex_05_A_a.gif","","","","{""Q0"":4}","[0]","","",""
"","2208.680000010645","survey-likert","167","882842","0.0-57.0","SS1619740032953","","","","","","","","","images/stimuli/spore_stims/simple_14_A_b.gif","","","","{""Q0"":0}","[0]","","",""
"[{""page_index"":0,""viewing_time"":2258.6799999990035}]","2258.884999988368","instructions","168","885105","0.0-58.0","SS1619740032953","instructions","","","","","","","","","","","","","","","",""
"","3027.990000002319","demog-age","169","888137","0.0-59.0","SS1619740032953","","","","","","","","","","","","","{""age"":""24""}","","","",""
"","3500.9100000024773","demog-ethnic-US","170","891644","0.0-60.0","SS1619740032953","","","","","","","","","","","","","{""ethnicity"":[""White""]}","[0]","","",""
"","5241.559999994934","demog-gender-and-education","171","896890","0.0-61.0","SS1619740032953","","","","","","","","","","","","","{""gender"":""Male"",""education"":""Bachelor's Degree""}","[0,1]","","",""
"","15568.870000017341","survey-text","172","912463","0.0-62.0","SS1619740032953","feedback","","","","","","","","","","","","{""Q0"":""i did not encounter any issue ""}","","","",""
"[{""page_index"":0,""viewing_time"":1435.0099999865051}]","1435.2000000071712","instructions","173","913901","0.0-63.0","SS1619740032953","instructions","","","","","","","","","","","","","","","",""
