"view_history","rt","trial_type","trial_index","time_elapsed","internal_node_id","subject","stimulus_type","trial_stimulus","key_press","minimum_viewing_duration","trial_looking_time","block_deviant","block_background","exposure_type","stimulus","block_number","block_type","stimulus_displayed","responses","question_order","math_correct_answer","stimulus_left","stimulus_right"
"[{""page_index"":0,""viewing_time"":3729.725000099279}]","3730.170000111684","instructions","0","3731","0.0-0.0","SS1619739968685","","","","","","","","","","","","","","","","",""
"[{""page_index"":0,""viewing_time"":12379.44500008598},{""page_index"":1,""viewing_time"":4725.764999981038}]","17105.37000000477","instructions","1","22839","0.0-1.0","SS1619739968685","instructions","","","","","","","","","","","","","","","",""
"","5968.774999957532","sequential-stimulus-presentation-old","2","29310","0.0-2.0","SS1619739968685","","","40","500","6468.774999957532","null","null","self_paced","","","","","","","","",""
"","4072.374999988824","sequential-stimulus-presentation-old","3","33898","0.0-3.0","SS1619739968685","","","40","500","4572.374999988824","null","null","self_paced","","","","","","","","",""
"[{""page_index"":0,""viewing_time"":18746.2199999718}]","18746.424999902956","instructions","4","52646","0.0-4.0","SS1619739968685","instructions","","","","","","","","","","","","","","","",""
"","387.7250000368804","sequential-stimulus-presentation-old","5","68037","0.0-5.0","SS1619739968685","","","40","500","887.7250000368804","null","null","forced_long","","","","","","","","",""
"","878.1899999594316","sequential-stimulus-presentation-old","6","69419","0.0-6.0","SS1619739968685","","","40","500","1378.1899999594316","null","null","forced_long","","","","","","","","",""
"[{""page_index"":0,""viewing_time"":3817.8400000324473}]","3818.0450000800192","instructions","7","73238","0.0-7.0","SS1619739968685","instructions","","","","","","","","","","","","","","","",""
"[{""page_index"":0,""viewing_time"":9592.880000011064},{""page_index"":1,""viewing_time"":7272.285000071861},{""page_index"":2,""viewing_time"":5506.085000000894},{""page_index"":3,""viewing_time"":1025.7149999961257},{""page_index"":4,""viewing_time"":1112.0149999624118}]","24509.165000054054","instructions","8","97747","0.0-8.0","SS1619739968685","instructions","","","","","","","","","","","","","","","",""
"","null","html-keyboard-response","9","99045","0.0-9.0-0.0","SS1619739968685","","","null","","","","","","<p><img src= images/blank.png width =""600"" height = ""600"" style=""position:fixed;top:50%; left:50%; transform: translate(-50%, -50%); border:5px solid black"">","","","","","","","",""
"","15334.299999987707","sequential-stimulus-presentation-old","10","114883","0.0-9.0-1.0","SS1619739968685","trial","","40","500","15834.299999987707","images/stimuli/spore_stims/complex_10_A_a.gif","images/stimuli/spore_stims/complex_16_A_b.gif","self_paced","","0","complex_dissimilar","images/stimuli/spore_stims/complex_16_A_b.gif","","","","",""
"","null","html-keyboard-response","11","115888","0.0-9.0-0.1","SS1619739968685","","","null","","","","","","<p><img src= images/blank.png width =""600"" height = ""600"" style=""position:fixed;top:50%; left:50%; transform: translate(-50%, -50%); border:5px solid black"">","","","","","","","",""
"","21754.079999984242","sequential-stimulus-presentation-old","12","138146","0.0-9.0-1.1","SS1619739968685","trial","","40","500","22254.079999984242","images/stimuli/spore_stims/complex_10_A_a.gif","images/stimuli/spore_stims/complex_16_A_b.gif","self_paced","","0","complex_dissimilar","images/stimuli/spore_stims/complex_16_A_b.gif","","","","",""
"","null","html-keyboard-response","13","139214","0.0-9.0-0.2","SS1619739968685","","","null","","","","","","<p><img src= images/blank.png width =""600"" height = ""600"" style=""position:fixed;top:50%; left:50%; transform: translate(-50%, -50%); border:5px solid black"">","","","","","","","",""
"","4158.620000001974","sequential-stimulus-presentation-old","14","143876","0.0-9.0-1.2","SS1619739968685","trial","","40","500","4658.620000001974","images/stimuli/spore_stims/complex_10_A_a.gif","images/stimuli/spore_stims/complex_16_A_b.gif","self_paced","","0","complex_dissimilar","images/stimuli/spore_stims/complex_16_A_b.gif","","","","",""
"","null","html-keyboard-response","15","144912","0.0-9.0-0.3","SS1619739968685","","","null","","","","","","<p><img src= images/blank.png width =""600"" height = ""600"" style=""position:fixed;top:50%; left:50%; transform: translate(-50%, -50%); border:5px solid black"">","","","","","","","",""
"","26068.98999994155","sequential-stimulus-presentation-old","16","171484","0.0-9.0-1.3","SS1619739968685","trial","","40","500","26568.98999994155","images/stimuli/spore_stims/complex_10_A_a.gif","images/stimuli/spore_stims/complex_16_A_b.gif","self_paced","","0","complex_dissimilar","images/stimuli/spore_stims/complex_16_A_b.gif","","","","",""
"","null","html-keyboard-response","17","172472","0.0-9.0-0.4","SS1619739968685","","","null","","","","","","<p><img src= images/blank.png width =""600"" height = ""600"" style=""position:fixed;top:50%; left:50%; transform: translate(-50%, -50%); border:5px solid black"">","","","","","","","",""
"","13804.500000085682","sequential-stimulus-presentation-old","18","186779","0.0-9.0-1.4","SS1619739968685","trial","","40","500","14304.500000085682","images/stimuli/spore_stims/complex_10_A_a.gif","images/stimuli/spore_stims/complex_16_A_b.gif","self_paced","","0","complex_dissimilar","images/stimuli/spore_stims/complex_10_A_a.gif","","","","",""
"","3557.870000018738","survey-multi-choice","19","190340","0.0-10.0","SS1619739968685","math_question","","","","","","","","","","","","{""Q0"":""9""}","[0]","9","",""
"","null","html-keyboard-response","20","191404","0.0-11.0-0.0","SS1619739968685","","","null","","","","","","<p><img src= images/blank.png width =""600"" height = ""600"" style=""position:fixed;top:50%; left:50%; transform: translate(-50%, -50%); border:5px solid black"">","","","","","","","",""
"","1985.4300000006333","sequential-stimulus-presentation-old","21","193892","0.0-11.0-1.0","SS1619739968685","trial","","40","500","2485.4300000006333","images/stimuli/spore_stims/simple_12_A_a.gif","images/stimuli/spore_stims/simple_15_A_b.gif","forced_short","","1","simple_dissimilar","images/stimuli/spore_stims/simple_15_A_b.gif","","","","",""
"","null","html-keyboard-response","22","194887","0.0-11.0-0.1","SS1619739968685","","","null","","","","","","<p><img src= images/blank.png width =""600"" height = ""600"" style=""position:fixed;top:50%; left:50%; transform: translate(-50%, -50%); border:5px solid black"">","","","","","","","",""
"","9217.599999974482","sequential-stimulus-presentation-old","23","204608","0.0-11.0-1.1","SS1619739968685","trial","","40","500","9717.599999974482","images/stimuli/spore_stims/simple_12_A_a.gif","images/stimuli/spore_stims/simple_15_A_b.gif","forced_short","","1","simple_dissimilar","images/stimuli/spore_stims/simple_15_A_b.gif","","","","",""
"","null","html-keyboard-response","24","205730","0.0-11.0-0.2","SS1619739968685","","","null","","","","","","<p><img src= images/blank.png width =""600"" height = ""600"" style=""position:fixed;top:50%; left:50%; transform: translate(-50%, -50%); border:5px solid black"">","","","","","","","",""
"","7788.765000062995","sequential-stimulus-presentation-old","25","214021","0.0-11.0-1.2","SS1619739968685","trial","","40","500","8288.765000062995","images/stimuli/spore_stims/simple_12_A_a.gif","images/stimuli/spore_stims/simple_15_A_b.gif","forced_short","","1","simple_dissimilar","images/stimuli/spore_stims/simple_15_A_b.gif","","","","",""
"","null","html-keyboard-response","26","214935","0.0-11.0-0.3","SS1619739968685","","","null","","","","","","<p><img src= images/blank.png width =""600"" height = ""600"" style=""position:fixed;top:50%; left:50%; transform: translate(-50%, -50%); border:5px solid black"">","","","","","","","",""
"","9966.175000066869","sequential-stimulus-presentation-old","27","225404","0.0-11.0-1.3","SS1619739968685","trial","","40","500","10466.175000066869","images/stimuli/spore_stims/simple_12_A_a.gif","images/stimuli/spore_stims/simple_15_A_b.gif","forced_short","","1","simple_dissimilar","images/stimuli/spore_stims/simple_12_A_a.gif","","","","",""
"","2912.3299999628216","survey-multi-choice","28","228318","0.0-12.0","SS1619739968685","math_question","","","","","","","","","","","","{""Q0"":""10""}","[0]","10","",""
"","null","html-keyboard-response","29","229182","0.0-13.0-0.0","SS1619739968685","","","null","","","","","","<p><img src= images/blank.png width =""600"" height = ""600"" style=""position:fixed;top:50%; left:50%; transform: translate(-50%, -50%); border:5px solid black"">","","","","","","","",""
"","3548.5999999800697","sequential-stimulus-presentation-old","30","233234","0.0-13.0-1.0","SS1619739968685","trial","","40","500","4048.5999999800697","images/stimuli/spore_stims/complex_02_A_a.gif","images/stimuli/spore_stims/complex_07_A_b.gif","forced_short","","2","complex_dissimilar","images/stimuli/spore_stims/complex_07_A_b.gif","","","","",""
"","null","html-keyboard-response","31","234516","0.0-13.0-0.1","SS1619739968685","","","null","","","","","","<p><img src= images/blank.png width =""600"" height = ""600"" style=""position:fixed;top:50%; left:50%; transform: translate(-50%, -50%); border:5px solid black"">","","","","","","","",""
"","11239.279999979772","sequential-stimulus-presentation-old","32","246258","0.0-13.0-1.1","SS1619739968685","trial","","40","500","11739.279999979772","images/stimuli/spore_stims/complex_02_A_a.gif","images/stimuli/spore_stims/complex_07_A_b.gif","forced_short","","2","complex_dissimilar","images/stimuli/spore_stims/complex_02_A_a.gif","","","","",""
"","null","html-keyboard-response","33","247294","0.0-13.0-0.2","SS1619739968685","","","null","","","","","","<p><img src= images/blank.png width =""600"" height = ""600"" style=""position:fixed;top:50%; left:50%; transform: translate(-50%, -50%); border:5px solid black"">","","","","","","","",""
"","10911.625000066124","sequential-stimulus-presentation-old","34","258710","0.0-13.0-1.2","SS1619739968685","trial","","40","500","11411.625000066124","images/stimuli/spore_stims/complex_02_A_a.gif","images/stimuli/spore_stims/complex_07_A_b.gif","forced_short","","2","complex_dissimilar","images/stimuli/spore_stims/complex_02_A_a.gif","","","","",""
"","null","html-keyboard-response","35","259787","0.0-13.0-0.3","SS1619739968685","","","null","","","","","","<p><img src= images/blank.png width =""600"" height = ""600"" style=""position:fixed;top:50%; left:50%; transform: translate(-50%, -50%); border:5px solid black"">","","","","","","","",""
"","14083.559999940917","sequential-stimulus-presentation-old","36","274373","0.0-13.0-1.3","SS1619739968685","trial","","40","500","14583.559999940917","images/stimuli/spore_stims/complex_02_A_a.gif","images/stimuli/spore_stims/complex_07_A_b.gif","forced_short","","2","complex_dissimilar","images/stimuli/spore_stims/complex_07_A_b.gif","","","","",""
"","null","html-keyboard-response","37","275324","0.0-13.0-0.4","SS1619739968685","","","null","","","","","","<p><img src= images/blank.png width =""600"" height = ""600"" style=""position:fixed;top:50%; left:50%; transform: translate(-50%, -50%); border:5px solid black"">","","","","","","","",""
"","24496.780000044964","sequential-stimulus-presentation-old","38","300329","0.0-13.0-1.4","SS1619739968685","trial","","40","500","24996.780000044964","images/stimuli/spore_stims/complex_02_A_a.gif","images/stimuli/spore_stims/complex_07_A_b.gif","forced_short","","2","complex_dissimilar","images/stimuli/spore_stims/complex_07_A_b.gif","","","","",""
"","null","html-keyboard-response","39","301321","0.0-13.0-0.5","SS1619739968685","","","null","","","","","","<p><img src= images/blank.png width =""600"" height = ""600"" style=""position:fixed;top:50%; left:50%; transform: translate(-50%, -50%); border:5px solid black"">","","","","","","","",""
"","6375.4200000548735","sequential-stimulus-presentation-old","40","308199","0.0-13.0-1.5","SS1619739968685","trial","","40","500","6875.4200000548735","images/stimuli/spore_stims/complex_02_A_a.gif","images/stimuli/spore_stims/complex_07_A_b.gif","forced_short","","2","complex_dissimilar","images/stimuli/spore_stims/complex_07_A_b.gif","","","","",""
"","3068.650000030175","survey-multi-choice","41","311269","0.0-14.0","SS1619739968685","math_question","","","","","","","","","","","","{""Q0"":""10""}","[0]","10","",""
"","null","html-keyboard-response","42","312553","0.0-15.0-0.0","SS1619739968685","","","null","","","","","","<p><img src= images/blank.png width =""600"" height = ""600"" style=""position:fixed;top:50%; left:50%; transform: translate(-50%, -50%); border:5px solid black"">","","","","","","","",""
"","9396.974999923259","sequential-stimulus-presentation-old","43","322454","0.0-15.0-1.0","SS1619739968685","trial","","40","500","9896.974999923259","images/stimuli/spore_stims/simple_01_A_b.gif","images/stimuli/spore_stims/simple_07_A_a.gif","self_paced","","3","simple_dissimilar","images/stimuli/spore_stims/simple_07_A_a.gif","","","","",""
"","null","html-keyboard-response","44","323375","0.0-15.0-0.1","SS1619739968685","","","null","","","","","","<p><img src= images/blank.png width =""600"" height = ""600"" style=""position:fixed;top:50%; left:50%; transform: translate(-50%, -50%); border:5px solid black"">","","","","","","","",""
"","19958.359999931417","sequential-stimulus-presentation-old","45","343837","0.0-15.0-1.1","SS1619739968685","trial","","40","500","20458.359999931417","images/stimuli/spore_stims/simple_01_A_b.gif","images/stimuli/spore_stims/simple_07_A_a.gif","self_paced","","3","simple_dissimilar","images/stimuli/spore_stims/simple_07_A_a.gif","","","","",""
"","null","html-keyboard-response","46","344656","0.0-15.0-0.2","SS1619739968685","","","null","","","","","","<p><img src= images/blank.png width =""600"" height = ""600"" style=""position:fixed;top:50%; left:50%; transform: translate(-50%, -50%); border:5px solid black"">","","","","","","","",""
"","9859.91500003729","sequential-stimulus-presentation-old","47","355019","0.0-15.0-1.2","SS1619739968685","trial","","40","500","10359.91500003729","images/stimuli/spore_stims/simple_01_A_b.gif","images/stimuli/spore_stims/simple_07_A_a.gif","self_paced","","3","simple_dissimilar","images/stimuli/spore_stims/simple_01_A_b.gif","","","","",""
"","null","html-keyboard-response","48","355956","0.0-15.0-0.3","SS1619739968685","","","null","","","","","","<p><img src= images/blank.png width =""600"" height = ""600"" style=""position:fixed;top:50%; left:50%; transform: translate(-50%, -50%); border:5px solid black"">","","","","","","","",""
"","5284.40500004217","sequential-stimulus-presentation-old","49","361743","0.0-15.0-1.3","SS1619739968685","trial","","40","500","5784.40500004217","images/stimuli/spore_stims/simple_01_A_b.gif","images/stimuli/spore_stims/simple_07_A_a.gif","self_paced","","3","simple_dissimilar","images/stimuli/spore_stims/simple_01_A_b.gif","","","","",""
"","null","html-keyboard-response","50","362597","0.0-15.0-0.4","SS1619739968685","","","null","","","","","","<p><img src= images/blank.png width =""600"" height = ""600"" style=""position:fixed;top:50%; left:50%; transform: translate(-50%, -50%); border:5px solid black"">","","","","","","","",""
"","6084.2549999943","sequential-stimulus-presentation-old","51","369185","0.0-15.0-1.4","SS1619739968685","trial","","40","500","6584.2549999943","images/stimuli/spore_stims/simple_01_A_b.gif","images/stimuli/spore_stims/simple_07_A_a.gif","self_paced","","3","simple_dissimilar","images/stimuli/spore_stims/simple_07_A_a.gif","","","","",""
"","null","html-keyboard-response","52","370376","0.0-15.0-0.5","SS1619739968685","","","null","","","","","","<p><img src= images/blank.png width =""600"" height = ""600"" style=""position:fixed;top:50%; left:50%; transform: translate(-50%, -50%); border:5px solid black"">","","","","","","","",""
"","19316.82000006549","sequential-stimulus-presentation-old","53","390196","0.0-15.0-1.5","SS1619739968685","trial","","40","500","19816.82000006549","images/stimuli/spore_stims/simple_01_A_b.gif","images/stimuli/spore_stims/simple_07_A_a.gif","self_paced","","3","simple_dissimilar","images/stimuli/spore_stims/simple_07_A_a.gif","","","","",""
"","2917.909999960102","survey-multi-choice","54","393115","0.0-16.0","SS1619739968685","math_question","","","","","","","","","","","","{""Q0"":""10""}","[0]","10","",""
"","null","html-keyboard-response","55","393922","0.0-17.0-0.0","SS1619739968685","","","null","","","","","","<p><img src= images/blank.png width =""600"" height = ""600"" style=""position:fixed;top:50%; left:50%; transform: translate(-50%, -50%); border:5px solid black"">","","","","","","","",""
"","5986.285000108182","sequential-stimulus-presentation-old","56","400411","0.0-17.0-1.0","SS1619739968685","trial","","40","500","6486.285000108182","images/stimuli/spore_stims/complex_10_A_b.gif","images/stimuli/spore_stims/complex_18_A_a.gif","forced_short","","4","complex_dissimilar","images/stimuli/spore_stims/complex_18_A_a.gif","","","","",""
"","null","html-keyboard-response","57","401684","0.0-17.0-0.1","SS1619739968685","","","null","","","","","","<p><img src= images/blank.png width =""600"" height = ""600"" style=""position:fixed;top:50%; left:50%; transform: translate(-50%, -50%); border:5px solid black"">","","","","","","","",""
"","6560.850000008941","sequential-stimulus-presentation-old","58","408748","0.0-17.0-1.1","SS1619739968685","trial","","40","500","7060.850000008941","images/stimuli/spore_stims/complex_10_A_b.gif","images/stimuli/spore_stims/complex_18_A_a.gif","forced_short","","4","complex_dissimilar","images/stimuli/spore_stims/complex_18_A_a.gif","","","","",""
"","null","html-keyboard-response","59","409763","0.0-17.0-0.2","SS1619739968685","","","null","","","","","","<p><img src= images/blank.png width =""600"" height = ""600"" style=""position:fixed;top:50%; left:50%; transform: translate(-50%, -50%); border:5px solid black"">","","","","","","","",""
"","5488.52499993518","sequential-stimulus-presentation-old","60","415756","0.0-17.0-1.2","SS1619739968685","trial","","40","500","5988.52499993518","images/stimuli/spore_stims/complex_10_A_b.gif","images/stimuli/spore_stims/complex_18_A_a.gif","forced_short","","4","complex_dissimilar","images/stimuli/spore_stims/complex_18_A_a.gif","","","","",""
"","null","html-keyboard-response","61","416851","0.0-17.0-0.3","SS1619739968685","","","null","","","","","","<p><img src= images/blank.png width =""600"" height = ""600"" style=""position:fixed;top:50%; left:50%; transform: translate(-50%, -50%); border:5px solid black"">","","","","","","","",""
"","3836.155000026338","sequential-stimulus-presentation-old","62","421190","0.0-17.0-1.3","SS1619739968685","trial","","40","500","4336.155000026338","images/stimuli/spore_stims/complex_10_A_b.gif","images/stimuli/spore_stims/complex_18_A_a.gif","forced_short","","4","complex_dissimilar","images/stimuli/spore_stims/complex_18_A_a.gif","","","","",""
"","3166.1800000583753","survey-multi-choice","63","424358","0.0-18.0","SS1619739968685","math_question","","","","","","","","","","","","{""Q0"":""12""}","[0]","12","",""
"","null","html-keyboard-response","64","425314","0.0-19.0-0.0","SS1619739968685","","","null","","","","","","<p><img src= images/blank.png width =""600"" height = ""600"" style=""position:fixed;top:50%; left:50%; transform: translate(-50%, -50%); border:5px solid black"">","","","","","","","",""
"","19364.175000111572","sequential-stimulus-presentation-old","65","445182","0.0-19.0-1.0","SS1619739968685","trial","","40","500","19864.175000111572","images/stimuli/spore_stims/complex_06_A_b.gif","images/stimuli/spore_stims/complex_09_A_a.gif","self_paced","","5","complex_dissimilar","images/stimuli/spore_stims/complex_09_A_a.gif","","","","",""
"","null","html-keyboard-response","66","446005","0.0-19.0-0.1","SS1619739968685","","","null","","","","","","<p><img src= images/blank.png width =""600"" height = ""600"" style=""position:fixed;top:50%; left:50%; transform: translate(-50%, -50%); border:5px solid black"">","","","","","","","",""
"","13643.774999887682","sequential-stimulus-presentation-old","67","460152","0.0-19.0-1.1","SS1619739968685","trial","","40","500","14143.774999887682","images/stimuli/spore_stims/complex_06_A_b.gif","images/stimuli/spore_stims/complex_09_A_a.gif","self_paced","","5","complex_dissimilar","images/stimuli/spore_stims/complex_09_A_a.gif","","","","",""
"","null","html-keyboard-response","68","461294","0.0-19.0-0.2","SS1619739968685","","","null","","","","","","<p><img src= images/blank.png width =""600"" height = ""600"" style=""position:fixed;top:50%; left:50%; transform: translate(-50%, -50%); border:5px solid black"">","","","","","","","",""
"","7219.600000069477","sequential-stimulus-presentation-old","69","469023","0.0-19.0-1.2","SS1619739968685","trial","","40","500","7719.600000069477","images/stimuli/spore_stims/complex_06_A_b.gif","images/stimuli/spore_stims/complex_09_A_a.gif","self_paced","","5","complex_dissimilar","images/stimuli/spore_stims/complex_09_A_a.gif","","","","",""
"","null","html-keyboard-response","70","469915","0.0-19.0-0.3","SS1619739968685","","","null","","","","","","<p><img src= images/blank.png width =""600"" height = ""600"" style=""position:fixed;top:50%; left:50%; transform: translate(-50%, -50%); border:5px solid black"">","","","","","","","",""
"","4363.335000001825","sequential-stimulus-presentation-old","71","474781","0.0-19.0-1.3","SS1619739968685","trial","","40","500","4863.335000001825","images/stimuli/spore_stims/complex_06_A_b.gif","images/stimuli/spore_stims/complex_09_A_a.gif","self_paced","","5","complex_dissimilar","images/stimuli/spore_stims/complex_06_A_b.gif","","","","",""
"","null","html-keyboard-response","72","476071","0.0-19.0-0.4","SS1619739968685","","","null","","","","","","<p><img src= images/blank.png width =""600"" height = ""600"" style=""position:fixed;top:50%; left:50%; transform: translate(-50%, -50%); border:5px solid black"">","","","","","","","",""
"","6411.254999926314","sequential-stimulus-presentation-old","73","482986","0.0-19.0-1.4","SS1619739968685","trial","","40","500","6911.254999926314","images/stimuli/spore_stims/complex_06_A_b.gif","images/stimuli/spore_stims/complex_09_A_a.gif","self_paced","","5","complex_dissimilar","images/stimuli/spore_stims/complex_06_A_b.gif","","","","",""
"","null","html-keyboard-response","74","483980","0.0-19.0-0.5","SS1619739968685","","","null","","","","","","<p><img src= images/blank.png width =""600"" height = ""600"" style=""position:fixed;top:50%; left:50%; transform: translate(-50%, -50%); border:5px solid black"">","","","","","","","",""
"","7913.3949999231845","sequential-stimulus-presentation-old","75","492396","0.0-19.0-1.5","SS1619739968685","trial","","40","500","8413.394999923185","images/stimuli/spore_stims/complex_06_A_b.gif","images/stimuli/spore_stims/complex_09_A_a.gif","self_paced","","5","complex_dissimilar","images/stimuli/spore_stims/complex_09_A_a.gif","","","","",""
"","2564.0199999324977","survey-multi-choice","76","494962","0.0-20.0","SS1619739968685","math_question","","","","","","","","","","","","{""Q0"":""16""}","[0]","16","",""
"","null","html-keyboard-response","77","495872","0.0-21.0-0.0","SS1619739968685","","","null","","","","","","<p><img src= images/blank.png width =""600"" height = ""600"" style=""position:fixed;top:50%; left:50%; transform: translate(-50%, -50%); border:5px solid black"">","","","","","","","",""
"","3229.770000092685","sequential-stimulus-presentation-old","78","499606","0.0-21.0-1.0","SS1619739968685","trial","","40","500","3729.770000092685","images/stimuli/spore_stims/simple_07_A_b.gif","images/stimuli/spore_stims/simple_19_A_a.gif","self_paced","","6","simple_dissimilar","images/stimuli/spore_stims/simple_19_A_a.gif","","","","",""
"","null","html-keyboard-response","79","500588","0.0-21.0-0.1","SS1619739968685","","","null","","","","","","<p><img src= images/blank.png width =""600"" height = ""600"" style=""position:fixed;top:50%; left:50%; transform: translate(-50%, -50%); border:5px solid black"">","","","","","","","",""
"","8726.849999977276","sequential-stimulus-presentation-old","80","509819","0.0-21.0-1.1","SS1619739968685","trial","","40","500","9226.849999977276","images/stimuli/spore_stims/simple_07_A_b.gif","images/stimuli/spore_stims/simple_19_A_a.gif","self_paced","","6","simple_dissimilar","images/stimuli/spore_stims/simple_19_A_a.gif","","","","",""
"","null","html-keyboard-response","81","510774","0.0-21.0-0.2","SS1619739968685","","","null","","","","","","<p><img src= images/blank.png width =""600"" height = ""600"" style=""position:fixed;top:50%; left:50%; transform: translate(-50%, -50%); border:5px solid black"">","","","","","","","",""
"","7720.609999960288","sequential-stimulus-presentation-old","82","518999","0.0-21.0-1.2","SS1619739968685","trial","","40","500","8220.609999960288","images/stimuli/spore_stims/simple_07_A_b.gif","images/stimuli/spore_stims/simple_19_A_a.gif","self_paced","","6","simple_dissimilar","images/stimuli/spore_stims/simple_19_A_a.gif","","","","",""
"","null","html-keyboard-response","83","520010","0.0-21.0-0.3","SS1619739968685","","","null","","","","","","<p><img src= images/blank.png width =""600"" height = ""600"" style=""position:fixed;top:50%; left:50%; transform: translate(-50%, -50%); border:5px solid black"">","","","","","","","",""
"","15861.879999982193","sequential-stimulus-presentation-old","84","536374","0.0-21.0-1.3","SS1619739968685","trial","","40","500","16361.879999982193","images/stimuli/spore_stims/simple_07_A_b.gif","images/stimuli/spore_stims/simple_19_A_a.gif","self_paced","","6","simple_dissimilar","images/stimuli/spore_stims/simple_19_A_a.gif","","","","",""
"","null","html-keyboard-response","85","537276","0.0-21.0-0.4","SS1619739968685","","","null","","","","","","<p><img src= images/blank.png width =""600"" height = ""600"" style=""position:fixed;top:50%; left:50%; transform: translate(-50%, -50%); border:5px solid black"">","","","","","","","",""
"","13415.844999952242","sequential-stimulus-presentation-old","86","551195","0.0-21.0-1.4","SS1619739968685","trial","","40","500","13915.844999952242","images/stimuli/spore_stims/simple_07_A_b.gif","images/stimuli/spore_stims/simple_19_A_a.gif","self_paced","","6","simple_dissimilar","images/stimuli/spore_stims/simple_19_A_a.gif","","","","",""
"","null","html-keyboard-response","87","552436","0.0-21.0-0.5","SS1619739968685","","","null","","","","","","<p><img src= images/blank.png width =""600"" height = ""600"" style=""position:fixed;top:50%; left:50%; transform: translate(-50%, -50%); border:5px solid black"">","","","","","","","",""
"","7906.760000041686","sequential-stimulus-presentation-old","88","560848","0.0-21.0-1.5","SS1619739968685","trial","","40","500","8406.760000041686","images/stimuli/spore_stims/simple_07_A_b.gif","images/stimuli/spore_stims/simple_19_A_a.gif","self_paced","","6","simple_dissimilar","images/stimuli/spore_stims/simple_07_A_b.gif","","","","",""
"","3222.9999999981374","survey-multi-choice","89","564072","0.0-22.0","SS1619739968685","math_question","","","","","","","","","","","","{""Q0"":""8""}","[0]","8","",""
"","null","html-keyboard-response","90","564939","0.0-23.0-0.0","SS1619739968685","","","null","","","","","","<p><img src= images/blank.png width =""600"" height = ""600"" style=""position:fixed;top:50%; left:50%; transform: translate(-50%, -50%); border:5px solid black"">","","","","","","","",""
"","930.8400000445545","sequential-stimulus-presentation-old","91","580873","0.0-23.0-1.0","SS1619739968685","trial","","40","500","1430.8400000445545","images/stimuli/spore_stims/simple_03_A_a.gif","images/stimuli/spore_stims/simple_14_A_b.gif","forced_long","","7","simple_dissimilar","images/stimuli/spore_stims/simple_14_A_b.gif","","","","",""
"","null","html-keyboard-response","92","581735","0.0-23.0-0.1","SS1619739968685","","","null","","","","","","<p><img src= images/blank.png width =""600"" height = ""600"" style=""position:fixed;top:50%; left:50%; transform: translate(-50%, -50%); border:5px solid black"">","","","","","","","",""
"","23021.059999940917","sequential-stimulus-presentation-old","93","605259","0.0-23.0-1.1","SS1619739968685","trial","","40","500","23521.059999940917","images/stimuli/spore_stims/simple_03_A_a.gif","images/stimuli/spore_stims/simple_14_A_b.gif","forced_long","","7","simple_dissimilar","images/stimuli/spore_stims/simple_14_A_b.gif","","","","",""
"","null","html-keyboard-response","94","606375","0.0-23.0-0.2","SS1619739968685","","","null","","","","","","<p><img src= images/blank.png width =""600"" height = ""600"" style=""position:fixed;top:50%; left:50%; transform: translate(-50%, -50%); border:5px solid black"">","","","","","","","",""
"","18188.94000002183","sequential-stimulus-presentation-old","95","625067","0.0-23.0-1.2","SS1619739968685","trial","","40","500","18688.94000002183","images/stimuli/spore_stims/simple_03_A_a.gif","images/stimuli/spore_stims/simple_14_A_b.gif","forced_long","","7","simple_dissimilar","images/stimuli/spore_stims/simple_14_A_b.gif","","","","",""
"","null","html-keyboard-response","96","626296","0.0-23.0-0.3","SS1619739968685","","","null","","","","","","<p><img src= images/blank.png width =""600"" height = ""600"" style=""position:fixed;top:50%; left:50%; transform: translate(-50%, -50%); border:5px solid black"">","","","","","","","",""
"","16741.165000014007","sequential-stimulus-presentation-old","97","643541","0.0-23.0-1.3","SS1619739968685","trial","","40","500","17241.165000014007","images/stimuli/spore_stims/simple_03_A_a.gif","images/stimuli/spore_stims/simple_14_A_b.gif","forced_long","","7","simple_dissimilar","images/stimuli/spore_stims/simple_14_A_b.gif","","","","",""
"","null","html-keyboard-response","98","644370","0.0-23.0-0.4","SS1619739968685","","","null","","","","","","<p><img src= images/blank.png width =""600"" height = ""600"" style=""position:fixed;top:50%; left:50%; transform: translate(-50%, -50%); border:5px solid black"">","","","","","","","",""
"","16088.410000083968","sequential-stimulus-presentation-old","99","660962","0.0-23.0-1.4","SS1619739968685","trial","","40","500","16588.410000083968","images/stimuli/spore_stims/simple_03_A_a.gif","images/stimuli/spore_stims/simple_14_A_b.gif","forced_long","","7","simple_dissimilar","images/stimuli/spore_stims/simple_03_A_a.gif","","","","",""
"","3416.4199999067932","survey-multi-choice","100","664380","0.0-24.0","SS1619739968685","math_question","","","","","","","","","","","","{""Q0"":""9""}","[0]","9","",""
"","null","html-keyboard-response","101","665650","0.0-25.0-0.0","SS1619739968685","","","null","","","","","","<p><img src= images/blank.png width =""600"" height = ""600"" style=""position:fixed;top:50%; left:50%; transform: translate(-50%, -50%); border:5px solid black"">","","","","","","","",""
"","13044.654999976046","sequential-stimulus-presentation-old","102","679199","0.0-25.0-1.0","SS1619739968685","trial","","40","500","13544.654999976046","images/stimuli/spore_stims/simple_12_A_b.gif","images/stimuli/spore_stims/simple_06_A_a.gif","forced_short","","8","simple_dissimilar","images/stimuli/spore_stims/simple_06_A_a.gif","","","","",""
"","null","html-keyboard-response","103","680125","0.0-25.0-0.1","SS1619739968685","","","null","","","","","","<p><img src= images/blank.png width =""600"" height = ""600"" style=""position:fixed;top:50%; left:50%; transform: translate(-50%, -50%); border:5px solid black"">","","","","","","","",""
"","2770.04999993369","sequential-stimulus-presentation-old","104","683398","0.0-25.0-1.1","SS1619739968685","trial","","40","500","3270.04999993369","images/stimuli/spore_stims/simple_12_A_b.gif","images/stimuli/spore_stims/simple_06_A_a.gif","forced_short","","8","simple_dissimilar","images/stimuli/spore_stims/simple_06_A_a.gif","","","","",""
"","null","html-keyboard-response","105","684644","0.0-25.0-0.2","SS1619739968685","","","null","","","","","","<p><img src= images/blank.png width =""600"" height = ""600"" style=""position:fixed;top:50%; left:50%; transform: translate(-50%, -50%); border:5px solid black"">","","","","","","","",""
"","4393.670000019483","sequential-stimulus-presentation-old","106","689541","0.0-25.0-1.2","SS1619739968685","trial","","40","500","4893.670000019483","images/stimuli/spore_stims/simple_12_A_b.gif","images/stimuli/spore_stims/simple_06_A_a.gif","forced_short","","8","simple_dissimilar","images/stimuli/spore_stims/simple_06_A_a.gif","","","","",""
"","null","html-keyboard-response","107","690678","0.0-25.0-0.3","SS1619739968685","","","null","","","","","","<p><img src= images/blank.png width =""600"" height = ""600"" style=""position:fixed;top:50%; left:50%; transform: translate(-50%, -50%); border:5px solid black"">","","","","","","","",""
"","8426.475000102073","sequential-stimulus-presentation-old","108","699607","0.0-25.0-1.3","SS1619739968685","trial","","40","500","8926.475000102073","images/stimuli/spore_stims/simple_12_A_b.gif","images/stimuli/spore_stims/simple_06_A_a.gif","forced_short","","8","simple_dissimilar","images/stimuli/spore_stims/simple_06_A_a.gif","","","","",""
"","2428.2250000396743","survey-multi-choice","109","702038","0.0-26.0","SS1619739968685","math_question","","","","","","","","","","","","{""Q0"":""9""}","[0]","9","",""
"","null","html-keyboard-response","110","703221","0.0-27.0-0.0","SS1619739968685","","","null","","","","","","<p><img src= images/blank.png width =""600"" height = ""600"" style=""position:fixed;top:50%; left:50%; transform: translate(-50%, -50%); border:5px solid black"">","","","","","","","",""
"","361.58000002615154","sequential-stimulus-presentation-old","111","718587","0.0-27.0-1.0","SS1619739968685","trial","","40","500","861.5800000261515","images/stimuli/spore_stims/complex_01_A_a.gif","images/stimuli/spore_stims/complex_14_A_b.gif","forced_long","","9","complex_dissimilar","images/stimuli/spore_stims/complex_14_A_b.gif","","","","",""
"","null","html-keyboard-response","112","719449","0.0-27.0-0.1","SS1619739968685","","","null","","","","","","<p><img src= images/blank.png width =""600"" height = ""600"" style=""position:fixed;top:50%; left:50%; transform: translate(-50%, -50%); border:5px solid black"">","","","","","","","",""
"","1957.204999984242","sequential-stimulus-presentation-old","113","721910","0.0-27.0-1.1","SS1619739968685","trial","","40","500","2457.204999984242","images/stimuli/spore_stims/complex_01_A_a.gif","images/stimuli/spore_stims/complex_14_A_b.gif","forced_long","","9","complex_dissimilar","images/stimuli/spore_stims/complex_14_A_b.gif","","","","",""
"","null","html-keyboard-response","114","722985","0.0-27.0-0.2","SS1619739968685","","","null","","","","","","<p><img src= images/blank.png width =""600"" height = ""600"" style=""position:fixed;top:50%; left:50%; transform: translate(-50%, -50%); border:5px solid black"">","","","","","","","",""
"","552.4849999928847","sequential-stimulus-presentation-old","115","724042","0.0-27.0-1.2","SS1619739968685","trial","","40","500","1052.4849999928847","images/stimuli/spore_stims/complex_01_A_a.gif","images/stimuli/spore_stims/complex_14_A_b.gif","forced_long","","9","complex_dissimilar","images/stimuli/spore_stims/complex_14_A_b.gif","","","","",""
"","null","html-keyboard-response","116","724865","0.0-27.0-0.3","SS1619739968685","","","null","","","","","","<p><img src= images/blank.png width =""600"" height = ""600"" style=""position:fixed;top:50%; left:50%; transform: translate(-50%, -50%); border:5px solid black"">","","","","","","","",""
"","2249.699999927543","sequential-stimulus-presentation-old","117","727618","0.0-27.0-1.3","SS1619739968685","trial","","40","500","2749.699999927543","images/stimuli/spore_stims/complex_01_A_a.gif","images/stimuli/spore_stims/complex_14_A_b.gif","forced_long","","9","complex_dissimilar","images/stimuli/spore_stims/complex_14_A_b.gif","","","","",""
"","2417.645000037737","survey-multi-choice","118","730038","0.0-28.0","SS1619739968685","math_question","","","","","","","","","","","","{""Q0"":""9""}","[0]","9","",""
"","null","html-keyboard-response","119","730895","0.0-29.0-0.0","SS1619739968685","","","null","","","","","","<p><img src= images/blank.png width =""600"" height = ""600"" style=""position:fixed;top:50%; left:50%; transform: translate(-50%, -50%); border:5px solid black"">","","","","","","","",""
"","956.6050000721589","sequential-stimulus-presentation-old","120","746855","0.0-29.0-1.0","SS1619739968685","trial","","40","500","1456.6050000721589","images/stimuli/spore_stims/complex_05_A_b.gif","images/stimuli/spore_stims/complex_20_A_a.gif","forced_long","","10","complex_dissimilar","images/stimuli/spore_stims/complex_20_A_a.gif","","","","",""
"","null","html-keyboard-response","121","747928","0.0-29.0-0.1","SS1619739968685","","","null","","","","","","<p><img src= images/blank.png width =""600"" height = ""600"" style=""position:fixed;top:50%; left:50%; transform: translate(-50%, -50%); border:5px solid black"">","","","","","","","",""
"","1247.3499999614432","sequential-stimulus-presentation-old","122","749679","0.0-29.0-1.1","SS1619739968685","trial","","40","500","1747.3499999614432","images/stimuli/spore_stims/complex_05_A_b.gif","images/stimuli/spore_stims/complex_20_A_a.gif","forced_long","","10","complex_dissimilar","images/stimuli/spore_stims/complex_20_A_a.gif","","","","",""
"","null","html-keyboard-response","123","750534","0.0-29.0-0.2","SS1619739968685","","","null","","","","","","<p><img src= images/blank.png width =""600"" height = ""600"" style=""position:fixed;top:50%; left:50%; transform: translate(-50%, -50%); border:5px solid black"">","","","","","","","",""
"","6958.950000000186","sequential-stimulus-presentation-old","124","757996","0.0-29.0-1.2","SS1619739968685","trial","","40","500","7458.950000000186","images/stimuli/spore_stims/complex_05_A_b.gif","images/stimuli/spore_stims/complex_20_A_a.gif","forced_long","","10","complex_dissimilar","images/stimuli/spore_stims/complex_20_A_a.gif","","","","",""
"","null","html-keyboard-response","125","759059","0.0-29.0-0.3","SS1619739968685","","","null","","","","","","<p><img src= images/blank.png width =""600"" height = ""600"" style=""position:fixed;top:50%; left:50%; transform: translate(-50%, -50%); border:5px solid black"">","","","","","","","",""
"","13285.889999940991","sequential-stimulus-presentation-old","126","772848","0.0-29.0-1.3","SS1619739968685","trial","","40","500","13785.889999940991","images/stimuli/spore_stims/complex_05_A_b.gif","images/stimuli/spore_stims/complex_20_A_a.gif","forced_long","","10","complex_dissimilar","images/stimuli/spore_stims/complex_20_A_a.gif","","","","",""
"","2968.0950000183657","survey-multi-choice","127","775818","0.0-30.0","SS1619739968685","math_question","","","","","","","","","","","","{""Q0"":""11""}","[0]","11","",""
"","null","html-keyboard-response","128","776692","0.0-31.0-0.0","SS1619739968685","","","null","","","","","","<p><img src= images/blank.png width =""600"" height = ""600"" style=""position:fixed;top:50%; left:50%; transform: translate(-50%, -50%); border:5px solid black"">","","","","","","","",""
"","4683.820000034757","sequential-stimulus-presentation-old","129","796379","0.0-31.0-1.0","SS1619739968685","trial","","40","500","5183.820000034757","images/stimuli/spore_stims/simple_15_A_a.gif","images/stimuli/spore_stims/simple_17_A_b.gif","forced_long","","11","simple_dissimilar","images/stimuli/spore_stims/simple_17_A_b.gif","","","","",""
"","null","html-keyboard-response","130","797369","0.0-31.0-0.1","SS1619739968685","","","null","","","","","","<p><img src= images/blank.png width =""600"" height = ""600"" style=""position:fixed;top:50%; left:50%; transform: translate(-50%, -50%); border:5px solid black"">","","","","","","","",""
"","84.4049999723211","sequential-stimulus-presentation-old","131","797956","0.0-31.0-1.1","SS1619739968685","trial","","40","500","584.4049999723211","images/stimuli/spore_stims/simple_15_A_a.gif","images/stimuli/spore_stims/simple_17_A_b.gif","forced_long","","11","simple_dissimilar","images/stimuli/spore_stims/simple_17_A_b.gif","","","","",""
"","null","html-keyboard-response","132","799076","0.0-31.0-0.2","SS1619739968685","","","null","","","","","","<p><img src= images/blank.png width =""600"" height = ""600"" style=""position:fixed;top:50%; left:50%; transform: translate(-50%, -50%); border:5px solid black"">","","","","","","","",""
"","588.5850000195205","sequential-stimulus-presentation-old","133","800167","0.0-31.0-1.2","SS1619739968685","trial","","40","500","1088.5850000195205","images/stimuli/spore_stims/simple_15_A_a.gif","images/stimuli/spore_stims/simple_17_A_b.gif","forced_long","","11","simple_dissimilar","images/stimuli/spore_stims/simple_17_A_b.gif","","","","",""
"","null","html-keyboard-response","134","801096","0.0-31.0-0.3","SS1619739968685","","","null","","","","","","<p><img src= images/blank.png width =""600"" height = ""600"" style=""position:fixed;top:50%; left:50%; transform: translate(-50%, -50%); border:5px solid black"">","","","","","","","",""
"","4807.744999998249","sequential-stimulus-presentation-old","135","806407","0.0-31.0-1.3","SS1619739968685","trial","","40","500","5307.744999998249","images/stimuli/spore_stims/simple_15_A_a.gif","images/stimuli/spore_stims/simple_17_A_b.gif","forced_long","","11","simple_dissimilar","images/stimuli/spore_stims/simple_17_A_b.gif","","","","",""
"","null","html-keyboard-response","136","807586","0.0-31.0-0.4","SS1619739968685","","","null","","","","","","<p><img src= images/blank.png width =""600"" height = ""600"" style=""position:fixed;top:50%; left:50%; transform: translate(-50%, -50%); border:5px solid black"">","","","","","","","",""
"","1123.850000090897","sequential-stimulus-presentation-old","137","809215","0.0-31.0-1.4","SS1619739968685","trial","","40","500","1623.850000090897","images/stimuli/spore_stims/simple_15_A_a.gif","images/stimuli/spore_stims/simple_17_A_b.gif","forced_long","","11","simple_dissimilar","images/stimuli/spore_stims/simple_17_A_b.gif","","","","",""
"","null","html-keyboard-response","138","810360","0.0-31.0-0.5","SS1619739968685","","","null","","","","","","<p><img src= images/blank.png width =""600"" height = ""600"" style=""position:fixed;top:50%; left:50%; transform: translate(-50%, -50%); border:5px solid black"">","","","","","","","",""
"","3831.6950000589713","sequential-stimulus-presentation-old","139","814695","0.0-31.0-1.5","SS1619739968685","trial","","40","500","4331.695000058971","images/stimuli/spore_stims/simple_15_A_a.gif","images/stimuli/spore_stims/simple_17_A_b.gif","forced_long","","11","simple_dissimilar","images/stimuli/spore_stims/simple_17_A_b.gif","","","","",""
"[{""page_index"":0,""viewing_time"":4713.1950000766665}]","4713.405000045896","instructions","140","819410","0.0-32.0","SS1619739968685","instructions","","","","","","","","","","","","","","","",""
"","8184.120000107214","survey-likert","141","827597","0.0-33.0","SS1619739968685","similarity_question","","","","","","","","","","","","{""Q0"":0}","[0]","","images/stimuli/spore_stims/complex_05_A_b.gif","images/stimuli/spore_stims/complex_20_A_a.gif"
"","3089.7200000472367","survey-likert","142","830689","0.0-34.0","SS1619739968685","similarity_question","","","","","","","","","","","","{""Q0"":4}","[0]","","images/stimuli/spore_stims/simple_15_A_b.gif","images/stimuli/spore_stims/simple_12_A_a.gif"
"","2001.420000102371","survey-likert","143","832693","0.0-35.0","SS1619739968685","similarity_question","","","","","","","","","","","","{""Q0"":4}","[0]","","images/stimuli/spore_stims/simple_19_A_a.gif","images/stimuli/spore_stims/simple_07_A_b.gif"
"","4219.49000004679","survey-likert","144","836915","0.0-36.0","SS1619739968685","similarity_question","","","","","","","","","","","","{""Q0"":0}","[0]","","images/stimuli/spore_stims/complex_02_A_a.gif","images/stimuli/spore_stims/complex_07_A_b.gif"
"","3057.6700000092387","survey-likert","145","839975","0.0-37.0","SS1619739968685","similarity_question","","","","","","","","","","","","{""Q0"":3}","[0]","","images/stimuli/spore_stims/simple_14_A_b.gif","images/stimuli/spore_stims/simple_03_A_a.gif"
"","2007.0700000505894","survey-likert","146","841985","0.0-38.0","SS1619739968685","similarity_question","","","","","","","","","","","","{""Q0"":4}","[0]","","images/stimuli/spore_stims/simple_17_A_b.gif","images/stimuli/spore_stims/simple_15_A_a.gif"
"","1599.6600000653416","survey-likert","147","843587","0.0-39.0","SS1619739968685","similarity_question","","","","","","","","","","","","{""Q0"":4}","[0]","","images/stimuli/spore_stims/simple_07_A_a.gif","images/stimuli/spore_stims/simple_01_A_b.gif"
"","2432.7799999155104","survey-likert","148","846023","0.0-40.0","SS1619739968685","similarity_question","","","","","","","","","","","","{""Q0"":4}","[0]","","images/stimuli/spore_stims/simple_12_A_b.gif","images/stimuli/spore_stims/simple_06_A_a.gif"
"","3664.7899999516085","survey-likert","149","849691","0.0-41.0","SS1619739968685","similarity_question","","","","","","","","","","","","{""Q0"":2}","[0]","","images/stimuli/spore_stims/complex_14_A_b.gif","images/stimuli/spore_stims/complex_01_A_a.gif"
"","5388.90000001993","survey-likert","150","855083","0.0-42.0","SS1619739968685","similarity_question","","","","","","","","","","","","{""Q0"":3}","[0]","","images/stimuli/spore_stims/complex_09_A_a.gif","images/stimuli/spore_stims/complex_06_A_b.gif"
"","2897.30499999132","survey-likert","151","857983","0.0-43.0","SS1619739968685","similarity_question","","","","","","","","","","","","{""Q0"":4}","[0]","","images/stimuli/spore_stims/complex_18_A_a.gif","images/stimuli/spore_stims/complex_10_A_b.gif"
"","2335.6800000183284","survey-likert","152","860322","0.0-44.0","SS1619739968685","similarity_question","","","","","","","","","","","","{""Q0"":4}","[0]","","images/stimuli/spore_stims/complex_16_A_b.gif","images/stimuli/spore_stims/complex_10_A_a.gif"
"[{""page_index"":0,""viewing_time"":3522.9000000981614}]","3523.135000024922","instructions","153","863847","0.0-45.0","SS1619739968685","instructions","","","","","","","","","","","","","","","",""
"","4258.634999976493","survey-likert","154","868109","0.0-46.0","SS1619739968685","","","","","","","","","images/stimuli/spore_stims/complex_18_A_a.gif","","","","{""Q0"":4}","[0]","","",""
"","2962.074999930337","survey-likert","155","871074","0.0-47.0","SS1619739968685","","","","","","","","","images/stimuli/spore_stims/complex_09_A_a.gif","","","","{""Q0"":5}","[0]","","",""
"","2944.744999986142","survey-likert","156","874021","0.0-48.0","SS1619739968685","","","","","","","","","images/stimuli/spore_stims/complex_07_A_b.gif","","","","{""Q0"":4}","[0]","","",""
"","3160.6500000925735","survey-likert","157","877185","0.0-49.0","SS1619739968685","","","","","","","","","images/stimuli/spore_stims/simple_19_A_a.gif","","","","{""Q0"":1}","[0]","","",""
"","2073.229999979958","survey-likert","158","879261","0.0-50.0","SS1619739968685","","","","","","","","","images/stimuli/spore_stims/complex_14_A_b.gif","","","","{""Q0"":5}","[0]","","",""
"","2639.530000044033","survey-likert","159","881903","0.0-51.0","SS1619739968685","","","","","","","","","images/stimuli/spore_stims/simple_01_A_b.gif","","","","{""Q0"":1}","[0]","","",""
"","2592.7999999839813","survey-likert","160","884499","0.0-52.0","SS1619739968685","","","","","","","","","images/stimuli/spore_stims/simple_15_A_a.gif","","","","{""Q0"":2}","[0]","","",""
"","1783.2649999763817","survey-likert","161","886285","0.0-53.0","SS1619739968685","","","","","","","","","images/stimuli/spore_stims/simple_14_A_b.gif","","","","{""Q0"":1}","[0]","","",""
"","1872.069999924861","survey-likert","162","888160","0.0-54.0","SS1619739968685","","","","","","","","","images/stimuli/spore_stims/simple_06_A_a.gif","","","","{""Q0"":2}","[0]","","",""
"","2200.874999980442","survey-likert","163","890363","0.0-55.0","SS1619739968685","","","","","","","","","images/stimuli/spore_stims/complex_10_A_a.gif","","","","{""Q0"":4}","[0]","","",""
"","2071.475000004284","survey-likert","164","892437","0.0-56.0","SS1619739968685","","","","","","","","","images/stimuli/spore_stims/simple_15_A_b.gif","","","","{""Q0"":1}","[0]","","",""
"","1977.6700000511482","survey-likert","165","894418","0.0-57.0","SS1619739968685","","","","","","","","","images/stimuli/spore_stims/complex_20_A_a.gif","","","","{""Q0"":5}","[0]","","",""
"[{""page_index"":0,""viewing_time"":1823.1049999594688}]","1823.2350000180304","instructions","166","896243","0.0-58.0","SS1619739968685","instructions","","","","","","","","","","","","","","","",""
"","1777.6199999498203","demog-age","167","898026","0.0-59.0","SS1619739968685","","","","","","","","","","","","","{""age"":""31""}","","","",""
"","3196.584999910556","demog-ethnic-US","168","901228","0.0-60.0","SS1619739968685","","","","","","","","","","","","","{""ethnicity"":[""Hispanic or Latino""]}","[0]","","",""
"","6726.385000045411","demog-gender-and-education","169","907958","0.0-61.0","SS1619739968685","","","","","","","","","","","","","{""gender"":""Male"",""education"":""Bachelor's Degree""}","[0,1]","","",""
"","7769.475000095554","survey-text","170","915731","0.0-62.0","SS1619739968685","feedback","","","","","","","","","","","","{""Q0"":""None""}","","","",""
"[{""page_index"":0,""viewing_time"":1351.2849999824539}]","1351.4399999985471","instructions","171","917085","0.0-63.0","SS1619739968685","instructions","","","","","","","","","","","","","","","",""
