"view_history","rt","trial_type","trial_index","time_elapsed","internal_node_id","subject","stimulus_type","trial_stimulus","key_press","minimum_viewing_duration","trial_looking_time","block_deviant","block_background","exposure_type","stimulus","block_number","block_type","stimulus_displayed","responses","question_order","math_correct_answer","stimulus_left","stimulus_right"
"[{""page_index"":0,""viewing_time"":5789.959999965504}]","5791.685000003781","instructions","0","5797","0.0-0.0","SS1619740006087","","","","","","","","","","","","","","","","",""
"[{""page_index"":0,""viewing_time"":7811.715000018012},{""page_index"":1,""viewing_time"":6776.259999955073}]","14588.48500001477","instructions","1","22390","0.0-1.0","SS1619740006087","instructions","","","","","","","","","","","","","","","",""
"","6486.3250000053085","sequential-stimulus-presentation-old","2","29386","0.0-2.0","SS1619740006087","","","40","500","6986.3250000053085","null","null","self_paced","","","","","","","","",""
"","5584.210000000894","sequential-stimulus-presentation-old","3","35474","0.0-3.0","SS1619740006087","","","40","500","6084.210000000894","null","null","self_paced","","","","","","","","",""
"[{""page_index"":0,""viewing_time"":15616.39500001911}]","15616.900000022724","instructions","4","51092","0.0-4.0","SS1619740006087","instructions","","","","","","","","","","","","","","","",""
"","2018.1749999755993","sequential-stimulus-presentation-old","5","68120","0.0-5.0","SS1619740006087","","","40","500","2518.1749999755993","null","null","forced_long","","","","","","","","",""
"","2614.929999981541","sequential-stimulus-presentation-old","6","71250","0.0-6.0","SS1619740006087","","","40","500","3114.929999981541","null","null","forced_long","","","","","","","","",""
"[{""page_index"":0,""viewing_time"":4266.844999976456}]","4267.294999968726","instructions","7","75518","0.0-7.0","SS1619740006087","instructions","","","","","","","","","","","","","","","",""
"[{""page_index"":0,""viewing_time"":6506.425000028685},{""page_index"":1,""viewing_time"":9226.974999997765},{""page_index"":2,""viewing_time"":4702.790000010282},{""page_index"":3,""viewing_time"":1759.0949999867007},{""page_index"":4,""viewing_time"":1503.2249999931082}]","23698.94500001101","instructions","8","99219","0.0-8.0","SS1619740006087","instructions","","","","","","","","","","","","","","","",""
"","null","html-keyboard-response","9","100407","0.0-9.0-0.0","SS1619740006087","","","null","","","","","","<p><img src= images/blank.png width =""600"" height = ""600"" style=""position:fixed;top:50%; left:50%; transform: translate(-50%, -50%); border:5px solid black"">","","","","","","","",""
"","35270.31499997247","sequential-stimulus-presentation-old","10","136181","0.0-9.0-1.0","SS1619740006087","trial","","40","500","35770.31499997247","images/stimuli/spore_stims/complex_09_A_a.gif","images/stimuli/spore_stims/complex_20_A_b.gif","self_paced","","0","complex_dissimilar","images/stimuli/spore_stims/complex_20_A_b.gif","","","","",""
"","null","html-keyboard-response","11","137008","0.0-9.0-0.1","SS1619740006087","","","null","","","","","","<p><img src= images/blank.png width =""600"" height = ""600"" style=""position:fixed;top:50%; left:50%; transform: translate(-50%, -50%); border:5px solid black"">","","","","","","","",""
"","3794.8299999698065","sequential-stimulus-presentation-old","12","141316","0.0-9.0-1.1","SS1619740006087","trial","","40","500","4294.8299999698065","images/stimuli/spore_stims/complex_09_A_a.gif","images/stimuli/spore_stims/complex_20_A_b.gif","self_paced","","0","complex_dissimilar","images/stimuli/spore_stims/complex_20_A_b.gif","","","","",""
"","null","html-keyboard-response","13","142139","0.0-9.0-0.2","SS1619740006087","","","null","","","","","","<p><img src= images/blank.png width =""600"" height = ""600"" style=""position:fixed;top:50%; left:50%; transform: translate(-50%, -50%); border:5px solid black"">","","","","","","","",""
"","4045.174999977462","sequential-stimulus-presentation-old","14","146692","0.0-9.0-1.2","SS1619740006087","trial","","40","500","4545.174999977462","images/stimuli/spore_stims/complex_09_A_a.gif","images/stimuli/spore_stims/complex_20_A_b.gif","self_paced","","0","complex_dissimilar","images/stimuli/spore_stims/complex_20_A_b.gif","","","","",""
"","null","html-keyboard-response","15","147556","0.0-9.0-0.3","SS1619740006087","","","null","","","","","","<p><img src= images/blank.png width =""600"" height = ""600"" style=""position:fixed;top:50%; left:50%; transform: translate(-50%, -50%); border:5px solid black"">","","","","","","","",""
"","2646.810000005644","sequential-stimulus-presentation-old","16","150711","0.0-9.0-1.3","SS1619740006087","trial","","40","500","3146.810000005644","images/stimuli/spore_stims/complex_09_A_a.gif","images/stimuli/spore_stims/complex_20_A_b.gif","self_paced","","0","complex_dissimilar","images/stimuli/spore_stims/complex_20_A_b.gif","","","","",""
"","4312.87500000326","survey-multi-choice","17","155030","0.0-10.0","SS1619740006087","math_question","","","","","","","","","","","","{""Q0"":""12""}","[0]","12","",""
"","null","html-keyboard-response","18","156043","0.0-11.0-0.0","SS1619740006087","","","null","","","","","","<p><img src= images/blank.png width =""600"" height = ""600"" style=""position:fixed;top:50%; left:50%; transform: translate(-50%, -50%); border:5px solid black"">","","","","","","","",""
"","830.8250000118278","sequential-stimulus-presentation-old","19","157381","0.0-11.0-1.0","SS1619740006087","trial","","40","500","1330.8250000118278","images/stimuli/spore_stims/simple_05_A_a.gif","images/stimuli/spore_stims/simple_01_A_b.gif","forced_short","","1","simple_dissimilar","images/stimuli/spore_stims/simple_01_A_b.gif","","","","",""
"","null","html-keyboard-response","20","158487","0.0-11.0-0.1","SS1619740006087","","","null","","","","","","<p><img src= images/blank.png width =""600"" height = ""600"" style=""position:fixed;top:50%; left:50%; transform: translate(-50%, -50%); border:5px solid black"">","","","","","","","",""
"","2749.3600000161678","sequential-stimulus-presentation-old","21","161748","0.0-11.0-1.1","SS1619740006087","trial","","40","500","3249.3600000161678","images/stimuli/spore_stims/simple_05_A_a.gif","images/stimuli/spore_stims/simple_01_A_b.gif","forced_short","","1","simple_dissimilar","images/stimuli/spore_stims/simple_01_A_b.gif","","","","",""
"","null","html-keyboard-response","22","162942","0.0-11.0-0.2","SS1619740006087","","","null","","","","","","<p><img src= images/blank.png width =""600"" height = ""600"" style=""position:fixed;top:50%; left:50%; transform: translate(-50%, -50%); border:5px solid black"">","","","","","","","",""
"","3326.9100000034086","sequential-stimulus-presentation-old","23","166773","0.0-11.0-1.2","SS1619740006087","trial","","40","500","3826.9100000034086","images/stimuli/spore_stims/simple_05_A_a.gif","images/stimuli/spore_stims/simple_01_A_b.gif","forced_short","","1","simple_dissimilar","images/stimuli/spore_stims/simple_05_A_a.gif","","","","",""
"","null","html-keyboard-response","24","167718","0.0-11.0-0.3","SS1619740006087","","","null","","","","","","<p><img src= images/blank.png width =""600"" height = ""600"" style=""position:fixed;top:50%; left:50%; transform: translate(-50%, -50%); border:5px solid black"">","","","","","","","",""
"","1497.2800000105053","sequential-stimulus-presentation-old","25","169727","0.0-11.0-1.3","SS1619740006087","trial","","40","500","1997.2800000105053","images/stimuli/spore_stims/simple_05_A_a.gif","images/stimuli/spore_stims/simple_01_A_b.gif","forced_short","","1","simple_dissimilar","images/stimuli/spore_stims/simple_01_A_b.gif","","","","",""
"","null","html-keyboard-response","26","170942","0.0-11.0-0.4","SS1619740006087","","","null","","","","","","<p><img src= images/blank.png width =""600"" height = ""600"" style=""position:fixed;top:50%; left:50%; transform: translate(-50%, -50%); border:5px solid black"">","","","","","","","",""
"","1244.1650000400841","sequential-stimulus-presentation-old","27","172692","0.0-11.0-1.4","SS1619740006087","trial","","40","500","1744.1650000400841","images/stimuli/spore_stims/simple_05_A_a.gif","images/stimuli/spore_stims/simple_01_A_b.gif","forced_short","","1","simple_dissimilar","images/stimuli/spore_stims/simple_05_A_a.gif","","","","",""
"","3517.3850000137463","survey-multi-choice","28","176212","0.0-12.0","SS1619740006087","math_question","","","","","","","","","","","","{""Q0"":""5""}","[0]","5","",""
"","null","html-keyboard-response","29","177300","0.0-13.0-0.0","SS1619740006087","","","null","","","","","","<p><img src= images/blank.png width =""600"" height = ""600"" style=""position:fixed;top:50%; left:50%; transform: translate(-50%, -50%); border:5px solid black"">","","","","","","","",""
"","5813.365000009071","sequential-stimulus-presentation-old","30","198130","0.0-13.0-1.0","SS1619740006087","trial","","40","500","6313.365000009071","images/stimuli/spore_stims/simple_07_A_a.gif","images/stimuli/spore_stims/simple_04_A_b.gif","forced_long","","2","simple_dissimilar","images/stimuli/spore_stims/simple_04_A_b.gif","","","","",""
"","null","html-keyboard-response","31","198958","0.0-13.0-0.1","SS1619740006087","","","null","","","","","","<p><img src= images/blank.png width =""600"" height = ""600"" style=""position:fixed;top:50%; left:50%; transform: translate(-50%, -50%); border:5px solid black"">","","","","","","","",""
"","3672.580000013113","sequential-stimulus-presentation-old","32","203137","0.0-13.0-1.1","SS1619740006087","trial","","40","500","4172.580000013113","images/stimuli/spore_stims/simple_07_A_a.gif","images/stimuli/spore_stims/simple_04_A_b.gif","forced_long","","2","simple_dissimilar","images/stimuli/spore_stims/simple_04_A_b.gif","","","","",""
"","null","html-keyboard-response","33","204149","0.0-13.0-0.2","SS1619740006087","","","null","","","","","","<p><img src= images/blank.png width =""600"" height = ""600"" style=""position:fixed;top:50%; left:50%; transform: translate(-50%, -50%); border:5px solid black"">","","","","","","","",""
"","2916.099999973085","sequential-stimulus-presentation-old","34","207570","0.0-13.0-1.2","SS1619740006087","trial","","40","500","3416.099999973085","images/stimuli/spore_stims/simple_07_A_a.gif","images/stimuli/spore_stims/simple_04_A_b.gif","forced_long","","2","simple_dissimilar","images/stimuli/spore_stims/simple_07_A_a.gif","","","","",""
"","null","html-keyboard-response","35","208748","0.0-13.0-0.3","SS1619740006087","","","null","","","","","","<p><img src= images/blank.png width =""600"" height = ""600"" style=""position:fixed;top:50%; left:50%; transform: translate(-50%, -50%); border:5px solid black"">","","","","","","","",""
"","2794.0700000035577","sequential-stimulus-presentation-old","36","212054","0.0-13.0-1.3","SS1619740006087","trial","","40","500","3294.0700000035577","images/stimuli/spore_stims/simple_07_A_a.gif","images/stimuli/spore_stims/simple_04_A_b.gif","forced_long","","2","simple_dissimilar","images/stimuli/spore_stims/simple_04_A_b.gif","","","","",""
"","null","html-keyboard-response","37","213144","0.0-13.0-0.4","SS1619740006087","","","null","","","","","","<p><img src= images/blank.png width =""600"" height = ""600"" style=""position:fixed;top:50%; left:50%; transform: translate(-50%, -50%); border:5px solid black"">","","","","","","","",""
"","1857.4200000148267","sequential-stimulus-presentation-old","38","215509","0.0-13.0-1.4","SS1619740006087","trial","","40","500","2357.4200000148267","images/stimuli/spore_stims/simple_07_A_a.gif","images/stimuli/spore_stims/simple_04_A_b.gif","forced_long","","2","simple_dissimilar","images/stimuli/spore_stims/simple_04_A_b.gif","","","","",""
"","3409.990000014659","survey-multi-choice","39","218922","0.0-14.0","SS1619740006087","math_question","","","","","","","","","","","","{""Q0"":""10""}","[0]","10","",""
"","null","html-keyboard-response","40","219817","0.0-15.0-0.0","SS1619740006087","","","null","","","","","","<p><img src= images/blank.png width =""600"" height = ""600"" style=""position:fixed;top:50%; left:50%; transform: translate(-50%, -50%); border:5px solid black"">","","","","","","","",""
"","515.190000005532","sequential-stimulus-presentation-old","41","220839","0.0-15.0-1.0","SS1619740006087","trial","","40","500","1015.190000005532","images/stimuli/spore_stims/complex_07_A_b.gif","images/stimuli/spore_stims/complex_18_A_a.gif","forced_short","","3","complex_dissimilar","images/stimuli/spore_stims/complex_18_A_a.gif","","","","",""
"","null","html-keyboard-response","42","221767","0.0-15.0-0.1","SS1619740006087","","","null","","","","","","<p><img src= images/blank.png width =""600"" height = ""600"" style=""position:fixed;top:50%; left:50%; transform: translate(-50%, -50%); border:5px solid black"">","","","","","","","",""
"","2010.5549999861978","sequential-stimulus-presentation-old","43","224288","0.0-15.0-1.1","SS1619740006087","trial","","40","500","2510.554999986198","images/stimuli/spore_stims/complex_07_A_b.gif","images/stimuli/spore_stims/complex_18_A_a.gif","forced_short","","3","complex_dissimilar","images/stimuli/spore_stims/complex_18_A_a.gif","","","","",""
"","null","html-keyboard-response","44","225416","0.0-15.0-0.2","SS1619740006087","","","null","","","","","","<p><img src= images/blank.png width =""600"" height = ""600"" style=""position:fixed;top:50%; left:50%; transform: translate(-50%, -50%); border:5px solid black"">","","","","","","","",""
"","1307.3399999993853","sequential-stimulus-presentation-old","45","227232","0.0-15.0-1.2","SS1619740006087","trial","","40","500","1807.3399999993853","images/stimuli/spore_stims/complex_07_A_b.gif","images/stimuli/spore_stims/complex_18_A_a.gif","forced_short","","3","complex_dissimilar","images/stimuli/spore_stims/complex_18_A_a.gif","","","","",""
"","null","html-keyboard-response","46","228107","0.0-15.0-0.3","SS1619740006087","","","null","","","","","","<p><img src= images/blank.png width =""600"" height = ""600"" style=""position:fixed;top:50%; left:50%; transform: translate(-50%, -50%); border:5px solid black"">","","","","","","","",""
"","1390.1649999897927","sequential-stimulus-presentation-old","47","230004","0.0-15.0-1.3","SS1619740006087","trial","","40","500","1890.1649999897927","images/stimuli/spore_stims/complex_07_A_b.gif","images/stimuli/spore_stims/complex_18_A_a.gif","forced_short","","3","complex_dissimilar","images/stimuli/spore_stims/complex_18_A_a.gif","","","","",""
"","3579.74999997532","survey-multi-choice","48","233586","0.0-16.0","SS1619740006087","math_question","","","","","","","","","","","","{""Q0"":""12""}","[0]","12","",""
"","null","html-keyboard-response","49","234711","0.0-17.0-0.0","SS1619740006087","","","null","","","","","","<p><img src= images/blank.png width =""600"" height = ""600"" style=""position:fixed;top:50%; left:50%; transform: translate(-50%, -50%); border:5px solid black"">","","","","","","","",""
"","2146.1899999994785","sequential-stimulus-presentation-old","50","237367","0.0-17.0-1.0","SS1619740006087","trial","","40","500","2646.1899999994785","images/stimuli/spore_stims/simple_06_A_a.gif","images/stimuli/spore_stims/simple_05_A_b.gif","self_paced","","4","simple_dissimilar","images/stimuli/spore_stims/simple_05_A_b.gif","","","","",""
"","null","html-keyboard-response","51","238405","0.0-17.0-0.1","SS1619740006087","","","null","","","","","","<p><img src= images/blank.png width =""600"" height = ""600"" style=""position:fixed;top:50%; left:50%; transform: translate(-50%, -50%); border:5px solid black"">","","","","","","","",""
"","1600.7450000033714","sequential-stimulus-presentation-old","52","240515","0.0-17.0-1.1","SS1619740006087","trial","","40","500","2100.7450000033714","images/stimuli/spore_stims/simple_06_A_a.gif","images/stimuli/spore_stims/simple_05_A_b.gif","self_paced","","4","simple_dissimilar","images/stimuli/spore_stims/simple_06_A_a.gif","","","","",""
"","null","html-keyboard-response","53","241705","0.0-17.0-0.2","SS1619740006087","","","null","","","","","","<p><img src= images/blank.png width =""600"" height = ""600"" style=""position:fixed;top:50%; left:50%; transform: translate(-50%, -50%); border:5px solid black"">","","","","","","","",""
"","3525.5649999598972","sequential-stimulus-presentation-old","54","245738","0.0-17.0-1.2","SS1619740006087","trial","","40","500","4025.5649999598972","images/stimuli/spore_stims/simple_06_A_a.gif","images/stimuli/spore_stims/simple_05_A_b.gif","self_paced","","4","simple_dissimilar","images/stimuli/spore_stims/simple_05_A_b.gif","","","","",""
"","null","html-keyboard-response","55","246590","0.0-17.0-0.3","SS1619740006087","","","null","","","","","","<p><img src= images/blank.png width =""600"" height = ""600"" style=""position:fixed;top:50%; left:50%; transform: translate(-50%, -50%); border:5px solid black"">","","","","","","","",""
"","2384.985000011511","sequential-stimulus-presentation-old","56","249494","0.0-17.0-1.3","SS1619740006087","trial","","40","500","2884.985000011511","images/stimuli/spore_stims/simple_06_A_a.gif","images/stimuli/spore_stims/simple_05_A_b.gif","self_paced","","4","simple_dissimilar","images/stimuli/spore_stims/simple_05_A_b.gif","","","","",""
"","null","html-keyboard-response","57","250502","0.0-17.0-0.4","SS1619740006087","","","null","","","","","","<p><img src= images/blank.png width =""600"" height = ""600"" style=""position:fixed;top:50%; left:50%; transform: translate(-50%, -50%); border:5px solid black"">","","","","","","","",""
"","1666.300000040792","sequential-stimulus-presentation-old","58","252676","0.0-17.0-1.4","SS1619740006087","trial","","40","500","2166.300000040792","images/stimuli/spore_stims/simple_06_A_a.gif","images/stimuli/spore_stims/simple_05_A_b.gif","self_paced","","4","simple_dissimilar","images/stimuli/spore_stims/simple_06_A_a.gif","","","","",""
"","null","html-keyboard-response","59","253699","0.0-17.0-0.5","SS1619740006087","","","null","","","","","","<p><img src= images/blank.png width =""600"" height = ""600"" style=""position:fixed;top:50%; left:50%; transform: translate(-50%, -50%); border:5px solid black"">","","","","","","","",""
"","2447.634999989532","sequential-stimulus-presentation-old","60","256657","0.0-17.0-1.5","SS1619740006087","trial","","40","500","2947.634999989532","images/stimuli/spore_stims/simple_06_A_a.gif","images/stimuli/spore_stims/simple_05_A_b.gif","self_paced","","4","simple_dissimilar","images/stimuli/spore_stims/simple_05_A_b.gif","","","","",""
"","3319.17999999132","survey-multi-choice","61","259982","0.0-18.0","SS1619740006087","math_question","","","","","","","","","","","","{""Q0"":""6""}","[0]","6","",""
"","null","html-keyboard-response","62","261055","0.0-19.0-0.0","SS1619740006087","","","null","","","","","","<p><img src= images/blank.png width =""600"" height = ""600"" style=""position:fixed;top:50%; left:50%; transform: translate(-50%, -50%); border:5px solid black"">","","","","","","","",""
"","3510.000000009313","sequential-stimulus-presentation-old","63","279573","0.0-19.0-1.0","SS1619740006087","trial","","40","500","4010.000000009313","images/stimuli/spore_stims/complex_20_A_a.gif","images/stimuli/spore_stims/complex_16_A_b.gif","forced_long","","5","complex_dissimilar","images/stimuli/spore_stims/complex_16_A_b.gif","","","","",""
"","null","html-keyboard-response","64","280695","0.0-19.0-0.1","SS1619740006087","","","null","","","","","","<p><img src= images/blank.png width =""600"" height = ""600"" style=""position:fixed;top:50%; left:50%; transform: translate(-50%, -50%); border:5px solid black"">","","","","","","","",""
"","2203.7149999523535","sequential-stimulus-presentation-old","65","283419","0.0-19.0-1.1","SS1619740006087","trial","","40","500","2703.7149999523535","images/stimuli/spore_stims/complex_20_A_a.gif","images/stimuli/spore_stims/complex_16_A_b.gif","forced_long","","5","complex_dissimilar","images/stimuli/spore_stims/complex_16_A_b.gif","","","","",""
"","null","html-keyboard-response","66","284395","0.0-19.0-0.2","SS1619740006087","","","null","","","","","","<p><img src= images/blank.png width =""600"" height = ""600"" style=""position:fixed;top:50%; left:50%; transform: translate(-50%, -50%); border:5px solid black"">","","","","","","","",""
"","1245.5550000304356","sequential-stimulus-presentation-old","67","286146","0.0-19.0-1.2","SS1619740006087","trial","","40","500","1745.5550000304356","images/stimuli/spore_stims/complex_20_A_a.gif","images/stimuli/spore_stims/complex_16_A_b.gif","forced_long","","5","complex_dissimilar","images/stimuli/spore_stims/complex_16_A_b.gif","","","","",""
"","null","html-keyboard-response","68","287009","0.0-19.0-0.3","SS1619740006087","","","null","","","","","","<p><img src= images/blank.png width =""600"" height = ""600"" style=""position:fixed;top:50%; left:50%; transform: translate(-50%, -50%); border:5px solid black"">","","","","","","","",""
"","2273.9500000025146","sequential-stimulus-presentation-old","69","289793","0.0-19.0-1.3","SS1619740006087","trial","","40","500","2773.9500000025146","images/stimuli/spore_stims/complex_20_A_a.gif","images/stimuli/spore_stims/complex_16_A_b.gif","forced_long","","5","complex_dissimilar","images/stimuli/spore_stims/complex_20_A_a.gif","","","","",""
"","null","html-keyboard-response","70","291028","0.0-19.0-0.4","SS1619740006087","","","null","","","","","","<p><img src= images/blank.png width =""600"" height = ""600"" style=""position:fixed;top:50%; left:50%; transform: translate(-50%, -50%); border:5px solid black"">","","","","","","","",""
"","2578.39999999851","sequential-stimulus-presentation-old","71","294121","0.0-19.0-1.4","SS1619740006087","trial","","40","500","3078.39999999851","images/stimuli/spore_stims/complex_20_A_a.gif","images/stimuli/spore_stims/complex_16_A_b.gif","forced_long","","5","complex_dissimilar","images/stimuli/spore_stims/complex_20_A_a.gif","","","","",""
"","3421.3400000007823","survey-multi-choice","72","297547","0.0-20.0","SS1619740006087","math_question","","","","","","","","","","","","{""Q0"":""7""}","[0]","7","",""
"","null","html-keyboard-response","73","298637","0.0-21.0-0.0","SS1619740006087","","","null","","","","","","<p><img src= images/blank.png width =""600"" height = ""600"" style=""position:fixed;top:50%; left:50%; transform: translate(-50%, -50%); border:5px solid black"">","","","","","","","",""
"","618.7800000188872","sequential-stimulus-presentation-old","74","299769","0.0-21.0-1.0","SS1619740006087","trial","","40","500","1118.7800000188872","images/stimuli/spore_stims/simple_12_A_b.gif","images/stimuli/spore_stims/simple_11_A_a.gif","forced_short","","6","simple_dissimilar","images/stimuli/spore_stims/simple_11_A_a.gif","","","","",""
"","null","html-keyboard-response","75","300776","0.0-21.0-0.1","SS1619740006087","","","null","","","","","","<p><img src= images/blank.png width =""600"" height = ""600"" style=""position:fixed;top:50%; left:50%; transform: translate(-50%, -50%); border:5px solid black"">","","","","","","","",""
"","1640.9199999761768","sequential-stimulus-presentation-old","76","302923","0.0-21.0-1.1","SS1619740006087","trial","","40","500","2140.9199999761768","images/stimuli/spore_stims/simple_12_A_b.gif","images/stimuli/spore_stims/simple_11_A_a.gif","forced_short","","6","simple_dissimilar","images/stimuli/spore_stims/simple_11_A_a.gif","","","","",""
"","null","html-keyboard-response","77","304200","0.0-21.0-0.2","SS1619740006087","","","null","","","","","","<p><img src= images/blank.png width =""600"" height = ""600"" style=""position:fixed;top:50%; left:50%; transform: translate(-50%, -50%); border:5px solid black"">","","","","","","","",""
"","887.2250000131316","sequential-stimulus-presentation-old","78","305594","0.0-21.0-1.2","SS1619740006087","trial","","40","500","1387.2250000131316","images/stimuli/spore_stims/simple_12_A_b.gif","images/stimuli/spore_stims/simple_11_A_a.gif","forced_short","","6","simple_dissimilar","images/stimuli/spore_stims/simple_11_A_a.gif","","","","",""
"","null","html-keyboard-response","79","306510","0.0-21.0-0.3","SS1619740006087","","","null","","","","","","<p><img src= images/blank.png width =""600"" height = ""600"" style=""position:fixed;top:50%; left:50%; transform: translate(-50%, -50%); border:5px solid black"">","","","","","","","",""
"","1063.8900000485592","sequential-stimulus-presentation-old","80","308079","0.0-21.0-1.3","SS1619740006087","trial","","40","500","1563.8900000485592","images/stimuli/spore_stims/simple_12_A_b.gif","images/stimuli/spore_stims/simple_11_A_a.gif","forced_short","","6","simple_dissimilar","images/stimuli/spore_stims/simple_11_A_a.gif","","","","",""
"","null","html-keyboard-response","81","309255","0.0-21.0-0.4","SS1619740006087","","","null","","","","","","<p><img src= images/blank.png width =""600"" height = ""600"" style=""position:fixed;top:50%; left:50%; transform: translate(-50%, -50%); border:5px solid black"">","","","","","","","",""
"","1646.5600000228733","sequential-stimulus-presentation-old","82","311414","0.0-21.0-1.4","SS1619740006087","trial","","40","500","2146.5600000228733","images/stimuli/spore_stims/simple_12_A_b.gif","images/stimuli/spore_stims/simple_11_A_a.gif","forced_short","","6","simple_dissimilar","images/stimuli/spore_stims/simple_12_A_b.gif","","","","",""
"","null","html-keyboard-response","83","312358","0.0-21.0-0.5","SS1619740006087","","","null","","","","","","<p><img src= images/blank.png width =""600"" height = ""600"" style=""position:fixed;top:50%; left:50%; transform: translate(-50%, -50%); border:5px solid black"">","","","","","","","",""
"","933.0100000370294","sequential-stimulus-presentation-old","84","313798","0.0-21.0-1.5","SS1619740006087","trial","","40","500","1433.0100000370294","images/stimuli/spore_stims/simple_12_A_b.gif","images/stimuli/spore_stims/simple_11_A_a.gif","forced_short","","6","simple_dissimilar","images/stimuli/spore_stims/simple_11_A_a.gif","","","","",""
"","3931.7799999844283","survey-multi-choice","85","317735","0.0-22.0","SS1619740006087","math_question","","","","","","","","","","","","{""Q0"":""8""}","[0]","8","",""
"","null","html-keyboard-response","86","318633","0.0-23.0-0.0","SS1619740006087","","","null","","","","","","<p><img src= images/blank.png width =""600"" height = ""600"" style=""position:fixed;top:50%; left:50%; transform: translate(-50%, -50%); border:5px solid black"">","","","","","","","",""
"","471.75999998580664","sequential-stimulus-presentation-old","87","334113","0.0-23.0-1.0","SS1619740006087","trial","","40","500","971.7599999858066","images/stimuli/spore_stims/complex_05_A_a.gif","images/stimuli/spore_stims/complex_08_A_b.gif","forced_long","","7","complex_dissimilar","images/stimuli/spore_stims/complex_08_A_b.gif","","","","",""
"","null","html-keyboard-response","88","335115","0.0-23.0-0.1","SS1619740006087","","","null","","","","","","<p><img src= images/blank.png width =""600"" height = ""600"" style=""position:fixed;top:50%; left:50%; transform: translate(-50%, -50%); border:5px solid black"">","","","","","","","",""
"","1051.969999971334","sequential-stimulus-presentation-old","89","336674","0.0-23.0-1.1","SS1619740006087","trial","","40","500","1551.969999971334","images/stimuli/spore_stims/complex_05_A_a.gif","images/stimuli/spore_stims/complex_08_A_b.gif","forced_long","","7","complex_dissimilar","images/stimuli/spore_stims/complex_08_A_b.gif","","","","",""
"","null","html-keyboard-response","90","337850","0.0-23.0-0.2","SS1619740006087","","","null","","","","","","<p><img src= images/blank.png width =""600"" height = ""600"" style=""position:fixed;top:50%; left:50%; transform: translate(-50%, -50%); border:5px solid black"">","","","","","","","",""
"","1740.7599999569356","sequential-stimulus-presentation-old","91","340097","0.0-23.0-1.2","SS1619740006087","trial","","40","500","2240.7599999569356","images/stimuli/spore_stims/complex_05_A_a.gif","images/stimuli/spore_stims/complex_08_A_b.gif","forced_long","","7","complex_dissimilar","images/stimuli/spore_stims/complex_08_A_b.gif","","","","",""
"","null","html-keyboard-response","92","340912","0.0-23.0-0.3","SS1619740006087","","","null","","","","","","<p><img src= images/blank.png width =""600"" height = ""600"" style=""position:fixed;top:50%; left:50%; transform: translate(-50%, -50%); border:5px solid black"">","","","","","","","",""
"","2837.4100000364706","sequential-stimulus-presentation-old","93","344261","0.0-23.0-1.3","SS1619740006087","trial","","40","500","3337.4100000364706","images/stimuli/spore_stims/complex_05_A_a.gif","images/stimuli/spore_stims/complex_08_A_b.gif","forced_long","","7","complex_dissimilar","images/stimuli/spore_stims/complex_05_A_a.gif","","","","",""
"","null","html-keyboard-response","94","345395","0.0-23.0-0.4","SS1619740006087","","","null","","","","","","<p><img src= images/blank.png width =""600"" height = ""600"" style=""position:fixed;top:50%; left:50%; transform: translate(-50%, -50%); border:5px solid black"">","","","","","","","",""
"","1718.7099999864586","sequential-stimulus-presentation-old","95","347625","0.0-23.0-1.4","SS1619740006087","trial","","40","500","2218.7099999864586","images/stimuli/spore_stims/complex_05_A_a.gif","images/stimuli/spore_stims/complex_08_A_b.gif","forced_long","","7","complex_dissimilar","images/stimuli/spore_stims/complex_05_A_a.gif","","","","",""
"","null","html-keyboard-response","96","348770","0.0-23.0-0.5","SS1619740006087","","","null","","","","","","<p><img src= images/blank.png width =""600"" height = ""600"" style=""position:fixed;top:50%; left:50%; transform: translate(-50%, -50%); border:5px solid black"">","","","","","","","",""
"","1917.81000001356","sequential-stimulus-presentation-old","97","351206","0.0-23.0-1.5","SS1619740006087","trial","","40","500","2417.81000001356","images/stimuli/spore_stims/complex_05_A_a.gif","images/stimuli/spore_stims/complex_08_A_b.gif","forced_long","","7","complex_dissimilar","images/stimuli/spore_stims/complex_08_A_b.gif","","","","",""
"","3707.4500000453554","survey-multi-choice","98","354918","0.0-24.0","SS1619740006087","math_question","","","","","","","","","","","","{""Q0"":""11""}","[0]","11","",""
"","null","html-keyboard-response","99","356107","0.0-25.0-0.0","SS1619740006087","","","null","","","","","","<p><img src= images/blank.png width =""600"" height = ""600"" style=""position:fixed;top:50%; left:50%; transform: translate(-50%, -50%); border:5px solid black"">","","","","","","","",""
"","886.2249999656342","sequential-stimulus-presentation-old","100","357500","0.0-25.0-1.0","SS1619740006087","trial","","40","500","1386.2249999656342","images/stimuli/spore_stims/complex_15_A_b.gif","images/stimuli/spore_stims/complex_03_A_a.gif","forced_short","","8","complex_dissimilar","images/stimuli/spore_stims/complex_03_A_a.gif","","","","",""
"","null","html-keyboard-response","101","358606","0.0-25.0-0.1","SS1619740006087","","","null","","","","","","<p><img src= images/blank.png width =""600"" height = ""600"" style=""position:fixed;top:50%; left:50%; transform: translate(-50%, -50%); border:5px solid black"">","","","","","","","",""
"","2446.689999953378","sequential-stimulus-presentation-old","102","361562","0.0-25.0-1.1","SS1619740006087","trial","","40","500","2946.689999953378","images/stimuli/spore_stims/complex_15_A_b.gif","images/stimuli/spore_stims/complex_03_A_a.gif","forced_short","","8","complex_dissimilar","images/stimuli/spore_stims/complex_03_A_a.gif","","","","",""
"","null","html-keyboard-response","103","362754","0.0-25.0-0.2","SS1619740006087","","","null","","","","","","<p><img src= images/blank.png width =""600"" height = ""600"" style=""position:fixed;top:50%; left:50%; transform: translate(-50%, -50%); border:5px solid black"">","","","","","","","",""
"","2362.3500000103377","sequential-stimulus-presentation-old","104","365623","0.0-25.0-1.2","SS1619740006087","trial","","40","500","2862.3500000103377","images/stimuli/spore_stims/complex_15_A_b.gif","images/stimuli/spore_stims/complex_03_A_a.gif","forced_short","","8","complex_dissimilar","images/stimuli/spore_stims/complex_03_A_a.gif","","","","",""
"","null","html-keyboard-response","105","366657","0.0-25.0-0.3","SS1619740006087","","","null","","","","","","<p><img src= images/blank.png width =""600"" height = ""600"" style=""position:fixed;top:50%; left:50%; transform: translate(-50%, -50%); border:5px solid black"">","","","","","","","",""
"","1340.2600000263192","sequential-stimulus-presentation-old","106","368514","0.0-25.0-1.3","SS1619740006087","trial","","40","500","1840.2600000263192","images/stimuli/spore_stims/complex_15_A_b.gif","images/stimuli/spore_stims/complex_03_A_a.gif","forced_short","","8","complex_dissimilar","images/stimuli/spore_stims/complex_03_A_a.gif","","","","",""
"","3450.345000019297","survey-multi-choice","107","371970","0.0-26.0","SS1619740006087","math_question","","","","","","","","","","","","{""Q0"":""9""}","[0]","9","",""
"","null","html-keyboard-response","108","373169","0.0-27.0-0.0","SS1619740006087","","","null","","","","","","<p><img src= images/blank.png width =""600"" height = ""600"" style=""position:fixed;top:50%; left:50%; transform: translate(-50%, -50%); border:5px solid black"">","","","","","","","",""
"","6933.494999946561","sequential-stimulus-presentation-old","109","380604","0.0-27.0-1.0","SS1619740006087","trial","","40","500","7433.494999946561","images/stimuli/spore_stims/complex_14_A_a.gif","images/stimuli/spore_stims/complex_03_A_b.gif","self_paced","","9","complex_dissimilar","images/stimuli/spore_stims/complex_03_A_b.gif","","","","",""
"","null","html-keyboard-response","110","381593","0.0-27.0-0.1","SS1619740006087","","","null","","","","","","<p><img src= images/blank.png width =""600"" height = ""600"" style=""position:fixed;top:50%; left:50%; transform: translate(-50%, -50%); border:5px solid black"">","","","","","","","",""
"","1628.2999999821186","sequential-stimulus-presentation-old","111","383731","0.0-27.0-1.1","SS1619740006087","trial","","40","500","2128.2999999821186","images/stimuli/spore_stims/complex_14_A_a.gif","images/stimuli/spore_stims/complex_03_A_b.gif","self_paced","","9","complex_dissimilar","images/stimuli/spore_stims/complex_14_A_a.gif","","","","",""
"","null","html-keyboard-response","112","384682","0.0-27.0-0.2","SS1619740006087","","","null","","","","","","<p><img src= images/blank.png width =""600"" height = ""600"" style=""position:fixed;top:50%; left:50%; transform: translate(-50%, -50%); border:5px solid black"">","","","","","","","",""
"","2822.010000003502","sequential-stimulus-presentation-old","113","388014","0.0-27.0-1.2","SS1619740006087","trial","","40","500","3322.010000003502","images/stimuli/spore_stims/complex_14_A_a.gif","images/stimuli/spore_stims/complex_03_A_b.gif","self_paced","","9","complex_dissimilar","images/stimuli/spore_stims/complex_03_A_b.gif","","","","",""
"","null","html-keyboard-response","114","389124","0.0-27.0-0.3","SS1619740006087","","","null","","","","","","<p><img src= images/blank.png width =""600"" height = ""600"" style=""position:fixed;top:50%; left:50%; transform: translate(-50%, -50%); border:5px solid black"">","","","","","","","",""
"","1452.060000039637","sequential-stimulus-presentation-old","115","391091","0.0-27.0-1.3","SS1619740006087","trial","","40","500","1952.060000039637","images/stimuli/spore_stims/complex_14_A_a.gif","images/stimuli/spore_stims/complex_03_A_b.gif","self_paced","","9","complex_dissimilar","images/stimuli/spore_stims/complex_03_A_b.gif","","","","",""
"","4260.959999985062","survey-multi-choice","116","395357","0.0-28.0","SS1619740006087","math_question","","","","","","","","","","","","{""Q0"":""16""}","[0]","16","",""
"","null","html-keyboard-response","117","396558","0.0-29.0-0.0","SS1619740006087","","","null","","","","","","<p><img src= images/blank.png width =""600"" height = ""600"" style=""position:fixed;top:50%; left:50%; transform: translate(-50%, -50%); border:5px solid black"">","","","","","","","",""
"","937.7549999626353","sequential-stimulus-presentation-old","118","398003","0.0-29.0-1.0","SS1619740006087","trial","","40","500","1437.7549999626353","images/stimuli/spore_stims/simple_15_A_b.gif","images/stimuli/spore_stims/simple_01_A_a.gif","self_paced","","10","simple_dissimilar","images/stimuli/spore_stims/simple_01_A_a.gif","","","","",""
"","null","html-keyboard-response","119","399152","0.0-29.0-0.1","SS1619740006087","","","null","","","","","","<p><img src= images/blank.png width =""600"" height = ""600"" style=""position:fixed;top:50%; left:50%; transform: translate(-50%, -50%); border:5px solid black"">","","","","","","","",""
"","1366.7099999729544","sequential-stimulus-presentation-old","120","401028","0.0-29.0-1.1","SS1619740006087","trial","","40","500","1866.7099999729544","images/stimuli/spore_stims/simple_15_A_b.gif","images/stimuli/spore_stims/simple_01_A_a.gif","self_paced","","10","simple_dissimilar","images/stimuli/spore_stims/simple_01_A_a.gif","","","","",""
"","null","html-keyboard-response","121","401875","0.0-29.0-0.2","SS1619740006087","","","null","","","","","","<p><img src= images/blank.png width =""600"" height = ""600"" style=""position:fixed;top:50%; left:50%; transform: translate(-50%, -50%); border:5px solid black"">","","","","","","","",""
"","1226.2299999711104","sequential-stimulus-presentation-old","122","403608","0.0-29.0-1.2","SS1619740006087","trial","","40","500","1726.2299999711104","images/stimuli/spore_stims/simple_15_A_b.gif","images/stimuli/spore_stims/simple_01_A_a.gif","self_paced","","10","simple_dissimilar","images/stimuli/spore_stims/simple_01_A_a.gif","","","","",""
"","null","html-keyboard-response","123","404718","0.0-29.0-0.3","SS1619740006087","","","null","","","","","","<p><img src= images/blank.png width =""600"" height = ""600"" style=""position:fixed;top:50%; left:50%; transform: translate(-50%, -50%); border:5px solid black"">","","","","","","","",""
"","1487.7299999934621","sequential-stimulus-presentation-old","124","406721","0.0-29.0-1.3","SS1619740006087","trial","","40","500","1987.7299999934621","images/stimuli/spore_stims/simple_15_A_b.gif","images/stimuli/spore_stims/simple_01_A_a.gif","self_paced","","10","simple_dissimilar","images/stimuli/spore_stims/simple_15_A_b.gif","","","","",""
"","null","html-keyboard-response","125","407814","0.0-29.0-0.4","SS1619740006087","","","null","","","","","","<p><img src= images/blank.png width =""600"" height = ""600"" style=""position:fixed;top:50%; left:50%; transform: translate(-50%, -50%); border:5px solid black"">","","","","","","","",""
"","1595.2350000152364","sequential-stimulus-presentation-old","126","409915","0.0-29.0-1.4","SS1619740006087","trial","","40","500","2095.2350000152364","images/stimuli/spore_stims/simple_15_A_b.gif","images/stimuli/spore_stims/simple_01_A_a.gif","self_paced","","10","simple_dissimilar","images/stimuli/spore_stims/simple_15_A_b.gif","","","","",""
"","3602.9050000361167","survey-multi-choice","127","413524","0.0-30.0","SS1619740006087","math_question","","","","","","","","","","","","{""Q0"":""8""}","[0]","8","",""
"","null","html-keyboard-response","128","414393","0.0-31.0-0.0","SS1619740006087","","","null","","","","","","<p><img src= images/blank.png width =""600"" height = ""600"" style=""position:fixed;top:50%; left:50%; transform: translate(-50%, -50%); border:5px solid black"">","","","","","","","",""
"","524.9499999918044","sequential-stimulus-presentation-old","129","429929","0.0-31.0-1.0","SS1619740006087","trial","","40","500","1024.9499999918044","images/stimuli/spore_stims/simple_15_A_a.gif","images/stimuli/spore_stims/simple_18_A_b.gif","forced_long","","11","simple_dissimilar","images/stimuli/spore_stims/simple_18_A_b.gif","","","","",""
"","null","html-keyboard-response","130","431096","0.0-31.0-0.1","SS1619740006087","","","null","","","","","","<p><img src= images/blank.png width =""600"" height = ""600"" style=""position:fixed;top:50%; left:50%; transform: translate(-50%, -50%); border:5px solid black"">","","","","","","","",""
"","1469.6550000226125","sequential-stimulus-presentation-old","131","433076","0.0-31.0-1.1","SS1619740006087","trial","","40","500","1969.6550000226125","images/stimuli/spore_stims/simple_15_A_a.gif","images/stimuli/spore_stims/simple_18_A_b.gif","forced_long","","11","simple_dissimilar","images/stimuli/spore_stims/simple_18_A_b.gif","","","","",""
"","null","html-keyboard-response","132","434193","0.0-31.0-0.2","SS1619740006087","","","null","","","","","","<p><img src= images/blank.png width =""600"" height = ""600"" style=""position:fixed;top:50%; left:50%; transform: translate(-50%, -50%); border:5px solid black"">","","","","","","","",""
"","1314.7099999478087","sequential-stimulus-presentation-old","133","436019","0.0-31.0-1.2","SS1619740006087","trial","","40","500","1814.7099999478087","images/stimuli/spore_stims/simple_15_A_a.gif","images/stimuli/spore_stims/simple_18_A_b.gif","forced_long","","11","simple_dissimilar","images/stimuli/spore_stims/simple_18_A_b.gif","","","","",""
"","null","html-keyboard-response","134","437178","0.0-31.0-0.3","SS1619740006087","","","null","","","","","","<p><img src= images/blank.png width =""600"" height = ""600"" style=""position:fixed;top:50%; left:50%; transform: translate(-50%, -50%); border:5px solid black"">","","","","","","","",""
"","1248.569999996107","sequential-stimulus-presentation-old","135","438956","0.0-31.0-1.3","SS1619740006087","trial","","40","500","1748.569999996107","images/stimuli/spore_stims/simple_15_A_a.gif","images/stimuli/spore_stims/simple_18_A_b.gif","forced_long","","11","simple_dissimilar","images/stimuli/spore_stims/simple_18_A_b.gif","","","","",""
"","null","html-keyboard-response","136","440225","0.0-31.0-0.4","SS1619740006087","","","null","","","","","","<p><img src= images/blank.png width =""600"" height = ""600"" style=""position:fixed;top:50%; left:50%; transform: translate(-50%, -50%); border:5px solid black"">","","","","","","","",""
"","986.254999996163","sequential-stimulus-presentation-old","137","441718","0.0-31.0-1.4","SS1619740006087","trial","","40","500","1486.254999996163","images/stimuli/spore_stims/simple_15_A_a.gif","images/stimuli/spore_stims/simple_18_A_b.gif","forced_long","","11","simple_dissimilar","images/stimuli/spore_stims/simple_18_A_b.gif","","","","",""
"[{""page_index"":0,""viewing_time"":4286.774999985937}]","4287.229999958072","instructions","138","446011","0.0-32.0","SS1619740006087","instructions","","","","","","","","","","","","","","","",""
"","9038.55499997735","survey-likert","139","455059","0.0-33.0","SS1619740006087","similarity_question","","","","","","","","","","","","{""Q0"":2}","[0]","","images/stimuli/spore_stims/complex_16_A_b.gif","images/stimuli/spore_stims/complex_20_A_a.gif"
"","5138.485000003129","survey-likert","140","460207","0.0-34.0","SS1619740006087","similarity_question","","","","","","","","","","","","{""Q0"":4}","[0]","","images/stimuli/spore_stims/simple_15_A_a.gif","images/stimuli/spore_stims/simple_18_A_b.gif"
"","4574.454999994487","survey-likert","141","464790","0.0-35.0","SS1619740006087","similarity_question","","","","","","","","","","","","{""Q0"":1}","[0]","","images/stimuli/spore_stims/complex_15_A_b.gif","images/stimuli/spore_stims/complex_03_A_a.gif"
"","3490.77999999281","survey-likert","142","468288","0.0-36.0","SS1619740006087","similarity_question","","","","","","","","","","","","{""Q0"":1}","[0]","","images/stimuli/spore_stims/complex_14_A_a.gif","images/stimuli/spore_stims/complex_03_A_b.gif"
"","4638.815000012983","survey-likert","143","472936","0.0-37.0","SS1619740006087","similarity_question","","","","","","","","","","","","{""Q0"":2}","[0]","","images/stimuli/spore_stims/simple_07_A_a.gif","images/stimuli/spore_stims/simple_04_A_b.gif"
"","8074.970000016037","survey-likert","144","481019","0.0-38.0","SS1619740006087","similarity_question","","","","","","","","","","","","{""Q0"":4}","[0]","","images/stimuli/spore_stims/complex_07_A_b.gif","images/stimuli/spore_stims/complex_18_A_a.gif"
"","3694.5949999499135","survey-likert","145","484722","0.0-39.0","SS1619740006087","similarity_question","","","","","","","","","","","","{""Q0"":5}","[0]","","images/stimuli/spore_stims/simple_05_A_b.gif","images/stimuli/spore_stims/simple_06_A_a.gif"
"","9798.985000001267","survey-likert","146","494529","0.0-40.0","SS1619740006087","similarity_question","","","","","","","","","","","","{""Q0"":5}","[0]","","images/stimuli/spore_stims/simple_15_A_b.gif","images/stimuli/spore_stims/simple_01_A_a.gif"
"","6356.58500000136","survey-likert","147","500894","0.0-41.0","SS1619740006087","similarity_question","","","","","","","","","","","","{""Q0"":4}","[0]","","images/stimuli/spore_stims/complex_20_A_b.gif","images/stimuli/spore_stims/complex_09_A_a.gif"
"","4023.6400000285357","survey-likert","148","504936","0.0-42.0","SS1619740006087","similarity_question","","","","","","","","","","","","{""Q0"":1}","[0]","","images/stimuli/spore_stims/complex_08_A_b.gif","images/stimuli/spore_stims/complex_05_A_a.gif"
"","5863.26499999268","survey-likert","149","510808","0.0-43.0","SS1619740006087","similarity_question","","","","","","","","","","","","{""Q0"":3}","[0]","","images/stimuli/spore_stims/simple_12_A_b.gif","images/stimuli/spore_stims/simple_11_A_a.gif"
"","2873.6900000367314","survey-likert","150","513690","0.0-44.0","SS1619740006087","similarity_question","","","","","","","","","","","","{""Q0"":4}","[0]","","images/stimuli/spore_stims/simple_01_A_b.gif","images/stimuli/spore_stims/simple_05_A_a.gif"
"[{""page_index"":0,""viewing_time"":3501.6550000291318}]","3502.069999987725","instructions","151","517202","0.0-45.0","SS1619740006087","instructions","","","","","","","","","","","","","","","",""
"","4389.214999973774","survey-likert","152","521598","0.0-46.0","SS1619740006087","","","","","","","","","images/stimuli/spore_stims/simple_15_A_b.gif","","","","{""Q0"":1}","[0]","","",""
"","2655.045000021346","survey-likert","153","524262","0.0-47.0","SS1619740006087","","","","","","","","","images/stimuli/spore_stims/complex_16_A_b.gif","","","","{""Q0"":5}","[0]","","",""
"","2927.8449999983422","survey-likert","154","527198","0.0-48.0","SS1619740006087","","","","","","","","","images/stimuli/spore_stims/simple_06_A_a.gif","","","","{""Q0"":1}","[0]","","",""
"","2071.5799999888986","survey-likert","155","529278","0.0-49.0","SS1619740006087","","","","","","","","","images/stimuli/spore_stims/simple_18_A_b.gif","","","","{""Q0"":2}","[0]","","",""
"","3025.6650000228547","survey-likert","156","532314","0.0-50.0","SS1619740006087","","","","","","","","","images/stimuli/spore_stims/complex_09_A_a.gif","","","","{""Q0"":6}","[0]","","",""
"","2982.93499997817","survey-likert","157","535305","0.0-51.0","SS1619740006087","","","","","","","","","images/stimuli/spore_stims/complex_18_A_a.gif","","","","{""Q0"":6}","[0]","","",""
"","1671.8549999641255","survey-likert","158","536984","0.0-52.0","SS1619740006087","","","","","","","","","images/stimuli/spore_stims/simple_05_A_a.gif","","","","{""Q0"":0}","[0]","","",""
"","1609.5399999758229","survey-likert","159","538602","0.0-53.0","SS1619740006087","","","","","","","","","images/stimuli/spore_stims/complex_03_A_a.gif","","","","{""Q0"":5}","[0]","","",""
"","1764.7600000491366","survey-likert","160","540376","0.0-54.0","SS1619740006087","","","","","","","","","images/stimuli/spore_stims/simple_07_A_a.gif","","","","{""Q0"":1}","[0]","","",""
"","1743.724999949336","survey-likert","161","542128","0.0-55.0","SS1619740006087","","","","","","","","","images/stimuli/spore_stims/complex_14_A_a.gif","","","","{""Q0"":5}","[0]","","",""
"","1587.4250000342727","survey-likert","162","543724","0.0-56.0","SS1619740006087","","","","","","","","","images/stimuli/spore_stims/complex_05_A_a.gif","","","","{""Q0"":5}","[0]","","",""
"","1977.87000000244","survey-likert","163","545711","0.0-57.0","SS1619740006087","","","","","","","","","images/stimuli/spore_stims/simple_12_A_b.gif","","","","{""Q0"":1}","[0]","","",""
"[{""page_index"":0,""viewing_time"":1066.5249999728985}]","1066.8050000094809","instructions","164","546786","0.0-58.0","SS1619740006087","instructions","","","","","","","","","","","","","","","",""
"","1887.9150000284426","demog-age","165","548686","0.0-59.0","SS1619740006087","","","","","","","","","","","","","{""age"":""25""}","","","",""
"","2870.9750000271015","demog-ethnic-US","166","551571","0.0-60.0","SS1619740006087","","","","","","","","","","","","","{""ethnicity"":[""White""]}","[0]","","",""
"","3539.0100000076927","demog-gender-and-education","167","555118","0.0-61.0","SS1619740006087","","","","","","","","","","","","","{""gender"":""Female"",""education"":""Bachelor's Degree""}","[0,1]","","",""
"","6735.370000009425","survey-text","168","561867","0.0-62.0","SS1619740006087","feedback","","","","","","","","","","","","{""Q0"":""None""}","","","",""
"[{""page_index"":0,""viewing_time"":2477.309999987483}]","2477.7999999932945","instructions","169","564353","0.0-63.0","SS1619740006087","instructions","","","","","","","","","","","","","","","",""
