"view_history","rt","trial_type","trial_index","time_elapsed","internal_node_id","subject","stimulus_type","trial_stimulus","key_press","minimum_viewing_duration","trial_looking_time","block_deviant","block_background","exposure_type","stimulus","block_number","block_type","stimulus_displayed","responses","question_order","math_correct_answer","stimulus_left","stimulus_right"
"[{""page_index"":0,""viewing_time"":18317.83500000165}]","18318.780000001425","instructions","0","18321","0.0-0.0","SS1619739457003","","","","","","","","","","","","","","","","",""
"[{""page_index"":0,""viewing_time"":19283.220000001165},{""page_index"":1,""viewing_time"":8601.834999997664}]","27885.33499999903","instructions","1","48222","0.0-1.0","SS1619739457003","instructions","","","","","","","","","","","","","","","",""
"","7822.724999998172","sequential-stimulus-presentation-old","2","56549","0.0-2.0","SS1619739457003","","","40","500","8322.724999998172","null","null","self_paced","","","","","","","","",""
"","3213.7150000016845","sequential-stimulus-presentation-old","3","60268","0.0-3.0","SS1619739457003","","","40","500","3713.7150000016845","null","null","self_paced","","","","","","","","",""
"[{""page_index"":0,""viewing_time"":22172.350000000733}]","22172.68999999942","instructions","4","82442","0.0-4.0","SS1619739457003","instructions","","","","","","","","","","","","","","","",""
"","2235.0750000005064","sequential-stimulus-presentation-old","5","99695","0.0-5.0","SS1619739457003","","","40","500","2735.0750000005064","null","null","forced_long","","","","","","","","",""
"","3766.2900000032096","sequential-stimulus-presentation-old","6","103974","0.0-6.0","SS1619739457003","","","40","500","4266.29000000321","null","null","forced_long","","","","","","","","",""
"[{""page_index"":0,""viewing_time"":5534.1000000007625}]","5534.4150000019","instructions","7","109510","0.0-7.0","SS1619739457003","instructions","","","","","","","","","","","","","","","",""
"[{""page_index"":0,""viewing_time"":12704.77000000028},{""page_index"":1,""viewing_time"":13171.64000000048},{""page_index"":2,""viewing_time"":7640.2799999996205},{""page_index"":3,""viewing_time"":3495.425000000978},{""page_index"":4,""viewing_time"":2431.704999999056}]","39444.08499999918","instructions","8","148954","0.0-8.0","SS1619739457003","instructions","","","","","","","","","","","","","","","",""
"","null","html-keyboard-response","9","150005","0.0-9.0-0.0","SS1619739457003","","","null","","","","","","<p><img src= images/blank.png width =""600"" height = ""600"" style=""position:fixed;top:50%; left:50%; transform: translate(-50%, -50%); border:5px solid black"">","","","","","","","",""
"","3222.1799999970244","sequential-stimulus-presentation-old","10","153732","0.0-9.0-1.0","SS1619739457003","trial","","40","500","3722.1799999970244","images/stimuli/spore_stims/simple_08_A_a.gif","images/stimuli/spore_stims/simple_20_A_b.gif","forced_short","","0","simple_dissimilar","images/stimuli/spore_stims/simple_20_A_b.gif","","","","",""
"","null","html-keyboard-response","11","155009","0.0-9.0-0.1","SS1619739457003","","","null","","","","","","<p><img src= images/blank.png width =""600"" height = ""600"" style=""position:fixed;top:50%; left:50%; transform: translate(-50%, -50%); border:5px solid black"">","","","","","","","",""
"","42028.86000000217","sequential-stimulus-presentation-old","12","197543","0.0-9.0-1.1","SS1619739457003","trial","","40","500","42528.86000000217","images/stimuli/spore_stims/simple_08_A_a.gif","images/stimuli/spore_stims/simple_20_A_b.gif","forced_short","","0","simple_dissimilar","images/stimuli/spore_stims/simple_20_A_b.gif","","","","",""
"","null","html-keyboard-response","13","198779","0.0-9.0-0.2","SS1619739457003","","","null","","","","","","<p><img src= images/blank.png width =""600"" height = ""600"" style=""position:fixed;top:50%; left:50%; transform: translate(-50%, -50%); border:5px solid black"">","","","","","","","",""
"","27488.99999999776","sequential-stimulus-presentation-old","14","226771","0.0-9.0-1.2","SS1619739457003","trial","","40","500","27988.99999999776","images/stimuli/spore_stims/simple_08_A_a.gif","images/stimuli/spore_stims/simple_20_A_b.gif","forced_short","","0","simple_dissimilar","images/stimuli/spore_stims/simple_20_A_b.gif","","","","",""
"","null","html-keyboard-response","15","227792","0.0-9.0-0.3","SS1619739457003","","","null","","","","","","<p><img src= images/blank.png width =""600"" height = ""600"" style=""position:fixed;top:50%; left:50%; transform: translate(-50%, -50%); border:5px solid black"">","","","","","","","",""
"","26855.02500000075","sequential-stimulus-presentation-old","16","255154","0.0-9.0-1.3","SS1619739457003","trial","","40","500","27355.02500000075","images/stimuli/spore_stims/simple_08_A_a.gif","images/stimuli/spore_stims/simple_20_A_b.gif","forced_short","","0","simple_dissimilar","images/stimuli/spore_stims/simple_20_A_b.gif","","","","",""
"","null","html-keyboard-response","17","256204","0.0-9.0-0.4","SS1619739457003","","","null","","","","","","<p><img src= images/blank.png width =""600"" height = ""600"" style=""position:fixed;top:50%; left:50%; transform: translate(-50%, -50%); border:5px solid black"">","","","","","","","",""
"","26913.96000000168","sequential-stimulus-presentation-old","18","283627","0.0-9.0-1.4","SS1619739457003","trial","","40","500","27413.96000000168","images/stimuli/spore_stims/simple_08_A_a.gif","images/stimuli/spore_stims/simple_20_A_b.gif","forced_short","","0","simple_dissimilar","images/stimuli/spore_stims/simple_08_A_a.gif","","","","",""
"","6122.35000000149","survey-multi-choice","19","289754","0.0-10.0","SS1619739457003","math_question","","","","","","","","","","","","{""Q0"":""8""}","[0]","8","",""
"","null","html-keyboard-response","20","291009","0.0-11.0-0.0","SS1619739457003","","","null","","","","","","<p><img src= images/blank.png width =""600"" height = ""600"" style=""position:fixed;top:50%; left:50%; transform: translate(-50%, -50%); border:5px solid black"">","","","","","","","",""
"","20885.13000000239","sequential-stimulus-presentation-old","21","312397","0.0-11.0-1.0","SS1619739457003","trial","","40","500","21385.13000000239","images/stimuli/spore_stims/simple_13_A_a.gif","images/stimuli/spore_stims/simple_12_A_b.gif","self_paced","","1","simple_dissimilar","images/stimuli/spore_stims/simple_12_A_b.gif","","","","",""
"","null","html-keyboard-response","22","313577","0.0-11.0-0.1","SS1619739457003","","","null","","","","","","<p><img src= images/blank.png width =""600"" height = ""600"" style=""position:fixed;top:50%; left:50%; transform: translate(-50%, -50%); border:5px solid black"">","","","","","","","",""
"","21980.349999997998","sequential-stimulus-presentation-old","23","336061","0.0-11.0-1.1","SS1619739457003","trial","","40","500","22480.349999997998","images/stimuli/spore_stims/simple_13_A_a.gif","images/stimuli/spore_stims/simple_12_A_b.gif","self_paced","","1","simple_dissimilar","images/stimuli/spore_stims/simple_12_A_b.gif","","","","",""
"","null","html-keyboard-response","24","336939","0.0-11.0-0.2","SS1619739457003","","","null","","","","","","<p><img src= images/blank.png width =""600"" height = ""600"" style=""position:fixed;top:50%; left:50%; transform: translate(-50%, -50%); border:5px solid black"">","","","","","","","",""
"","17504.815000000235","sequential-stimulus-presentation-old","25","354947","0.0-11.0-1.2","SS1619739457003","trial","","40","500","18004.815000000235","images/stimuli/spore_stims/simple_13_A_a.gif","images/stimuli/spore_stims/simple_12_A_b.gif","self_paced","","1","simple_dissimilar","images/stimuli/spore_stims/simple_13_A_a.gif","","","","",""
"","null","html-keyboard-response","26","355874","0.0-11.0-0.3","SS1619739457003","","","null","","","","","","<p><img src= images/blank.png width =""600"" height = ""600"" style=""position:fixed;top:50%; left:50%; transform: translate(-50%, -50%); border:5px solid black"">","","","","","","","",""
"","15393.229999997828","sequential-stimulus-presentation-old","27","371780","0.0-11.0-1.3","SS1619739457003","trial","","40","500","15893.229999997828","images/stimuli/spore_stims/simple_13_A_a.gif","images/stimuli/spore_stims/simple_12_A_b.gif","self_paced","","1","simple_dissimilar","images/stimuli/spore_stims/simple_12_A_b.gif","","","","",""
"","null","html-keyboard-response","28","372607","0.0-11.0-0.4","SS1619739457003","","","null","","","","","","<p><img src= images/blank.png width =""600"" height = ""600"" style=""position:fixed;top:50%; left:50%; transform: translate(-50%, -50%); border:5px solid black"">","","","","","","","",""
"","27467.575000002398","sequential-stimulus-presentation-old","29","400580","0.0-11.0-1.4","SS1619739457003","trial","","40","500","27967.575000002398","images/stimuli/spore_stims/simple_13_A_a.gif","images/stimuli/spore_stims/simple_12_A_b.gif","self_paced","","1","simple_dissimilar","images/stimuli/spore_stims/simple_13_A_a.gif","","","","",""
"","5838.464999993448","survey-multi-choice","30","406421","0.0-12.0","SS1619739457003","math_question","","","","","","","","","","","","{""Q0"":""14""}","[0]","14","",""
"","null","html-keyboard-response","31","407700","0.0-13.0-0.0","SS1619739457003","","","null","","","","","","<p><img src= images/blank.png width =""600"" height = ""600"" style=""position:fixed;top:50%; left:50%; transform: translate(-50%, -50%); border:5px solid black"">","","","","","","","",""
"","2355.73000000295","sequential-stimulus-presentation-old","32","425060","0.0-13.0-1.0","SS1619739457003","trial","","40","500","2855.73000000295","images/stimuli/spore_stims/simple_14_A_a.gif","images/stimuli/spore_stims/simple_03_A_b.gif","forced_long","","2","simple_dissimilar","images/stimuli/spore_stims/simple_03_A_b.gif","","","","",""
"","null","html-keyboard-response","33","425886","0.0-13.0-0.1","SS1619739457003","","","null","","","","","","<p><img src= images/blank.png width =""600"" height = ""600"" style=""position:fixed;top:50%; left:50%; transform: translate(-50%, -50%); border:5px solid black"">","","","","","","","",""
"","21340.570000000298","sequential-stimulus-presentation-old","34","447732","0.0-13.0-1.1","SS1619739457003","trial","","40","500","21840.570000000298","images/stimuli/spore_stims/simple_14_A_a.gif","images/stimuli/spore_stims/simple_03_A_b.gif","forced_long","","2","simple_dissimilar","images/stimuli/spore_stims/simple_03_A_b.gif","","","","",""
"","null","html-keyboard-response","35","448676","0.0-13.0-0.2","SS1619739457003","","","null","","","","","","<p><img src= images/blank.png width =""600"" height = ""600"" style=""position:fixed;top:50%; left:50%; transform: translate(-50%, -50%); border:5px solid black"">","","","","","","","",""
"","16203.310000004421","sequential-stimulus-presentation-old","36","465383","0.0-13.0-1.2","SS1619739457003","trial","","40","500","16703.31000000442","images/stimuli/spore_stims/simple_14_A_a.gif","images/stimuli/spore_stims/simple_03_A_b.gif","forced_long","","2","simple_dissimilar","images/stimuli/spore_stims/simple_03_A_b.gif","","","","",""
"","null","html-keyboard-response","37","466347","0.0-13.0-0.3","SS1619739457003","","","null","","","","","","<p><img src= images/blank.png width =""600"" height = ""600"" style=""position:fixed;top:50%; left:50%; transform: translate(-50%, -50%); border:5px solid black"">","","","","","","","",""
"","22068.205000003218","sequential-stimulus-presentation-old","38","488921","0.0-13.0-1.3","SS1619739457003","trial","","40","500","22568.205000003218","images/stimuli/spore_stims/simple_14_A_a.gif","images/stimuli/spore_stims/simple_03_A_b.gif","forced_long","","2","simple_dissimilar","images/stimuli/spore_stims/simple_14_A_a.gif","","","","",""
"","null","html-keyboard-response","39","490133","0.0-13.0-0.4","SS1619739457003","","","null","","","","","","<p><img src= images/blank.png width =""600"" height = ""600"" style=""position:fixed;top:50%; left:50%; transform: translate(-50%, -50%); border:5px solid black"">","","","","","","","",""
"","26000.850000003993","sequential-stimulus-presentation-old","40","516637","0.0-13.0-1.4","SS1619739457003","trial","","40","500","26500.850000003993","images/stimuli/spore_stims/simple_14_A_a.gif","images/stimuli/spore_stims/simple_03_A_b.gif","forced_long","","2","simple_dissimilar","images/stimuli/spore_stims/simple_14_A_a.gif","","","","",""
"","4729.429999999411","survey-multi-choice","41","521370","0.0-14.0","SS1619739457003","math_question","","","","","","","","","","","","{""Q0"":""2""}","[0]","2","",""
"","null","html-keyboard-response","42","522375","0.0-15.0-0.0","SS1619739457003","","","null","","","","","","<p><img src= images/blank.png width =""600"" height = ""600"" style=""position:fixed;top:50%; left:50%; transform: translate(-50%, -50%); border:5px solid black"">","","","","","","","",""
"","2705.614999998943","sequential-stimulus-presentation-old","43","525585","0.0-15.0-1.0","SS1619739457003","trial","","40","500","3205.614999998943","images/stimuli/spore_stims/complex_15_A_b.gif","images/stimuli/spore_stims/complex_14_A_a.gif","forced_short","","3","complex_dissimilar","images/stimuli/spore_stims/complex_14_A_a.gif","","","","",""
"","null","html-keyboard-response","44","526657","0.0-15.0-0.1","SS1619739457003","","","null","","","","","","<p><img src= images/blank.png width =""600"" height = ""600"" style=""position:fixed;top:50%; left:50%; transform: translate(-50%, -50%); border:5px solid black"">","","","","","","","",""
"","16729.89499999676","sequential-stimulus-presentation-old","45","543892","0.0-15.0-1.1","SS1619739457003","trial","","40","500","17229.89499999676","images/stimuli/spore_stims/complex_15_A_b.gif","images/stimuli/spore_stims/complex_14_A_a.gif","forced_short","","3","complex_dissimilar","images/stimuli/spore_stims/complex_14_A_a.gif","","","","",""
"","null","html-keyboard-response","46","545099","0.0-15.0-0.2","SS1619739457003","","","null","","","","","","<p><img src= images/blank.png width =""600"" height = ""600"" style=""position:fixed;top:50%; left:50%; transform: translate(-50%, -50%); border:5px solid black"">","","","","","","","",""
"","17240.935000001686","sequential-stimulus-presentation-old","47","562845","0.0-15.0-1.2","SS1619739457003","trial","","40","500","17740.935000001686","images/stimuli/spore_stims/complex_15_A_b.gif","images/stimuli/spore_stims/complex_14_A_a.gif","forced_short","","3","complex_dissimilar","images/stimuli/spore_stims/complex_14_A_a.gif","","","","",""
"","null","html-keyboard-response","48","564034","0.0-15.0-0.3","SS1619739457003","","","null","","","","","","<p><img src= images/blank.png width =""600"" height = ""600"" style=""position:fixed;top:50%; left:50%; transform: translate(-50%, -50%); border:5px solid black"">","","","","","","","",""
"","16811.515000001178","sequential-stimulus-presentation-old","49","581350","0.0-15.0-1.3","SS1619739457003","trial","","40","500","17311.515000001178","images/stimuli/spore_stims/complex_15_A_b.gif","images/stimuli/spore_stims/complex_14_A_a.gif","forced_short","","3","complex_dissimilar","images/stimuli/spore_stims/complex_14_A_a.gif","","","","",""
"","5033.390000004205","survey-multi-choice","50","586386","0.0-16.0","SS1619739457003","math_question","","","","","","","","","","","","{""Q0"":""8""}","[0]","8","",""
"","null","html-keyboard-response","51","587637","0.0-17.0-0.0","SS1619739457003","","","null","","","","","","<p><img src= images/blank.png width =""600"" height = ""600"" style=""position:fixed;top:50%; left:50%; transform: translate(-50%, -50%); border:5px solid black"">","","","","","","","",""
"","840.4550000050804","sequential-stimulus-presentation-old","52","603483","0.0-17.0-1.0","SS1619739457003","trial","","40","500","1340.4550000050804","images/stimuli/spore_stims/complex_18_A_b.gif","images/stimuli/spore_stims/complex_02_A_a.gif","forced_long","","4","complex_dissimilar","images/stimuli/spore_stims/complex_02_A_a.gif","","","","",""
"","null","html-keyboard-response","53","604698","0.0-17.0-0.1","SS1619739457003","","","null","","","","","","<p><img src= images/blank.png width =""600"" height = ""600"" style=""position:fixed;top:50%; left:50%; transform: translate(-50%, -50%); border:5px solid black"">","","","","","","","",""
"","21969.774999997695","sequential-stimulus-presentation-old","54","627185","0.0-17.0-1.1","SS1619739457003","trial","","40","500","22469.774999997695","images/stimuli/spore_stims/complex_18_A_b.gif","images/stimuli/spore_stims/complex_02_A_a.gif","forced_long","","4","complex_dissimilar","images/stimuli/spore_stims/complex_18_A_b.gif","","","","",""
"","null","html-keyboard-response","55","628447","0.0-17.0-0.2","SS1619739457003","","","null","","","","","","<p><img src= images/blank.png width =""600"" height = ""600"" style=""position:fixed;top:50%; left:50%; transform: translate(-50%, -50%); border:5px solid black"">","","","","","","","",""
"","20835.699999995995","sequential-stimulus-presentation-old","56","649787","0.0-17.0-1.2","SS1619739457003","trial","","40","500","21335.699999995995","images/stimuli/spore_stims/complex_18_A_b.gif","images/stimuli/spore_stims/complex_02_A_a.gif","forced_long","","4","complex_dissimilar","images/stimuli/spore_stims/complex_02_A_a.gif","","","","",""
"","null","html-keyboard-response","57","650890","0.0-17.0-0.3","SS1619739457003","","","null","","","","","","<p><img src= images/blank.png width =""600"" height = ""600"" style=""position:fixed;top:50%; left:50%; transform: translate(-50%, -50%); border:5px solid black"">","","","","","","","",""
"","15576.174999994691","sequential-stimulus-presentation-old","58","666970","0.0-17.0-1.3","SS1619739457003","trial","","40","500","16076.174999994691","images/stimuli/spore_stims/complex_18_A_b.gif","images/stimuli/spore_stims/complex_02_A_a.gif","forced_long","","4","complex_dissimilar","images/stimuli/spore_stims/complex_02_A_a.gif","","","","",""
"","null","html-keyboard-response","59","667960","0.0-17.0-0.4","SS1619739457003","","","null","","","","","","<p><img src= images/blank.png width =""600"" height = ""600"" style=""position:fixed;top:50%; left:50%; transform: translate(-50%, -50%); border:5px solid black"">","","","","","","","",""
"","19551.43999999552","sequential-stimulus-presentation-old","60","688016","0.0-17.0-1.4","SS1619739457003","trial","","40","500","20051.43999999552","images/stimuli/spore_stims/complex_18_A_b.gif","images/stimuli/spore_stims/complex_02_A_a.gif","forced_long","","4","complex_dissimilar","images/stimuli/spore_stims/complex_02_A_a.gif","","","","",""
"","null","html-keyboard-response","61","688878","0.0-17.0-0.5","SS1619739457003","","","null","","","","","","<p><img src= images/blank.png width =""600"" height = ""600"" style=""position:fixed;top:50%; left:50%; transform: translate(-50%, -50%); border:5px solid black"">","","","","","","","",""
"","10817.380000000354","sequential-stimulus-presentation-old","62","700200","0.0-17.0-1.5","SS1619739457003","trial","","40","500","11317.380000000354","images/stimuli/spore_stims/complex_18_A_b.gif","images/stimuli/spore_stims/complex_02_A_a.gif","forced_long","","4","complex_dissimilar","images/stimuli/spore_stims/complex_02_A_a.gif","","","","",""
"","5472.805000004941","survey-multi-choice","63","705676","0.0-18.0","SS1619739457003","math_question","","","","","","","","","","","","{""Q0"":""14""}","[0]","14","",""
"","null","html-keyboard-response","64","706535","0.0-19.0-0.0","SS1619739457003","","","null","","","","","","<p><img src= images/blank.png width =""600"" height = ""600"" style=""position:fixed;top:50%; left:50%; transform: translate(-50%, -50%); border:5px solid black"">","","","","","","","",""
"","2274.3449999981094","sequential-stimulus-presentation-old","65","709314","0.0-19.0-1.0","SS1619739457003","trial","","40","500","2774.3449999981094","images/stimuli/spore_stims/simple_20_A_a.gif","images/stimuli/spore_stims/simple_15_A_b.gif","forced_short","","5","simple_dissimilar","images/stimuli/spore_stims/simple_15_A_b.gif","","","","",""
"","null","html-keyboard-response","66","710476","0.0-19.0-0.1","SS1619739457003","","","null","","","","","","<p><img src= images/blank.png width =""600"" height = ""600"" style=""position:fixed;top:50%; left:50%; transform: translate(-50%, -50%); border:5px solid black"">","","","","","","","",""
"","11719.5999999966","sequential-stimulus-presentation-old","67","722701","0.0-19.0-1.1","SS1619739457003","trial","","40","500","12219.5999999966","images/stimuli/spore_stims/simple_20_A_a.gif","images/stimuli/spore_stims/simple_15_A_b.gif","forced_short","","5","simple_dissimilar","images/stimuli/spore_stims/simple_15_A_b.gif","","","","",""
"","null","html-keyboard-response","68","723980","0.0-19.0-0.2","SS1619739457003","","","null","","","","","","<p><img src= images/blank.png width =""600"" height = ""600"" style=""position:fixed;top:50%; left:50%; transform: translate(-50%, -50%); border:5px solid black"">","","","","","","","",""
"","14487.440000004368","sequential-stimulus-presentation-old","69","738971","0.0-19.0-1.2","SS1619739457003","trial","","40","500","14987.440000004368","images/stimuli/spore_stims/simple_20_A_a.gif","images/stimuli/spore_stims/simple_15_A_b.gif","forced_short","","5","simple_dissimilar","images/stimuli/spore_stims/simple_15_A_b.gif","","","","",""
"","null","html-keyboard-response","70","739967","0.0-19.0-0.3","SS1619739457003","","","null","","","","","","<p><img src= images/blank.png width =""600"" height = ""600"" style=""position:fixed;top:50%; left:50%; transform: translate(-50%, -50%); border:5px solid black"">","","","","","","","",""
"","11897.67500000028","sequential-stimulus-presentation-old","71","752371","0.0-19.0-1.3","SS1619739457003","trial","","40","500","12397.67500000028","images/stimuli/spore_stims/simple_20_A_a.gif","images/stimuli/spore_stims/simple_15_A_b.gif","forced_short","","5","simple_dissimilar","images/stimuli/spore_stims/simple_15_A_b.gif","","","","",""
"","null","html-keyboard-response","72","753455","0.0-19.0-0.4","SS1619739457003","","","null","","","","","","<p><img src= images/blank.png width =""600"" height = ""600"" style=""position:fixed;top:50%; left:50%; transform: translate(-50%, -50%); border:5px solid black"">","","","","","","","",""
"","15707.860000002314","sequential-stimulus-presentation-old","73","769668","0.0-19.0-1.4","SS1619739457003","trial","","40","500","16207.860000002314","images/stimuli/spore_stims/simple_20_A_a.gif","images/stimuli/spore_stims/simple_15_A_b.gif","forced_short","","5","simple_dissimilar","images/stimuli/spore_stims/simple_15_A_b.gif","","","","",""
"","null","html-keyboard-response","74","770633","0.0-19.0-0.5","SS1619739457003","","","null","","","","","","<p><img src= images/blank.png width =""600"" height = ""600"" style=""position:fixed;top:50%; left:50%; transform: translate(-50%, -50%); border:5px solid black"">","","","","","","","",""
"","10543.380000002915","sequential-stimulus-presentation-old","75","781689","0.0-19.0-1.5","SS1619739457003","trial","","40","500","11043.380000002915","images/stimuli/spore_stims/simple_20_A_a.gif","images/stimuli/spore_stims/simple_15_A_b.gif","forced_short","","5","simple_dissimilar","images/stimuli/spore_stims/simple_15_A_b.gif","","","","",""
"","8937.534999997355","survey-multi-choice","76","790630","0.0-20.0","SS1619739457003","math_question","","","","","","","","","","","","{""Q0"":""13""}","[0]","13","",""
"","null","html-keyboard-response","77","791592","0.0-21.0-0.0","SS1619739457003","","","null","","","","","","<p><img src= images/blank.png width =""600"" height = ""600"" style=""position:fixed;top:50%; left:50%; transform: translate(-50%, -50%); border:5px solid black"">","","","","","","","",""
"","21995.365000002435","sequential-stimulus-presentation-old","78","814093","0.0-21.0-1.0","SS1619739457003","trial","","40","500","22495.365000002435","images/stimuli/spore_stims/complex_02_A_b.gif","images/stimuli/spore_stims/complex_20_A_a.gif","self_paced","","6","complex_dissimilar","images/stimuli/spore_stims/complex_20_A_a.gif","","","","",""
"","null","html-keyboard-response","79","815180","0.0-21.0-0.1","SS1619739457003","","","null","","","","","","<p><img src= images/blank.png width =""600"" height = ""600"" style=""position:fixed;top:50%; left:50%; transform: translate(-50%, -50%); border:5px solid black"">","","","","","","","",""
"","20032.13500000129","sequential-stimulus-presentation-old","80","835717","0.0-21.0-1.1","SS1619739457003","trial","","40","500","20532.13500000129","images/stimuli/spore_stims/complex_02_A_b.gif","images/stimuli/spore_stims/complex_20_A_a.gif","self_paced","","6","complex_dissimilar","images/stimuli/spore_stims/complex_20_A_a.gif","","","","",""
"","null","html-keyboard-response","81","836655","0.0-21.0-0.2","SS1619739457003","","","null","","","","","","<p><img src= images/blank.png width =""600"" height = ""600"" style=""position:fixed;top:50%; left:50%; transform: translate(-50%, -50%); border:5px solid black"">","","","","","","","",""
"","14971.555000003777","sequential-stimulus-presentation-old","82","852130","0.0-21.0-1.2","SS1619739457003","trial","","40","500","15471.555000003777","images/stimuli/spore_stims/complex_02_A_b.gif","images/stimuli/spore_stims/complex_20_A_a.gif","self_paced","","6","complex_dissimilar","images/stimuli/spore_stims/complex_20_A_a.gif","","","","",""
"","null","html-keyboard-response","83","853146","0.0-21.0-0.3","SS1619739457003","","","null","","","","","","<p><img src= images/blank.png width =""600"" height = ""600"" style=""position:fixed;top:50%; left:50%; transform: translate(-50%, -50%); border:5px solid black"">","","","","","","","",""
"","11393.015000001527","sequential-stimulus-presentation-old","84","865048","0.0-21.0-1.3","SS1619739457003","trial","","40","500","11893.015000001527","images/stimuli/spore_stims/complex_02_A_b.gif","images/stimuli/spore_stims/complex_20_A_a.gif","self_paced","","6","complex_dissimilar","images/stimuli/spore_stims/complex_20_A_a.gif","","","","",""
"","null","html-keyboard-response","85","866191","0.0-21.0-0.4","SS1619739457003","","","null","","","","","","<p><img src= images/blank.png width =""600"" height = ""600"" style=""position:fixed;top:50%; left:50%; transform: translate(-50%, -50%); border:5px solid black"">","","","","","","","",""
"","10997.285000004922","sequential-stimulus-presentation-old","86","877692","0.0-21.0-1.4","SS1619739457003","trial","","40","500","11497.285000004922","images/stimuli/spore_stims/complex_02_A_b.gif","images/stimuli/spore_stims/complex_20_A_a.gif","self_paced","","6","complex_dissimilar","images/stimuli/spore_stims/complex_20_A_a.gif","","","","",""
"","6110.164999998291","survey-multi-choice","87","883805","0.0-22.0","SS1619739457003","math_question","","","","","","","","","","","","{""Q0"":""5""}","[0]","5","",""
"","null","html-keyboard-response","88","884969","0.0-23.0-0.0","SS1619739457003","","","null","","","","","","<p><img src= images/blank.png width =""600"" height = ""600"" style=""position:fixed;top:50%; left:50%; transform: translate(-50%, -50%); border:5px solid black"">","","","","","","","",""
"","1343.22499999695","sequential-stimulus-presentation-old","89","901316","0.0-23.0-1.0","SS1619739457003","trial","","40","500","1843.22499999695","images/stimuli/spore_stims/complex_13_A_a.gif","images/stimuli/spore_stims/complex_08_A_b.gif","forced_long","","7","complex_dissimilar","images/stimuli/spore_stims/complex_08_A_b.gif","","","","",""
"","null","html-keyboard-response","90","902131","0.0-23.0-0.1","SS1619739457003","","","null","","","","","","<p><img src= images/blank.png width =""600"" height = ""600"" style=""position:fixed;top:50%; left:50%; transform: translate(-50%, -50%); border:5px solid black"">","","","","","","","",""
"","12118.229999999981","sequential-stimulus-presentation-old","91","914754","0.0-23.0-1.1","SS1619739457003","trial","","40","500","12618.229999999981","images/stimuli/spore_stims/complex_13_A_a.gif","images/stimuli/spore_stims/complex_08_A_b.gif","forced_long","","7","complex_dissimilar","images/stimuli/spore_stims/complex_08_A_b.gif","","","","",""
"","null","html-keyboard-response","92","915847","0.0-23.0-0.2","SS1619739457003","","","null","","","","","","<p><img src= images/blank.png width =""600"" height = ""600"" style=""position:fixed;top:50%; left:50%; transform: translate(-50%, -50%); border:5px solid black"">","","","","","","","",""
"","21616.09999999916","sequential-stimulus-presentation-old","93","937968","0.0-23.0-1.2","SS1619739457003","trial","","40","500","22116.09999999916","images/stimuli/spore_stims/complex_13_A_a.gif","images/stimuli/spore_stims/complex_08_A_b.gif","forced_long","","7","complex_dissimilar","images/stimuli/spore_stims/complex_13_A_a.gif","","","","",""
"","null","html-keyboard-response","94","938858","0.0-23.0-0.3","SS1619739457003","","","null","","","","","","<p><img src= images/blank.png width =""600"" height = ""600"" style=""position:fixed;top:50%; left:50%; transform: translate(-50%, -50%); border:5px solid black"">","","","","","","","",""
"","10961.3549999994","sequential-stimulus-presentation-old","95","950323","0.0-23.0-1.3","SS1619739457003","trial","","40","500","11461.3549999994","images/stimuli/spore_stims/complex_13_A_a.gif","images/stimuli/spore_stims/complex_08_A_b.gif","forced_long","","7","complex_dissimilar","images/stimuli/spore_stims/complex_08_A_b.gif","","","","",""
"","null","html-keyboard-response","96","951597","0.0-23.0-0.4","SS1619739457003","","","null","","","","","","<p><img src= images/blank.png width =""600"" height = ""600"" style=""position:fixed;top:50%; left:50%; transform: translate(-50%, -50%); border:5px solid black"">","","","","","","","",""
"","15360.76499999757","sequential-stimulus-presentation-old","97","967475","0.0-23.0-1.4","SS1619739457003","trial","","40","500","15860.76499999757","images/stimuli/spore_stims/complex_13_A_a.gif","images/stimuli/spore_stims/complex_08_A_b.gif","forced_long","","7","complex_dissimilar","images/stimuli/spore_stims/complex_08_A_b.gif","","","","",""
"","null","html-keyboard-response","98","968360","0.0-23.0-0.5","SS1619739457003","","","null","","","","","","<p><img src= images/blank.png width =""600"" height = ""600"" style=""position:fixed;top:50%; left:50%; transform: translate(-50%, -50%); border:5px solid black"">","","","","","","","",""
"","18183.625000005122","sequential-stimulus-presentation-old","99","987048","0.0-23.0-1.5","SS1619739457003","trial","","40","500","18683.625000005122","images/stimuli/spore_stims/complex_13_A_a.gif","images/stimuli/spore_stims/complex_08_A_b.gif","forced_long","","7","complex_dissimilar","images/stimuli/spore_stims/complex_13_A_a.gif","","","","",""
"","5508.014999999432","survey-multi-choice","100","992559","0.0-24.0","SS1619739457003","math_question","","","","","","","","","","","","{""Q0"":""13""}","[0]","13","",""
"","null","html-keyboard-response","101","993706","0.0-25.0-0.0","SS1619739457003","","","null","","","","","","<p><img src= images/blank.png width =""600"" height = ""600"" style=""position:fixed;top:50%; left:50%; transform: translate(-50%, -50%); border:5px solid black"">","","","","","","","",""
"","6024.530000002356","sequential-stimulus-presentation-old","102","1014735","0.0-25.0-1.0","SS1619739457003","trial","","40","500","6524.530000002356","images/stimuli/spore_stims/simple_17_A_b.gif","images/stimuli/spore_stims/simple_02_A_a.gif","forced_long","","8","simple_dissimilar","images/stimuli/spore_stims/simple_02_A_a.gif","","","","",""
"","null","html-keyboard-response","103","1016025","0.0-25.0-0.1","SS1619739457003","","","null","","","","","","<p><img src= images/blank.png width =""600"" height = ""600"" style=""position:fixed;top:50%; left:50%; transform: translate(-50%, -50%); border:5px solid black"">","","","","","","","",""
"","9781.325000003562","sequential-stimulus-presentation-old","104","1026311","0.0-25.0-1.1","SS1619739457003","trial","","40","500","10281.325000003562","images/stimuli/spore_stims/simple_17_A_b.gif","images/stimuli/spore_stims/simple_02_A_a.gif","forced_long","","8","simple_dissimilar","images/stimuli/spore_stims/simple_02_A_a.gif","","","","",""
"","null","html-keyboard-response","105","1027325","0.0-25.0-0.2","SS1619739457003","","","null","","","","","","<p><img src= images/blank.png width =""600"" height = ""600"" style=""position:fixed;top:50%; left:50%; transform: translate(-50%, -50%); border:5px solid black"">","","","","","","","",""
"","8010.8350000010105","sequential-stimulus-presentation-old","106","1035839","0.0-25.0-1.2","SS1619739457003","trial","","40","500","8510.83500000101","images/stimuli/spore_stims/simple_17_A_b.gif","images/stimuli/spore_stims/simple_02_A_a.gif","forced_long","","8","simple_dissimilar","images/stimuli/spore_stims/simple_02_A_a.gif","","","","",""
"","null","html-keyboard-response","107","1036693","0.0-25.0-0.3","SS1619739457003","","","null","","","","","","<p><img src= images/blank.png width =""600"" height = ""600"" style=""position:fixed;top:50%; left:50%; transform: translate(-50%, -50%); border:5px solid black"">","","","","","","","",""
"","8715.329999999027","sequential-stimulus-presentation-old","108","1045915","0.0-25.0-1.3","SS1619739457003","trial","","40","500","9215.329999999027","images/stimuli/spore_stims/simple_17_A_b.gif","images/stimuli/spore_stims/simple_02_A_a.gif","forced_long","","8","simple_dissimilar","images/stimuli/spore_stims/simple_02_A_a.gif","","","","",""
"","null","html-keyboard-response","109","1046824","0.0-25.0-0.4","SS1619739457003","","","null","","","","","","<p><img src= images/blank.png width =""600"" height = ""600"" style=""position:fixed;top:50%; left:50%; transform: translate(-50%, -50%); border:5px solid black"">","","","","","","","",""
"","8178.904999993509","sequential-stimulus-presentation-old","110","1055510","0.0-25.0-1.4","SS1619739457003","trial","","40","500","8678.904999993509","images/stimuli/spore_stims/simple_17_A_b.gif","images/stimuli/spore_stims/simple_02_A_a.gif","forced_long","","8","simple_dissimilar","images/stimuli/spore_stims/simple_02_A_a.gif","","","","",""
"","null","html-keyboard-response","111","1056605","0.0-25.0-0.5","SS1619739457003","","","null","","","","","","<p><img src= images/blank.png width =""600"" height = ""600"" style=""position:fixed;top:50%; left:50%; transform: translate(-50%, -50%); border:5px solid black"">","","","","","","","",""
"","9263.560000006575","sequential-stimulus-presentation-old","112","1066375","0.0-25.0-1.5","SS1619739457003","trial","","40","500","9763.560000006575","images/stimuli/spore_stims/simple_17_A_b.gif","images/stimuli/spore_stims/simple_02_A_a.gif","forced_long","","8","simple_dissimilar","images/stimuli/spore_stims/simple_02_A_a.gif","","","","",""
"","5133.965000001015","survey-multi-choice","113","1071513","0.0-26.0","SS1619739457003","math_question","","","","","","","","","","","","{""Q0"":""9""}","[0]","9","",""
"","null","html-keyboard-response","114","1072396","0.0-27.0-0.0","SS1619739457003","","","null","","","","","","<p><img src= images/blank.png width =""600"" height = ""600"" style=""position:fixed;top:50%; left:50%; transform: translate(-50%, -50%); border:5px solid black"">","","","","","","","",""
"","14123.70999999973","sequential-stimulus-presentation-old","115","1087025","0.0-27.0-1.0","SS1619739457003","trial","","40","500","14623.70999999973","images/stimuli/spore_stims/simple_11_A_b.gif","images/stimuli/spore_stims/simple_18_A_a.gif","self_paced","","9","simple_dissimilar","images/stimuli/spore_stims/simple_18_A_a.gif","","","","",""
"","null","html-keyboard-response","116","1087873","0.0-27.0-0.1","SS1619739457003","","","null","","","","","","<p><img src= images/blank.png width =""600"" height = ""600"" style=""position:fixed;top:50%; left:50%; transform: translate(-50%, -50%); border:5px solid black"">","","","","","","","",""
"","9943.149999999208","sequential-stimulus-presentation-old","117","1098320","0.0-27.0-1.1","SS1619739457003","trial","","40","500","10443.149999999208","images/stimuli/spore_stims/simple_11_A_b.gif","images/stimuli/spore_stims/simple_18_A_a.gif","self_paced","","9","simple_dissimilar","images/stimuli/spore_stims/simple_18_A_a.gif","","","","",""
"","null","html-keyboard-response","118","1099225","0.0-27.0-0.2","SS1619739457003","","","null","","","","","","<p><img src= images/blank.png width =""600"" height = ""600"" style=""position:fixed;top:50%; left:50%; transform: translate(-50%, -50%); border:5px solid black"">","","","","","","","",""
"","12043.545000000391","sequential-stimulus-presentation-old","119","1111773","0.0-27.0-1.2","SS1619739457003","trial","","40","500","12543.545000000391","images/stimuli/spore_stims/simple_11_A_b.gif","images/stimuli/spore_stims/simple_18_A_a.gif","self_paced","","9","simple_dissimilar","images/stimuli/spore_stims/simple_18_A_a.gif","","","","",""
"","null","html-keyboard-response","120","1112899","0.0-27.0-0.3","SS1619739457003","","","null","","","","","","<p><img src= images/blank.png width =""600"" height = ""600"" style=""position:fixed;top:50%; left:50%; transform: translate(-50%, -50%); border:5px solid black"">","","","","","","","",""
"","8993.705000001006","sequential-stimulus-presentation-old","121","1122402","0.0-27.0-1.3","SS1619739457003","trial","","40","500","9493.705000001006","images/stimuli/spore_stims/simple_11_A_b.gif","images/stimuli/spore_stims/simple_18_A_a.gif","self_paced","","9","simple_dissimilar","images/stimuli/spore_stims/simple_18_A_a.gif","","","","",""
"","null","html-keyboard-response","122","1123412","0.0-27.0-0.4","SS1619739457003","","","null","","","","","","<p><img src= images/blank.png width =""600"" height = ""600"" style=""position:fixed;top:50%; left:50%; transform: translate(-50%, -50%); border:5px solid black"">","","","","","","","",""
"","7765.314999996917","sequential-stimulus-presentation-old","123","1131682","0.0-27.0-1.4","SS1619739457003","trial","","40","500","8265.314999996917","images/stimuli/spore_stims/simple_11_A_b.gif","images/stimuli/spore_stims/simple_18_A_a.gif","self_paced","","9","simple_dissimilar","images/stimuli/spore_stims/simple_18_A_a.gif","","","","",""
"","null","html-keyboard-response","124","1132490","0.0-27.0-0.5","SS1619739457003","","","null","","","","","","<p><img src= images/blank.png width =""600"" height = ""600"" style=""position:fixed;top:50%; left:50%; transform: translate(-50%, -50%); border:5px solid black"">","","","","","","","",""
"","9276.419999994803","sequential-stimulus-presentation-old","125","1142278","0.0-27.0-1.5","SS1619739457003","trial","","40","500","9776.419999994803","images/stimuli/spore_stims/simple_11_A_b.gif","images/stimuli/spore_stims/simple_18_A_a.gif","self_paced","","9","simple_dissimilar","images/stimuli/spore_stims/simple_18_A_a.gif","","","","",""
"","5014.289999999106","survey-multi-choice","126","1147297","0.0-28.0","SS1619739457003","math_question","","","","","","","","","","","","{""Q0"":""8""}","[0]","8","",""
"","null","html-keyboard-response","127","1148201","0.0-29.0-0.0","SS1619739457003","","","null","","","","","","<p><img src= images/blank.png width =""600"" height = ""600"" style=""position:fixed;top:50%; left:50%; transform: translate(-50%, -50%); border:5px solid black"">","","","","","","","",""
"","17391.705000001937","sequential-stimulus-presentation-old","128","1166096","0.0-29.0-1.0","SS1619739457003","trial","","40","500","17891.705000001937","images/stimuli/spore_stims/complex_05_A_a.gif","images/stimuli/spore_stims/complex_12_A_b.gif","self_paced","","10","complex_dissimilar","images/stimuli/spore_stims/complex_12_A_b.gif","","","","",""
"","null","html-keyboard-response","129","1167232","0.0-29.0-0.1","SS1619739457003","","","null","","","","","","<p><img src= images/blank.png width =""600"" height = ""600"" style=""position:fixed;top:50%; left:50%; transform: translate(-50%, -50%); border:5px solid black"">","","","","","","","",""
"","17747.524999998743","sequential-stimulus-presentation-old","130","1185486","0.0-29.0-1.1","SS1619739457003","trial","","40","500","18247.524999998743","images/stimuli/spore_stims/complex_05_A_a.gif","images/stimuli/spore_stims/complex_12_A_b.gif","self_paced","","10","complex_dissimilar","images/stimuli/spore_stims/complex_12_A_b.gif","","","","",""
"","null","html-keyboard-response","131","1186670","0.0-29.0-0.2","SS1619739457003","","","null","","","","","","<p><img src= images/blank.png width =""600"" height = ""600"" style=""position:fixed;top:50%; left:50%; transform: translate(-50%, -50%); border:5px solid black"">","","","","","","","",""
"","18347.10500000068","sequential-stimulus-presentation-old","132","1205523","0.0-29.0-1.2","SS1619739457003","trial","","40","500","18847.10500000068","images/stimuli/spore_stims/complex_05_A_a.gif","images/stimuli/spore_stims/complex_12_A_b.gif","self_paced","","10","complex_dissimilar","images/stimuli/spore_stims/complex_12_A_b.gif","","","","",""
"","null","html-keyboard-response","133","1206638","0.0-29.0-0.3","SS1619739457003","","","null","","","","","","<p><img src= images/blank.png width =""600"" height = ""600"" style=""position:fixed;top:50%; left:50%; transform: translate(-50%, -50%); border:5px solid black"">","","","","","","","",""
"","9817.539999996545","sequential-stimulus-presentation-old","134","1216962","0.0-29.0-1.3","SS1619739457003","trial","","40","500","10317.539999996545","images/stimuli/spore_stims/complex_05_A_a.gif","images/stimuli/spore_stims/complex_12_A_b.gif","self_paced","","10","complex_dissimilar","images/stimuli/spore_stims/complex_12_A_b.gif","","","","",""
"","null","html-keyboard-response","135","1217934","0.0-29.0-0.4","SS1619739457003","","","null","","","","","","<p><img src= images/blank.png width =""600"" height = ""600"" style=""position:fixed;top:50%; left:50%; transform: translate(-50%, -50%); border:5px solid black"">","","","","","","","",""
"","11270.770000002813","sequential-stimulus-presentation-old","136","1229711","0.0-29.0-1.4","SS1619739457003","trial","","40","500","11770.770000002813","images/stimuli/spore_stims/complex_05_A_a.gif","images/stimuli/spore_stims/complex_12_A_b.gif","self_paced","","10","complex_dissimilar","images/stimuli/spore_stims/complex_12_A_b.gif","","","","",""
"","4686.914999998407","survey-multi-choice","137","1234401","0.0-30.0","SS1619739457003","math_question","","","","","","","","","","","","{""Q0"":""14""}","[0]","14","",""
"","null","html-keyboard-response","138","1235266","0.0-31.0-0.0","SS1619739457003","","","null","","","","","","<p><img src= images/blank.png width =""600"" height = ""600"" style=""position:fixed;top:50%; left:50%; transform: translate(-50%, -50%); border:5px solid black"">","","","","","","","",""
"","2020.1700000031851","sequential-stimulus-presentation-old","139","1237793","0.0-31.0-1.0","SS1619739457003","trial","","40","500","2520.170000003185","images/stimuli/spore_stims/complex_01_A_a.gif","images/stimuli/spore_stims/complex_10_A_b.gif","forced_short","","11","complex_dissimilar","images/stimuli/spore_stims/complex_10_A_b.gif","","","","",""
"","null","html-keyboard-response","140","1238886","0.0-31.0-0.1","SS1619739457003","","","null","","","","","","<p><img src= images/blank.png width =""600"" height = ""600"" style=""position:fixed;top:50%; left:50%; transform: translate(-50%, -50%); border:5px solid black"">","","","","","","","",""
"","22036.234999999637","sequential-stimulus-presentation-old","141","1261433","0.0-31.0-1.1","SS1619739457003","trial","","40","500","22536.234999999637","images/stimuli/spore_stims/complex_01_A_a.gif","images/stimuli/spore_stims/complex_10_A_b.gif","forced_short","","11","complex_dissimilar","images/stimuli/spore_stims/complex_10_A_b.gif","","","","",""
"","null","html-keyboard-response","142","1262635","0.0-31.0-0.2","SS1619739457003","","","null","","","","","","<p><img src= images/blank.png width =""600"" height = ""600"" style=""position:fixed;top:50%; left:50%; transform: translate(-50%, -50%); border:5px solid black"">","","","","","","","",""
"","8078.224999997532","sequential-stimulus-presentation-old","143","1271218","0.0-31.0-1.2","SS1619739457003","trial","","40","500","8578.224999997532","images/stimuli/spore_stims/complex_01_A_a.gif","images/stimuli/spore_stims/complex_10_A_b.gif","forced_short","","11","complex_dissimilar","images/stimuli/spore_stims/complex_10_A_b.gif","","","","",""
"","null","html-keyboard-response","144","1272439","0.0-31.0-0.3","SS1619739457003","","","null","","","","","","<p><img src= images/blank.png width =""600"" height = ""600"" style=""position:fixed;top:50%; left:50%; transform: translate(-50%, -50%); border:5px solid black"">","","","","","","","",""
"","15152.685000000987","sequential-stimulus-presentation-old","145","1288097","0.0-31.0-1.3","SS1619739457003","trial","","40","500","15652.685000000987","images/stimuli/spore_stims/complex_01_A_a.gif","images/stimuli/spore_stims/complex_10_A_b.gif","forced_short","","11","complex_dissimilar","images/stimuli/spore_stims/complex_10_A_b.gif","","","","",""
"","null","html-keyboard-response","146","1289041","0.0-31.0-0.4","SS1619739457003","","","null","","","","","","<p><img src= images/blank.png width =""600"" height = ""600"" style=""position:fixed;top:50%; left:50%; transform: translate(-50%, -50%); border:5px solid black"">","","","","","","","",""
"","12000.679999997374","sequential-stimulus-presentation-old","147","1301552","0.0-31.0-1.4","SS1619739457003","trial","","40","500","12500.679999997374","images/stimuli/spore_stims/complex_01_A_a.gif","images/stimuli/spore_stims/complex_10_A_b.gif","forced_short","","11","complex_dissimilar","images/stimuli/spore_stims/complex_10_A_b.gif","","","","",""
"","null","html-keyboard-response","148","1302616","0.0-31.0-0.5","SS1619739457003","","","null","","","","","","<p><img src= images/blank.png width =""600"" height = ""600"" style=""position:fixed;top:50%; left:50%; transform: translate(-50%, -50%); border:5px solid black"">","","","","","","","",""
"","15915.789999999106","sequential-stimulus-presentation-old","149","1319054","0.0-31.0-1.5","SS1619739457003","trial","","40","500","16415.789999999106","images/stimuli/spore_stims/complex_01_A_a.gif","images/stimuli/spore_stims/complex_10_A_b.gif","forced_short","","11","complex_dissimilar","images/stimuli/spore_stims/complex_10_A_b.gif","","","","",""
"[{""page_index"":0,""viewing_time"":7847.564999996452}]","7847.8849999955855","instructions","150","1326906","0.0-32.0","SS1619739457003","instructions","","","","","","","","","","","","","","","",""
"","28666.77000000351","survey-likert","151","1355579","0.0-33.0","SS1619739457003","similarity_question","","","","","","","","","","","","{""Q0"":2}","[0]","","images/stimuli/spore_stims/complex_18_A_b.gif","images/stimuli/spore_stims/complex_02_A_a.gif"
"","16667.645000001416","survey-likert","152","1372252","0.0-34.0","SS1619739457003","similarity_question","","","","","","","","","","","","{""Q0"":5}","[0]","","images/stimuli/spore_stims/simple_15_A_b.gif","images/stimuli/spore_stims/simple_20_A_a.gif"
"","11259.494999998482","survey-likert","153","1383516","0.0-35.0","SS1619739457003","similarity_question","","","","","","","","","","","","{""Q0"":4}","[0]","","images/stimuli/spore_stims/simple_08_A_a.gif","images/stimuli/spore_stims/simple_20_A_b.gif"
"","22543.929999999702","survey-likert","154","1406070","0.0-36.0","SS1619739457003","similarity_question","","","","","","","","","","","","{""Q0"":2}","[0]","","images/stimuli/spore_stims/complex_14_A_a.gif","images/stimuli/spore_stims/complex_15_A_b.gif"
"","13058.620000003604","survey-likert","155","1419135","0.0-37.0","SS1619739457003","similarity_question","","","","","","","","","","","","{""Q0"":4}","[0]","","images/stimuli/spore_stims/complex_08_A_b.gif","images/stimuli/spore_stims/complex_13_A_a.gif"
"","12459.474999996135","survey-likert","156","1431601","0.0-38.0","SS1619739457003","similarity_question","","","","","","","","","","","","{""Q0"":1}","[0]","","images/stimuli/spore_stims/simple_18_A_a.gif","images/stimuli/spore_stims/simple_11_A_b.gif"
"","7078.974999996601","survey-likert","157","1438686","0.0-39.0","SS1619739457003","similarity_question","","","","","","","","","","","","{""Q0"":5}","[0]","","images/stimuli/spore_stims/simple_12_A_b.gif","images/stimuli/spore_stims/simple_13_A_a.gif"
"","11499.230000001146","survey-likert","158","1450191","0.0-40.0","SS1619739457003","similarity_question","","","","","","","","","","","","{""Q0"":3}","[0]","","images/stimuli/spore_stims/simple_17_A_b.gif","images/stimuli/spore_stims/simple_02_A_a.gif"
"","7809.7650000054855","survey-likert","159","1458006","0.0-41.0","SS1619739457003","similarity_question","","","","","","","","","","","","{""Q0"":2}","[0]","","images/stimuli/spore_stims/complex_12_A_b.gif","images/stimuli/spore_stims/complex_05_A_a.gif"
"","8661.095000002999","survey-likert","160","1466673","0.0-42.0","SS1619739457003","similarity_question","","","","","","","","","","","","{""Q0"":2}","[0]","","images/stimuli/spore_stims/complex_02_A_b.gif","images/stimuli/spore_stims/complex_20_A_a.gif"
"","11722.274999999907","survey-likert","161","1478401","0.0-43.0","SS1619739457003","similarity_question","","","","","","","","","","","","{""Q0"":3}","[0]","","images/stimuli/spore_stims/complex_01_A_a.gif","images/stimuli/spore_stims/complex_10_A_b.gif"
"","7342.160000000149","survey-likert","162","1485752","0.0-44.0","SS1619739457003","similarity_question","","","","","","","","","","","","{""Q0"":2}","[0]","","images/stimuli/spore_stims/simple_03_A_b.gif","images/stimuli/spore_stims/simple_14_A_a.gif"
"[{""page_index"":0,""viewing_time"":5925.094999998575}]","5925.41999999946","instructions","163","1491680","0.0-45.0","SS1619739457003","instructions","","","","","","","","","","","","","","","",""
"","9066.594999996712","survey-likert","164","1500752","0.0-46.0","SS1619739457003","","","","","","","","","images/stimuli/spore_stims/simple_14_A_a.gif","","","","{""Q0"":1}","[0]","","",""
"","9290.83499999973","survey-likert","165","1510049","0.0-47.0","SS1619739457003","","","","","","","","","images/stimuli/spore_stims/simple_12_A_b.gif","","","","{""Q0"":1}","[0]","","",""
"","6590.145000001881","survey-likert","166","1516645","0.0-48.0","SS1619739457003","","","","","","","","","images/stimuli/spore_stims/simple_20_A_b.gif","","","","{""Q0"":2}","[0]","","",""
"","10604.964999998687","survey-likert","167","1527258","0.0-49.0","SS1619739457003","","","","","","","","","images/stimuli/spore_stims/complex_18_A_b.gif","","","","{""Q0"":6}","[0]","","",""
"","6811.369999995921","survey-likert","168","1534078","0.0-50.0","SS1619739457003","","","","","","","","","images/stimuli/spore_stims/complex_05_A_a.gif","","","","{""Q0"":5}","[0]","","",""
"","5383.269999998389","survey-likert","169","1539471","0.0-51.0","SS1619739457003","","","","","","","","","images/stimuli/spore_stims/simple_02_A_a.gif","","","","{""Q0"":1}","[0]","","",""
"","8241.309999997728","survey-likert","170","1547720","0.0-52.0","SS1619739457003","","","","","","","","","images/stimuli/spore_stims/complex_02_A_b.gif","","","","{""Q0"":5}","[0]","","",""
"","5935.0350000022445","survey-likert","171","1553661","0.0-53.0","SS1619739457003","","","","","","","","","images/stimuli/spore_stims/simple_20_A_a.gif","","","","{""Q0"":2}","[0]","","",""
"","11122.770000001881","survey-likert","172","1564790","0.0-54.0","SS1619739457003","","","","","","","","","images/stimuli/spore_stims/complex_14_A_a.gif","","","","{""Q0"":6}","[0]","","",""
"","5610.800000002375","survey-likert","173","1570406","0.0-55.0","SS1619739457003","","","","","","","","","images/stimuli/spore_stims/simple_18_A_a.gif","","","","{""Q0"":1}","[0]","","",""
"","12439.939999996684","survey-likert","174","1582852","0.0-56.0","SS1619739457003","","","","","","","","","images/stimuli/spore_stims/complex_10_A_b.gif","","","","{""Q0"":5}","[0]","","",""
"","6915.674999996554","survey-likert","175","1589776","0.0-57.0","SS1619739457003","","","","","","","","","images/stimuli/spore_stims/complex_13_A_a.gif","","","","{""Q0"":5}","[0]","","",""
"[{""page_index"":0,""viewing_time"":3480.2650000057183}]","3480.5350000024773","instructions","176","1593260","0.0-58.0","SS1619739457003","instructions","","","","","","","","","","","","","","","",""
"","3439.7650000026915","demog-age","177","1596707","0.0-59.0","SS1619739457003","","","","","","","","","","","","","{""age"":""45""}","","","",""
"","9032.999999995809","demog-ethnic-US","178","1605748","0.0-60.0","SS1619739457003","","","","","","","","","","","","","{""ethnicity"":[""White""]}","[0]","","",""
"","9431.120000001043","demog-gender-and-education","179","1615185","0.0-61.0","SS1619739457003","","","","","","","","","","","","","{""gender"":""Female"",""education"":""Bachelor's Degree""}","[0,1]","","",""
"","42321.12999999663","survey-text","180","1657514","0.0-62.0","SS1619739457003","feedback","","","","","","","","","","","","{""Q0"":""Some of the creatures I found very cute, the pink ones :)""}","","","",""
"[{""page_index"":0,""viewing_time"":3258.6000000010245}]","3258.8199999954086","instructions","181","1660777","0.0-63.0","SS1619739457003","instructions","","","","","","","","","","","","","","","",""
