"view_history","rt","trial_type","trial_index","time_elapsed","internal_node_id","subject","stimulus_type","trial_stimulus","key_press","minimum_viewing_duration","trial_looking_time","block_deviant","block_background","exposure_type","stimulus","block_number","block_type","stimulus_displayed","responses","question_order","math_correct_answer","stimulus_left","stimulus_right"
"[{""page_index"":0,""viewing_time"":3789.794999989681}]","3790.240000002086","instructions","0","3791","0.0-0.0","SS1619740007669","","","","","","","","","","","","","","","","",""
"[{""page_index"":0,""viewing_time"":116984.88000000361},{""page_index"":1,""viewing_time"":67883.61000001896}]","184868.7300000165","instructions","1","190662","0.0-1.0","SS1619740007669","instructions","","","","","","","","","","","","","","","",""
"","62677.9899999965","sequential-stimulus-presentation-old","2","253842","0.0-2.0","SS1619740007669","","","40","500","63177.9899999965","null","null","self_paced","","","","","","","","",""
"","2780.9000000124797","sequential-stimulus-presentation-old","3","257125","0.0-3.0","SS1619740007669","","","40","500","3280.9000000124797","null","null","self_paced","","","","","","","","",""
"[{""page_index"":0,""viewing_time"":146227.22500000964}]","146227.44000001694","instructions","4","403353","0.0-4.0","SS1619740007669","instructions","","","","","","","","","","","","","","","",""
"","396.98499999940395","sequential-stimulus-presentation-old","5","418753","0.0-5.0","SS1619740007669","","","40","500","896.984999999404","null","null","forced_long","","","","","","","","",""
"","1738.5300000023562","sequential-stimulus-presentation-old","6","420993","0.0-6.0","SS1619740007669","","","40","500","2238.5300000023562","null","null","forced_long","","","","","","","","",""
"[{""page_index"":0,""viewing_time"":4229.545000009239}]","4229.755000007572","instructions","7","425224","0.0-7.0","SS1619740007669","instructions","","","","","","","","","","","","","","","",""
"[{""page_index"":0,""viewing_time"":9295.360000018263},{""page_index"":1,""viewing_time"":15021.919999999227},{""page_index"":2,""viewing_time"":3882.775000005495},{""page_index"":3,""viewing_time"":1666.3549999939278},{""page_index"":4,""viewing_time"":1161.2099999911152}]","31027.885000017704","instructions","8","456252","0.0-8.0","SS1619740007669","instructions","","","","","","","","","","","","","","","",""
"","null","html-keyboard-response","9","457484","0.0-9.0-0.0","SS1619740007669","","","null","","","","","","<p><img src= images/blank.png width =""600"" height = ""600"" style=""position:fixed;top:50%; left:50%; transform: translate(-50%, -50%); border:5px solid black"">","","","","","","","",""
"","78293.77499999828","sequential-stimulus-presentation-old","10","536282","0.0-9.0-1.0","SS1619740007669","trial","","40","500","78793.77499999828","images/stimuli/spore_stims/complex_20_A_a.gif","images/stimuli/spore_stims/complex_12_A_b.gif","self_paced","","0","complex_dissimilar","images/stimuli/spore_stims/complex_12_A_b.gif","","","","",""
"","null","html-keyboard-response","11","537187","0.0-9.0-0.1","SS1619740007669","","","null","","","","","","<p><img src= images/blank.png width =""600"" height = ""600"" style=""position:fixed;top:50%; left:50%; transform: translate(-50%, -50%); border:5px solid black"">","","","","","","","",""
"","3534.769999998389","sequential-stimulus-presentation-old","12","541226","0.0-9.0-1.1","SS1619740007669","trial","","40","500","4034.769999998389","images/stimuli/spore_stims/complex_20_A_a.gif","images/stimuli/spore_stims/complex_12_A_b.gif","self_paced","","0","complex_dissimilar","images/stimuli/spore_stims/complex_12_A_b.gif","","","","",""
"","null","html-keyboard-response","13","542472","0.0-9.0-0.2","SS1619740007669","","","null","","","","","","<p><img src= images/blank.png width =""600"" height = ""600"" style=""position:fixed;top:50%; left:50%; transform: translate(-50%, -50%); border:5px solid black"">","","","","","","","",""
"","837.4400000029709","sequential-stimulus-presentation-old","14","543821","0.0-9.0-1.2","SS1619740007669","trial","","40","500","1337.440000002971","images/stimuli/spore_stims/complex_20_A_a.gif","images/stimuli/spore_stims/complex_12_A_b.gif","self_paced","","0","complex_dissimilar","images/stimuli/spore_stims/complex_12_A_b.gif","","","","",""
"","null","html-keyboard-response","15","544626","0.0-9.0-0.3","SS1619740007669","","","null","","","","","","<p><img src= images/blank.png width =""600"" height = ""600"" style=""position:fixed;top:50%; left:50%; transform: translate(-50%, -50%); border:5px solid black"">","","","","","","","",""
"","15.12999998521991","sequential-stimulus-presentation-old","16","545146","0.0-9.0-1.3","SS1619740007669","trial","","40","500","515.1299999852199","images/stimuli/spore_stims/complex_20_A_a.gif","images/stimuli/spore_stims/complex_12_A_b.gif","self_paced","","0","complex_dissimilar","images/stimuli/spore_stims/complex_12_A_b.gif","","","","",""
"","4889.170000009472","survey-multi-choice","17","550037","0.0-10.0","SS1619740007669","math_question","","","","","","","","","","","","{""Q0"":""15""}","[0]","15","",""
"","null","html-keyboard-response","18","551214","0.0-11.0-0.0","SS1619740007669","","","null","","","","","","<p><img src= images/blank.png width =""600"" height = ""600"" style=""position:fixed;top:50%; left:50%; transform: translate(-50%, -50%); border:5px solid black"">","","","","","","","",""
"","1780.655000009574","sequential-stimulus-presentation-old","19","553501","0.0-11.0-1.0","SS1619740007669","trial","","40","500","2280.655000009574","images/stimuli/spore_stims/simple_04_A_b.gif","images/stimuli/spore_stims/simple_10_A_a.gif","self_paced","","1","simple_dissimilar","images/stimuli/spore_stims/simple_10_A_a.gif","","","","",""
"","null","html-keyboard-response","20","554382","0.0-11.0-0.1","SS1619740007669","","","null","","","","","","<p><img src= images/blank.png width =""600"" height = ""600"" style=""position:fixed;top:50%; left:50%; transform: translate(-50%, -50%); border:5px solid black"">","","","","","","","",""
"","2835.014999989653","sequential-stimulus-presentation-old","21","557724","0.0-11.0-1.1","SS1619740007669","trial","","40","500","3335.014999989653","images/stimuli/spore_stims/simple_04_A_b.gif","images/stimuli/spore_stims/simple_10_A_a.gif","self_paced","","1","simple_dissimilar","images/stimuli/spore_stims/simple_04_A_b.gif","","","","",""
"","null","html-keyboard-response","22","558717","0.0-11.0-0.2","SS1619740007669","","","null","","","","","","<p><img src= images/blank.png width =""600"" height = ""600"" style=""position:fixed;top:50%; left:50%; transform: translate(-50%, -50%); border:5px solid black"">","","","","","","","",""
"","401.36999997776","sequential-stimulus-presentation-old","23","559622","0.0-11.0-1.2","SS1619740007669","trial","","40","500","901.36999997776","images/stimuli/spore_stims/simple_04_A_b.gif","images/stimuli/spore_stims/simple_10_A_a.gif","self_paced","","1","simple_dissimilar","images/stimuli/spore_stims/simple_10_A_a.gif","","","","",""
"","null","html-keyboard-response","24","560812","0.0-11.0-0.3","SS1619740007669","","","null","","","","","","<p><img src= images/blank.png width =""600"" height = ""600"" style=""position:fixed;top:50%; left:50%; transform: translate(-50%, -50%); border:5px solid black"">","","","","","","","",""
"","47.614999988581985","sequential-stimulus-presentation-old","25","561365","0.0-11.0-1.3","SS1619740007669","trial","","40","500","547.614999988582","images/stimuli/spore_stims/simple_04_A_b.gif","images/stimuli/spore_stims/simple_10_A_a.gif","self_paced","","1","simple_dissimilar","images/stimuli/spore_stims/simple_04_A_b.gif","","","","",""
"","null","html-keyboard-response","26","562180","0.0-11.0-0.4","SS1619740007669","","","null","","","","","","<p><img src= images/blank.png width =""600"" height = ""600"" style=""position:fixed;top:50%; left:50%; transform: translate(-50%, -50%); border:5px solid black"">","","","","","","","",""
"","18.55999999679625","sequential-stimulus-presentation-old","27","562701","0.0-11.0-1.4","SS1619740007669","trial","","40","500","518.5599999967963","images/stimuli/spore_stims/simple_04_A_b.gif","images/stimuli/spore_stims/simple_10_A_a.gif","self_paced","","1","simple_dissimilar","images/stimuli/spore_stims/simple_10_A_a.gif","","","","",""
"","4185.720000008587","survey-multi-choice","28","566892","0.0-12.0","SS1619740007669","math_question","","","","","","","","","","","","{""Q0"":""14""}","[0]","14","",""
"","null","html-keyboard-response","29","568144","0.0-13.0-0.0","SS1619740007669","","","null","","","","","","<p><img src= images/blank.png width =""600"" height = ""600"" style=""position:fixed;top:50%; left:50%; transform: translate(-50%, -50%); border:5px solid black"">","","","","","","","",""
"","525.3300000040326","sequential-stimulus-presentation-old","30","583676","0.0-13.0-1.0","SS1619740007669","trial","","40","500","1025.3300000040326","images/stimuli/spore_stims/simple_01_A_a.gif","images/stimuli/spore_stims/simple_14_A_b.gif","forced_long","","2","simple_dissimilar","images/stimuli/spore_stims/simple_14_A_b.gif","","","","",""
"","null","html-keyboard-response","31","584977","0.0-13.0-0.1","SS1619740007669","","","null","","","","","","<p><img src= images/blank.png width =""600"" height = ""600"" style=""position:fixed;top:50%; left:50%; transform: translate(-50%, -50%); border:5px solid black"">","","","","","","","",""
"","43609.13499997696","sequential-stimulus-presentation-old","32","629094","0.0-13.0-1.1","SS1619740007669","trial","","40","500","44109.13499997696","images/stimuli/spore_stims/simple_01_A_a.gif","images/stimuli/spore_stims/simple_14_A_b.gif","forced_long","","2","simple_dissimilar","images/stimuli/spore_stims/simple_01_A_a.gif","","","","",""
"","null","html-keyboard-response","33","630293","0.0-13.0-0.2","SS1619740007669","","","null","","","","","","<p><img src= images/blank.png width =""600"" height = ""600"" style=""position:fixed;top:50%; left:50%; transform: translate(-50%, -50%); border:5px solid black"">","","","","","","","",""
"","126.56500001321547","sequential-stimulus-presentation-old","34","630922","0.0-13.0-1.2","SS1619740007669","trial","","40","500","626.5650000132155","images/stimuli/spore_stims/simple_01_A_a.gif","images/stimuli/spore_stims/simple_14_A_b.gif","forced_long","","2","simple_dissimilar","images/stimuli/spore_stims/simple_01_A_a.gif","","","","",""
"","null","html-keyboard-response","35","631945","0.0-13.0-0.3","SS1619740007669","","","null","","","","","","<p><img src= images/blank.png width =""600"" height = ""600"" style=""position:fixed;top:50%; left:50%; transform: translate(-50%, -50%); border:5px solid black"">","","","","","","","",""
"","1140.0650000141468","sequential-stimulus-presentation-old","36","633588","0.0-13.0-1.3","SS1619740007669","trial","","40","500","1640.0650000141468","images/stimuli/spore_stims/simple_01_A_a.gif","images/stimuli/spore_stims/simple_14_A_b.gif","forced_long","","2","simple_dissimilar","images/stimuli/spore_stims/simple_14_A_b.gif","","","","",""
"","3248.075000010431","survey-multi-choice","37","636840","0.0-14.0","SS1619740007669","math_question","","","","","","","","","","","","{""Q0"":""12""}","[0]","12","",""
"","null","html-keyboard-response","38","637675","0.0-15.0-0.0","SS1619740007669","","","null","","","","","","<p><img src= images/blank.png width =""600"" height = ""600"" style=""position:fixed;top:50%; left:50%; transform: translate(-50%, -50%); border:5px solid black"">","","","","","","","",""
"","426.9700000004377","sequential-stimulus-presentation-old","39","653109","0.0-15.0-1.0","SS1619740007669","trial","","40","500","926.9700000004377","images/stimuli/spore_stims/complex_01_A_b.gif","images/stimuli/spore_stims/complex_14_A_a.gif","forced_long","","3","complex_dissimilar","images/stimuli/spore_stims/complex_14_A_a.gif","","","","",""
"","null","html-keyboard-response","40","654188","0.0-15.0-0.1","SS1619740007669","","","null","","","","","","<p><img src= images/blank.png width =""600"" height = ""600"" style=""position:fixed;top:50%; left:50%; transform: translate(-50%, -50%); border:5px solid black"">","","","","","","","",""
"","296.23500001616776","sequential-stimulus-presentation-old","41","654989","0.0-15.0-1.1","SS1619740007669","trial","","40","500","796.2350000161678","images/stimuli/spore_stims/complex_01_A_b.gif","images/stimuli/spore_stims/complex_14_A_a.gif","forced_long","","3","complex_dissimilar","images/stimuli/spore_stims/complex_01_A_b.gif","","","","",""
"","null","html-keyboard-response","42","656104","0.0-15.0-0.2","SS1619740007669","","","null","","","","","","<p><img src= images/blank.png width =""600"" height = ""600"" style=""position:fixed;top:50%; left:50%; transform: translate(-50%, -50%); border:5px solid black"">","","","","","","","",""
"","220.4349999956321","sequential-stimulus-presentation-old","43","656846","0.0-15.0-1.2","SS1619740007669","trial","","40","500","720.4349999956321","images/stimuli/spore_stims/complex_01_A_b.gif","images/stimuli/spore_stims/complex_14_A_a.gif","forced_long","","3","complex_dissimilar","images/stimuli/spore_stims/complex_14_A_a.gif","","","","",""
"","null","html-keyboard-response","44","657698","0.0-15.0-0.3","SS1619740007669","","","null","","","","","","<p><img src= images/blank.png width =""600"" height = ""600"" style=""position:fixed;top:50%; left:50%; transform: translate(-50%, -50%); border:5px solid black"">","","","","","","","",""
"","269.3449999787845","sequential-stimulus-presentation-old","45","658470","0.0-15.0-1.3","SS1619740007669","trial","","40","500","769.3449999787845","images/stimuli/spore_stims/complex_01_A_b.gif","images/stimuli/spore_stims/complex_14_A_a.gif","forced_long","","3","complex_dissimilar","images/stimuli/spore_stims/complex_01_A_b.gif","","","","",""
"","null","html-keyboard-response","46","659585","0.0-15.0-0.4","SS1619740007669","","","null","","","","","","<p><img src= images/blank.png width =""600"" height = ""600"" style=""position:fixed;top:50%; left:50%; transform: translate(-50%, -50%); border:5px solid black"">","","","","","","","",""
"","259.7400000086054","sequential-stimulus-presentation-old","47","660350","0.0-15.0-1.4","SS1619740007669","trial","","40","500","759.7400000086054","images/stimuli/spore_stims/complex_01_A_b.gif","images/stimuli/spore_stims/complex_14_A_a.gif","forced_long","","3","complex_dissimilar","images/stimuli/spore_stims/complex_14_A_a.gif","","","","",""
"","null","html-keyboard-response","48","661647","0.0-15.0-0.5","SS1619740007669","","","null","","","","","","<p><img src= images/blank.png width =""600"" height = ""600"" style=""position:fixed;top:50%; left:50%; transform: translate(-50%, -50%); border:5px solid black"">","","","","","","","",""
"","2763.280000013765","sequential-stimulus-presentation-old","49","664916","0.0-15.0-1.5","SS1619740007669","trial","","40","500","3263.280000013765","images/stimuli/spore_stims/complex_01_A_b.gif","images/stimuli/spore_stims/complex_14_A_a.gif","forced_long","","3","complex_dissimilar","images/stimuli/spore_stims/complex_14_A_a.gif","","","","",""
"","3298.579999973299","survey-multi-choice","50","668218","0.0-16.0","SS1619740007669","math_question","","","","","","","","","","","","{""Q0"":""5""}","[0]","5","",""
"","null","html-keyboard-response","51","669481","0.0-17.0-0.0","SS1619740007669","","","null","","","","","","<p><img src= images/blank.png width =""600"" height = ""600"" style=""position:fixed;top:50%; left:50%; transform: translate(-50%, -50%); border:5px solid black"">","","","","","","","",""
"","345.13000000151806","sequential-stimulus-presentation-old","52","684829","0.0-17.0-1.0","SS1619740007669","trial","","40","500","845.130000001518","images/stimuli/spore_stims/complex_14_A_b.gif","images/stimuli/spore_stims/complex_08_A_a.gif","forced_long","","4","complex_dissimilar","images/stimuli/spore_stims/complex_08_A_a.gif","","","","",""
"","null","html-keyboard-response","53","686132","0.0-17.0-0.1","SS1619740007669","","","null","","","","","","<p><img src= images/blank.png width =""600"" height = ""600"" style=""position:fixed;top:50%; left:50%; transform: translate(-50%, -50%); border:5px solid black"">","","","","","","","",""
"","83.29499998944812","sequential-stimulus-presentation-old","54","686722","0.0-17.0-1.1","SS1619740007669","trial","","40","500","583.2949999894481","images/stimuli/spore_stims/complex_14_A_b.gif","images/stimuli/spore_stims/complex_08_A_a.gif","forced_long","","4","complex_dissimilar","images/stimuli/spore_stims/complex_08_A_a.gif","","","","",""
"","null","html-keyboard-response","55","687977","0.0-17.0-0.2","SS1619740007669","","","null","","","","","","<p><img src= images/blank.png width =""600"" height = ""600"" style=""position:fixed;top:50%; left:50%; transform: translate(-50%, -50%); border:5px solid black"">","","","","","","","",""
"","1832.6449999876786","sequential-stimulus-presentation-old","56","690316","0.0-17.0-1.2","SS1619740007669","trial","","40","500","2332.6449999876786","images/stimuli/spore_stims/complex_14_A_b.gif","images/stimuli/spore_stims/complex_08_A_a.gif","forced_long","","4","complex_dissimilar","images/stimuli/spore_stims/complex_08_A_a.gif","","","","",""
"","null","html-keyboard-response","57","691155","0.0-17.0-0.3","SS1619740007669","","","null","","","","","","<p><img src= images/blank.png width =""600"" height = ""600"" style=""position:fixed;top:50%; left:50%; transform: translate(-50%, -50%); border:5px solid black"">","","","","","","","",""
"","176.7450000043027","sequential-stimulus-presentation-old","58","691838","0.0-17.0-1.3","SS1619740007669","trial","","40","500","676.7450000043027","images/stimuli/spore_stims/complex_14_A_b.gif","images/stimuli/spore_stims/complex_08_A_a.gif","forced_long","","4","complex_dissimilar","images/stimuli/spore_stims/complex_08_A_a.gif","","","","",""
"","null","html-keyboard-response","59","692743","0.0-17.0-0.4","SS1619740007669","","","null","","","","","","<p><img src= images/blank.png width =""600"" height = ""600"" style=""position:fixed;top:50%; left:50%; transform: translate(-50%, -50%); border:5px solid black"">","","","","","","","",""
"","84.96000000741333","sequential-stimulus-presentation-old","60","693335","0.0-17.0-1.4","SS1619740007669","trial","","40","500","584.9600000074133","images/stimuli/spore_stims/complex_14_A_b.gif","images/stimuli/spore_stims/complex_08_A_a.gif","forced_long","","4","complex_dissimilar","images/stimuli/spore_stims/complex_08_A_a.gif","","","","",""
"","null","html-keyboard-response","61","694318","0.0-17.0-0.5","SS1619740007669","","","null","","","","","","<p><img src= images/blank.png width =""600"" height = ""600"" style=""position:fixed;top:50%; left:50%; transform: translate(-50%, -50%); border:5px solid black"">","","","","","","","",""
"","860.6300000101328","sequential-stimulus-presentation-old","62","695684","0.0-17.0-1.5","SS1619740007669","trial","","40","500","1360.6300000101328","images/stimuli/spore_stims/complex_14_A_b.gif","images/stimuli/spore_stims/complex_08_A_a.gif","forced_long","","4","complex_dissimilar","images/stimuli/spore_stims/complex_08_A_a.gif","","","","",""
"","2910.0150000012945","survey-multi-choice","63","698599","0.0-18.0","SS1619740007669","math_question","","","","","","","","","","","","{""Q0"":""9""}","[0]","9","",""
"","null","html-keyboard-response","64","699449","0.0-19.0-0.0","SS1619740007669","","","null","","","","","","<p><img src= images/blank.png width =""600"" height = ""600"" style=""position:fixed;top:50%; left:50%; transform: translate(-50%, -50%); border:5px solid black"">","","","","","","","",""
"","68.6649999988731","sequential-stimulus-presentation-old","65","700023","0.0-19.0-1.0","SS1619740007669","trial","","40","500","568.6649999988731","images/stimuli/spore_stims/simple_19_A_a.gif","images/stimuli/spore_stims/simple_03_A_b.gif","forced_short","","5","simple_dissimilar","images/stimuli/spore_stims/simple_03_A_b.gif","","","","",""
"","null","html-keyboard-response","66","701307","0.0-19.0-0.1","SS1619740007669","","","null","","","","","","<p><img src= images/blank.png width =""600"" height = ""600"" style=""position:fixed;top:50%; left:50%; transform: translate(-50%, -50%); border:5px solid black"">","","","","","","","",""
"","306.12000002292916","sequential-stimulus-presentation-old","67","702119","0.0-19.0-1.1","SS1619740007669","trial","","40","500","806.1200000229292","images/stimuli/spore_stims/simple_19_A_a.gif","images/stimuli/spore_stims/simple_03_A_b.gif","forced_short","","5","simple_dissimilar","images/stimuli/spore_stims/simple_03_A_b.gif","","","","",""
"","null","html-keyboard-response","68","703083","0.0-19.0-0.2","SS1619740007669","","","null","","","","","","<p><img src= images/blank.png width =""600"" height = ""600"" style=""position:fixed;top:50%; left:50%; transform: translate(-50%, -50%); border:5px solid black"">","","","","","","","",""
"","165.83000001264736","sequential-stimulus-presentation-old","69","703756","0.0-19.0-1.2","SS1619740007669","trial","","40","500","665.8300000126474","images/stimuli/spore_stims/simple_19_A_a.gif","images/stimuli/spore_stims/simple_03_A_b.gif","forced_short","","5","simple_dissimilar","images/stimuli/spore_stims/simple_03_A_b.gif","","","","",""
"","null","html-keyboard-response","70","704849","0.0-19.0-0.3","SS1619740007669","","","null","","","","","","<p><img src= images/blank.png width =""600"" height = ""600"" style=""position:fixed;top:50%; left:50%; transform: translate(-50%, -50%); border:5px solid black"">","","","","","","","",""
"","288.1200000119861","sequential-stimulus-presentation-old","71","705642","0.0-19.0-1.3","SS1619740007669","trial","","40","500","788.1200000119861","images/stimuli/spore_stims/simple_19_A_a.gif","images/stimuli/spore_stims/simple_03_A_b.gif","forced_short","","5","simple_dissimilar","images/stimuli/spore_stims/simple_19_A_a.gif","","","","",""
"","3096.7649999947753","survey-multi-choice","72","708742","0.0-20.0","SS1619740007669","math_question","","","","","","","","","","","","{""Q0"":""9""}","[0]","9","",""
"","null","html-keyboard-response","73","710016","0.0-21.0-0.0","SS1619740007669","","","null","","","","","","<p><img src= images/blank.png width =""600"" height = ""600"" style=""position:fixed;top:50%; left:50%; transform: translate(-50%, -50%); border:5px solid black"">","","","","","","","",""
"","380.3699999989476","sequential-stimulus-presentation-old","74","725403","0.0-21.0-1.0","SS1619740007669","trial","","40","500","880.3699999989476","images/stimuli/spore_stims/simple_20_A_a.gif","images/stimuli/spore_stims/simple_18_A_b.gif","forced_long","","6","simple_dissimilar","images/stimuli/spore_stims/simple_18_A_b.gif","","","","",""
"","null","html-keyboard-response","75","726389","0.0-21.0-0.1","SS1619740007669","","","null","","","","","","<p><img src= images/blank.png width =""600"" height = ""600"" style=""position:fixed;top:50%; left:50%; transform: translate(-50%, -50%); border:5px solid black"">","","","","","","","",""
"","2236.509999987902","sequential-stimulus-presentation-old","76","729134","0.0-21.0-1.1","SS1619740007669","trial","","40","500","2736.509999987902","images/stimuli/spore_stims/simple_20_A_a.gif","images/stimuli/spore_stims/simple_18_A_b.gif","forced_long","","6","simple_dissimilar","images/stimuli/spore_stims/simple_18_A_b.gif","","","","",""
"","null","html-keyboard-response","77","730000","0.0-21.0-0.2","SS1619740007669","","","null","","","","","","<p><img src= images/blank.png width =""600"" height = ""600"" style=""position:fixed;top:50%; left:50%; transform: translate(-50%, -50%); border:5px solid black"">","","","","","","","",""
"","361.0049999842886","sequential-stimulus-presentation-old","78","730869","0.0-21.0-1.2","SS1619740007669","trial","","40","500","861.0049999842886","images/stimuli/spore_stims/simple_20_A_a.gif","images/stimuli/spore_stims/simple_18_A_b.gif","forced_long","","6","simple_dissimilar","images/stimuli/spore_stims/simple_18_A_b.gif","","","","",""
"","null","html-keyboard-response","79","732011","0.0-21.0-0.3","SS1619740007669","","","null","","","","","","<p><img src= images/blank.png width =""600"" height = ""600"" style=""position:fixed;top:50%; left:50%; transform: translate(-50%, -50%); border:5px solid black"">","","","","","","","",""
"","303.93500000354834","sequential-stimulus-presentation-old","80","732822","0.0-21.0-1.3","SS1619740007669","trial","","40","500","803.9350000035483","images/stimuli/spore_stims/simple_20_A_a.gif","images/stimuli/spore_stims/simple_18_A_b.gif","forced_long","","6","simple_dissimilar","images/stimuli/spore_stims/simple_18_A_b.gif","","","","",""
"","null","html-keyboard-response","81","734119","0.0-21.0-0.4","SS1619740007669","","","null","","","","","","<p><img src= images/blank.png width =""600"" height = ""600"" style=""position:fixed;top:50%; left:50%; transform: translate(-50%, -50%); border:5px solid black"">","","","","","","","",""
"","24.454999977024272","sequential-stimulus-presentation-old","82","734652","0.0-21.0-1.4","SS1619740007669","trial","","40","500","524.4549999770243","images/stimuli/spore_stims/simple_20_A_a.gif","images/stimuli/spore_stims/simple_18_A_b.gif","forced_long","","6","simple_dissimilar","images/stimuli/spore_stims/simple_18_A_b.gif","","","","",""
"","3707.0349999994505","survey-multi-choice","83","738360","0.0-22.0","SS1619740007669","math_question","","","","","","","","","","","","{""Q0"":""5""}","[0]","5","",""
"","null","html-keyboard-response","84","739644","0.0-23.0-0.0","SS1619740007669","","","null","","","","","","<p><img src= images/blank.png width =""600"" height = ""600"" style=""position:fixed;top:50%; left:50%; transform: translate(-50%, -50%); border:5px solid black"">","","","","","","","",""
"","2926.6849999839906","sequential-stimulus-presentation-old","85","743078","0.0-23.0-1.0","SS1619740007669","trial","","40","500","3426.6849999839906","images/stimuli/spore_stims/complex_18_A_b.gif","images/stimuli/spore_stims/complex_07_A_a.gif","self_paced","","7","complex_dissimilar","images/stimuli/spore_stims/complex_07_A_a.gif","","","","",""
"","null","html-keyboard-response","86","744277","0.0-23.0-0.1","SS1619740007669","","","null","","","","","","<p><img src= images/blank.png width =""600"" height = ""600"" style=""position:fixed;top:50%; left:50%; transform: translate(-50%, -50%); border:5px solid black"">","","","","","","","",""
"","506.4750000019558","sequential-stimulus-presentation-old","87","745291","0.0-23.0-1.1","SS1619740007669","trial","","40","500","1006.4750000019558","images/stimuli/spore_stims/complex_18_A_b.gif","images/stimuli/spore_stims/complex_07_A_a.gif","self_paced","","7","complex_dissimilar","images/stimuli/spore_stims/complex_07_A_a.gif","","","","",""
"","null","html-keyboard-response","88","746578","0.0-23.0-0.2","SS1619740007669","","","null","","","","","","<p><img src= images/blank.png width =""600"" height = ""600"" style=""position:fixed;top:50%; left:50%; transform: translate(-50%, -50%); border:5px solid black"">","","","","","","","",""
"","306.1699999962002","sequential-stimulus-presentation-old","89","747390","0.0-23.0-1.2","SS1619740007669","trial","","40","500","806.1699999962002","images/stimuli/spore_stims/complex_18_A_b.gif","images/stimuli/spore_stims/complex_07_A_a.gif","self_paced","","7","complex_dissimilar","images/stimuli/spore_stims/complex_18_A_b.gif","","","","",""
"","null","html-keyboard-response","90","748632","0.0-23.0-0.3","SS1619740007669","","","null","","","","","","<p><img src= images/blank.png width =""600"" height = ""600"" style=""position:fixed;top:50%; left:50%; transform: translate(-50%, -50%); border:5px solid black"">","","","","","","","",""
"","575.3349999722559","sequential-stimulus-presentation-old","91","749714","0.0-23.0-1.3","SS1619740007669","trial","","40","500","1075.334999972256","images/stimuli/spore_stims/complex_18_A_b.gif","images/stimuli/spore_stims/complex_07_A_a.gif","self_paced","","7","complex_dissimilar","images/stimuli/spore_stims/complex_07_A_a.gif","","","","",""
"","null","html-keyboard-response","92","750652","0.0-23.0-0.4","SS1619740007669","","","null","","","","","","<p><img src= images/blank.png width =""600"" height = ""600"" style=""position:fixed;top:50%; left:50%; transform: translate(-50%, -50%); border:5px solid black"">","","","","","","","",""
"","159.66500001377426","sequential-stimulus-presentation-old","93","751318","0.0-23.0-1.4","SS1619740007669","trial","","40","500","659.6650000137743","images/stimuli/spore_stims/complex_18_A_b.gif","images/stimuli/spore_stims/complex_07_A_a.gif","self_paced","","7","complex_dissimilar","images/stimuli/spore_stims/complex_18_A_b.gif","","","","",""
"","3324.61000001058","survey-multi-choice","94","754648","0.0-24.0","SS1619740007669","math_question","","","","","","","","","","","","{""Q0"":""7""}","[0]","7","",""
"","null","html-keyboard-response","95","755518","0.0-25.0-0.0","SS1619740007669","","","null","","","","","","<p><img src= images/blank.png width =""600"" height = ""600"" style=""position:fixed;top:50%; left:50%; transform: translate(-50%, -50%); border:5px solid black"">","","","","","","","",""
"","842.8050000220537","sequential-stimulus-presentation-old","96","756867","0.0-25.0-1.0","SS1619740007669","trial","","40","500","1342.8050000220537","images/stimuli/spore_stims/complex_11_A_b.gif","images/stimuli/spore_stims/complex_09_A_a.gif","forced_short","","8","complex_dissimilar","images/stimuli/spore_stims/complex_09_A_a.gif","","","","",""
"","null","html-keyboard-response","97","757787","0.0-25.0-0.1","SS1619740007669","","","null","","","","","","<p><img src= images/blank.png width =""600"" height = ""600"" style=""position:fixed;top:50%; left:50%; transform: translate(-50%, -50%); border:5px solid black"">","","","","","","","",""
"","495.9800000069663","sequential-stimulus-presentation-old","98","758790","0.0-25.0-1.1","SS1619740007669","trial","","40","500","995.9800000069663","images/stimuli/spore_stims/complex_11_A_b.gif","images/stimuli/spore_stims/complex_09_A_a.gif","forced_short","","8","complex_dissimilar","images/stimuli/spore_stims/complex_09_A_a.gif","","","","",""
"","null","html-keyboard-response","99","759977","0.0-25.0-0.2","SS1619740007669","","","null","","","","","","<p><img src= images/blank.png width =""600"" height = ""600"" style=""position:fixed;top:50%; left:50%; transform: translate(-50%, -50%); border:5px solid black"">","","","","","","","",""
"","322.2700000042096","sequential-stimulus-presentation-old","100","760806","0.0-25.0-1.2","SS1619740007669","trial","","40","500","822.2700000042096","images/stimuli/spore_stims/complex_11_A_b.gif","images/stimuli/spore_stims/complex_09_A_a.gif","forced_short","","8","complex_dissimilar","images/stimuli/spore_stims/complex_09_A_a.gif","","","","",""
"","null","html-keyboard-response","101","761973","0.0-25.0-0.3","SS1619740007669","","","null","","","","","","<p><img src= images/blank.png width =""600"" height = ""600"" style=""position:fixed;top:50%; left:50%; transform: translate(-50%, -50%); border:5px solid black"">","","","","","","","",""
"","77.9049999837298","sequential-stimulus-presentation-old","102","762558","0.0-25.0-1.3","SS1619740007669","trial","","40","500","577.9049999837298","images/stimuli/spore_stims/complex_11_A_b.gif","images/stimuli/spore_stims/complex_09_A_a.gif","forced_short","","8","complex_dissimilar","images/stimuli/spore_stims/complex_09_A_a.gif","","","","",""
"","3296.65499998373","survey-multi-choice","103","765858","0.0-26.0","SS1619740007669","math_question","","","","","","","","","","","","{""Q0"":""10""}","[0]","10","",""
"","null","html-keyboard-response","104","766856","0.0-27.0-0.0","SS1619740007669","","","null","","","","","","<p><img src= images/blank.png width =""600"" height = ""600"" style=""position:fixed;top:50%; left:50%; transform: translate(-50%, -50%); border:5px solid black"">","","","","","","","",""
"","233.66999998688698","sequential-stimulus-presentation-old","105","767593","0.0-27.0-1.0","SS1619740007669","trial","","40","500","733.669999986887","images/stimuli/spore_stims/complex_04_A_a.gif","images/stimuli/spore_stims/complex_05_A_b.gif","forced_short","","9","complex_dissimilar","images/stimuli/spore_stims/complex_05_A_b.gif","","","","",""
"","null","html-keyboard-response","106","768711","0.0-27.0-0.1","SS1619740007669","","","null","","","","","","<p><img src= images/blank.png width =""600"" height = ""600"" style=""position:fixed;top:50%; left:50%; transform: translate(-50%, -50%); border:5px solid black"">","","","","","","","",""
"","326.15000000805594","sequential-stimulus-presentation-old","107","769540","0.0-27.0-1.1","SS1619740007669","trial","","40","500","826.1500000080559","images/stimuli/spore_stims/complex_04_A_a.gif","images/stimuli/spore_stims/complex_05_A_b.gif","forced_short","","9","complex_dissimilar","images/stimuli/spore_stims/complex_04_A_a.gif","","","","",""
"","null","html-keyboard-response","108","770504","0.0-27.0-0.2","SS1619740007669","","","null","","","","","","<p><img src= images/blank.png width =""600"" height = ""600"" style=""position:fixed;top:50%; left:50%; transform: translate(-50%, -50%); border:5px solid black"">","","","","","","","",""
"","170.910000015283","sequential-stimulus-presentation-old","109","771178","0.0-27.0-1.2","SS1619740007669","trial","","40","500","670.910000015283","images/stimuli/spore_stims/complex_04_A_a.gif","images/stimuli/spore_stims/complex_05_A_b.gif","forced_short","","9","complex_dissimilar","images/stimuli/spore_stims/complex_05_A_b.gif","","","","",""
"","null","html-keyboard-response","110","772138","0.0-27.0-0.3","SS1619740007669","","","null","","","","","","<p><img src= images/blank.png width =""600"" height = ""600"" style=""position:fixed;top:50%; left:50%; transform: translate(-50%, -50%); border:5px solid black"">","","","","","","","",""
"","899.6350000088569","sequential-stimulus-presentation-old","111","773544","0.0-27.0-1.3","SS1619740007669","trial","","40","500","1399.6350000088569","images/stimuli/spore_stims/complex_04_A_a.gif","images/stimuli/spore_stims/complex_05_A_b.gif","forced_short","","9","complex_dissimilar","images/stimuli/spore_stims/complex_05_A_b.gif","","","","",""
"","null","html-keyboard-response","112","774371","0.0-27.0-0.4","SS1619740007669","","","null","","","","","","<p><img src= images/blank.png width =""600"" height = ""600"" style=""position:fixed;top:50%; left:50%; transform: translate(-50%, -50%); border:5px solid black"">","","","","","","","",""
"","353.62500001792796","sequential-stimulus-presentation-old","113","775232","0.0-27.0-1.4","SS1619740007669","trial","","40","500","853.625000017928","images/stimuli/spore_stims/complex_04_A_a.gif","images/stimuli/spore_stims/complex_05_A_b.gif","forced_short","","9","complex_dissimilar","images/stimuli/spore_stims/complex_05_A_b.gif","","","","",""
"","null","html-keyboard-response","114","776307","0.0-27.0-0.5","SS1619740007669","","","null","","","","","","<p><img src= images/blank.png width =""600"" height = ""600"" style=""position:fixed;top:50%; left:50%; transform: translate(-50%, -50%); border:5px solid black"">","","","","","","","",""
"","66.5599999774713","sequential-stimulus-presentation-old","115","776880","0.0-27.0-1.5","SS1619740007669","trial","","40","500","566.5599999774713","images/stimuli/spore_stims/complex_04_A_a.gif","images/stimuli/spore_stims/complex_05_A_b.gif","forced_short","","9","complex_dissimilar","images/stimuli/spore_stims/complex_04_A_a.gif","","","","",""
"","3035.2399999974295","survey-multi-choice","116","779923","0.0-28.0","SS1619740007669","math_question","","","","","","","","","","","","{""Q0"":""10""}","[0]","10","",""
"","null","html-keyboard-response","117","781015","0.0-29.0-0.0","SS1619740007669","","","null","","","","","","<p><img src= images/blank.png width =""600"" height = ""600"" style=""position:fixed;top:50%; left:50%; transform: translate(-50%, -50%); border:5px solid black"">","","","","","","","",""
"","280.4550000000745","sequential-stimulus-presentation-old","118","781802","0.0-29.0-1.0","SS1619740007669","trial","","40","500","780.4550000000745","images/stimuli/spore_stims/simple_12_A_b.gif","images/stimuli/spore_stims/simple_14_A_a.gif","self_paced","","10","simple_dissimilar","images/stimuli/spore_stims/simple_14_A_a.gif","","","","",""
"","null","html-keyboard-response","119","782645","0.0-29.0-0.1","SS1619740007669","","","null","","","","","","<p><img src= images/blank.png width =""600"" height = ""600"" style=""position:fixed;top:50%; left:50%; transform: translate(-50%, -50%); border:5px solid black"">","","","","","","","",""
"","133.57999999425374","sequential-stimulus-presentation-old","120","783285","0.0-29.0-1.1","SS1619740007669","trial","","40","500","633.5799999942537","images/stimuli/spore_stims/simple_12_A_b.gif","images/stimuli/spore_stims/simple_14_A_a.gif","self_paced","","10","simple_dissimilar","images/stimuli/spore_stims/simple_14_A_a.gif","","","","",""
"","null","html-keyboard-response","121","784118","0.0-29.0-0.2","SS1619740007669","","","null","","","","","","<p><img src= images/blank.png width =""600"" height = ""600"" style=""position:fixed;top:50%; left:50%; transform: translate(-50%, -50%); border:5px solid black"">","","","","","","","",""
"","179.75499999010935","sequential-stimulus-presentation-old","122","784803","0.0-29.0-1.2","SS1619740007669","trial","","40","500","679.7549999901094","images/stimuli/spore_stims/simple_12_A_b.gif","images/stimuli/spore_stims/simple_14_A_a.gif","self_paced","","10","simple_dissimilar","images/stimuli/spore_stims/simple_12_A_b.gif","","","","",""
"","null","html-keyboard-response","123","785654","0.0-29.0-0.3","SS1619740007669","","","null","","","","","","<p><img src= images/blank.png width =""600"" height = ""600"" style=""position:fixed;top:50%; left:50%; transform: translate(-50%, -50%); border:5px solid black"">","","","","","","","",""
"","453.7749999726657","sequential-stimulus-presentation-old","124","786612","0.0-29.0-1.3","SS1619740007669","trial","","40","500","953.7749999726657","images/stimuli/spore_stims/simple_12_A_b.gif","images/stimuli/spore_stims/simple_14_A_a.gif","self_paced","","10","simple_dissimilar","images/stimuli/spore_stims/simple_14_A_a.gif","","","","",""
"","3110.9549999819137","survey-multi-choice","125","789728","0.0-30.0","SS1619740007669","math_question","","","","","","","","","","","","{""Q0"":""8""}","[0]","8","",""
"","null","html-keyboard-response","126","790981","0.0-31.0-0.0","SS1619740007669","","","null","","","","","","<p><img src= images/blank.png width =""600"" height = ""600"" style=""position:fixed;top:50%; left:50%; transform: translate(-50%, -50%); border:5px solid black"">","","","","","","","",""
"","54.70499998773448","sequential-stimulus-presentation-old","127","791544","0.0-31.0-1.0","SS1619740007669","trial","","40","500","554.7049999877345","images/stimuli/spore_stims/simple_01_A_b.gif","images/stimuli/spore_stims/simple_07_A_a.gif","forced_short","","11","simple_dissimilar","images/stimuli/spore_stims/simple_07_A_a.gif","","","","",""
"","null","html-keyboard-response","128","792761","0.0-31.0-0.1","SS1619740007669","","","null","","","","","","<p><img src= images/blank.png width =""600"" height = ""600"" style=""position:fixed;top:50%; left:50%; transform: translate(-50%, -50%); border:5px solid black"">","","","","","","","",""
"","301.66499997721985","sequential-stimulus-presentation-old","129","793572","0.0-31.0-1.1","SS1619740007669","trial","","40","500","801.6649999772198","images/stimuli/spore_stims/simple_01_A_b.gif","images/stimuli/spore_stims/simple_07_A_a.gif","forced_short","","11","simple_dissimilar","images/stimuli/spore_stims/simple_07_A_a.gif","","","","",""
"","null","html-keyboard-response","130","794638","0.0-31.0-0.2","SS1619740007669","","","null","","","","","","<p><img src= images/blank.png width =""600"" height = ""600"" style=""position:fixed;top:50%; left:50%; transform: translate(-50%, -50%); border:5px solid black"">","","","","","","","",""
"","397.2150000045076","sequential-stimulus-presentation-old","131","795541","0.0-31.0-1.2","SS1619740007669","trial","","40","500","897.2150000045076","images/stimuli/spore_stims/simple_01_A_b.gif","images/stimuli/spore_stims/simple_07_A_a.gif","forced_short","","11","simple_dissimilar","images/stimuli/spore_stims/simple_01_A_b.gif","","","","",""
"","null","html-keyboard-response","132","796662","0.0-31.0-0.3","SS1619740007669","","","null","","","","","","<p><img src= images/blank.png width =""600"" height = ""600"" style=""position:fixed;top:50%; left:50%; transform: translate(-50%, -50%); border:5px solid black"">","","","","","","","",""
"","303.0449999787379","sequential-stimulus-presentation-old","133","797475","0.0-31.0-1.3","SS1619740007669","trial","","40","500","803.0449999787379","images/stimuli/spore_stims/simple_01_A_b.gif","images/stimuli/spore_stims/simple_07_A_a.gif","forced_short","","11","simple_dissimilar","images/stimuli/spore_stims/simple_07_A_a.gif","","","","",""
"","null","html-keyboard-response","134","798747","0.0-31.0-0.4","SS1619740007669","","","null","","","","","","<p><img src= images/blank.png width =""600"" height = ""600"" style=""position:fixed;top:50%; left:50%; transform: translate(-50%, -50%); border:5px solid black"">","","","","","","","",""
"","281.18000001995824","sequential-stimulus-presentation-old","135","799536","0.0-31.0-1.4","SS1619740007669","trial","","40","500","781.1800000199582","images/stimuli/spore_stims/simple_01_A_b.gif","images/stimuli/spore_stims/simple_07_A_a.gif","forced_short","","11","simple_dissimilar","images/stimuli/spore_stims/simple_07_A_a.gif","","","","",""
"","null","html-keyboard-response","136","800428","0.0-31.0-0.5","SS1619740007669","","","null","","","","","","<p><img src= images/blank.png width =""600"" height = ""600"" style=""position:fixed;top:50%; left:50%; transform: translate(-50%, -50%); border:5px solid black"">","","","","","","","",""
"","378.62499998300336","sequential-stimulus-presentation-old","137","801314","0.0-31.0-1.5","SS1619740007669","trial","","40","500","878.6249999830034","images/stimuli/spore_stims/simple_01_A_b.gif","images/stimuli/spore_stims/simple_07_A_a.gif","forced_short","","11","simple_dissimilar","images/stimuli/spore_stims/simple_07_A_a.gif","","","","",""
"[{""page_index"":0,""viewing_time"":5208.164999989094}]","5208.579999976791","instructions","138","806528","0.0-32.0","SS1619740007669","instructions","","","","","","","","","","","","","","","",""
"","6926.804999995511","survey-likert","139","813461","0.0-33.0","SS1619740007669","similarity_question","","","","","","","","","","","","{""Q0"":1}","[0]","","images/stimuli/spore_stims/simple_18_A_b.gif","images/stimuli/spore_stims/simple_20_A_a.gif"
"","3467.0099999930244","survey-likert","140","816932","0.0-34.0","SS1619740007669","similarity_question","","","","","","","","","","","","{""Q0"":1}","[0]","","images/stimuli/spore_stims/complex_08_A_a.gif","images/stimuli/spore_stims/complex_14_A_b.gif"
"","11287.905000004685","survey-likert","141","828224","0.0-35.0","SS1619740007669","similarity_question","","","","","","","","","","","","{""Q0"":2}","[0]","","images/stimuli/spore_stims/simple_14_A_a.gif","images/stimuli/spore_stims/simple_12_A_b.gif"
"","4480.810000008205","survey-likert","142","832710","0.0-36.0","SS1619740007669","similarity_question","","","","","","","","","","","","{""Q0"":1}","[0]","","images/stimuli/spore_stims/complex_07_A_a.gif","images/stimuli/spore_stims/complex_18_A_b.gif"
"","4851.470000023255","survey-likert","143","837566","0.0-37.0","SS1619740007669","similarity_question","","","","","","","","","","","","{""Q0"":1}","[0]","","images/stimuli/spore_stims/simple_01_A_b.gif","images/stimuli/spore_stims/simple_07_A_a.gif"
"","3610.7299999857787","survey-likert","144","841182","0.0-38.0","SS1619740007669","similarity_question","","","","","","","","","","","","{""Q0"":1}","[0]","","images/stimuli/spore_stims/complex_09_A_a.gif","images/stimuli/spore_stims/complex_11_A_b.gif"
"","5833.079999982147","survey-likert","145","847020","0.0-39.0","SS1619740007669","similarity_question","","","","","","","","","","","","{""Q0"":5}","[0]","","images/stimuli/spore_stims/simple_19_A_a.gif","images/stimuli/spore_stims/simple_03_A_b.gif"
"","4074.894999997923","survey-likert","146","851100","0.0-40.0","SS1619740007669","similarity_question","","","","","","","","","","","","{""Q0"":1}","[0]","","images/stimuli/spore_stims/complex_05_A_b.gif","images/stimuli/spore_stims/complex_04_A_a.gif"
"","5799.700000003213","survey-likert","147","856905","0.0-41.0","SS1619740007669","similarity_question","","","","","","","","","","","","{""Q0"":1}","[0]","","images/stimuli/spore_stims/complex_20_A_a.gif","images/stimuli/spore_stims/complex_12_A_b.gif"
"","4167.875000013737","survey-likert","148","861078","0.0-42.0","SS1619740007669","similarity_question","","","","","","","","","","","","{""Q0"":2}","[0]","","images/stimuli/spore_stims/simple_10_A_a.gif","images/stimuli/spore_stims/simple_04_A_b.gif"
"","2712.2549999912735","survey-likert","149","863796","0.0-43.0","SS1619740007669","similarity_question","","","","","","","","","","","","{""Q0"":1}","[0]","","images/stimuli/spore_stims/complex_01_A_b.gif","images/stimuli/spore_stims/complex_14_A_a.gif"
"","4922.8149999980815","survey-likert","150","868724","0.0-44.0","SS1619740007669","similarity_question","","","","","","","","","","","","{""Q0"":2}","[0]","","images/stimuli/spore_stims/simple_01_A_a.gif","images/stimuli/spore_stims/simple_14_A_b.gif"
"[{""page_index"":0,""viewing_time"":3034.434999979567}]","3034.86499999417","instructions","151","871763","0.0-45.0","SS1619740007669","instructions","","","","","","","","","","","","","","","",""
"","7248.419999988982","survey-likert","152","879016","0.0-46.0","SS1619740007669","","","","","","","","","images/stimuli/spore_stims/complex_12_A_b.gif","","","","{""Q0"":4}","[0]","","",""
"","5039.32499999064","survey-likert","153","884060","0.0-47.0","SS1619740007669","","","","","","","","","images/stimuli/spore_stims/simple_14_A_b.gif","","","","{""Q0"":0}","[0]","","",""
"","3608.349999994971","survey-likert","154","887674","0.0-48.0","SS1619740007669","","","","","","","","","images/stimuli/spore_stims/simple_19_A_a.gif","","","","{""Q0"":2}","[0]","","",""
"","3806.030000007013","survey-likert","155","891485","0.0-49.0","SS1619740007669","","","","","","","","","images/stimuli/spore_stims/complex_14_A_a.gif","","","","{""Q0"":6}","[0]","","",""
"","4511.924999998882","survey-likert","156","896002","0.0-50.0","SS1619740007669","","","","","","","","","images/stimuli/spore_stims/complex_08_A_a.gif","","","","{""Q0"":4}","[0]","","",""
"","3726.7200000060257","survey-likert","157","899734","0.0-51.0","SS1619740007669","","","","","","","","","images/stimuli/spore_stims/simple_12_A_b.gif","","","","{""Q0"":1}","[0]","","",""
"","4151.580000005197","survey-likert","158","903890","0.0-52.0","SS1619740007669","","","","","","","","","images/stimuli/spore_stims/complex_05_A_b.gif","","","","{""Q0"":4}","[0]","","",""
"","3883.8099999993574","survey-likert","159","907780","0.0-53.0","SS1619740007669","","","","","","","","","images/stimuli/spore_stims/complex_07_A_a.gif","","","","{""Q0"":5}","[0]","","",""
"","5007.714999985183","survey-likert","160","912792","0.0-54.0","SS1619740007669","","","","","","","","","images/stimuli/spore_stims/complex_11_A_b.gif","","","","{""Q0"":6}","[0]","","",""
"","2423.130000010133","survey-likert","161","915221","0.0-55.0","SS1619740007669","","","","","","","","","images/stimuli/spore_stims/simple_07_A_a.gif","","","","{""Q0"":0}","[0]","","",""
"","2626.3449999969453","survey-likert","162","917852","0.0-56.0","SS1619740007669","","","","","","","","","images/stimuli/spore_stims/simple_10_A_a.gif","","","","{""Q0"":1}","[0]","","",""
"","3177.3300000058953","survey-likert","163","921035","0.0-57.0","SS1619740007669","","","","","","","","","images/stimuli/spore_stims/simple_18_A_b.gif","","","","{""Q0"":0}","[0]","","",""
"[{""page_index"":0,""viewing_time"":2147.319999989122}]","2147.6399999810383","instructions","164","923186","0.0-58.0","SS1619740007669","instructions","","","","","","","","","","","","","","","",""
"","4181.385000003502","demog-age","165","927374","0.0-59.0","SS1619740007669","","","","","","","","","","","","","{""age"":""47""}","","","",""
"","2703.8400000019465","demog-ethnic-US","166","930084","0.0-60.0","SS1619740007669","","","","","","","","","","","","","{""ethnicity"":[""White""]}","[0]","","",""
"","6248.87999999919","demog-gender-and-education","167","936338","0.0-61.0","SS1619740007669","","","","","","","","","","","","","{""gender"":""Male"",""education"":""High school diploma""}","[0,1]","","",""
"","9807.079999998678","survey-text","168","946152","0.0-62.0","SS1619740007669","feedback","","","","","","","","","","","","{""Q0"":""no issues""}","","","",""
"[{""page_index"":0,""viewing_time"":1763.5500000033062}]","1763.9900000067428","instructions","169","947920","0.0-63.0","SS1619740007669","instructions","","","","","","","","","","","","","","","",""
