"view_history","rt","trial_type","trial_index","time_elapsed","internal_node_id","subject","stimulus_type","trial_stimulus","key_press","minimum_viewing_duration","trial_looking_time","block_deviant","block_background","exposure_type","stimulus","block_number","block_type","stimulus_displayed","responses","question_order","math_correct_answer","stimulus_left","stimulus_right"
"[{""page_index"":0,""viewing_time"":2431}]","2432","instructions","0","2435","0.0-0.0","SS1619740317883","","","","","","","","","","","","","","","","",""
"[{""page_index"":0,""viewing_time"":2047},{""page_index"":1,""viewing_time"":3048}]","5096","instructions","1","9536","0.0-1.0","SS1619740317883","instructions","","","","","","","","","","","","","","","",""
"","1379","sequential-stimulus-presentation-old","2","11421","0.0-2.0","SS1619740317883","","","40","500","1879","null","null","self_paced","","","","","","","","",""
"","6322","sequential-stimulus-presentation-old","3","18249","0.0-3.0","SS1619740317883","","","40","500","6822","null","null","self_paced","","","","","","","","",""
"[{""page_index"":0,""viewing_time"":20147}]","20147","instructions","4","38397","0.0-4.0","SS1619740317883","instructions","","","","","","","","","","","","","","","",""
"","846","sequential-stimulus-presentation-old","5","54247","0.0-5.0","SS1619740317883","","","40","500","1346","null","null","forced_long","","","","","","","","",""
"","3194","sequential-stimulus-presentation-old","6","57946","0.0-6.0","SS1619740317883","","","40","500","3694","null","null","forced_long","","","","","","","","",""
"[{""page_index"":0,""viewing_time"":5879.000000000015}]","5879.000000000015","instructions","7","63827","0.0-7.0","SS1619740317883","instructions","","","","","","","","","","","","","","","",""
"[{""page_index"":0,""viewing_time"":6802},{""page_index"":1,""viewing_time"":7409},{""page_index"":2,""viewing_time"":7538},{""page_index"":3,""viewing_time"":1267.0000000000146},{""page_index"":4,""viewing_time"":991}]","24008","instructions","8","87836","0.0-8.0","SS1619740317883","instructions","","","","","","","","","","","","","","","",""
"","null","html-keyboard-response","9","88719","0.0-9.0-0.0","SS1619740317883","","","null","","","","","","<p><img src= images/blank.png width =""600"" height = ""600"" style=""position:fixed;top:50%; left:50%; transform: translate(-50%, -50%); border:5px solid black"">","","","","","","","",""
"","1246","sequential-stimulus-presentation-old","10","90471","0.0-9.0-1.0","SS1619740317883","trial","","40","500","1746","images/stimuli/spore_stims/simple_11_A_b.gif","images/stimuli/spore_stims/simple_09_A_a.gif","self_paced","","0","simple_dissimilar","images/stimuli/spore_stims/simple_09_A_a.gif","","","","",""
"","null","html-keyboard-response","11","91393","0.0-9.0-0.1","SS1619740317883","","","null","","","","","","<p><img src= images/blank.png width =""600"" height = ""600"" style=""position:fixed;top:50%; left:50%; transform: translate(-50%, -50%); border:5px solid black"">","","","","","","","",""
"","3304.0000000000146","sequential-stimulus-presentation-old","12","95201","0.0-9.0-1.1","SS1619740317883","trial","","40","500","3804.0000000000146","images/stimuli/spore_stims/simple_11_A_b.gif","images/stimuli/spore_stims/simple_09_A_a.gif","self_paced","","0","simple_dissimilar","images/stimuli/spore_stims/simple_11_A_b.gif","","","","",""
"","null","html-keyboard-response","13","96312","0.0-9.0-0.2","SS1619740317883","","","null","","","","","","<p><img src= images/blank.png width =""600"" height = ""600"" style=""position:fixed;top:50%; left:50%; transform: translate(-50%, -50%); border:5px solid black"">","","","","","","","",""
"","1947.9999999999854","sequential-stimulus-presentation-old","14","98765","0.0-9.0-1.2","SS1619740317883","trial","","40","500","2447.9999999999854","images/stimuli/spore_stims/simple_11_A_b.gif","images/stimuli/spore_stims/simple_09_A_a.gif","self_paced","","0","simple_dissimilar","images/stimuli/spore_stims/simple_11_A_b.gif","","","","",""
"","null","html-keyboard-response","15","99959","0.0-9.0-0.3","SS1619740317883","","","null","","","","","","<p><img src= images/blank.png width =""600"" height = ""600"" style=""position:fixed;top:50%; left:50%; transform: translate(-50%, -50%); border:5px solid black"">","","","","","","","",""
"","6786","sequential-stimulus-presentation-old","16","107248","0.0-9.0-1.3","SS1619740317883","trial","","40","500","7286","images/stimuli/spore_stims/simple_11_A_b.gif","images/stimuli/spore_stims/simple_09_A_a.gif","self_paced","","0","simple_dissimilar","images/stimuli/spore_stims/simple_09_A_a.gif","","","","",""
"","null","html-keyboard-response","17","108284","0.0-9.0-0.4","SS1619740317883","","","null","","","","","","<p><img src= images/blank.png width =""600"" height = ""600"" style=""position:fixed;top:50%; left:50%; transform: translate(-50%, -50%); border:5px solid black"">","","","","","","","",""
"","1302","sequential-stimulus-presentation-old","18","110092","0.0-9.0-1.4","SS1619740317883","trial","","40","500","1802","images/stimuli/spore_stims/simple_11_A_b.gif","images/stimuli/spore_stims/simple_09_A_a.gif","self_paced","","0","simple_dissimilar","images/stimuli/spore_stims/simple_09_A_a.gif","","","","",""
"","3307.9999999999854","survey-multi-choice","19","113404","0.0-10.0","SS1619740317883","math_question","","","","","","","","","","","","{""Q0"":""4""}","[0]","4","",""
"","null","html-keyboard-response","20","114592","0.0-11.0-0.0","SS1619740317883","","","null","","","","","","<p><img src= images/blank.png width =""600"" height = ""600"" style=""position:fixed;top:50%; left:50%; transform: translate(-50%, -50%); border:5px solid black"">","","","","","","","",""
"","634","sequential-stimulus-presentation-old","21","115732","0.0-11.0-1.0","SS1619740317883","trial","","40","500","1134","images/stimuli/spore_stims/simple_10_A_b.gif","images/stimuli/spore_stims/simple_13_A_a.gif","forced_short","","1","simple_dissimilar","images/stimuli/spore_stims/simple_13_A_a.gif","","","","",""
"","null","html-keyboard-response","22","116646","0.0-11.0-0.1","SS1619740317883","","","null","","","","","","<p><img src= images/blank.png width =""600"" height = ""600"" style=""position:fixed;top:50%; left:50%; transform: translate(-50%, -50%); border:5px solid black"">","","","","","","","",""
"","1282.0000000000146","sequential-stimulus-presentation-old","23","118433","0.0-11.0-1.1","SS1619740317883","trial","","40","500","1782.0000000000146","images/stimuli/spore_stims/simple_10_A_b.gif","images/stimuli/spore_stims/simple_13_A_a.gif","forced_short","","1","simple_dissimilar","images/stimuli/spore_stims/simple_10_A_b.gif","","","","",""
"","null","html-keyboard-response","24","119701","0.0-11.0-0.2","SS1619740317883","","","null","","","","","","<p><img src= images/blank.png width =""600"" height = ""600"" style=""position:fixed;top:50%; left:50%; transform: translate(-50%, -50%); border:5px solid black"">","","","","","","","",""
"","5215","sequential-stimulus-presentation-old","25","125421","0.0-11.0-1.2","SS1619740317883","trial","","40","500","5715","images/stimuli/spore_stims/simple_10_A_b.gif","images/stimuli/spore_stims/simple_13_A_a.gif","forced_short","","1","simple_dissimilar","images/stimuli/spore_stims/simple_13_A_a.gif","","","","",""
"","null","html-keyboard-response","26","126638","0.0-11.0-0.3","SS1619740317883","","","null","","","","","","<p><img src= images/blank.png width =""600"" height = ""600"" style=""position:fixed;top:50%; left:50%; transform: translate(-50%, -50%); border:5px solid black"">","","","","","","","",""
"","1470","sequential-stimulus-presentation-old","27","128613","0.0-11.0-1.3","SS1619740317883","trial","","40","500","1970","images/stimuli/spore_stims/simple_10_A_b.gif","images/stimuli/spore_stims/simple_13_A_a.gif","forced_short","","1","simple_dissimilar","images/stimuli/spore_stims/simple_13_A_a.gif","","","","",""
"","null","html-keyboard-response","28","129455","0.0-11.0-0.4","SS1619740317883","","","null","","","","","","<p><img src= images/blank.png width =""600"" height = ""600"" style=""position:fixed;top:50%; left:50%; transform: translate(-50%, -50%); border:5px solid black"">","","","","","","","",""
"","1088","sequential-stimulus-presentation-old","29","131048","0.0-11.0-1.4","SS1619740317883","trial","","40","500","1588","images/stimuli/spore_stims/simple_10_A_b.gif","images/stimuli/spore_stims/simple_13_A_a.gif","forced_short","","1","simple_dissimilar","images/stimuli/spore_stims/simple_13_A_a.gif","","","","",""
"","null","html-keyboard-response","30","132255","0.0-11.0-0.5","SS1619740317883","","","null","","","","","","<p><img src= images/blank.png width =""600"" height = ""600"" style=""position:fixed;top:50%; left:50%; transform: translate(-50%, -50%); border:5px solid black"">","","","","","","","",""
"","1224.999999999971","sequential-stimulus-presentation-old","31","133986","0.0-11.0-1.5","SS1619740317883","trial","","40","500","1724.999999999971","images/stimuli/spore_stims/simple_10_A_b.gif","images/stimuli/spore_stims/simple_13_A_a.gif","forced_short","","1","simple_dissimilar","images/stimuli/spore_stims/simple_10_A_b.gif","","","","",""
"","3643","survey-multi-choice","32","137633","0.0-12.0","SS1619740317883","math_question","","","","","","","","","","","","{""Q0"":""12""}","[0]","12","",""
"","null","html-keyboard-response","33","138505","0.0-13.0-0.0","SS1619740317883","","","null","","","","","","<p><img src= images/blank.png width =""600"" height = ""600"" style=""position:fixed;top:50%; left:50%; transform: translate(-50%, -50%); border:5px solid black"">","","","","","","","",""
"","1784","sequential-stimulus-presentation-old","34","140794","0.0-13.0-1.0","SS1619740317883","trial","","40","500","2284","images/stimuli/spore_stims/complex_12_A_a.gif","images/stimuli/spore_stims/complex_02_A_b.gif","self_paced","","2","complex_dissimilar","images/stimuli/spore_stims/complex_02_A_b.gif","","","","",""
"","null","html-keyboard-response","35","141965","0.0-13.0-0.1","SS1619740317883","","","null","","","","","","<p><img src= images/blank.png width =""600"" height = ""600"" style=""position:fixed;top:50%; left:50%; transform: translate(-50%, -50%); border:5px solid black"">","","","","","","","",""
"","1936","sequential-stimulus-presentation-old","36","144407","0.0-13.0-1.1","SS1619740317883","trial","","40","500","2436","images/stimuli/spore_stims/complex_12_A_a.gif","images/stimuli/spore_stims/complex_02_A_b.gif","self_paced","","2","complex_dissimilar","images/stimuli/spore_stims/complex_02_A_b.gif","","","","",""
"","null","html-keyboard-response","37","145349","0.0-13.0-0.2","SS1619740317883","","","null","","","","","","<p><img src= images/blank.png width =""600"" height = ""600"" style=""position:fixed;top:50%; left:50%; transform: translate(-50%, -50%); border:5px solid black"">","","","","","","","",""
"","751","sequential-stimulus-presentation-old","38","146605","0.0-13.0-1.2","SS1619740317883","trial","","40","500","1251","images/stimuli/spore_stims/complex_12_A_a.gif","images/stimuli/spore_stims/complex_02_A_b.gif","self_paced","","2","complex_dissimilar","images/stimuli/spore_stims/complex_12_A_a.gif","","","","",""
"","null","html-keyboard-response","39","147440","0.0-13.0-0.3","SS1619740317883","","","null","","","","","","<p><img src= images/blank.png width =""600"" height = ""600"" style=""position:fixed;top:50%; left:50%; transform: translate(-50%, -50%); border:5px solid black"">","","","","","","","",""
"","684.0000000000291","sequential-stimulus-presentation-old","40","148630","0.0-13.0-1.3","SS1619740317883","trial","","40","500","1184.000000000029","images/stimuli/spore_stims/complex_12_A_a.gif","images/stimuli/spore_stims/complex_02_A_b.gif","self_paced","","2","complex_dissimilar","images/stimuli/spore_stims/complex_02_A_b.gif","","","","",""
"","null","html-keyboard-response","41","149760","0.0-13.0-0.4","SS1619740317883","","","null","","","","","","<p><img src= images/blank.png width =""600"" height = ""600"" style=""position:fixed;top:50%; left:50%; transform: translate(-50%, -50%); border:5px solid black"">","","","","","","","",""
"","951","sequential-stimulus-presentation-old","42","151217","0.0-13.0-1.4","SS1619740317883","trial","","40","500","1451","images/stimuli/spore_stims/complex_12_A_a.gif","images/stimuli/spore_stims/complex_02_A_b.gif","self_paced","","2","complex_dissimilar","images/stimuli/spore_stims/complex_02_A_b.gif","","","","",""
"","null","html-keyboard-response","43","152413","0.0-13.0-0.5","SS1619740317883","","","null","","","","","","<p><img src= images/blank.png width =""600"" height = ""600"" style=""position:fixed;top:50%; left:50%; transform: translate(-50%, -50%); border:5px solid black"">","","","","","","","",""
"","195","sequential-stimulus-presentation-old","44","153114","0.0-13.0-1.5","SS1619740317883","trial","","40","500","695","images/stimuli/spore_stims/complex_12_A_a.gif","images/stimuli/spore_stims/complex_02_A_b.gif","self_paced","","2","complex_dissimilar","images/stimuli/spore_stims/complex_12_A_a.gif","","","","",""
"","3099","survey-multi-choice","45","156217","0.0-14.0","SS1619740317883","math_question","","","","","","","","","","","","{""Q0"":""5""}","[0]","5","",""
"","null","html-keyboard-response","46","157482","0.0-15.0-0.0","SS1619740317883","","","null","","","","","","<p><img src= images/blank.png width =""600"" height = ""600"" style=""position:fixed;top:50%; left:50%; transform: translate(-50%, -50%); border:5px solid black"">","","","","","","","",""
"","1444","sequential-stimulus-presentation-old","47","173932","0.0-15.0-1.0","SS1619740317883","trial","","40","500","1944","images/stimuli/spore_stims/simple_05_A_a.gif","images/stimuli/spore_stims/simple_16_A_b.gif","forced_long","","3","simple_dissimilar","images/stimuli/spore_stims/simple_16_A_b.gif","","","","",""
"","null","html-keyboard-response","48","174798","0.0-15.0-0.1","SS1619740317883","","","null","","","","","","<p><img src= images/blank.png width =""600"" height = ""600"" style=""position:fixed;top:50%; left:50%; transform: translate(-50%, -50%); border:5px solid black"">","","","","","","","",""
"","910.9999999999709","sequential-stimulus-presentation-old","49","176219","0.0-15.0-1.1","SS1619740317883","trial","","40","500","1410.999999999971","images/stimuli/spore_stims/simple_05_A_a.gif","images/stimuli/spore_stims/simple_16_A_b.gif","forced_long","","3","simple_dissimilar","images/stimuli/spore_stims/simple_05_A_a.gif","","","","",""
"","null","html-keyboard-response","50","177214","0.0-15.0-0.2","SS1619740317883","","","null","","","","","","<p><img src= images/blank.png width =""600"" height = ""600"" style=""position:fixed;top:50%; left:50%; transform: translate(-50%, -50%); border:5px solid black"">","","","","","","","",""
"","799","sequential-stimulus-presentation-old","51","178518","0.0-15.0-1.2","SS1619740317883","trial","","40","500","1299","images/stimuli/spore_stims/simple_05_A_a.gif","images/stimuli/spore_stims/simple_16_A_b.gif","forced_long","","3","simple_dissimilar","images/stimuli/spore_stims/simple_16_A_b.gif","","","","",""
"","null","html-keyboard-response","52","179415","0.0-15.0-0.3","SS1619740317883","","","null","","","","","","<p><img src= images/blank.png width =""600"" height = ""600"" style=""position:fixed;top:50%; left:50%; transform: translate(-50%, -50%); border:5px solid black"">","","","","","","","",""
"","1143","sequential-stimulus-presentation-old","53","181062","0.0-15.0-1.3","SS1619740317883","trial","","40","500","1643","images/stimuli/spore_stims/simple_05_A_a.gif","images/stimuli/spore_stims/simple_16_A_b.gif","forced_long","","3","simple_dissimilar","images/stimuli/spore_stims/simple_16_A_b.gif","","","","",""
"","null","html-keyboard-response","54","182266","0.0-15.0-0.4","SS1619740317883","","","null","","","","","","<p><img src= images/blank.png width =""600"" height = ""600"" style=""position:fixed;top:50%; left:50%; transform: translate(-50%, -50%); border:5px solid black"">","","","","","","","",""
"","1414","sequential-stimulus-presentation-old","55","184184","0.0-15.0-1.4","SS1619740317883","trial","","40","500","1914","images/stimuli/spore_stims/simple_05_A_a.gif","images/stimuli/spore_stims/simple_16_A_b.gif","forced_long","","3","simple_dissimilar","images/stimuli/spore_stims/simple_05_A_a.gif","","","","",""
"","3092","survey-multi-choice","56","187280","0.0-16.0","SS1619740317883","math_question","","","","","","","","","","","","{""Q0"":""12""}","[0]","10","",""
"","null","html-keyboard-response","57","188519","0.0-17.0-0.0","SS1619740317883","","","null","","","","","","<p><img src= images/blank.png width =""600"" height = ""600"" style=""position:fixed;top:50%; left:50%; transform: translate(-50%, -50%); border:5px solid black"">","","","","","","","",""
"","1000","sequential-stimulus-presentation-old","58","190024","0.0-17.0-1.0","SS1619740317883","trial","","40","500","1500","images/stimuli/spore_stims/simple_15_A_b.gif","images/stimuli/spore_stims/simple_16_A_a.gif","forced_short","","4","simple_dissimilar","images/stimuli/spore_stims/simple_16_A_a.gif","","","","",""
"","null","html-keyboard-response","59","190992","0.0-17.0-0.1","SS1619740317883","","","null","","","","","","<p><img src= images/blank.png width =""600"" height = ""600"" style=""position:fixed;top:50%; left:50%; transform: translate(-50%, -50%); border:5px solid black"">","","","","","","","",""
"","1373.999999999971","sequential-stimulus-presentation-old","60","192871","0.0-17.0-1.1","SS1619740317883","trial","","40","500","1873.999999999971","images/stimuli/spore_stims/simple_15_A_b.gif","images/stimuli/spore_stims/simple_16_A_a.gif","forced_short","","4","simple_dissimilar","images/stimuli/spore_stims/simple_16_A_a.gif","","","","",""
"","null","html-keyboard-response","61","194084","0.0-17.0-0.2","SS1619740317883","","","null","","","","","","<p><img src= images/blank.png width =""600"" height = ""600"" style=""position:fixed;top:50%; left:50%; transform: translate(-50%, -50%); border:5px solid black"">","","","","","","","",""
"","1200","sequential-stimulus-presentation-old","62","195792","0.0-17.0-1.2","SS1619740317883","trial","","40","500","1700","images/stimuli/spore_stims/simple_15_A_b.gif","images/stimuli/spore_stims/simple_16_A_a.gif","forced_short","","4","simple_dissimilar","images/stimuli/spore_stims/simple_15_A_b.gif","","","","",""
"","null","html-keyboard-response","63","196736","0.0-17.0-0.3","SS1619740317883","","","null","","","","","","<p><img src= images/blank.png width =""600"" height = ""600"" style=""position:fixed;top:50%; left:50%; transform: translate(-50%, -50%); border:5px solid black"">","","","","","","","",""
"","1271","sequential-stimulus-presentation-old","64","198513","0.0-17.0-1.3","SS1619740317883","trial","","40","500","1771","images/stimuli/spore_stims/simple_15_A_b.gif","images/stimuli/spore_stims/simple_16_A_a.gif","forced_short","","4","simple_dissimilar","images/stimuli/spore_stims/simple_16_A_a.gif","","","","",""
"","2993","survey-multi-choice","65","201510","0.0-18.0","SS1619740317883","math_question","","","","","","","","","","","","{""Q0"":""15""}","[0]","15","",""
"","null","html-keyboard-response","66","202538","0.0-19.0-0.0","SS1619740317883","","","null","","","","","","<p><img src= images/blank.png width =""600"" height = ""600"" style=""position:fixed;top:50%; left:50%; transform: translate(-50%, -50%); border:5px solid black"">","","","","","","","",""
"","766","sequential-stimulus-presentation-old","67","203810","0.0-19.0-1.0","SS1619740317883","trial","","40","500","1266","images/stimuli/spore_stims/complex_16_A_a.gif","images/stimuli/spore_stims/complex_12_A_b.gif","forced_short","","5","complex_dissimilar","images/stimuli/spore_stims/complex_12_A_b.gif","","","","",""
"","null","html-keyboard-response","68","205004","0.0-19.0-0.1","SS1619740317883","","","null","","","","","","<p><img src= images/blank.png width =""600"" height = ""600"" style=""position:fixed;top:50%; left:50%; transform: translate(-50%, -50%); border:5px solid black"">","","","","","","","",""
"","1904.000000000029","sequential-stimulus-presentation-old","69","207414","0.0-19.0-1.1","SS1619740317883","trial","","40","500","2404.000000000029","images/stimuli/spore_stims/complex_16_A_a.gif","images/stimuli/spore_stims/complex_12_A_b.gif","forced_short","","5","complex_dissimilar","images/stimuli/spore_stims/complex_16_A_a.gif","","","","",""
"","null","html-keyboard-response","70","208695","0.0-19.0-0.2","SS1619740317883","","","null","","","","","","<p><img src= images/blank.png width =""600"" height = ""600"" style=""position:fixed;top:50%; left:50%; transform: translate(-50%, -50%); border:5px solid black"">","","","","","","","",""
"","1293","sequential-stimulus-presentation-old","71","210495","0.0-19.0-1.2","SS1619740317883","trial","","40","500","1793","images/stimuli/spore_stims/complex_16_A_a.gif","images/stimuli/spore_stims/complex_12_A_b.gif","forced_short","","5","complex_dissimilar","images/stimuli/spore_stims/complex_16_A_a.gif","","","","",""
"","null","html-keyboard-response","72","211475","0.0-19.0-0.3","SS1619740317883","","","null","","","","","","<p><img src= images/blank.png width =""600"" height = ""600"" style=""position:fixed;top:50%; left:50%; transform: translate(-50%, -50%); border:5px solid black"">","","","","","","","",""
"","100","sequential-stimulus-presentation-old","73","212082","0.0-19.0-1.3","SS1619740317883","trial","","40","500","600","images/stimuli/spore_stims/complex_16_A_a.gif","images/stimuli/spore_stims/complex_12_A_b.gif","forced_short","","5","complex_dissimilar","images/stimuli/spore_stims/complex_12_A_b.gif","","","","",""
"","2634.999999999971","survey-multi-choice","74","214721","0.0-20.0","SS1619740317883","math_question","","","","","","","","","","","","{""Q0"":""7""}","[0]","7","",""
"","null","html-keyboard-response","75","215676","0.0-21.0-0.0","SS1619740317883","","","null","","","","","","<p><img src= images/blank.png width =""600"" height = ""600"" style=""position:fixed;top:50%; left:50%; transform: translate(-50%, -50%); border:5px solid black"">","","","","","","","",""
"","1182","sequential-stimulus-presentation-old","76","217365","0.0-21.0-1.0","SS1619740317883","trial","","40","500","1682","images/stimuli/spore_stims/complex_20_A_b.gif","images/stimuli/spore_stims/complex_07_A_a.gif","forced_short","","6","complex_dissimilar","images/stimuli/spore_stims/complex_07_A_a.gif","","","","",""
"","null","html-keyboard-response","77","218472","0.0-21.0-0.1","SS1619740317883","","","null","","","","","","<p><img src= images/blank.png width =""600"" height = ""600"" style=""position:fixed;top:50%; left:50%; transform: translate(-50%, -50%); border:5px solid black"">","","","","","","","",""
"","917.0000000000291","sequential-stimulus-presentation-old","78","219896","0.0-21.0-1.1","SS1619740317883","trial","","40","500","1417.000000000029","images/stimuli/spore_stims/complex_20_A_b.gif","images/stimuli/spore_stims/complex_07_A_a.gif","forced_short","","6","complex_dissimilar","images/stimuli/spore_stims/complex_07_A_a.gif","","","","",""
"","null","html-keyboard-response","79","220801","0.0-21.0-0.2","SS1619740317883","","","null","","","","","","<p><img src= images/blank.png width =""600"" height = ""600"" style=""position:fixed;top:50%; left:50%; transform: translate(-50%, -50%); border:5px solid black"">","","","","","","","",""
"","318","sequential-stimulus-presentation-old","80","221625","0.0-21.0-1.2","SS1619740317883","trial","","40","500","818","images/stimuli/spore_stims/complex_20_A_b.gif","images/stimuli/spore_stims/complex_07_A_a.gif","forced_short","","6","complex_dissimilar","images/stimuli/spore_stims/complex_07_A_a.gif","","","","",""
"","null","html-keyboard-response","81","222637","0.0-21.0-0.3","SS1619740317883","","","null","","","","","","<p><img src= images/blank.png width =""600"" height = ""600"" style=""position:fixed;top:50%; left:50%; transform: translate(-50%, -50%); border:5px solid black"">","","","","","","","",""
"","211.0000000000291","sequential-stimulus-presentation-old","82","223355","0.0-21.0-1.3","SS1619740317883","trial","","40","500","711.0000000000291","images/stimuli/spore_stims/complex_20_A_b.gif","images/stimuli/spore_stims/complex_07_A_a.gif","forced_short","","6","complex_dissimilar","images/stimuli/spore_stims/complex_07_A_a.gif","","","","",""
"","null","html-keyboard-response","83","224344","0.0-21.0-0.4","SS1619740317883","","","null","","","","","","<p><img src= images/blank.png width =""600"" height = ""600"" style=""position:fixed;top:50%; left:50%; transform: translate(-50%, -50%); border:5px solid black"">","","","","","","","",""
"","399","sequential-stimulus-presentation-old","84","225250","0.0-21.0-1.4","SS1619740317883","trial","","40","500","899","images/stimuli/spore_stims/complex_20_A_b.gif","images/stimuli/spore_stims/complex_07_A_a.gif","forced_short","","6","complex_dissimilar","images/stimuli/spore_stims/complex_07_A_a.gif","","","","",""
"","2927","survey-multi-choice","85","228182","0.0-22.0","SS1619740317883","math_question","","","","","","","","","","","","{""Q0"":""10""}","[0]","10","",""
"","null","html-keyboard-response","86","229287","0.0-23.0-0.0","SS1619740317883","","","null","","","","","","<p><img src= images/blank.png width =""600"" height = ""600"" style=""position:fixed;top:50%; left:50%; transform: translate(-50%, -50%); border:5px solid black"">","","","","","","","",""
"","463","sequential-stimulus-presentation-old","87","244756","0.0-23.0-1.0","SS1619740317883","trial","","40","500","963","images/stimuli/spore_stims/complex_09_A_a.gif","images/stimuli/spore_stims/complex_06_A_b.gif","forced_long","","7","complex_dissimilar","images/stimuli/spore_stims/complex_06_A_b.gif","","","","",""
"","null","html-keyboard-response","88","245731","0.0-23.0-0.1","SS1619740317883","","","null","","","","","","<p><img src= images/blank.png width =""600"" height = ""600"" style=""position:fixed;top:50%; left:50%; transform: translate(-50%, -50%); border:5px solid black"">","","","","","","","",""
"","413.0000000000291","sequential-stimulus-presentation-old","89","246651","0.0-23.0-1.1","SS1619740317883","trial","","40","500","913.0000000000291","images/stimuli/spore_stims/complex_09_A_a.gif","images/stimuli/spore_stims/complex_06_A_b.gif","forced_long","","7","complex_dissimilar","images/stimuli/spore_stims/complex_09_A_a.gif","","","","",""
"","null","html-keyboard-response","90","247585","0.0-23.0-0.2","SS1619740317883","","","null","","","","","","<p><img src= images/blank.png width =""600"" height = ""600"" style=""position:fixed;top:50%; left:50%; transform: translate(-50%, -50%); border:5px solid black"">","","","","","","","",""
"","805.9999999999709","sequential-stimulus-presentation-old","91","248897","0.0-23.0-1.2","SS1619740317883","trial","","40","500","1305.999999999971","images/stimuli/spore_stims/complex_09_A_a.gif","images/stimuli/spore_stims/complex_06_A_b.gif","forced_long","","7","complex_dissimilar","images/stimuli/spore_stims/complex_06_A_b.gif","","","","",""
"","null","html-keyboard-response","92","250148","0.0-23.0-0.3","SS1619740317883","","","null","","","","","","<p><img src= images/blank.png width =""600"" height = ""600"" style=""position:fixed;top:50%; left:50%; transform: translate(-50%, -50%); border:5px solid black"">","","","","","","","",""
"","324.0000000000291","sequential-stimulus-presentation-old","93","250979","0.0-23.0-1.3","SS1619740317883","trial","","40","500","824.0000000000291","images/stimuli/spore_stims/complex_09_A_a.gif","images/stimuli/spore_stims/complex_06_A_b.gif","forced_long","","7","complex_dissimilar","images/stimuli/spore_stims/complex_09_A_a.gif","","","","",""
"","3394","survey-multi-choice","94","254378","0.0-24.0","SS1619740317883","math_question","","","","","","","","","","","","{""Q0"":""10""}","[0]","10","",""
"","null","html-keyboard-response","95","255208","0.0-25.0-0.0","SS1619740317883","","","null","","","","","","<p><img src= images/blank.png width =""600"" height = ""600"" style=""position:fixed;top:50%; left:50%; transform: translate(-50%, -50%); border:5px solid black"">","","","","","","","",""
"","12795.000000000058","sequential-stimulus-presentation-old","96","283010","0.0-25.0-1.0","SS1619740317883","trial","","40","500","13295.000000000058","images/stimuli/spore_stims/complex_19_A_a.gif","images/stimuli/spore_stims/complex_17_A_b.gif","forced_long","","8","complex_dissimilar","images/stimuli/spore_stims/complex_17_A_b.gif","","","","",""
"","null","html-keyboard-response","97","284036","0.0-25.0-0.1","SS1619740317883","","","null","","","","","","<p><img src= images/blank.png width =""600"" height = ""600"" style=""position:fixed;top:50%; left:50%; transform: translate(-50%, -50%); border:5px solid black"">","","","","","","","",""
"","7908","sequential-stimulus-presentation-old","98","292451","0.0-25.0-1.1","SS1619740317883","trial","","40","500","8408","images/stimuli/spore_stims/complex_19_A_a.gif","images/stimuli/spore_stims/complex_17_A_b.gif","forced_long","","8","complex_dissimilar","images/stimuli/spore_stims/complex_17_A_b.gif","","","","",""
"","null","html-keyboard-response","99","293543","0.0-25.0-0.2","SS1619740317883","","","null","","","","","","<p><img src= images/blank.png width =""600"" height = ""600"" style=""position:fixed;top:50%; left:50%; transform: translate(-50%, -50%); border:5px solid black"">","","","","","","","",""
"","132.0000000000582","sequential-stimulus-presentation-old","100","294182","0.0-25.0-1.2","SS1619740317883","trial","","40","500","632.0000000000582","images/stimuli/spore_stims/complex_19_A_a.gif","images/stimuli/spore_stims/complex_17_A_b.gif","forced_long","","8","complex_dissimilar","images/stimuli/spore_stims/complex_17_A_b.gif","","","","",""
"","null","html-keyboard-response","101","295307","0.0-25.0-0.3","SS1619740317883","","","null","","","","","","<p><img src= images/blank.png width =""600"" height = ""600"" style=""position:fixed;top:50%; left:50%; transform: translate(-50%, -50%); border:5px solid black"">","","","","","","","",""
"","111","sequential-stimulus-presentation-old","102","295925","0.0-25.0-1.3","SS1619740317883","trial","","40","500","611","images/stimuli/spore_stims/complex_19_A_a.gif","images/stimuli/spore_stims/complex_17_A_b.gif","forced_long","","8","complex_dissimilar","images/stimuli/spore_stims/complex_17_A_b.gif","","","","",""
"","null","html-keyboard-response","103","296741","0.0-25.0-0.4","SS1619740317883","","","null","","","","","","<p><img src= images/blank.png width =""600"" height = ""600"" style=""position:fixed;top:50%; left:50%; transform: translate(-50%, -50%); border:5px solid black"">","","","","","","","",""
"","160.0000000000582","sequential-stimulus-presentation-old","104","297408","0.0-25.0-1.4","SS1619740317883","trial","","40","500","660.0000000000582","images/stimuli/spore_stims/complex_19_A_a.gif","images/stimuli/spore_stims/complex_17_A_b.gif","forced_long","","8","complex_dissimilar","images/stimuli/spore_stims/complex_17_A_b.gif","","","","",""
"","null","html-keyboard-response","105","298363","0.0-25.0-0.5","SS1619740317883","","","null","","","","","","<p><img src= images/blank.png width =""600"" height = ""600"" style=""position:fixed;top:50%; left:50%; transform: translate(-50%, -50%); border:5px solid black"">","","","","","","","",""
"","159","sequential-stimulus-presentation-old","106","299031","0.0-25.0-1.5","SS1619740317883","trial","","40","500","659","images/stimuli/spore_stims/complex_19_A_a.gif","images/stimuli/spore_stims/complex_17_A_b.gif","forced_long","","8","complex_dissimilar","images/stimuli/spore_stims/complex_19_A_a.gif","","","","",""
"","2958","survey-multi-choice","107","301994","0.0-26.0","SS1619740317883","math_question","","","","","","","","","","","","{""Q0"":""10""}","[0]","10","",""
"","null","html-keyboard-response","108","302960","0.0-27.0-0.0","SS1619740317883","","","null","","","","","","<p><img src= images/blank.png width =""600"" height = ""600"" style=""position:fixed;top:50%; left:50%; transform: translate(-50%, -50%); border:5px solid black"">","","","","","","","",""
"","731.9999999999418","sequential-stimulus-presentation-old","109","318700","0.0-27.0-1.0","SS1619740317883","trial","","40","500","1231.9999999999418","images/stimuli/spore_stims/simple_12_A_b.gif","images/stimuli/spore_stims/simple_19_A_a.gif","forced_long","","9","simple_dissimilar","images/stimuli/spore_stims/simple_19_A_a.gif","","","","",""
"","null","html-keyboard-response","110","319906","0.0-27.0-0.1","SS1619740317883","","","null","","","","","","<p><img src= images/blank.png width =""600"" height = ""600"" style=""position:fixed;top:50%; left:50%; transform: translate(-50%, -50%); border:5px solid black"">","","","","","","","",""
"","323","sequential-stimulus-presentation-old","111","320736","0.0-27.0-1.1","SS1619740317883","trial","","40","500","823","images/stimuli/spore_stims/simple_12_A_b.gif","images/stimuli/spore_stims/simple_19_A_a.gif","forced_long","","9","simple_dissimilar","images/stimuli/spore_stims/simple_19_A_a.gif","","","","",""
"","null","html-keyboard-response","112","321986","0.0-27.0-0.2","SS1619740317883","","","null","","","","","","<p><img src= images/blank.png width =""600"" height = ""600"" style=""position:fixed;top:50%; left:50%; transform: translate(-50%, -50%); border:5px solid black"">","","","","","","","",""
"","2105","sequential-stimulus-presentation-old","113","324600","0.0-27.0-1.2","SS1619740317883","trial","","40","500","2605","images/stimuli/spore_stims/simple_12_A_b.gif","images/stimuli/spore_stims/simple_19_A_a.gif","forced_long","","9","simple_dissimilar","images/stimuli/spore_stims/simple_19_A_a.gif","","","","",""
"","null","html-keyboard-response","114","325531","0.0-27.0-0.3","SS1619740317883","","","null","","","","","","<p><img src= images/blank.png width =""600"" height = ""600"" style=""position:fixed;top:50%; left:50%; transform: translate(-50%, -50%); border:5px solid black"">","","","","","","","",""
"","2490","sequential-stimulus-presentation-old","115","328531","0.0-27.0-1.3","SS1619740317883","trial","","40","500","2990","images/stimuli/spore_stims/simple_12_A_b.gif","images/stimuli/spore_stims/simple_19_A_a.gif","forced_long","","9","simple_dissimilar","images/stimuli/spore_stims/simple_12_A_b.gif","","","","",""
"","null","html-keyboard-response","116","329728","0.0-27.0-0.4","SS1619740317883","","","null","","","","","","<p><img src= images/blank.png width =""600"" height = ""600"" style=""position:fixed;top:50%; left:50%; transform: translate(-50%, -50%); border:5px solid black"">","","","","","","","",""
"","1429","sequential-stimulus-presentation-old","117","331665","0.0-27.0-1.4","SS1619740317883","trial","","40","500","1929","images/stimuli/spore_stims/simple_12_A_b.gif","images/stimuli/spore_stims/simple_19_A_a.gif","forced_long","","9","simple_dissimilar","images/stimuli/spore_stims/simple_12_A_b.gif","","","","",""
"","null","html-keyboard-response","118","332608","0.0-27.0-0.5","SS1619740317883","","","null","","","","","","<p><img src= images/blank.png width =""600"" height = ""600"" style=""position:fixed;top:50%; left:50%; transform: translate(-50%, -50%); border:5px solid black"">","","","","","","","",""
"","1138.0000000000582","sequential-stimulus-presentation-old","119","334253","0.0-27.0-1.5","SS1619740317883","trial","","40","500","1638.0000000000582","images/stimuli/spore_stims/simple_12_A_b.gif","images/stimuli/spore_stims/simple_19_A_a.gif","forced_long","","9","simple_dissimilar","images/stimuli/spore_stims/simple_19_A_a.gif","","","","",""
"","2754","survey-multi-choice","120","337013","0.0-28.0","SS1619740317883","math_question","","","","","","","","","","","","{""Q0"":""4""}","[0]","4","",""
"","null","html-keyboard-response","121","338040","0.0-29.0-0.0","SS1619740317883","","","null","","","","","","<p><img src= images/blank.png width =""600"" height = ""600"" style=""position:fixed;top:50%; left:50%; transform: translate(-50%, -50%); border:5px solid black"">","","","","","","","",""
"","220","sequential-stimulus-presentation-old","122","338768","0.0-29.0-1.0","SS1619740317883","trial","","40","500","720","images/stimuli/spore_stims/complex_01_A_a.gif","images/stimuli/spore_stims/complex_18_A_b.gif","self_paced","","10","complex_dissimilar","images/stimuli/spore_stims/complex_18_A_b.gif","","","","",""
"","null","html-keyboard-response","123","339996","0.0-29.0-0.1","SS1619740317883","","","null","","","","","","<p><img src= images/blank.png width =""600"" height = ""600"" style=""position:fixed;top:50%; left:50%; transform: translate(-50%, -50%); border:5px solid black"">","","","","","","","",""
"","994","sequential-stimulus-presentation-old","124","341496","0.0-29.0-1.1","SS1619740317883","trial","","40","500","1494","images/stimuli/spore_stims/complex_01_A_a.gif","images/stimuli/spore_stims/complex_18_A_b.gif","self_paced","","10","complex_dissimilar","images/stimuli/spore_stims/complex_18_A_b.gif","","","","",""
"","null","html-keyboard-response","125","342418","0.0-29.0-0.2","SS1619740317883","","","null","","","","","","<p><img src= images/blank.png width =""600"" height = ""600"" style=""position:fixed;top:50%; left:50%; transform: translate(-50%, -50%); border:5px solid black"">","","","","","","","",""
"","721","sequential-stimulus-presentation-old","126","343650","0.0-29.0-1.2","SS1619740317883","trial","","40","500","1221","images/stimuli/spore_stims/complex_01_A_a.gif","images/stimuli/spore_stims/complex_18_A_b.gif","self_paced","","10","complex_dissimilar","images/stimuli/spore_stims/complex_18_A_b.gif","","","","",""
"","null","html-keyboard-response","127","344740","0.0-29.0-0.3","SS1619740317883","","","null","","","","","","<p><img src= images/blank.png width =""600"" height = ""600"" style=""position:fixed;top:50%; left:50%; transform: translate(-50%, -50%); border:5px solid black"">","","","","","","","",""
"","402","sequential-stimulus-presentation-old","128","345649","0.0-29.0-1.3","SS1619740317883","trial","","40","500","902","images/stimuli/spore_stims/complex_01_A_a.gif","images/stimuli/spore_stims/complex_18_A_b.gif","self_paced","","10","complex_dissimilar","images/stimuli/spore_stims/complex_18_A_b.gif","","","","",""
"","null","html-keyboard-response","129","346778","0.0-29.0-0.4","SS1619740317883","","","null","","","","","","<p><img src= images/blank.png width =""600"" height = ""600"" style=""position:fixed;top:50%; left:50%; transform: translate(-50%, -50%); border:5px solid black"">","","","","","","","",""
"","313","sequential-stimulus-presentation-old","130","347598","0.0-29.0-1.4","SS1619740317883","trial","","40","500","813","images/stimuli/spore_stims/complex_01_A_a.gif","images/stimuli/spore_stims/complex_18_A_b.gif","self_paced","","10","complex_dissimilar","images/stimuli/spore_stims/complex_18_A_b.gif","","","","",""
"","null","html-keyboard-response","131","348432","0.0-29.0-0.5","SS1619740317883","","","null","","","","","","<p><img src= images/blank.png width =""600"" height = ""600"" style=""position:fixed;top:50%; left:50%; transform: translate(-50%, -50%); border:5px solid black"">","","","","","","","",""
"","332","sequential-stimulus-presentation-old","132","349273","0.0-29.0-1.5","SS1619740317883","trial","","40","500","832","images/stimuli/spore_stims/complex_01_A_a.gif","images/stimuli/spore_stims/complex_18_A_b.gif","self_paced","","10","complex_dissimilar","images/stimuli/spore_stims/complex_18_A_b.gif","","","","",""
"","2603.000000000058","survey-multi-choice","133","351882","0.0-30.0","SS1619740317883","math_question","","","","","","","","","","","","{""Q0"":""12""}","[0]","12","",""
"","null","html-keyboard-response","134","352742","0.0-31.0-0.0","SS1619740317883","","","null","","","","","","<p><img src= images/blank.png width =""600"" height = ""600"" style=""position:fixed;top:50%; left:50%; transform: translate(-50%, -50%); border:5px solid black"">","","","","","","","",""
"","37","sequential-stimulus-presentation-old","135","353287","0.0-31.0-1.0","SS1619740317883","trial","","40","500","537","images/stimuli/spore_stims/simple_06_A_b.gif","images/stimuli/spore_stims/simple_14_A_a.gif","self_paced","","11","simple_dissimilar","images/stimuli/spore_stims/simple_14_A_a.gif","","","","",""
"","null","html-keyboard-response","136","354536","0.0-31.0-0.1","SS1619740317883","","","null","","","","","","<p><img src= images/blank.png width =""600"" height = ""600"" style=""position:fixed;top:50%; left:50%; transform: translate(-50%, -50%); border:5px solid black"">","","","","","","","",""
"","745","sequential-stimulus-presentation-old","137","355791","0.0-31.0-1.1","SS1619740317883","trial","","40","500","1245","images/stimuli/spore_stims/simple_06_A_b.gif","images/stimuli/spore_stims/simple_14_A_a.gif","self_paced","","11","simple_dissimilar","images/stimuli/spore_stims/simple_14_A_a.gif","","","","",""
"","null","html-keyboard-response","138","357037","0.0-31.0-0.2","SS1619740317883","","","null","","","","","","<p><img src= images/blank.png width =""600"" height = ""600"" style=""position:fixed;top:50%; left:50%; transform: translate(-50%, -50%); border:5px solid black"">","","","","","","","",""
"","420.9999999999418","sequential-stimulus-presentation-old","139","357965","0.0-31.0-1.2","SS1619740317883","trial","","40","500","920.9999999999418","images/stimuli/spore_stims/simple_06_A_b.gif","images/stimuli/spore_stims/simple_14_A_a.gif","self_paced","","11","simple_dissimilar","images/stimuli/spore_stims/simple_14_A_a.gif","","","","",""
"","null","html-keyboard-response","140","358855","0.0-31.0-0.3","SS1619740317883","","","null","","","","","","<p><img src= images/blank.png width =""600"" height = ""600"" style=""position:fixed;top:50%; left:50%; transform: translate(-50%, -50%); border:5px solid black"">","","","","","","","",""
"","346","sequential-stimulus-presentation-old","141","359706","0.0-31.0-1.3","SS1619740317883","trial","","40","500","846","images/stimuli/spore_stims/simple_06_A_b.gif","images/stimuli/spore_stims/simple_14_A_a.gif","self_paced","","11","simple_dissimilar","images/stimuli/spore_stims/simple_14_A_a.gif","","","","",""
"","null","html-keyboard-response","142","360827","0.0-31.0-0.4","SS1619740317883","","","null","","","","","","<p><img src= images/blank.png width =""600"" height = ""600"" style=""position:fixed;top:50%; left:50%; transform: translate(-50%, -50%); border:5px solid black"">","","","","","","","",""
"","70","sequential-stimulus-presentation-old","143","361407","0.0-31.0-1.4","SS1619740317883","trial","","40","500","570","images/stimuli/spore_stims/simple_06_A_b.gif","images/stimuli/spore_stims/simple_14_A_a.gif","self_paced","","11","simple_dissimilar","images/stimuli/spore_stims/simple_14_A_a.gif","","","","",""
"","null","html-keyboard-response","144","362692","0.0-31.0-0.5","SS1619740317883","","","null","","","","","","<p><img src= images/blank.png width =""600"" height = ""600"" style=""position:fixed;top:50%; left:50%; transform: translate(-50%, -50%); border:5px solid black"">","","","","","","","",""
"","40","sequential-stimulus-presentation-old","145","363238","0.0-31.0-1.5","SS1619740317883","trial","","40","500","540","images/stimuli/spore_stims/simple_06_A_b.gif","images/stimuli/spore_stims/simple_14_A_a.gif","self_paced","","11","simple_dissimilar","images/stimuli/spore_stims/simple_14_A_a.gif","","","","",""
"[{""page_index"":0,""viewing_time"":6229}]","6229","instructions","146","369472","0.0-32.0","SS1619740317883","instructions","","","","","","","","","","","","","","","",""
"","8255.999999999942","survey-likert","147","377734","0.0-33.0","SS1619740317883","similarity_question","","","","","","","","","","","","{""Q0"":1}","[0]","","images/stimuli/spore_stims/simple_06_A_b.gif","images/stimuli/spore_stims/simple_14_A_a.gif"
"","6629","survey-likert","148","384368","0.0-34.0","SS1619740317883","similarity_question","","","","","","","","","","","","{""Q0"":0}","[0]","","images/stimuli/spore_stims/complex_02_A_b.gif","images/stimuli/spore_stims/complex_12_A_a.gif"
"","4276","survey-likert","149","388650","0.0-35.0","SS1619740317883","similarity_question","","","","","","","","","","","","{""Q0"":0}","[0]","","images/stimuli/spore_stims/complex_17_A_b.gif","images/stimuli/spore_stims/complex_19_A_a.gif"
"","4353","survey-likert","150","393008","0.0-36.0","SS1619740317883","similarity_question","","","","","","","","","","","","{""Q0"":2}","[0]","","images/stimuli/spore_stims/complex_07_A_a.gif","images/stimuli/spore_stims/complex_20_A_b.gif"
"","4595.999999999942","survey-likert","151","397609","0.0-37.0","SS1619740317883","similarity_question","","","","","","","","","","","","{""Q0"":1}","[0]","","images/stimuli/spore_stims/simple_16_A_a.gif","images/stimuli/spore_stims/simple_15_A_b.gif"
"","4480.999999999942","survey-likert","152","402095","0.0-38.0","SS1619740317883","similarity_question","","","","","","","","","","","","{""Q0"":1}","[0]","","images/stimuli/spore_stims/simple_19_A_a.gif","images/stimuli/spore_stims/simple_12_A_b.gif"
"","26255","survey-likert","153","428355","0.0-39.0","SS1619740317883","similarity_question","","","","","","","","","","","","{""Q0"":1}","[0]","","images/stimuli/spore_stims/simple_11_A_b.gif","images/stimuli/spore_stims/simple_09_A_a.gif"
"","4259","survey-likert","154","432618","0.0-40.0","SS1619740317883","similarity_question","","","","","","","","","","","","{""Q0"":2}","[0]","","images/stimuli/spore_stims/simple_16_A_b.gif","images/stimuli/spore_stims/simple_05_A_a.gif"
"","10066","survey-likert","155","442689","0.0-41.0","SS1619740317883","similarity_question","","","","","","","","","","","","{""Q0"":2}","[0]","","images/stimuli/spore_stims/complex_09_A_a.gif","images/stimuli/spore_stims/complex_06_A_b.gif"
"","4646","survey-likert","156","447341","0.0-42.0","SS1619740317883","similarity_question","","","","","","","","","","","","{""Q0"":2}","[0]","","images/stimuli/spore_stims/simple_10_A_b.gif","images/stimuli/spore_stims/simple_13_A_a.gif"
"","6458.999999999942","survey-likert","157","453804","0.0-43.0","SS1619740317883","similarity_question","","","","","","","","","","","","{""Q0"":2}","[0]","","images/stimuli/spore_stims/complex_12_A_b.gif","images/stimuli/spore_stims/complex_16_A_a.gif"
"","13856.999999999942","survey-likert","158","467667","0.0-44.0","SS1619740317883","similarity_question","","","","","","","","","","","","{""Q0"":2}","[0]","","images/stimuli/spore_stims/complex_01_A_a.gif","images/stimuli/spore_stims/complex_18_A_b.gif"
"[{""page_index"":0,""viewing_time"":21949}]","21949","instructions","159","489620","0.0-45.0","SS1619740317883","instructions","","","","","","","","","","","","","","","",""
"","12016","survey-likert","160","501641","0.0-46.0","SS1619740317883","","","","","","","","","images/stimuli/spore_stims/simple_13_A_a.gif","","","","{""Q0"":1}","[0]","","",""
"","2694","survey-likert","161","504340","0.0-47.0","SS1619740317883","","","","","","","","","images/stimuli/spore_stims/simple_12_A_b.gif","","","","{""Q0"":1}","[0]","","",""
"","20309.99999999994","survey-likert","162","524654","0.0-48.0","SS1619740317883","","","","","","","","","images/stimuli/spore_stims/complex_09_A_a.gif","","","","{""Q0"":5}","[0]","","",""
"","3124","survey-likert","163","527780","0.0-49.0","SS1619740317883","","","","","","","","","images/stimuli/spore_stims/complex_19_A_a.gif","","","","{""Q0"":5}","[0]","","",""
"","10070","survey-likert","164","537855","0.0-50.0","SS1619740317883","","","","","","","","","images/stimuli/spore_stims/simple_11_A_b.gif","","","","{""Q0"":0}","[0]","","",""
"","2592","survey-likert","165","540453","0.0-51.0","SS1619740317883","","","","","","","","","images/stimuli/spore_stims/simple_14_A_a.gif","","","","{""Q0"":0}","[0]","","",""
"","8831","survey-likert","166","549289","0.0-52.0","SS1619740317883","","","","","","","","","images/stimuli/spore_stims/complex_18_A_b.gif","","","","{""Q0"":5}","[0]","","",""
"","4047","survey-likert","167","553341","0.0-53.0","SS1619740317883","","","","","","","","","images/stimuli/spore_stims/simple_05_A_a.gif","","","","{""Q0"":1}","[0]","","",""
"","120233","survey-likert","168","673575","0.0-54.0","SS1619740317883","","","","","","","","","images/stimuli/spore_stims/complex_02_A_b.gif","","","","{""Q0"":5}","[0]","","",""
"","4635","survey-likert","169","678216","0.0-55.0","SS1619740317883","","","","","","","","","images/stimuli/spore_stims/complex_07_A_a.gif","","","","{""Q0"":5}","[0]","","",""
"","2350.0000000001164","survey-likert","170","680571","0.0-56.0","SS1619740317883","","","","","","","","","images/stimuli/spore_stims/simple_15_A_b.gif","","","","{""Q0"":0}","[0]","","",""
"","2411","survey-likert","171","682986","0.0-57.0","SS1619740317883","","","","","","","","","images/stimuli/spore_stims/complex_12_A_b.gif","","","","{""Q0"":6}","[0]","","",""
"[{""page_index"":0,""viewing_time"":13500}]","13500","instructions","172","696490","0.0-58.0","SS1619740317883","instructions","","","","","","","","","","","","","","","",""
"","6452","demog-age","173","702954","0.0-59.0","SS1619740317883","","","","","","","","","","","","","{""age"":""27""}","","","",""
"","16042","demog-ethnic-US","174","719002","0.0-60.0","SS1619740317883","","","","","","","","","","","","","{""ethnicity"":[""Asian""]}","[0]","","",""
"","11833","demog-gender-and-education","175","730840","0.0-61.0","SS1619740317883","","","","","","","","","","","","","{""gender"":""Female"",""education"":""Associate Degree/Technical certification""}","[0,1]","","",""
"","5505","survey-text","176","736355","0.0-62.0","SS1619740317883","feedback","","","","","","","","","","","","{""Q0"":""No""}","","","",""
"[{""page_index"":0,""viewing_time"":5340.000000000116}]","5341","instructions","177","741699","0.0-63.0","SS1619740317883","instructions","","","","","","","","","","","","","","","",""
