"view_history","rt","trial_type","trial_index","time_elapsed","internal_node_id","subject","stimulus_type","trial_stimulus","key_press","minimum_viewing_duration","trial_looking_time","block_deviant","block_background","exposure_type","stimulus","block_number","block_type","stimulus_displayed","responses","question_order","math_correct_answer","stimulus_left","stimulus_right"
"[{""page_index"":0,""viewing_time"":2201}]","2201","instructions","0","2206","0.0-0.0","SS1619739661980","","","","","","","","","","","","","","","","",""
"[{""page_index"":0,""viewing_time"":6432},{""page_index"":1,""viewing_time"":6233}]","12665","instructions","1","16885","0.0-1.0","SS1619739661980","instructions","","","","","","","","","","","","","","","",""
"","8579","sequential-stimulus-presentation-old","2","25975","0.0-2.0","SS1619739661980","","","40","500","9079","null","null","self_paced","","","","","","","","",""
"","4705","sequential-stimulus-presentation-old","3","31197","0.0-3.0","SS1619739661980","","","40","500","5205","null","null","self_paced","","","","","","","","",""
"[{""page_index"":0,""viewing_time"":21966}]","21966","instructions","4","53165","0.0-4.0","SS1619739661980","instructions","","","","","","","","","","","","","","","",""
"","630","sequential-stimulus-presentation-old","5","68806","0.0-5.0","SS1619739661980","","","40","500","1130","null","null","forced_long","","","","","","","","",""
"","651","sequential-stimulus-presentation-old","6","69965","0.0-6.0","SS1619739661980","","","40","500","1151","null","null","forced_long","","","","","","","","",""
"[{""page_index"":0,""viewing_time"":4029}]","4029","instructions","7","73997","0.0-7.0","SS1619739661980","instructions","","","","","","","","","","","","","","","",""
"[{""page_index"":0,""viewing_time"":6831},{""page_index"":1,""viewing_time"":3847},{""page_index"":2,""viewing_time"":5648},{""page_index"":3,""viewing_time"":1241},{""page_index"":4,""viewing_time"":871}]","18439","instructions","8","92436","0.0-8.0","SS1619739661980","instructions","","","","","","","","","","","","","","","",""
"","null","html-keyboard-response","9","93534","0.0-9.0-0.0","SS1619739661980","","","null","","","","","","<p><img src= images/blank.png width =""600"" height = ""600"" style=""position:fixed;top:50%; left:50%; transform: translate(-50%, -50%); border:5px solid black"">","","","","","","","",""
"","1041","sequential-stimulus-presentation-old","10","95085","0.0-9.0-1.0","SS1619739661980","trial","","40","500","1541","images/stimuli/spore_stims/complex_10_A_a.gif","images/stimuli/spore_stims/complex_19_A_b.gif","self_paced","","0","complex_dissimilar","images/stimuli/spore_stims/complex_19_A_b.gif","","","","",""
"","null","html-keyboard-response","11","96164","0.0-9.0-0.1","SS1619739661980","","","null","","","","","","<p><img src= images/blank.png width =""600"" height = ""600"" style=""position:fixed;top:50%; left:50%; transform: translate(-50%, -50%); border:5px solid black"">","","","","","","","",""
"","520","sequential-stimulus-presentation-old","12","97196","0.0-9.0-1.1","SS1619739661980","trial","","40","500","1020","images/stimuli/spore_stims/complex_10_A_a.gif","images/stimuli/spore_stims/complex_19_A_b.gif","self_paced","","0","complex_dissimilar","images/stimuli/spore_stims/complex_19_A_b.gif","","","","",""
"","null","html-keyboard-response","13","98270","0.0-9.0-0.2","SS1619739661980","","","null","","","","","","<p><img src= images/blank.png width =""600"" height = ""600"" style=""position:fixed;top:50%; left:50%; transform: translate(-50%, -50%); border:5px solid black"">","","","","","","","",""
"","673","sequential-stimulus-presentation-old","14","99453","0.0-9.0-1.2","SS1619739661980","trial","","40","500","1173","images/stimuli/spore_stims/complex_10_A_a.gif","images/stimuli/spore_stims/complex_19_A_b.gif","self_paced","","0","complex_dissimilar","images/stimuli/spore_stims/complex_19_A_b.gif","","","","",""
"","null","html-keyboard-response","15","100555","0.0-9.0-0.3","SS1619739661980","","","null","","","","","","<p><img src= images/blank.png width =""600"" height = ""600"" style=""position:fixed;top:50%; left:50%; transform: translate(-50%, -50%); border:5px solid black"">","","","","","","","",""
"","781","sequential-stimulus-presentation-old","16","101844","0.0-9.0-1.3","SS1619739661980","trial","","40","500","1281","images/stimuli/spore_stims/complex_10_A_a.gif","images/stimuli/spore_stims/complex_19_A_b.gif","self_paced","","0","complex_dissimilar","images/stimuli/spore_stims/complex_19_A_b.gif","","","","",""
"","2999","survey-multi-choice","17","104847","0.0-10.0","SS1619739661980","math_question","","","","","","","","","","","","{""Q0"":""12""}","[0]","12","",""
"","null","html-keyboard-response","18","105826","0.0-11.0-0.0","SS1619739661980","","","null","","","","","","<p><img src= images/blank.png width =""600"" height = ""600"" style=""position:fixed;top:50%; left:50%; transform: translate(-50%, -50%); border:5px solid black"">","","","","","","","",""
"","3402","sequential-stimulus-presentation-old","19","109740","0.0-11.0-1.0","SS1619739661980","trial","","40","500","3902","images/stimuli/spore_stims/simple_08_A_a.gif","images/stimuli/spore_stims/simple_18_A_b.gif","forced_short","","1","simple_dissimilar","images/stimuli/spore_stims/simple_18_A_b.gif","","","","",""
"","null","html-keyboard-response","20","110698","0.0-11.0-0.1","SS1619739661980","","","null","","","","","","<p><img src= images/blank.png width =""600"" height = ""600"" style=""position:fixed;top:50%; left:50%; transform: translate(-50%, -50%); border:5px solid black"">","","","","","","","",""
"","1759","sequential-stimulus-presentation-old","21","112965","0.0-11.0-1.1","SS1619739661980","trial","","40","500","2259","images/stimuli/spore_stims/simple_08_A_a.gif","images/stimuli/spore_stims/simple_18_A_b.gif","forced_short","","1","simple_dissimilar","images/stimuli/spore_stims/simple_18_A_b.gif","","","","",""
"","null","html-keyboard-response","22","114101","0.0-11.0-0.2","SS1619739661980","","","null","","","","","","<p><img src= images/blank.png width =""600"" height = ""600"" style=""position:fixed;top:50%; left:50%; transform: translate(-50%, -50%); border:5px solid black"">","","","","","","","",""
"","171","sequential-stimulus-presentation-old","23","114781","0.0-11.0-1.2","SS1619739661980","trial","","40","500","671","images/stimuli/spore_stims/simple_08_A_a.gif","images/stimuli/spore_stims/simple_18_A_b.gif","forced_short","","1","simple_dissimilar","images/stimuli/spore_stims/simple_18_A_b.gif","","","","",""
"","null","html-keyboard-response","24","115687","0.0-11.0-0.3","SS1619739661980","","","null","","","","","","<p><img src= images/blank.png width =""600"" height = ""600"" style=""position:fixed;top:50%; left:50%; transform: translate(-50%, -50%); border:5px solid black"">","","","","","","","",""
"","614","sequential-stimulus-presentation-old","25","116813","0.0-11.0-1.3","SS1619739661980","trial","","40","500","1114","images/stimuli/spore_stims/simple_08_A_a.gif","images/stimuli/spore_stims/simple_18_A_b.gif","forced_short","","1","simple_dissimilar","images/stimuli/spore_stims/simple_08_A_a.gif","","","","",""
"","null","html-keyboard-response","26","117981","0.0-11.0-0.4","SS1619739661980","","","null","","","","","","<p><img src= images/blank.png width =""600"" height = ""600"" style=""position:fixed;top:50%; left:50%; transform: translate(-50%, -50%); border:5px solid black"">","","","","","","","",""
"","1070","sequential-stimulus-presentation-old","27","119557","0.0-11.0-1.4","SS1619739661980","trial","","40","500","1570","images/stimuli/spore_stims/simple_08_A_a.gif","images/stimuli/spore_stims/simple_18_A_b.gif","forced_short","","1","simple_dissimilar","images/stimuli/spore_stims/simple_18_A_b.gif","","","","",""
"","null","html-keyboard-response","28","120693","0.0-11.0-0.5","SS1619739661980","","","null","","","","","","<p><img src= images/blank.png width =""600"" height = ""600"" style=""position:fixed;top:50%; left:50%; transform: translate(-50%, -50%); border:5px solid black"">","","","","","","","",""
"","1035","sequential-stimulus-presentation-old","29","122237","0.0-11.0-1.5","SS1619739661980","trial","","40","500","1535","images/stimuli/spore_stims/simple_08_A_a.gif","images/stimuli/spore_stims/simple_18_A_b.gif","forced_short","","1","simple_dissimilar","images/stimuli/spore_stims/simple_18_A_b.gif","","","","",""
"","2461","survey-multi-choice","30","124701","0.0-12.0","SS1619739661980","math_question","","","","","","","","","","","","{""Q0"":""13""}","[0]","13","",""
"","null","html-keyboard-response","31","125688","0.0-13.0-0.0","SS1619739661980","","","null","","","","","","<p><img src= images/blank.png width =""600"" height = ""600"" style=""position:fixed;top:50%; left:50%; transform: translate(-50%, -50%); border:5px solid black"">","","","","","","","",""
"","48","sequential-stimulus-presentation-old","32","126245","0.0-13.0-1.0","SS1619739661980","trial","","40","500","548","images/stimuli/spore_stims/simple_11_A_a.gif","images/stimuli/spore_stims/simple_03_A_b.gif","self_paced","","2","simple_dissimilar","images/stimuli/spore_stims/simple_03_A_b.gif","","","","",""
"","null","html-keyboard-response","33","127492","0.0-13.0-0.1","SS1619739661980","","","null","","","","","","<p><img src= images/blank.png width =""600"" height = ""600"" style=""position:fixed;top:50%; left:50%; transform: translate(-50%, -50%); border:5px solid black"">","","","","","","","",""
"","386","sequential-stimulus-presentation-old","34","128389","0.0-13.0-1.1","SS1619739661980","trial","","40","500","886","images/stimuli/spore_stims/simple_11_A_a.gif","images/stimuli/spore_stims/simple_03_A_b.gif","self_paced","","2","simple_dissimilar","images/stimuli/spore_stims/simple_03_A_b.gif","","","","",""
"","null","html-keyboard-response","35","129682","0.0-13.0-0.2","SS1619739661980","","","null","","","","","","<p><img src= images/blank.png width =""600"" height = ""600"" style=""position:fixed;top:50%; left:50%; transform: translate(-50%, -50%); border:5px solid black"">","","","","","","","",""
"","300","sequential-stimulus-presentation-old","36","130493","0.0-13.0-1.2","SS1619739661980","trial","","40","500","800","images/stimuli/spore_stims/simple_11_A_a.gif","images/stimuli/spore_stims/simple_03_A_b.gif","self_paced","","2","simple_dissimilar","images/stimuli/spore_stims/simple_03_A_b.gif","","","","",""
"","null","html-keyboard-response","37","131672","0.0-13.0-0.3","SS1619739661980","","","null","","","","","","<p><img src= images/blank.png width =""600"" height = ""600"" style=""position:fixed;top:50%; left:50%; transform: translate(-50%, -50%); border:5px solid black"">","","","","","","","",""
"","704","sequential-stimulus-presentation-old","38","132884","0.0-13.0-1.3","SS1619739661980","trial","","40","500","1204","images/stimuli/spore_stims/simple_11_A_a.gif","images/stimuli/spore_stims/simple_03_A_b.gif","self_paced","","2","simple_dissimilar","images/stimuli/spore_stims/simple_03_A_b.gif","","","","",""
"","null","html-keyboard-response","39","133754","0.0-13.0-0.4","SS1619739661980","","","null","","","","","","<p><img src= images/blank.png width =""600"" height = ""600"" style=""position:fixed;top:50%; left:50%; transform: translate(-50%, -50%); border:5px solid black"">","","","","","","","",""
"","1053","sequential-stimulus-presentation-old","40","135317","0.0-13.0-1.4","SS1619739661980","trial","","40","500","1553","images/stimuli/spore_stims/simple_11_A_a.gif","images/stimuli/spore_stims/simple_03_A_b.gif","self_paced","","2","simple_dissimilar","images/stimuli/spore_stims/simple_11_A_a.gif","","","","",""
"","2669","survey-multi-choice","41","137990","0.0-14.0","SS1619739661980","math_question","","","","","","","","","","","","{""Q0"":""8""}","[0]","8","",""
"","null","html-keyboard-response","42","138876","0.0-15.0-0.0","SS1619739661980","","","null","","","","","","<p><img src= images/blank.png width =""600"" height = ""600"" style=""position:fixed;top:50%; left:50%; transform: translate(-50%, -50%); border:5px solid black"">","","","","","","","",""
"","10824","sequential-stimulus-presentation-old","43","164707","0.0-15.0-1.0","SS1619739661980","trial","","40","500","11324","images/stimuli/spore_stims/simple_09_A_b.gif","images/stimuli/spore_stims/simple_20_A_a.gif","forced_long","","3","simple_dissimilar","images/stimuli/spore_stims/simple_20_A_a.gif","","","","",""
"","null","html-keyboard-response","44","165725","0.0-15.0-0.1","SS1619739661980","","","null","","","","","","<p><img src= images/blank.png width =""600"" height = ""600"" style=""position:fixed;top:50%; left:50%; transform: translate(-50%, -50%); border:5px solid black"">","","","","","","","",""
"","485","sequential-stimulus-presentation-old","45","166724","0.0-15.0-1.1","SS1619739661980","trial","","40","500","985","images/stimuli/spore_stims/simple_09_A_b.gif","images/stimuli/spore_stims/simple_20_A_a.gif","forced_long","","3","simple_dissimilar","images/stimuli/spore_stims/simple_20_A_a.gif","","","","",""
"","null","html-keyboard-response","46","167660","0.0-15.0-0.2","SS1619739661980","","","null","","","","","","<p><img src= images/blank.png width =""600"" height = ""600"" style=""position:fixed;top:50%; left:50%; transform: translate(-50%, -50%); border:5px solid black"">","","","","","","","",""
"","568","sequential-stimulus-presentation-old","47","168740","0.0-15.0-1.2","SS1619739661980","trial","","40","500","1068","images/stimuli/spore_stims/simple_09_A_b.gif","images/stimuli/spore_stims/simple_20_A_a.gif","forced_long","","3","simple_dissimilar","images/stimuli/spore_stims/simple_20_A_a.gif","","","","",""
"","null","html-keyboard-response","48","169564","0.0-15.0-0.3","SS1619739661980","","","null","","","","","","<p><img src= images/blank.png width =""600"" height = ""600"" style=""position:fixed;top:50%; left:50%; transform: translate(-50%, -50%); border:5px solid black"">","","","","","","","",""
"","1238","sequential-stimulus-presentation-old","49","171308","0.0-15.0-1.3","SS1619739661980","trial","","40","500","1738","images/stimuli/spore_stims/simple_09_A_b.gif","images/stimuli/spore_stims/simple_20_A_a.gif","forced_long","","3","simple_dissimilar","images/stimuli/spore_stims/simple_20_A_a.gif","","","","",""
"","null","html-keyboard-response","50","172597","0.0-15.0-0.4","SS1619739661980","","","null","","","","","","<p><img src= images/blank.png width =""600"" height = ""600"" style=""position:fixed;top:50%; left:50%; transform: translate(-50%, -50%); border:5px solid black"">","","","","","","","",""
"","184","sequential-stimulus-presentation-old","51","173292","0.0-15.0-1.4","SS1619739661980","trial","","40","500","684","images/stimuli/spore_stims/simple_09_A_b.gif","images/stimuli/spore_stims/simple_20_A_a.gif","forced_long","","3","simple_dissimilar","images/stimuli/spore_stims/simple_20_A_a.gif","","","","",""
"","3429","survey-multi-choice","52","176726","0.0-16.0","SS1619739661980","math_question","","","","","","","","","","","","{""Q0"":""7""}","[0]","7","",""
"","null","html-keyboard-response","53","177769","0.0-17.0-0.0","SS1619739661980","","","null","","","","","","<p><img src= images/blank.png width =""600"" height = ""600"" style=""position:fixed;top:50%; left:50%; transform: translate(-50%, -50%); border:5px solid black"">","","","","","","","",""
"","15","sequential-stimulus-presentation-old","54","178300","0.0-17.0-1.0","SS1619739661980","trial","","40","500","515","images/stimuli/spore_stims/simple_12_A_b.gif","images/stimuli/spore_stims/simple_05_A_a.gif","self_paced","","4","simple_dissimilar","images/stimuli/spore_stims/simple_05_A_a.gif","","","","",""
"","null","html-keyboard-response","55","179255","0.0-17.0-0.1","SS1619739661980","","","null","","","","","","<p><img src= images/blank.png width =""600"" height = ""600"" style=""position:fixed;top:50%; left:50%; transform: translate(-50%, -50%); border:5px solid black"">","","","","","","","",""
"","1216","sequential-stimulus-presentation-old","56","180981","0.0-17.0-1.1","SS1619739661980","trial","","40","500","1716","images/stimuli/spore_stims/simple_12_A_b.gif","images/stimuli/spore_stims/simple_05_A_a.gif","self_paced","","4","simple_dissimilar","images/stimuli/spore_stims/simple_05_A_a.gif","","","","",""
"","null","html-keyboard-response","57","181980","0.0-17.0-0.2","SS1619739661980","","","null","","","","","","<p><img src= images/blank.png width =""600"" height = ""600"" style=""position:fixed;top:50%; left:50%; transform: translate(-50%, -50%); border:5px solid black"">","","","","","","","",""
"","1031","sequential-stimulus-presentation-old","58","183525","0.0-17.0-1.2","SS1619739661980","trial","","40","500","1531","images/stimuli/spore_stims/simple_12_A_b.gif","images/stimuli/spore_stims/simple_05_A_a.gif","self_paced","","4","simple_dissimilar","images/stimuli/spore_stims/simple_05_A_a.gif","","","","",""
"","null","html-keyboard-response","59","184749","0.0-17.0-0.3","SS1619739661980","","","null","","","","","","<p><img src= images/blank.png width =""600"" height = ""600"" style=""position:fixed;top:50%; left:50%; transform: translate(-50%, -50%); border:5px solid black"">","","","","","","","",""
"","843","sequential-stimulus-presentation-old","60","186101","0.0-17.0-1.3","SS1619739661980","trial","","40","500","1343","images/stimuli/spore_stims/simple_12_A_b.gif","images/stimuli/spore_stims/simple_05_A_a.gif","self_paced","","4","simple_dissimilar","images/stimuli/spore_stims/simple_05_A_a.gif","","","","",""
"","null","html-keyboard-response","61","187371","0.0-17.0-0.4","SS1619739661980","","","null","","","","","","<p><img src= images/blank.png width =""600"" height = ""600"" style=""position:fixed;top:50%; left:50%; transform: translate(-50%, -50%); border:5px solid black"">","","","","","","","",""
"","739","sequential-stimulus-presentation-old","62","188620","0.0-17.0-1.4","SS1619739661980","trial","","40","500","1239","images/stimuli/spore_stims/simple_12_A_b.gif","images/stimuli/spore_stims/simple_05_A_a.gif","self_paced","","4","simple_dissimilar","images/stimuli/spore_stims/simple_05_A_a.gif","","","","",""
"","null","html-keyboard-response","63","189721","0.0-17.0-0.5","SS1619739661980","","","null","","","","","","<p><img src= images/blank.png width =""600"" height = ""600"" style=""position:fixed;top:50%; left:50%; transform: translate(-50%, -50%); border:5px solid black"">","","","","","","","",""
"","799","sequential-stimulus-presentation-old","64","191028","0.0-17.0-1.5","SS1619739661980","trial","","40","500","1299","images/stimuli/spore_stims/simple_12_A_b.gif","images/stimuli/spore_stims/simple_05_A_a.gif","self_paced","","4","simple_dissimilar","images/stimuli/spore_stims/simple_05_A_a.gif","","","","",""
"","2437","survey-multi-choice","65","193469","0.0-18.0","SS1619739661980","math_question","","","","","","","","","","","","{""Q0"":""7""}","[0]","7","",""
"","null","html-keyboard-response","66","194315","0.0-19.0-0.0","SS1619739661980","","","null","","","","","","<p><img src= images/blank.png width =""600"" height = ""600"" style=""position:fixed;top:50%; left:50%; transform: translate(-50%, -50%); border:5px solid black"">","","","","","","","",""
"","8180","sequential-stimulus-presentation-old","67","203004","0.0-19.0-1.0","SS1619739661980","trial","","40","500","8680","images/stimuli/spore_stims/complex_12_A_b.gif","images/stimuli/spore_stims/complex_08_A_a.gif","forced_short","","5","complex_dissimilar","images/stimuli/spore_stims/complex_08_A_a.gif","","","","",""
"","null","html-keyboard-response","68","204062","0.0-19.0-0.1","SS1619739661980","","","null","","","","","","<p><img src= images/blank.png width =""600"" height = ""600"" style=""position:fixed;top:50%; left:50%; transform: translate(-50%, -50%); border:5px solid black"">","","","","","","","",""
"","185","sequential-stimulus-presentation-old","69","204756","0.0-19.0-1.1","SS1619739661980","trial","","40","500","685","images/stimuli/spore_stims/complex_12_A_b.gif","images/stimuli/spore_stims/complex_08_A_a.gif","forced_short","","5","complex_dissimilar","images/stimuli/spore_stims/complex_08_A_a.gif","","","","",""
"","null","html-keyboard-response","70","206038","0.0-19.0-0.2","SS1619739661980","","","null","","","","","","<p><img src= images/blank.png width =""600"" height = ""600"" style=""position:fixed;top:50%; left:50%; transform: translate(-50%, -50%); border:5px solid black"">","","","","","","","",""
"","508","sequential-stimulus-presentation-old","71","207059","0.0-19.0-1.2","SS1619739661980","trial","","40","500","1008","images/stimuli/spore_stims/complex_12_A_b.gif","images/stimuli/spore_stims/complex_08_A_a.gif","forced_short","","5","complex_dissimilar","images/stimuli/spore_stims/complex_08_A_a.gif","","","","",""
"","null","html-keyboard-response","72","208328","0.0-19.0-0.3","SS1619739661980","","","null","","","","","","<p><img src= images/blank.png width =""600"" height = ""600"" style=""position:fixed;top:50%; left:50%; transform: translate(-50%, -50%); border:5px solid black"">","","","","","","","",""
"","1080","sequential-stimulus-presentation-old","73","209915","0.0-19.0-1.3","SS1619739661980","trial","","40","500","1580","images/stimuli/spore_stims/complex_12_A_b.gif","images/stimuli/spore_stims/complex_08_A_a.gif","forced_short","","5","complex_dissimilar","images/stimuli/spore_stims/complex_08_A_a.gif","","","","",""
"","null","html-keyboard-response","74","211007","0.0-19.0-0.4","SS1619739661980","","","null","","","","","","<p><img src= images/blank.png width =""600"" height = ""600"" style=""position:fixed;top:50%; left:50%; transform: translate(-50%, -50%); border:5px solid black"">","","","","","","","",""
"","684","sequential-stimulus-presentation-old","75","212205","0.0-19.0-1.4","SS1619739661980","trial","","40","500","1184","images/stimuli/spore_stims/complex_12_A_b.gif","images/stimuli/spore_stims/complex_08_A_a.gif","forced_short","","5","complex_dissimilar","images/stimuli/spore_stims/complex_08_A_a.gif","","","","",""
"","null","html-keyboard-response","76","213479","0.0-19.0-0.5","SS1619739661980","","","null","","","","","","<p><img src= images/blank.png width =""600"" height = ""600"" style=""position:fixed;top:50%; left:50%; transform: translate(-50%, -50%); border:5px solid black"">","","","","","","","",""
"","1136","sequential-stimulus-presentation-old","77","215124","0.0-19.0-1.5","SS1619739661980","trial","","40","500","1636","images/stimuli/spore_stims/complex_12_A_b.gif","images/stimuli/spore_stims/complex_08_A_a.gif","forced_short","","5","complex_dissimilar","images/stimuli/spore_stims/complex_12_A_b.gif","","","","",""
"","2581","survey-multi-choice","78","217709","0.0-20.0","SS1619739661980","math_question","","","","","","","","","","","","{""Q0"":""4""}","[0]","4","",""
"","null","html-keyboard-response","79","218975","0.0-21.0-0.0","SS1619739661980","","","null","","","","","","<p><img src= images/blank.png width =""600"" height = ""600"" style=""position:fixed;top:50%; left:50%; transform: translate(-50%, -50%); border:5px solid black"">","","","","","","","",""
"","3688","sequential-stimulus-presentation-old","80","223172","0.0-21.0-1.0","SS1619739661980","trial","","40","500","4188","images/stimuli/spore_stims/simple_17_A_b.gif","images/stimuli/spore_stims/simple_18_A_a.gif","forced_short","","6","simple_dissimilar","images/stimuli/spore_stims/simple_18_A_a.gif","","","","",""
"","null","html-keyboard-response","81","224234","0.0-21.0-0.1","SS1619739661980","","","null","","","","","","<p><img src= images/blank.png width =""600"" height = ""600"" style=""position:fixed;top:50%; left:50%; transform: translate(-50%, -50%); border:5px solid black"">","","","","","","","",""
"","562","sequential-stimulus-presentation-old","82","225308","0.0-21.0-1.1","SS1619739661980","trial","","40","500","1062","images/stimuli/spore_stims/simple_17_A_b.gif","images/stimuli/spore_stims/simple_18_A_a.gif","forced_short","","6","simple_dissimilar","images/stimuli/spore_stims/simple_18_A_a.gif","","","","",""
"","null","html-keyboard-response","83","226368","0.0-21.0-0.2","SS1619739661980","","","null","","","","","","<p><img src= images/blank.png width =""600"" height = ""600"" style=""position:fixed;top:50%; left:50%; transform: translate(-50%, -50%); border:5px solid black"">","","","","","","","",""
"","335","sequential-stimulus-presentation-old","84","227211","0.0-21.0-1.2","SS1619739661980","trial","","40","500","835","images/stimuli/spore_stims/simple_17_A_b.gif","images/stimuli/spore_stims/simple_18_A_a.gif","forced_short","","6","simple_dissimilar","images/stimuli/spore_stims/simple_18_A_a.gif","","","","",""
"","null","html-keyboard-response","85","228219","0.0-21.0-0.3","SS1619739661980","","","null","","","","","","<p><img src= images/blank.png width =""600"" height = ""600"" style=""position:fixed;top:50%; left:50%; transform: translate(-50%, -50%); border:5px solid black"">","","","","","","","",""
"","33","sequential-stimulus-presentation-old","86","228764","0.0-21.0-1.3","SS1619739661980","trial","","40","500","533","images/stimuli/spore_stims/simple_17_A_b.gif","images/stimuli/spore_stims/simple_18_A_a.gif","forced_short","","6","simple_dissimilar","images/stimuli/spore_stims/simple_18_A_a.gif","","","","",""
"","null","html-keyboard-response","87","229868","0.0-21.0-0.4","SS1619739661980","","","null","","","","","","<p><img src= images/blank.png width =""600"" height = ""600"" style=""position:fixed;top:50%; left:50%; transform: translate(-50%, -50%); border:5px solid black"">","","","","","","","",""
"","242","sequential-stimulus-presentation-old","88","230620","0.0-21.0-1.4","SS1619739661980","trial","","40","500","742","images/stimuli/spore_stims/simple_17_A_b.gif","images/stimuli/spore_stims/simple_18_A_a.gif","forced_short","","6","simple_dissimilar","images/stimuli/spore_stims/simple_18_A_a.gif","","","","",""
"","null","html-keyboard-response","89","231611","0.0-21.0-0.5","SS1619739661980","","","null","","","","","","<p><img src= images/blank.png width =""600"" height = ""600"" style=""position:fixed;top:50%; left:50%; transform: translate(-50%, -50%); border:5px solid black"">","","","","","","","",""
"","251","sequential-stimulus-presentation-old","90","232372","0.0-21.0-1.5","SS1619739661980","trial","","40","500","751","images/stimuli/spore_stims/simple_17_A_b.gif","images/stimuli/spore_stims/simple_18_A_a.gif","forced_short","","6","simple_dissimilar","images/stimuli/spore_stims/simple_18_A_a.gif","","","","",""
"","3197","survey-multi-choice","91","235572","0.0-22.0","SS1619739661980","math_question","","","","","","","","","","","","{""Q0"":""17""}","[0]","17","",""
"","null","html-keyboard-response","92","236834","0.0-23.0-0.0","SS1619739661980","","","null","","","","","","<p><img src= images/blank.png width =""600"" height = ""600"" style=""position:fixed;top:50%; left:50%; transform: translate(-50%, -50%); border:5px solid black"">","","","","","","","",""
"","4285","sequential-stimulus-presentation-old","93","241636","0.0-23.0-1.0","SS1619739661980","trial","","40","500","4785","images/stimuli/spore_stims/complex_06_A_b.gif","images/stimuli/spore_stims/complex_15_A_a.gif","forced_short","","7","complex_dissimilar","images/stimuli/spore_stims/complex_15_A_a.gif","","","","",""
"","null","html-keyboard-response","94","242490","0.0-23.0-0.1","SS1619739661980","","","null","","","","","","<p><img src= images/blank.png width =""600"" height = ""600"" style=""position:fixed;top:50%; left:50%; transform: translate(-50%, -50%); border:5px solid black"">","","","","","","","",""
"","583","sequential-stimulus-presentation-old","95","243580","0.0-23.0-1.1","SS1619739661980","trial","","40","500","1083","images/stimuli/spore_stims/complex_06_A_b.gif","images/stimuli/spore_stims/complex_15_A_a.gif","forced_short","","7","complex_dissimilar","images/stimuli/spore_stims/complex_15_A_a.gif","","","","",""
"","null","html-keyboard-response","96","244801","0.0-23.0-0.2","SS1619739661980","","","null","","","","","","<p><img src= images/blank.png width =""600"" height = ""600"" style=""position:fixed;top:50%; left:50%; transform: translate(-50%, -50%); border:5px solid black"">","","","","","","","",""
"","540","sequential-stimulus-presentation-old","97","245852","0.0-23.0-1.2","SS1619739661980","trial","","40","500","1040","images/stimuli/spore_stims/complex_06_A_b.gif","images/stimuli/spore_stims/complex_15_A_a.gif","forced_short","","7","complex_dissimilar","images/stimuli/spore_stims/complex_06_A_b.gif","","","","",""
"","null","html-keyboard-response","98","247114","0.0-23.0-0.3","SS1619739661980","","","null","","","","","","<p><img src= images/blank.png width =""600"" height = ""600"" style=""position:fixed;top:50%; left:50%; transform: translate(-50%, -50%); border:5px solid black"">","","","","","","","",""
"","554","sequential-stimulus-presentation-old","99","248180","0.0-23.0-1.3","SS1619739661980","trial","","40","500","1054","images/stimuli/spore_stims/complex_06_A_b.gif","images/stimuli/spore_stims/complex_15_A_a.gif","forced_short","","7","complex_dissimilar","images/stimuli/spore_stims/complex_15_A_a.gif","","","","",""
"","null","html-keyboard-response","100","249335","0.0-23.0-0.4","SS1619739661980","","","null","","","","","","<p><img src= images/blank.png width =""600"" height = ""600"" style=""position:fixed;top:50%; left:50%; transform: translate(-50%, -50%); border:5px solid black"">","","","","","","","",""
"","1108","sequential-stimulus-presentation-old","101","250956","0.0-23.0-1.4","SS1619739661980","trial","","40","500","1608","images/stimuli/spore_stims/complex_06_A_b.gif","images/stimuli/spore_stims/complex_15_A_a.gif","forced_short","","7","complex_dissimilar","images/stimuli/spore_stims/complex_06_A_b.gif","","","","",""
"","2181","survey-multi-choice","102","253140","0.0-24.0","SS1619739661980","math_question","","","","","","","","","","","","{""Q0"":""5""}","[0]","5","",""
"","null","html-keyboard-response","103","254303","0.0-25.0-0.0","SS1619739661980","","","null","","","","","","<p><img src= images/blank.png width =""600"" height = ""600"" style=""position:fixed;top:50%; left:50%; transform: translate(-50%, -50%); border:5px solid black"">","","","","","","","",""
"","16645","sequential-stimulus-presentation-old","104","285963","0.0-25.0-1.0","SS1619739661980","trial","","40","500","17145","images/stimuli/spore_stims/simple_15_A_a.gif","images/stimuli/spore_stims/simple_20_A_b.gif","forced_long","","8","simple_dissimilar","images/stimuli/spore_stims/simple_20_A_b.gif","","","","",""
"","null","html-keyboard-response","105","287086","0.0-25.0-0.1","SS1619739661980","","","null","","","","","","<p><img src= images/blank.png width =""600"" height = ""600"" style=""position:fixed;top:50%; left:50%; transform: translate(-50%, -50%); border:5px solid black"">","","","","","","","",""
"","367","sequential-stimulus-presentation-old","106","287972","0.0-25.0-1.1","SS1619739661980","trial","","40","500","867","images/stimuli/spore_stims/simple_15_A_a.gif","images/stimuli/spore_stims/simple_20_A_b.gif","forced_long","","8","simple_dissimilar","images/stimuli/spore_stims/simple_15_A_a.gif","","","","",""
"","null","html-keyboard-response","107","289009","0.0-25.0-0.2","SS1619739661980","","","null","","","","","","<p><img src= images/blank.png width =""600"" height = ""600"" style=""position:fixed;top:50%; left:50%; transform: translate(-50%, -50%); border:5px solid black"">","","","","","","","",""
"","335","sequential-stimulus-presentation-old","108","289851","0.0-25.0-1.2","SS1619739661980","trial","","40","500","835","images/stimuli/spore_stims/simple_15_A_a.gif","images/stimuli/spore_stims/simple_20_A_b.gif","forced_long","","8","simple_dissimilar","images/stimuli/spore_stims/simple_20_A_b.gif","","","","",""
"","null","html-keyboard-response","109","291042","0.0-25.0-0.3","SS1619739661980","","","null","","","","","","<p><img src= images/blank.png width =""600"" height = ""600"" style=""position:fixed;top:50%; left:50%; transform: translate(-50%, -50%); border:5px solid black"">","","","","","","","",""
"","491","sequential-stimulus-presentation-old","110","292044","0.0-25.0-1.3","SS1619739661980","trial","","40","500","991","images/stimuli/spore_stims/simple_15_A_a.gif","images/stimuli/spore_stims/simple_20_A_b.gif","forced_long","","8","simple_dissimilar","images/stimuli/spore_stims/simple_20_A_b.gif","","","","",""
"","null","html-keyboard-response","111","293048","0.0-25.0-0.4","SS1619739661980","","","null","","","","","","<p><img src= images/blank.png width =""600"" height = ""600"" style=""position:fixed;top:50%; left:50%; transform: translate(-50%, -50%); border:5px solid black"">","","","","","","","",""
"","254","sequential-stimulus-presentation-old","112","293812","0.0-25.0-1.4","SS1619739661980","trial","","40","500","754","images/stimuli/spore_stims/simple_15_A_a.gif","images/stimuli/spore_stims/simple_20_A_b.gif","forced_long","","8","simple_dissimilar","images/stimuli/spore_stims/simple_20_A_b.gif","","","","",""
"","2499","survey-multi-choice","113","296317","0.0-26.0","SS1619739661980","math_question","","","","","","","","","","","","{""Q0"":""15""}","[0]","15","",""
"","null","html-keyboard-response","114","297269","0.0-27.0-0.0","SS1619739661980","","","null","","","","","","<p><img src= images/blank.png width =""600"" height = ""600"" style=""position:fixed;top:50%; left:50%; transform: translate(-50%, -50%); border:5px solid black"">","","","","","","","",""
"","5614","sequential-stimulus-presentation-old","115","317900","0.0-27.0-1.0","SS1619739661980","trial","","40","500","6114","images/stimuli/spore_stims/complex_18_A_a.gif","images/stimuli/spore_stims/complex_04_A_b.gif","forced_long","","9","complex_dissimilar","images/stimuli/spore_stims/complex_04_A_b.gif","","","","",""
"","null","html-keyboard-response","116","318779","0.0-27.0-0.1","SS1619739661980","","","null","","","","","","<p><img src= images/blank.png width =""600"" height = ""600"" style=""position:fixed;top:50%; left:50%; transform: translate(-50%, -50%); border:5px solid black"">","","","","","","","",""
"","441","sequential-stimulus-presentation-old","117","319732","0.0-27.0-1.1","SS1619739661980","trial","","40","500","941","images/stimuli/spore_stims/complex_18_A_a.gif","images/stimuli/spore_stims/complex_04_A_b.gif","forced_long","","9","complex_dissimilar","images/stimuli/spore_stims/complex_04_A_b.gif","","","","",""
"","null","html-keyboard-response","118","320997","0.0-27.0-0.2","SS1619739661980","","","null","","","","","","<p><img src= images/blank.png width =""600"" height = ""600"" style=""position:fixed;top:50%; left:50%; transform: translate(-50%, -50%); border:5px solid black"">","","","","","","","",""
"","1463","sequential-stimulus-presentation-old","119","322971","0.0-27.0-1.2","SS1619739661980","trial","","40","500","1963","images/stimuli/spore_stims/complex_18_A_a.gif","images/stimuli/spore_stims/complex_04_A_b.gif","forced_long","","9","complex_dissimilar","images/stimuli/spore_stims/complex_04_A_b.gif","","","","",""
"","null","html-keyboard-response","120","324070","0.0-27.0-0.3","SS1619739661980","","","null","","","","","","<p><img src= images/blank.png width =""600"" height = ""600"" style=""position:fixed;top:50%; left:50%; transform: translate(-50%, -50%); border:5px solid black"">","","","","","","","",""
"","285","sequential-stimulus-presentation-old","121","324868","0.0-27.0-1.3","SS1619739661980","trial","","40","500","785","images/stimuli/spore_stims/complex_18_A_a.gif","images/stimuli/spore_stims/complex_04_A_b.gif","forced_long","","9","complex_dissimilar","images/stimuli/spore_stims/complex_18_A_a.gif","","","","",""
"","2089","survey-multi-choice","122","326965","0.0-28.0","SS1619739661980","math_question","","","","","","","","","","","","{""Q0"":""10""}","[0]","10","",""
"","null","html-keyboard-response","123","327899","0.0-29.0-0.0","SS1619739661980","","","null","","","","","","<p><img src= images/blank.png width =""600"" height = ""600"" style=""position:fixed;top:50%; left:50%; transform: translate(-50%, -50%); border:5px solid black"">","","","","","","","",""
"","13061","sequential-stimulus-presentation-old","124","355971","0.0-29.0-1.0","SS1619739661980","trial","","40","500","13561","images/stimuli/spore_stims/complex_16_A_b.gif","images/stimuli/spore_stims/complex_20_A_a.gif","forced_long","","10","complex_dissimilar","images/stimuli/spore_stims/complex_20_A_a.gif","","","","",""
"","null","html-keyboard-response","125","357263","0.0-29.0-0.1","SS1619739661980","","","null","","","","","","<p><img src= images/blank.png width =""600"" height = ""600"" style=""position:fixed;top:50%; left:50%; transform: translate(-50%, -50%); border:5px solid black"">","","","","","","","",""
"","342","sequential-stimulus-presentation-old","126","358116","0.0-29.0-1.1","SS1619739661980","trial","","40","500","842","images/stimuli/spore_stims/complex_16_A_b.gif","images/stimuli/spore_stims/complex_20_A_a.gif","forced_long","","10","complex_dissimilar","images/stimuli/spore_stims/complex_20_A_a.gif","","","","",""
"","null","html-keyboard-response","127","359424","0.0-29.0-0.2","SS1619739661980","","","null","","","","","","<p><img src= images/blank.png width =""600"" height = ""600"" style=""position:fixed;top:50%; left:50%; transform: translate(-50%, -50%); border:5px solid black"">","","","","","","","",""
"","114","sequential-stimulus-presentation-old","128","360043","0.0-29.0-1.2","SS1619739661980","trial","","40","500","614","images/stimuli/spore_stims/complex_16_A_b.gif","images/stimuli/spore_stims/complex_20_A_a.gif","forced_long","","10","complex_dissimilar","images/stimuli/spore_stims/complex_16_A_b.gif","","","","",""
"","null","html-keyboard-response","129","361303","0.0-29.0-0.3","SS1619739661980","","","null","","","","","","<p><img src= images/blank.png width =""600"" height = ""600"" style=""position:fixed;top:50%; left:50%; transform: translate(-50%, -50%); border:5px solid black"">","","","","","","","",""
"","349","sequential-stimulus-presentation-old","130","362163","0.0-29.0-1.3","SS1619739661980","trial","","40","500","849","images/stimuli/spore_stims/complex_16_A_b.gif","images/stimuli/spore_stims/complex_20_A_a.gif","forced_long","","10","complex_dissimilar","images/stimuli/spore_stims/complex_20_A_a.gif","","","","",""
"","null","html-keyboard-response","131","363109","0.0-29.0-0.4","SS1619739661980","","","null","","","","","","<p><img src= images/blank.png width =""600"" height = ""600"" style=""position:fixed;top:50%; left:50%; transform: translate(-50%, -50%); border:5px solid black"">","","","","","","","",""
"","201","sequential-stimulus-presentation-old","132","363820","0.0-29.0-1.4","SS1619739661980","trial","","40","500","701","images/stimuli/spore_stims/complex_16_A_b.gif","images/stimuli/spore_stims/complex_20_A_a.gif","forced_long","","10","complex_dissimilar","images/stimuli/spore_stims/complex_20_A_a.gif","","","","",""
"","null","html-keyboard-response","133","364923","0.0-29.0-0.5","SS1619739661980","","","null","","","","","","<p><img src= images/blank.png width =""600"" height = ""600"" style=""position:fixed;top:50%; left:50%; transform: translate(-50%, -50%); border:5px solid black"">","","","","","","","",""
"","464","sequential-stimulus-presentation-old","134","365900","0.0-29.0-1.5","SS1619739661980","trial","","40","500","964","images/stimuli/spore_stims/complex_16_A_b.gif","images/stimuli/spore_stims/complex_20_A_a.gif","forced_long","","10","complex_dissimilar","images/stimuli/spore_stims/complex_20_A_a.gif","","","","",""
"","3716","survey-multi-choice","135","369620","0.0-30.0","SS1619739661980","math_question","","","","","","","","","","","","{""Q0"":""14""}","[0]","14","",""
"","null","html-keyboard-response","136","370575","0.0-31.0-0.0","SS1619739661980","","","null","","","","","","<p><img src= images/blank.png width =""600"" height = ""600"" style=""position:fixed;top:50%; left:50%; transform: translate(-50%, -50%); border:5px solid black"">","","","","","","","",""
"","285","sequential-stimulus-presentation-old","137","371371","0.0-31.0-1.0","SS1619739661980","trial","","40","500","785","images/stimuli/spore_stims/complex_02_A_b.gif","images/stimuli/spore_stims/complex_07_A_a.gif","self_paced","","11","complex_dissimilar","images/stimuli/spore_stims/complex_07_A_a.gif","","","","",""
"","null","html-keyboard-response","138","372200","0.0-31.0-0.1","SS1619739661980","","","null","","","","","","<p><img src= images/blank.png width =""600"" height = ""600"" style=""position:fixed;top:50%; left:50%; transform: translate(-50%, -50%); border:5px solid black"">","","","","","","","",""
"","159","sequential-stimulus-presentation-old","139","372867","0.0-31.0-1.1","SS1619739661980","trial","","40","500","659","images/stimuli/spore_stims/complex_02_A_b.gif","images/stimuli/spore_stims/complex_07_A_a.gif","self_paced","","11","complex_dissimilar","images/stimuli/spore_stims/complex_07_A_a.gif","","","","",""
"","null","html-keyboard-response","140","373737","0.0-31.0-0.2","SS1619739661980","","","null","","","","","","<p><img src= images/blank.png width =""600"" height = ""600"" style=""position:fixed;top:50%; left:50%; transform: translate(-50%, -50%); border:5px solid black"">","","","","","","","",""
"","155","sequential-stimulus-presentation-old","141","374404","0.0-31.0-1.2","SS1619739661980","trial","","40","500","655","images/stimuli/spore_stims/complex_02_A_b.gif","images/stimuli/spore_stims/complex_07_A_a.gif","self_paced","","11","complex_dissimilar","images/stimuli/spore_stims/complex_02_A_b.gif","","","","",""
"","null","html-keyboard-response","142","375531","0.0-31.0-0.3","SS1619739661980","","","null","","","","","","<p><img src= images/blank.png width =""600"" height = ""600"" style=""position:fixed;top:50%; left:50%; transform: translate(-50%, -50%); border:5px solid black"">","","","","","","","",""
"","226","sequential-stimulus-presentation-old","143","376268","0.0-31.0-1.3","SS1619739661980","trial","","40","500","726","images/stimuli/spore_stims/complex_02_A_b.gif","images/stimuli/spore_stims/complex_07_A_a.gif","self_paced","","11","complex_dissimilar","images/stimuli/spore_stims/complex_07_A_a.gif","","","","",""
"","null","html-keyboard-response","144","377198","0.0-31.0-0.4","SS1619739661980","","","null","","","","","","<p><img src= images/blank.png width =""600"" height = ""600"" style=""position:fixed;top:50%; left:50%; transform: translate(-50%, -50%); border:5px solid black"">","","","","","","","",""
"","338","sequential-stimulus-presentation-old","145","378052","0.0-31.0-1.4","SS1619739661980","trial","","40","500","838","images/stimuli/spore_stims/complex_02_A_b.gif","images/stimuli/spore_stims/complex_07_A_a.gif","self_paced","","11","complex_dissimilar","images/stimuli/spore_stims/complex_07_A_a.gif","","","","",""
"","null","html-keyboard-response","146","379012","0.0-31.0-0.5","SS1619739661980","","","null","","","","","","<p><img src= images/blank.png width =""600"" height = ""600"" style=""position:fixed;top:50%; left:50%; transform: translate(-50%, -50%); border:5px solid black"">","","","","","","","",""
"","204","sequential-stimulus-presentation-old","147","379723","0.0-31.0-1.5","SS1619739661980","trial","","40","500","704","images/stimuli/spore_stims/complex_02_A_b.gif","images/stimuli/spore_stims/complex_07_A_a.gif","self_paced","","11","complex_dissimilar","images/stimuli/spore_stims/complex_07_A_a.gif","","","","",""
"[{""page_index"":0,""viewing_time"":3267}]","3267","instructions","148","382995","0.0-32.0","SS1619739661980","instructions","","","","","","","","","","","","","","","",""
"","5133","survey-likert","149","388132","0.0-33.0","SS1619739661980","similarity_question","","","","","","","","","","","","{""Q0"":4}","[0]","","images/stimuli/spore_stims/complex_10_A_a.gif","images/stimuli/spore_stims/complex_19_A_b.gif"
"","2043","survey-likert","150","390180","0.0-34.0","SS1619739661980","similarity_question","","","","","","","","","","","","{""Q0"":3}","[0]","","images/stimuli/spore_stims/simple_08_A_a.gif","images/stimuli/spore_stims/simple_18_A_b.gif"
"","4106","survey-likert","151","394293","0.0-35.0","SS1619739661980","similarity_question","","","","","","","","","","","","{""Q0"":2}","[0]","","images/stimuli/spore_stims/complex_06_A_b.gif","images/stimuli/spore_stims/complex_15_A_a.gif"
"","3339","survey-likert","152","397637","0.0-36.0","SS1619739661980","similarity_question","","","","","","","","","","","","{""Q0"":5}","[0]","","images/stimuli/spore_stims/simple_20_A_b.gif","images/stimuli/spore_stims/simple_15_A_a.gif"
"","5332","survey-likert","153","402972","0.0-37.0","SS1619739661980","similarity_question","","","","","","","","","","","","{""Q0"":1}","[0]","","images/stimuli/spore_stims/complex_18_A_a.gif","images/stimuli/spore_stims/complex_04_A_b.gif"
"","3660","survey-likert","154","406636","0.0-38.0","SS1619739661980","similarity_question","","","","","","","","","","","","{""Q0"":1}","[0]","","images/stimuli/spore_stims/complex_12_A_b.gif","images/stimuli/spore_stims/complex_08_A_a.gif"
"","3348","survey-likert","155","409988","0.0-39.0","SS1619739661980","similarity_question","","","","","","","","","","","","{""Q0"":5}","[0]","","images/stimuli/spore_stims/simple_20_A_a.gif","images/stimuli/spore_stims/simple_09_A_b.gif"
"","2547","survey-likert","156","412541","0.0-40.0","SS1619739661980","similarity_question","","","","","","","","","","","","{""Q0"":4}","[0]","","images/stimuli/spore_stims/simple_11_A_a.gif","images/stimuli/spore_stims/simple_03_A_b.gif"
"","2827","survey-likert","157","415372","0.0-41.0","SS1619739661980","similarity_question","","","","","","","","","","","","{""Q0"":2}","[0]","","images/stimuli/spore_stims/complex_16_A_b.gif","images/stimuli/spore_stims/complex_20_A_a.gif"
"","2308","survey-likert","158","417684","0.0-42.0","SS1619739661980","similarity_question","","","","","","","","","","","","{""Q0"":2}","[0]","","images/stimuli/spore_stims/complex_07_A_a.gif","images/stimuli/spore_stims/complex_02_A_b.gif"
"","1876","survey-likert","159","419565","0.0-43.0","SS1619739661980","similarity_question","","","","","","","","","","","","{""Q0"":5}","[0]","","images/stimuli/spore_stims/simple_18_A_a.gif","images/stimuli/spore_stims/simple_17_A_b.gif"
"","1700","survey-likert","160","421268","0.0-44.0","SS1619739661980","similarity_question","","","","","","","","","","","","{""Q0"":5}","[0]","","images/stimuli/spore_stims/simple_12_A_b.gif","images/stimuli/spore_stims/simple_05_A_a.gif"
"[{""page_index"":0,""viewing_time"":1540}]","1540","instructions","161","422811","0.0-45.0","SS1619739661980","instructions","","","","","","","","","","","","","","","",""
"","3684","survey-likert","162","426500","0.0-46.0","SS1619739661980","","","","","","","","","images/stimuli/spore_stims/simple_20_A_b.gif","","","","{""Q0"":0}","[0]","","",""
"","1875","survey-likert","163","428380","0.0-47.0","SS1619739661980","","","","","","","","","images/stimuli/spore_stims/simple_05_A_a.gif","","","","{""Q0"":0}","[0]","","",""
"","3715","survey-likert","164","432100","0.0-48.0","SS1619739661980","","","","","","","","","images/stimuli/spore_stims/simple_09_A_b.gif","","","","{""Q0"":0}","[0]","","",""
"","3796","survey-likert","165","435900","0.0-49.0","SS1619739661980","","","","","","","","","images/stimuli/spore_stims/complex_12_A_b.gif","","","","{""Q0"":5}","[0]","","",""
"","2156","survey-likert","166","438060","0.0-50.0","SS1619739661980","","","","","","","","","images/stimuli/spore_stims/simple_17_A_b.gif","","","","{""Q0"":0}","[0]","","",""
"","1779","survey-likert","167","439844","0.0-51.0","SS1619739661980","","","","","","","","","images/stimuli/spore_stims/simple_03_A_b.gif","","","","{""Q0"":0}","[0]","","",""
"","2491","survey-likert","168","442340","0.0-52.0","SS1619739661980","","","","","","","","","images/stimuli/spore_stims/complex_19_A_b.gif","","","","{""Q0"":4}","[0]","","",""
"","4611","survey-likert","169","446956","0.0-53.0","SS1619739661980","","","","","","","","","images/stimuli/spore_stims/simple_18_A_b.gif","","","","{""Q0"":0}","[0]","","",""
"","2484","survey-likert","170","449444","0.0-54.0","SS1619739661980","","","","","","","","","images/stimuli/spore_stims/complex_20_A_a.gif","","","","{""Q0"":4}","[0]","","",""
"","2140","survey-likert","171","451588","0.0-55.0","SS1619739661980","","","","","","","","","images/stimuli/spore_stims/complex_15_A_a.gif","","","","{""Q0"":5}","[0]","","",""
"","2395","survey-likert","172","453988","0.0-56.0","SS1619739661980","","","","","","","","","images/stimuli/spore_stims/complex_07_A_a.gif","","","","{""Q0"":5}","[0]","","",""
"","1771","survey-likert","173","455764","0.0-57.0","SS1619739661980","","","","","","","","","images/stimuli/spore_stims/complex_18_A_a.gif","","","","{""Q0"":4}","[0]","","",""
"[{""page_index"":0,""viewing_time"":1035}]","1036","instructions","174","456803","0.0-58.0","SS1619739661980","instructions","","","","","","","","","","","","","","","",""
"","1661","demog-age","175","458468","0.0-59.0","SS1619739661980","","","","","","","","","","","","","{""age"":""33""}","","","",""
"","1753","demog-ethnic-US","176","460228","0.0-60.0","SS1619739661980","","","","","","","","","","","","","{""ethnicity"":[""White""]}","[0]","","",""
"","2730","demog-gender-and-education","177","462964","0.0-61.0","SS1619739661980","","","","","","","","","","","","","{""gender"":""Male"",""education"":""Associate Degree/Technical certification""}","[0,1]","","",""
"","6425","survey-text","178","469396","0.0-62.0","SS1619739661980","feedback","","","","","","","","","","","","{""Q0"":""no""}","","","",""
"[{""page_index"":0,""viewing_time"":1034}]","1034","instructions","179","470435","0.0-63.0","SS1619739661980","instructions","","","","","","","","","","","","","","","",""
