"view_history","rt","trial_type","trial_index","time_elapsed","internal_node_id","subject","stimulus_type","trial_stimulus","key_press","minimum_viewing_duration","trial_looking_time","block_deviant","block_background","exposure_type","stimulus","block_number","block_type","stimulus_displayed","responses","question_order","math_correct_answer","stimulus_left","stimulus_right"
"[{""page_index"":0,""viewing_time"":6434.744999998657}]","6435.629999999946","instructions","0","6438","0.0-0.0","SS1619739687151","","","","","","","","","","","","","","","","",""
"[{""page_index"":0,""viewing_time"":12514.769999999771},{""page_index"":1,""viewing_time"":98471.26500000013}]","110986.40999999952","instructions","1","119428","0.0-1.0","SS1619739687151","instructions","","","","","","","","","","","","","","","",""
"","7347.685000000623","sequential-stimulus-presentation-old","2","127281","0.0-2.0","SS1619739687151","","","40","500","7847.685000000623","null","null","self_paced","","","","","","","","",""
"","24579.850000000093","sequential-stimulus-presentation-old","3","152364","0.0-3.0","SS1619739687151","","","40","500","25079.850000000093","null","null","self_paced","","","","","","","","",""
"[{""page_index"":0,""viewing_time"":22761.85000000079}]","22762.165000000095","instructions","4","175127","0.0-4.0","SS1619739687151","instructions","","","","","","","","","","","","","","","",""
"","496.01999999867985","sequential-stimulus-presentation-old","5","190627","0.0-5.0","SS1619739687151","","","40","500","996.0199999986799","null","null","forced_long","","","","","","","","",""
"","1469.9700000000885","sequential-stimulus-presentation-old","6","192600","0.0-6.0","SS1619739687151","","","40","500","1969.9700000000885","null","null","forced_long","","","","","","","","",""
"[{""page_index"":0,""viewing_time"":9624.229999999428}]","9624.554999998509","instructions","7","202227","0.0-7.0","SS1619739687151","instructions","","","","","","","","","","","","","","","",""
"[{""page_index"":0,""viewing_time"":56042.69500000012},{""page_index"":1,""viewing_time"":20831.489999998652},{""page_index"":2,""viewing_time"":7008.390000000887},{""page_index"":3,""viewing_time"":2092.300000000221},{""page_index"":4,""viewing_time"":1867.3699999999371}]","87842.78499999893","instructions","8","290070","0.0-8.0","SS1619739687151","instructions","","","","","","","","","","","","","","","",""
"","null","html-keyboard-response","9","291199","0.0-9.0-0.0","SS1619739687151","","","null","","","","","","<p><img src= images/blank.png width =""600"" height = ""600"" style=""position:fixed;top:50%; left:50%; transform: translate(-50%, -50%); border:5px solid black"">","","","","","","","",""
"","506.26000000012573","sequential-stimulus-presentation-old","10","306709","0.0-9.0-1.0","SS1619739687151","trial","","40","500","1006.2600000001257","images/stimuli/spore_stims/simple_02_A_a.gif","images/stimuli/spore_stims/simple_16_A_b.gif","forced_long","","0","simple_dissimilar","images/stimuli/spore_stims/simple_16_A_b.gif","","","","",""
"","null","html-keyboard-response","11","307857","0.0-9.0-0.1","SS1619739687151","","","null","","","","","","<p><img src= images/blank.png width =""600"" height = ""600"" style=""position:fixed;top:50%; left:50%; transform: translate(-50%, -50%); border:5px solid black"">","","","","","","","",""
"","42146.58000000054","sequential-stimulus-presentation-old","12","350506","0.0-9.0-1.1","SS1619739687151","trial","","40","500","42646.58000000054","images/stimuli/spore_stims/simple_02_A_a.gif","images/stimuli/spore_stims/simple_16_A_b.gif","forced_long","","0","simple_dissimilar","images/stimuli/spore_stims/simple_16_A_b.gif","","","","",""
"","null","html-keyboard-response","13","351696","0.0-9.0-0.2","SS1619739687151","","","null","","","","","","<p><img src= images/blank.png width =""600"" height = ""600"" style=""position:fixed;top:50%; left:50%; transform: translate(-50%, -50%); border:5px solid black"">","","","","","","","",""
"","44218.429999999","sequential-stimulus-presentation-old","14","396418","0.0-9.0-1.2","SS1619739687151","trial","","40","500","44718.429999999","images/stimuli/spore_stims/simple_02_A_a.gif","images/stimuli/spore_stims/simple_16_A_b.gif","forced_long","","0","simple_dissimilar","images/stimuli/spore_stims/simple_02_A_a.gif","","","","",""
"","null","html-keyboard-response","15","397436","0.0-9.0-0.3","SS1619739687151","","","null","","","","","","<p><img src= images/blank.png width =""600"" height = ""600"" style=""position:fixed;top:50%; left:50%; transform: translate(-50%, -50%); border:5px solid black"">","","","","","","","",""
"","3265.494999999646","sequential-stimulus-presentation-old","16","401209","0.0-9.0-1.3","SS1619739687151","trial","","40","500","3765.494999999646","images/stimuli/spore_stims/simple_02_A_a.gif","images/stimuli/spore_stims/simple_16_A_b.gif","forced_long","","0","simple_dissimilar","images/stimuli/spore_stims/simple_16_A_b.gif","","","","",""
"","null","html-keyboard-response","17","402443","0.0-9.0-0.4","SS1619739687151","","","null","","","","","","<p><img src= images/blank.png width =""600"" height = ""600"" style=""position:fixed;top:50%; left:50%; transform: translate(-50%, -50%); border:5px solid black"">","","","","","","","",""
"","23312.90000000084","sequential-stimulus-presentation-old","18","426264","0.0-9.0-1.4","SS1619739687151","trial","","40","500","23812.90000000084","images/stimuli/spore_stims/simple_02_A_a.gif","images/stimuli/spore_stims/simple_16_A_b.gif","forced_long","","0","simple_dissimilar","images/stimuli/spore_stims/simple_16_A_b.gif","","","","",""
"","null","html-keyboard-response","19","427121","0.0-9.0-0.5","SS1619739687151","","","null","","","","","","<p><img src= images/blank.png width =""600"" height = ""600"" style=""position:fixed;top:50%; left:50%; transform: translate(-50%, -50%); border:5px solid black"">","","","","","","","",""
"","653.0449999991106","sequential-stimulus-presentation-old","20","428279","0.0-9.0-1.5","SS1619739687151","trial","","40","500","1153.0449999991106","images/stimuli/spore_stims/simple_02_A_a.gif","images/stimuli/spore_stims/simple_16_A_b.gif","forced_long","","0","simple_dissimilar","images/stimuli/spore_stims/simple_02_A_a.gif","","","","",""
"","6893.594999999565","survey-multi-choice","21","435280","0.0-10.0","SS1619739687151","math_question","","","","","","","","","","","","{""Q0"":""15""}","[0]","15","",""
"","null","html-keyboard-response","22","436467","0.0-11.0-0.0","SS1619739687151","","","null","","","","","","<p><img src= images/blank.png width =""600"" height = ""600"" style=""position:fixed;top:50%; left:50%; transform: translate(-50%, -50%); border:5px solid black"">","","","","","","","",""
"","6623.504999999539","sequential-stimulus-presentation-old","23","443596","0.0-11.0-1.0","SS1619739687151","trial","","40","500","7123.504999999539","images/stimuli/spore_stims/complex_19_A_a.gif","images/stimuli/spore_stims/complex_03_A_b.gif","self_paced","","1","complex_dissimilar","images/stimuli/spore_stims/complex_03_A_b.gif","","","","",""
"","null","html-keyboard-response","24","444586","0.0-11.0-0.1","SS1619739687151","","","null","","","","","","<p><img src= images/blank.png width =""600"" height = ""600"" style=""position:fixed;top:50%; left:50%; transform: translate(-50%, -50%); border:5px solid black"">","","","","","","","",""
"","3360.13499999902","sequential-stimulus-presentation-old","25","448452","0.0-11.0-1.1","SS1619739687151","trial","","40","500","3860.13499999902","images/stimuli/spore_stims/complex_19_A_a.gif","images/stimuli/spore_stims/complex_03_A_b.gif","self_paced","","1","complex_dissimilar","images/stimuli/spore_stims/complex_19_A_a.gif","","","","",""
"","null","html-keyboard-response","26","449355","0.0-11.0-0.2","SS1619739687151","","","null","","","","","","<p><img src= images/blank.png width =""600"" height = ""600"" style=""position:fixed;top:50%; left:50%; transform: translate(-50%, -50%); border:5px solid black"">","","","","","","","",""
"","2934.9600000004866","sequential-stimulus-presentation-old","27","452793","0.0-11.0-1.2","SS1619739687151","trial","","40","500","3434.9600000004866","images/stimuli/spore_stims/complex_19_A_a.gif","images/stimuli/spore_stims/complex_03_A_b.gif","self_paced","","1","complex_dissimilar","images/stimuli/spore_stims/complex_03_A_b.gif","","","","",""
"","null","html-keyboard-response","28","453977","0.0-11.0-0.3","SS1619739687151","","","null","","","","","","<p><img src= images/blank.png width =""600"" height = ""600"" style=""position:fixed;top:50%; left:50%; transform: translate(-50%, -50%); border:5px solid black"">","","","","","","","",""
"","3689.29000000027","sequential-stimulus-presentation-old","29","458171","0.0-11.0-1.3","SS1619739687151","trial","","40","500","4189.29000000027","images/stimuli/spore_stims/complex_19_A_a.gif","images/stimuli/spore_stims/complex_03_A_b.gif","self_paced","","1","complex_dissimilar","images/stimuli/spore_stims/complex_03_A_b.gif","","","","",""
"","null","html-keyboard-response","30","459116","0.0-11.0-0.4","SS1619739687151","","","null","","","","","","<p><img src= images/blank.png width =""600"" height = ""600"" style=""position:fixed;top:50%; left:50%; transform: translate(-50%, -50%); border:5px solid black"">","","","","","","","",""
"","3530.355000000738","sequential-stimulus-presentation-old","31","463150","0.0-11.0-1.4","SS1619739687151","trial","","40","500","4030.355000000738","images/stimuli/spore_stims/complex_19_A_a.gif","images/stimuli/spore_stims/complex_03_A_b.gif","self_paced","","1","complex_dissimilar","images/stimuli/spore_stims/complex_19_A_a.gif","","","","",""
"","4777.32499999908","survey-multi-choice","32","467930","0.0-12.0","SS1619739687151","math_question","","","","","","","","","","","","{""Q0"":""9""}","[0]","9","",""
"","null","html-keyboard-response","33","469039","0.0-13.0-0.0","SS1619739687151","","","null","","","","","","<p><img src= images/blank.png width =""600"" height = ""600"" style=""position:fixed;top:50%; left:50%; transform: translate(-50%, -50%); border:5px solid black"">","","","","","","","",""
"","601.7250000004424","sequential-stimulus-presentation-old","34","484645","0.0-13.0-1.0","SS1619739687151","trial","","40","500","1101.7250000004424","images/stimuli/spore_stims/complex_17_A_a.gif","images/stimuli/spore_stims/complex_16_A_b.gif","forced_long","","2","complex_dissimilar","images/stimuli/spore_stims/complex_16_A_b.gif","","","","",""
"","null","html-keyboard-response","35","485606","0.0-13.0-0.1","SS1619739687151","","","null","","","","","","<p><img src= images/blank.png width =""600"" height = ""600"" style=""position:fixed;top:50%; left:50%; transform: translate(-50%, -50%); border:5px solid black"">","","","","","","","",""
"","354.220000001078","sequential-stimulus-presentation-old","36","486466","0.0-13.0-1.1","SS1619739687151","trial","","40","500","854.220000001078","images/stimuli/spore_stims/complex_17_A_a.gif","images/stimuli/spore_stims/complex_16_A_b.gif","forced_long","","2","complex_dissimilar","images/stimuli/spore_stims/complex_16_A_b.gif","","","","",""
"","null","html-keyboard-response","37","487390","0.0-13.0-0.2","SS1619739687151","","","null","","","","","","<p><img src= images/blank.png width =""600"" height = ""600"" style=""position:fixed;top:50%; left:50%; transform: translate(-50%, -50%); border:5px solid black"">","","","","","","","",""
"","4764.5899999988615","sequential-stimulus-presentation-old","38","492659","0.0-13.0-1.2","SS1619739687151","trial","","40","500","5264.5899999988615","images/stimuli/spore_stims/complex_17_A_a.gif","images/stimuli/spore_stims/complex_16_A_b.gif","forced_long","","2","complex_dissimilar","images/stimuli/spore_stims/complex_17_A_a.gif","","","","",""
"","null","html-keyboard-response","39","493938","0.0-13.0-0.3","SS1619739687151","","","null","","","","","","<p><img src= images/blank.png width =""600"" height = ""600"" style=""position:fixed;top:50%; left:50%; transform: translate(-50%, -50%); border:5px solid black"">","","","","","","","",""
"","2549.1450000008335","sequential-stimulus-presentation-old","40","496992","0.0-13.0-1.3","SS1619739687151","trial","","40","500","3049.1450000008335","images/stimuli/spore_stims/complex_17_A_a.gif","images/stimuli/spore_stims/complex_16_A_b.gif","forced_long","","2","complex_dissimilar","images/stimuli/spore_stims/complex_16_A_b.gif","","","","",""
"","null","html-keyboard-response","41","498214","0.0-13.0-0.4","SS1619739687151","","","null","","","","","","<p><img src= images/blank.png width =""600"" height = ""600"" style=""position:fixed;top:50%; left:50%; transform: translate(-50%, -50%); border:5px solid black"">","","","","","","","",""
"","1704.8949999989127","sequential-stimulus-presentation-old","42","500426","0.0-13.0-1.4","SS1619739687151","trial","","40","500","2204.8949999989127","images/stimuli/spore_stims/complex_17_A_a.gif","images/stimuli/spore_stims/complex_16_A_b.gif","forced_long","","2","complex_dissimilar","images/stimuli/spore_stims/complex_16_A_b.gif","","","","",""
"","null","html-keyboard-response","43","501652","0.0-13.0-0.5","SS1619739687151","","","null","","","","","","<p><img src= images/blank.png width =""600"" height = ""600"" style=""position:fixed;top:50%; left:50%; transform: translate(-50%, -50%); border:5px solid black"">","","","","","","","",""
"","3355.340000000084","sequential-stimulus-presentation-old","44","505514","0.0-13.0-1.5","SS1619739687151","trial","","40","500","3855.340000000084","images/stimuli/spore_stims/complex_17_A_a.gif","images/stimuli/spore_stims/complex_16_A_b.gif","forced_long","","2","complex_dissimilar","images/stimuli/spore_stims/complex_16_A_b.gif","","","","",""
"","3866.4349999998813","survey-multi-choice","45","509383","0.0-14.0","SS1619739687151","math_question","","","","","","","","","","","","{""Q0"":""4""}","[0]","4","",""
"","null","html-keyboard-response","46","510520","0.0-15.0-0.0","SS1619739687151","","","null","","","","","","<p><img src= images/blank.png width =""600"" height = ""600"" style=""position:fixed;top:50%; left:50%; transform: translate(-50%, -50%); border:5px solid black"">","","","","","","","",""
"","460.13999999919906","sequential-stimulus-presentation-old","47","525986","0.0-15.0-1.0","SS1619739687151","trial","","40","500","960.1399999991991","images/stimuli/spore_stims/simple_09_A_b.gif","images/stimuli/spore_stims/simple_12_A_a.gif","forced_long","","3","simple_dissimilar","images/stimuli/spore_stims/simple_12_A_a.gif","","","","",""
"","null","html-keyboard-response","48","526975","0.0-15.0-0.1","SS1619739687151","","","null","","","","","","<p><img src= images/blank.png width =""600"" height = ""600"" style=""position:fixed;top:50%; left:50%; transform: translate(-50%, -50%); border:5px solid black"">","","","","","","","",""
"","339.6549999997951","sequential-stimulus-presentation-old","49","527819","0.0-15.0-1.1","SS1619739687151","trial","","40","500","839.6549999997951","images/stimuli/spore_stims/simple_09_A_b.gif","images/stimuli/spore_stims/simple_12_A_a.gif","forced_long","","3","simple_dissimilar","images/stimuli/spore_stims/simple_12_A_a.gif","","","","",""
"","null","html-keyboard-response","50","528788","0.0-15.0-0.2","SS1619739687151","","","null","","","","","","<p><img src= images/blank.png width =""600"" height = ""600"" style=""position:fixed;top:50%; left:50%; transform: translate(-50%, -50%); border:5px solid black"">","","","","","","","",""
"","620.3949999999022","sequential-stimulus-presentation-old","51","529919","0.0-15.0-1.2","SS1619739687151","trial","","40","500","1120.3949999999022","images/stimuli/spore_stims/simple_09_A_b.gif","images/stimuli/spore_stims/simple_12_A_a.gif","forced_long","","3","simple_dissimilar","images/stimuli/spore_stims/simple_12_A_a.gif","","","","",""
"","null","html-keyboard-response","52","531114","0.0-15.0-0.3","SS1619739687151","","","null","","","","","","<p><img src= images/blank.png width =""600"" height = ""600"" style=""position:fixed;top:50%; left:50%; transform: translate(-50%, -50%); border:5px solid black"">","","","","","","","",""
"","327.24000000057276","sequential-stimulus-presentation-old","53","531947","0.0-15.0-1.3","SS1619739687151","trial","","40","500","827.2400000005728","images/stimuli/spore_stims/simple_09_A_b.gif","images/stimuli/spore_stims/simple_12_A_a.gif","forced_long","","3","simple_dissimilar","images/stimuli/spore_stims/simple_12_A_a.gif","","","","",""
"","null","html-keyboard-response","54","533051","0.0-15.0-0.4","SS1619739687151","","","null","","","","","","<p><img src= images/blank.png width =""600"" height = ""600"" style=""position:fixed;top:50%; left:50%; transform: translate(-50%, -50%); border:5px solid black"">","","","","","","","",""
"","654.6249999991851","sequential-stimulus-presentation-old","55","534210","0.0-15.0-1.4","SS1619739687151","trial","","40","500","1154.624999999185","images/stimuli/spore_stims/simple_09_A_b.gif","images/stimuli/spore_stims/simple_12_A_a.gif","forced_long","","3","simple_dissimilar","images/stimuli/spore_stims/simple_12_A_a.gif","","","","",""
"","null","html-keyboard-response","56","535440","0.0-15.0-0.5","SS1619739687151","","","null","","","","","","<p><img src= images/blank.png width =""600"" height = ""600"" style=""position:fixed;top:50%; left:50%; transform: translate(-50%, -50%); border:5px solid black"">","","","","","","","",""
"","748.579999999376","sequential-stimulus-presentation-old","57","536692","0.0-15.0-1.5","SS1619739687151","trial","","40","500","1248.579999999376","images/stimuli/spore_stims/simple_09_A_b.gif","images/stimuli/spore_stims/simple_12_A_a.gif","forced_long","","3","simple_dissimilar","images/stimuli/spore_stims/simple_12_A_a.gif","","","","",""
"","4286.185000000871","survey-multi-choice","58","540984","0.0-16.0","SS1619739687151","math_question","","","","","","","","","","","","{""Q0"":""15""}","[0]","15","",""
"","null","html-keyboard-response","59","542120","0.0-17.0-0.0","SS1619739687151","","","null","","","","","","<p><img src= images/blank.png width =""600"" height = ""600"" style=""position:fixed;top:50%; left:50%; transform: translate(-50%, -50%); border:5px solid black"">","","","","","","","",""
"","794.89500000095","sequential-stimulus-presentation-old","60","543425","0.0-17.0-1.0","SS1619739687151","trial","","40","500","1294.89500000095","images/stimuli/spore_stims/simple_11_A_a.gif","images/stimuli/spore_stims/simple_13_A_b.gif","forced_short","","4","simple_dissimilar","images/stimuli/spore_stims/simple_13_A_b.gif","","","","",""
"","null","html-keyboard-response","61","544566","0.0-17.0-0.1","SS1619739687151","","","null","","","","","","<p><img src= images/blank.png width =""600"" height = ""600"" style=""position:fixed;top:50%; left:50%; transform: translate(-50%, -50%); border:5px solid black"">","","","","","","","",""
"","276.7399999992922","sequential-stimulus-presentation-old","62","545347","0.0-17.0-1.1","SS1619739687151","trial","","40","500","776.7399999992922","images/stimuli/spore_stims/simple_11_A_a.gif","images/stimuli/spore_stims/simple_13_A_b.gif","forced_short","","4","simple_dissimilar","images/stimuli/spore_stims/simple_13_A_b.gif","","","","",""
"","null","html-keyboard-response","63","546417","0.0-17.0-0.2","SS1619739687151","","","null","","","","","","<p><img src= images/blank.png width =""600"" height = ""600"" style=""position:fixed;top:50%; left:50%; transform: translate(-50%, -50%); border:5px solid black"">","","","","","","","",""
"","413.7949999986449","sequential-stimulus-presentation-old","64","547335","0.0-17.0-1.2","SS1619739687151","trial","","40","500","913.7949999986449","images/stimuli/spore_stims/simple_11_A_a.gif","images/stimuli/spore_stims/simple_13_A_b.gif","forced_short","","4","simple_dissimilar","images/stimuli/spore_stims/simple_13_A_b.gif","","","","",""
"","null","html-keyboard-response","65","548614","0.0-17.0-0.3","SS1619739687151","","","null","","","","","","<p><img src= images/blank.png width =""600"" height = ""600"" style=""position:fixed;top:50%; left:50%; transform: translate(-50%, -50%); border:5px solid black"">","","","","","","","",""
"","445.2049999999581","sequential-stimulus-presentation-old","66","549567","0.0-17.0-1.3","SS1619739687151","trial","","40","500","945.2049999999581","images/stimuli/spore_stims/simple_11_A_a.gif","images/stimuli/spore_stims/simple_13_A_b.gif","forced_short","","4","simple_dissimilar","images/stimuli/spore_stims/simple_13_A_b.gif","","","","",""
"","null","html-keyboard-response","67","550489","0.0-17.0-0.4","SS1619739687151","","","null","","","","","","<p><img src= images/blank.png width =""600"" height = ""600"" style=""position:fixed;top:50%; left:50%; transform: translate(-50%, -50%); border:5px solid black"">","","","","","","","",""
"","123.19000000029337","sequential-stimulus-presentation-old","68","551116","0.0-17.0-1.4","SS1619739687151","trial","","40","500","623.1900000002934","images/stimuli/spore_stims/simple_11_A_a.gif","images/stimuli/spore_stims/simple_13_A_b.gif","forced_short","","4","simple_dissimilar","images/stimuli/spore_stims/simple_11_A_a.gif","","","","",""
"","2952.6550000009593","survey-multi-choice","69","554072","0.0-18.0","SS1619739687151","math_question","","","","","","","","","","","","{""Q0"":""6""}","[0]","6","",""
"","null","html-keyboard-response","70","555274","0.0-19.0-0.0","SS1619739687151","","","null","","","","","","<p><img src= images/blank.png width =""600"" height = ""600"" style=""position:fixed;top:50%; left:50%; transform: translate(-50%, -50%); border:5px solid black"">","","","","","","","",""
"","725.309999999823","sequential-stimulus-presentation-old","71","556513","0.0-19.0-1.0","SS1619739687151","trial","","40","500","1225.309999999823","images/stimuli/spore_stims/complex_08_A_b.gif","images/stimuli/spore_stims/complex_11_A_a.gif","forced_short","","5","complex_dissimilar","images/stimuli/spore_stims/complex_11_A_a.gif","","","","",""
"","null","html-keyboard-response","72","557804","0.0-19.0-0.1","SS1619739687151","","","null","","","","","","<p><img src= images/blank.png width =""600"" height = ""600"" style=""position:fixed;top:50%; left:50%; transform: translate(-50%, -50%); border:5px solid black"">","","","","","","","",""
"","236.46999999973923","sequential-stimulus-presentation-old","73","558546","0.0-19.0-1.1","SS1619739687151","trial","","40","500","736.4699999997392","images/stimuli/spore_stims/complex_08_A_b.gif","images/stimuli/spore_stims/complex_11_A_a.gif","forced_short","","5","complex_dissimilar","images/stimuli/spore_stims/complex_11_A_a.gif","","","","",""
"","null","html-keyboard-response","74","559605","0.0-19.0-0.2","SS1619739687151","","","null","","","","","","<p><img src= images/blank.png width =""600"" height = ""600"" style=""position:fixed;top:50%; left:50%; transform: translate(-50%, -50%); border:5px solid black"">","","","","","","","",""
"","358.5100000000093","sequential-stimulus-presentation-old","75","560470","0.0-19.0-1.2","SS1619739687151","trial","","40","500","858.5100000000093","images/stimuli/spore_stims/complex_08_A_b.gif","images/stimuli/spore_stims/complex_11_A_a.gif","forced_short","","5","complex_dissimilar","images/stimuli/spore_stims/complex_08_A_b.gif","","","","",""
"","null","html-keyboard-response","76","561404","0.0-19.0-0.3","SS1619739687151","","","null","","","","","","<p><img src= images/blank.png width =""600"" height = ""600"" style=""position:fixed;top:50%; left:50%; transform: translate(-50%, -50%); border:5px solid black"">","","","","","","","",""
"","345.6850000001723","sequential-stimulus-presentation-old","77","562254","0.0-19.0-1.3","SS1619739687151","trial","","40","500","845.6850000001723","images/stimuli/spore_stims/complex_08_A_b.gif","images/stimuli/spore_stims/complex_11_A_a.gif","forced_short","","5","complex_dissimilar","images/stimuli/spore_stims/complex_11_A_a.gif","","","","",""
"","null","html-keyboard-response","78","563231","0.0-19.0-0.4","SS1619739687151","","","null","","","","","","<p><img src= images/blank.png width =""600"" height = ""600"" style=""position:fixed;top:50%; left:50%; transform: translate(-50%, -50%); border:5px solid black"">","","","","","","","",""
"","786.2700000004843","sequential-stimulus-presentation-old","79","564523","0.0-19.0-1.4","SS1619739687151","trial","","40","500","1286.2700000004843","images/stimuli/spore_stims/complex_08_A_b.gif","images/stimuli/spore_stims/complex_11_A_a.gif","forced_short","","5","complex_dissimilar","images/stimuli/spore_stims/complex_08_A_b.gif","","","","",""
"","3420.244999999297","survey-multi-choice","80","567946","0.0-20.0","SS1619739687151","math_question","","","","","","","","","","","","{""Q0"":""10""}","[0]","10","",""
"","null","html-keyboard-response","81","568822","0.0-21.0-0.0","SS1619739687151","","","null","","","","","","<p><img src= images/blank.png width =""600"" height = ""600"" style=""position:fixed;top:50%; left:50%; transform: translate(-50%, -50%); border:5px solid black"">","","","","","","","",""
"","531.2699999994365","sequential-stimulus-presentation-old","82","569857","0.0-21.0-1.0","SS1619739687151","trial","","40","500","1031.2699999994365","images/stimuli/spore_stims/complex_19_A_b.gif","images/stimuli/spore_stims/complex_05_A_a.gif","forced_short","","6","complex_dissimilar","images/stimuli/spore_stims/complex_05_A_a.gif","","","","",""
"","null","html-keyboard-response","83","570818","0.0-21.0-0.1","SS1619739687151","","","null","","","","","","<p><img src= images/blank.png width =""600"" height = ""600"" style=""position:fixed;top:50%; left:50%; transform: translate(-50%, -50%); border:5px solid black"">","","","","","","","",""
"","820.305000001099","sequential-stimulus-presentation-old","84","572142","0.0-21.0-1.1","SS1619739687151","trial","","40","500","1320.305000001099","images/stimuli/spore_stims/complex_19_A_b.gif","images/stimuli/spore_stims/complex_05_A_a.gif","forced_short","","6","complex_dissimilar","images/stimuli/spore_stims/complex_05_A_a.gif","","","","",""
"","null","html-keyboard-response","85","572978","0.0-21.0-0.2","SS1619739687151","","","null","","","","","","<p><img src= images/blank.png width =""600"" height = ""600"" style=""position:fixed;top:50%; left:50%; transform: translate(-50%, -50%); border:5px solid black"">","","","","","","","",""
"","775.239999998943","sequential-stimulus-presentation-old","86","574260","0.0-21.0-1.2","SS1619739687151","trial","","40","500","1275.239999998943","images/stimuli/spore_stims/complex_19_A_b.gif","images/stimuli/spore_stims/complex_05_A_a.gif","forced_short","","6","complex_dissimilar","images/stimuli/spore_stims/complex_05_A_a.gif","","","","",""
"","null","html-keyboard-response","87","575224","0.0-21.0-0.3","SS1619739687151","","","null","","","","","","<p><img src= images/blank.png width =""600"" height = ""600"" style=""position:fixed;top:50%; left:50%; transform: translate(-50%, -50%); border:5px solid black"">","","","","","","","",""
"","22.404999999678694","sequential-stimulus-presentation-old","88","575752","0.0-21.0-1.3","SS1619739687151","trial","","40","500","522.4049999996787","images/stimuli/spore_stims/complex_19_A_b.gif","images/stimuli/spore_stims/complex_05_A_a.gif","forced_short","","6","complex_dissimilar","images/stimuli/spore_stims/complex_05_A_a.gif","","","","",""
"","null","html-keyboard-response","89","576592","0.0-21.0-0.4","SS1619739687151","","","null","","","","","","<p><img src= images/blank.png width =""600"" height = ""600"" style=""position:fixed;top:50%; left:50%; transform: translate(-50%, -50%); border:5px solid black"">","","","","","","","",""
"","2437.1850000007544","sequential-stimulus-presentation-old","90","579534","0.0-21.0-1.4","SS1619739687151","trial","","40","500","2937.1850000007544","images/stimuli/spore_stims/complex_19_A_b.gif","images/stimuli/spore_stims/complex_05_A_a.gif","forced_short","","6","complex_dissimilar","images/stimuli/spore_stims/complex_05_A_a.gif","","","","",""
"","null","html-keyboard-response","91","580665","0.0-21.0-0.5","SS1619739687151","","","null","","","","","","<p><img src= images/blank.png width =""600"" height = ""600"" style=""position:fixed;top:50%; left:50%; transform: translate(-50%, -50%); border:5px solid black"">","","","","","","","",""
"","776.4799999987008","sequential-stimulus-presentation-old","92","581946","0.0-21.0-1.5","SS1619739687151","trial","","40","500","1276.4799999987008","images/stimuli/spore_stims/complex_19_A_b.gif","images/stimuli/spore_stims/complex_05_A_a.gif","forced_short","","6","complex_dissimilar","images/stimuli/spore_stims/complex_05_A_a.gif","","","","",""
"","4081.6300000005867","survey-multi-choice","93","586030","0.0-22.0","SS1619739687151","math_question","","","","","","","","","","","","{""Q0"":""15""}","[0]","15","",""
"","null","html-keyboard-response","94","587221","0.0-23.0-0.0","SS1619739687151","","","null","","","","","","<p><img src= images/blank.png width =""600"" height = ""600"" style=""position:fixed;top:50%; left:50%; transform: translate(-50%, -50%); border:5px solid black"">","","","","","","","",""
"","643.7199999999721","sequential-stimulus-presentation-old","95","588373","0.0-23.0-1.0","SS1619739687151","trial","","40","500","1143.719999999972","images/stimuli/spore_stims/complex_13_A_a.gif","images/stimuli/spore_stims/complex_09_A_b.gif","self_paced","","7","complex_dissimilar","images/stimuli/spore_stims/complex_09_A_b.gif","","","","",""
"","null","html-keyboard-response","96","589567","0.0-23.0-0.1","SS1619739687151","","","null","","","","","","<p><img src= images/blank.png width =""600"" height = ""600"" style=""position:fixed;top:50%; left:50%; transform: translate(-50%, -50%); border:5px solid black"">","","","","","","","",""
"","96.15999999910127","sequential-stimulus-presentation-old","97","590171","0.0-23.0-1.1","SS1619739687151","trial","","40","500","596.1599999991013","images/stimuli/spore_stims/complex_13_A_a.gif","images/stimuli/spore_stims/complex_09_A_b.gif","self_paced","","7","complex_dissimilar","images/stimuli/spore_stims/complex_13_A_a.gif","","","","",""
"","null","html-keyboard-response","98","591088","0.0-23.0-0.2","SS1619739687151","","","null","","","","","","<p><img src= images/blank.png width =""600"" height = ""600"" style=""position:fixed;top:50%; left:50%; transform: translate(-50%, -50%); border:5px solid black"">","","","","","","","",""
"","348.4799999987008","sequential-stimulus-presentation-old","99","591940","0.0-23.0-1.2","SS1619739687151","trial","","40","500","848.4799999987008","images/stimuli/spore_stims/complex_13_A_a.gif","images/stimuli/spore_stims/complex_09_A_b.gif","self_paced","","7","complex_dissimilar","images/stimuli/spore_stims/complex_09_A_b.gif","","","","",""
"","null","html-keyboard-response","100","592864","0.0-23.0-0.3","SS1619739687151","","","null","","","","","","<p><img src= images/blank.png width =""600"" height = ""600"" style=""position:fixed;top:50%; left:50%; transform: translate(-50%, -50%); border:5px solid black"">","","","","","","","",""
"","1050.1999999997206","sequential-stimulus-presentation-old","101","594420","0.0-23.0-1.3","SS1619739687151","trial","","40","500","1550.1999999997206","images/stimuli/spore_stims/complex_13_A_a.gif","images/stimuli/spore_stims/complex_09_A_b.gif","self_paced","","7","complex_dissimilar","images/stimuli/spore_stims/complex_09_A_b.gif","","","","",""
"","null","html-keyboard-response","102","595504","0.0-23.0-0.4","SS1619739687151","","","null","","","","","","<p><img src= images/blank.png width =""600"" height = ""600"" style=""position:fixed;top:50%; left:50%; transform: translate(-50%, -50%); border:5px solid black"">","","","","","","","",""
"","17.970000000903383","sequential-stimulus-presentation-old","103","596029","0.0-23.0-1.4","SS1619739687151","trial","","40","500","517.9700000009034","images/stimuli/spore_stims/complex_13_A_a.gif","images/stimuli/spore_stims/complex_09_A_b.gif","self_paced","","7","complex_dissimilar","images/stimuli/spore_stims/complex_09_A_b.gif","","","","",""
"","3598.3999999989755","survey-multi-choice","104","599632","0.0-24.0","SS1619739687151","math_question","","","","","","","","","","","","{""Q0"":""7""}","[0]","7","",""
"","null","html-keyboard-response","105","600600","0.0-25.0-0.0","SS1619739687151","","","null","","","","","","<p><img src= images/blank.png width =""600"" height = ""600"" style=""position:fixed;top:50%; left:50%; transform: translate(-50%, -50%); border:5px solid black"">","","","","","","","",""
"","502.71499999868684","sequential-stimulus-presentation-old","106","616110","0.0-25.0-1.0","SS1619739687151","trial","","40","500","1002.7149999986868","images/stimuli/spore_stims/complex_07_A_a.gif","images/stimuli/spore_stims/complex_12_A_b.gif","forced_long","","8","complex_dissimilar","images/stimuli/spore_stims/complex_12_A_b.gif","","","","",""
"","null","html-keyboard-response","107","617174","0.0-25.0-0.1","SS1619739687151","","","null","","","","","","<p><img src= images/blank.png width =""600"" height = ""600"" style=""position:fixed;top:50%; left:50%; transform: translate(-50%, -50%); border:5px solid black"">","","","","","","","",""
"","419.7149999999674","sequential-stimulus-presentation-old","108","618102","0.0-25.0-1.1","SS1619739687151","trial","","40","500","919.7149999999674","images/stimuli/spore_stims/complex_07_A_a.gif","images/stimuli/spore_stims/complex_12_A_b.gif","forced_long","","8","complex_dissimilar","images/stimuli/spore_stims/complex_07_A_a.gif","","","","",""
"","null","html-keyboard-response","109","619064","0.0-25.0-0.2","SS1619739687151","","","null","","","","","","<p><img src= images/blank.png width =""600"" height = ""600"" style=""position:fixed;top:50%; left:50%; transform: translate(-50%, -50%); border:5px solid black"">","","","","","","","",""
"","224.58999999973457","sequential-stimulus-presentation-old","110","619793","0.0-25.0-1.2","SS1619739687151","trial","","40","500","724.5899999997346","images/stimuli/spore_stims/complex_07_A_a.gif","images/stimuli/spore_stims/complex_12_A_b.gif","forced_long","","8","complex_dissimilar","images/stimuli/spore_stims/complex_07_A_a.gif","","","","",""
"","null","html-keyboard-response","111","620860","0.0-25.0-0.3","SS1619739687151","","","null","","","","","","<p><img src= images/blank.png width =""600"" height = ""600"" style=""position:fixed;top:50%; left:50%; transform: translate(-50%, -50%); border:5px solid black"">","","","","","","","",""
"","358.3300000008894","sequential-stimulus-presentation-old","112","621726","0.0-25.0-1.3","SS1619739687151","trial","","40","500","858.3300000008894","images/stimuli/spore_stims/complex_07_A_a.gif","images/stimuli/spore_stims/complex_12_A_b.gif","forced_long","","8","complex_dissimilar","images/stimuli/spore_stims/complex_12_A_b.gif","","","","",""
"","null","html-keyboard-response","113","622679","0.0-25.0-0.4","SS1619739687151","","","null","","","","","","<p><img src= images/blank.png width =""600"" height = ""600"" style=""position:fixed;top:50%; left:50%; transform: translate(-50%, -50%); border:5px solid black"">","","","","","","","",""
"","492.0900000014808","sequential-stimulus-presentation-old","114","623676","0.0-25.0-1.4","SS1619739687151","trial","","40","500","992.0900000014808","images/stimuli/spore_stims/complex_07_A_a.gif","images/stimuli/spore_stims/complex_12_A_b.gif","forced_long","","8","complex_dissimilar","images/stimuli/spore_stims/complex_12_A_b.gif","","","","",""
"","3502.9649999997346","survey-multi-choice","115","627184","0.0-26.0","SS1619739687151","math_question","","","","","","","","","","","","{""Q0"":""12""}","[0]","12","",""
"","null","html-keyboard-response","116","628087","0.0-27.0-0.0","SS1619739687151","","","null","","","","","","<p><img src= images/blank.png width =""600"" height = ""600"" style=""position:fixed;top:50%; left:50%; transform: translate(-50%, -50%); border:5px solid black"">","","","","","","","",""
"","4103.885000000475","sequential-stimulus-presentation-old","117","632698","0.0-27.0-1.0","SS1619739687151","trial","","40","500","4603.885000000475","images/stimuli/spore_stims/simple_18_A_b.gif","images/stimuli/spore_stims/simple_01_A_a.gif","forced_short","","9","simple_dissimilar","images/stimuli/spore_stims/simple_01_A_a.gif","","","","",""
"","null","html-keyboard-response","118","633954","0.0-27.0-0.1","SS1619739687151","","","null","","","","","","<p><img src= images/blank.png width =""600"" height = ""600"" style=""position:fixed;top:50%; left:50%; transform: translate(-50%, -50%); border:5px solid black"">","","","","","","","",""
"","492.12000000081025","sequential-stimulus-presentation-old","119","634954","0.0-27.0-1.1","SS1619739687151","trial","","40","500","992.1200000008103","images/stimuli/spore_stims/simple_18_A_b.gif","images/stimuli/spore_stims/simple_01_A_a.gif","forced_short","","9","simple_dissimilar","images/stimuli/spore_stims/simple_01_A_a.gif","","","","",""
"","null","html-keyboard-response","120","635822","0.0-27.0-0.2","SS1619739687151","","","null","","","","","","<p><img src= images/blank.png width =""600"" height = ""600"" style=""position:fixed;top:50%; left:50%; transform: translate(-50%, -50%); border:5px solid black"">","","","","","","","",""
"","652.4700000009034","sequential-stimulus-presentation-old","121","636980","0.0-27.0-1.2","SS1619739687151","trial","","40","500","1152.4700000009034","images/stimuli/spore_stims/simple_18_A_b.gif","images/stimuli/spore_stims/simple_01_A_a.gif","forced_short","","9","simple_dissimilar","images/stimuli/spore_stims/simple_01_A_a.gif","","","","",""
"","null","html-keyboard-response","122","637963","0.0-27.0-0.3","SS1619739687151","","","null","","","","","","<p><img src= images/blank.png width =""600"" height = ""600"" style=""position:fixed;top:50%; left:50%; transform: translate(-50%, -50%); border:5px solid black"">","","","","","","","",""
"","65.29500000039116","sequential-stimulus-presentation-old","123","638533","0.0-27.0-1.3","SS1619739687151","trial","","40","500","565.2950000003912","images/stimuli/spore_stims/simple_18_A_b.gif","images/stimuli/spore_stims/simple_01_A_a.gif","forced_short","","9","simple_dissimilar","images/stimuli/spore_stims/simple_01_A_a.gif","","","","",""
"","null","html-keyboard-response","124","639548","0.0-27.0-0.4","SS1619739687151","","","null","","","","","","<p><img src= images/blank.png width =""600"" height = ""600"" style=""position:fixed;top:50%; left:50%; transform: translate(-50%, -50%); border:5px solid black"">","","","","","","","",""
"","382.2799999997951","sequential-stimulus-presentation-old","125","640439","0.0-27.0-1.4","SS1619739687151","trial","","40","500","882.2799999997951","images/stimuli/spore_stims/simple_18_A_b.gif","images/stimuli/spore_stims/simple_01_A_a.gif","forced_short","","9","simple_dissimilar","images/stimuli/spore_stims/simple_01_A_a.gif","","","","",""
"","null","html-keyboard-response","126","641734","0.0-27.0-0.5","SS1619739687151","","","null","","","","","","<p><img src= images/blank.png width =""600"" height = ""600"" style=""position:fixed;top:50%; left:50%; transform: translate(-50%, -50%); border:5px solid black"">","","","","","","","",""
"","493.4950000005774","sequential-stimulus-presentation-old","127","642733","0.0-27.0-1.5","SS1619739687151","trial","","40","500","993.4950000005774","images/stimuli/spore_stims/simple_18_A_b.gif","images/stimuli/spore_stims/simple_01_A_a.gif","forced_short","","9","simple_dissimilar","images/stimuli/spore_stims/simple_01_A_a.gif","","","","",""
"","5024.839999999967","survey-multi-choice","128","647762","0.0-28.0","SS1619739687151","math_question","","","","","","","","","","","","{""Q0"":""14""}","[0]","14","",""
"","null","html-keyboard-response","129","648796","0.0-29.0-0.0","SS1619739687151","","","null","","","","","","<p><img src= images/blank.png width =""600"" height = ""600"" style=""position:fixed;top:50%; left:50%; transform: translate(-50%, -50%); border:5px solid black"">","","","","","","","",""
"","979.389999998617","sequential-stimulus-presentation-old","130","650282","0.0-29.0-1.0","SS1619739687151","trial","","40","500","1479.389999998617","images/stimuli/spore_stims/simple_06_A_b.gif","images/stimuli/spore_stims/simple_14_A_a.gif","self_paced","","10","simple_dissimilar","images/stimuli/spore_stims/simple_14_A_a.gif","","","","",""
"","null","html-keyboard-response","131","651191","0.0-29.0-0.1","SS1619739687151","","","null","","","","","","<p><img src= images/blank.png width =""600"" height = ""600"" style=""position:fixed;top:50%; left:50%; transform: translate(-50%, -50%); border:5px solid black"">","","","","","","","",""
"","548.5549999994691","sequential-stimulus-presentation-old","132","652246","0.0-29.0-1.1","SS1619739687151","trial","","40","500","1048.5549999994691","images/stimuli/spore_stims/simple_06_A_b.gif","images/stimuli/spore_stims/simple_14_A_a.gif","self_paced","","10","simple_dissimilar","images/stimuli/spore_stims/simple_14_A_a.gif","","","","",""
"","null","html-keyboard-response","133","653511","0.0-29.0-0.2","SS1619739687151","","","null","","","","","","<p><img src= images/blank.png width =""600"" height = ""600"" style=""position:fixed;top:50%; left:50%; transform: translate(-50%, -50%); border:5px solid black"">","","","","","","","",""
"","483.239999999525","sequential-stimulus-presentation-old","134","654500","0.0-29.0-1.2","SS1619739687151","trial","","40","500","983.239999999525","images/stimuli/spore_stims/simple_06_A_b.gif","images/stimuli/spore_stims/simple_14_A_a.gif","self_paced","","10","simple_dissimilar","images/stimuli/spore_stims/simple_14_A_a.gif","","","","",""
"","null","html-keyboard-response","135","655353","0.0-29.0-0.3","SS1619739687151","","","null","","","","","","<p><img src= images/blank.png width =""600"" height = ""600"" style=""position:fixed;top:50%; left:50%; transform: translate(-50%, -50%); border:5px solid black"">","","","","","","","",""
"","107.7249999998603","sequential-stimulus-presentation-old","136","655969","0.0-29.0-1.3","SS1619739687151","trial","","40","500","607.7249999998603","images/stimuli/spore_stims/simple_06_A_b.gif","images/stimuli/spore_stims/simple_14_A_a.gif","self_paced","","10","simple_dissimilar","images/stimuli/spore_stims/simple_14_A_a.gif","","","","",""
"","null","html-keyboard-response","137","656931","0.0-29.0-0.4","SS1619739687151","","","null","","","","","","<p><img src= images/blank.png width =""600"" height = ""600"" style=""position:fixed;top:50%; left:50%; transform: translate(-50%, -50%); border:5px solid black"">","","","","","","","",""
"","257.6900000004098","sequential-stimulus-presentation-old","138","657698","0.0-29.0-1.4","SS1619739687151","trial","","40","500","757.6900000004098","images/stimuli/spore_stims/simple_06_A_b.gif","images/stimuli/spore_stims/simple_14_A_a.gif","self_paced","","10","simple_dissimilar","images/stimuli/spore_stims/simple_06_A_b.gif","","","","",""
"","4000.6950000006473","survey-multi-choice","139","661703","0.0-30.0","SS1619739687151","math_question","","","","","","","","","","","","{""Q0"":""7""}","[0]","7","",""
"","null","html-keyboard-response","140","662638","0.0-31.0-0.0","SS1619739687151","","","null","","","","","","<p><img src= images/blank.png width =""600"" height = ""600"" style=""position:fixed;top:50%; left:50%; transform: translate(-50%, -50%); border:5px solid black"">","","","","","","","",""
"","71.18999999877997","sequential-stimulus-presentation-old","141","663215","0.0-31.0-1.0","SS1619739687151","trial","","40","500","571.18999999878","images/stimuli/spore_stims/simple_20_A_a.gif","images/stimuli/spore_stims/simple_15_A_b.gif","self_paced","","11","simple_dissimilar","images/stimuli/spore_stims/simple_15_A_b.gif","","","","",""
"","null","html-keyboard-response","142","664041","0.0-31.0-0.1","SS1619739687151","","","null","","","","","","<p><img src= images/blank.png width =""600"" height = ""600"" style=""position:fixed;top:50%; left:50%; transform: translate(-50%, -50%); border:5px solid black"">","","","","","","","",""
"","194.96500000054948","sequential-stimulus-presentation-old","143","664746","0.0-31.0-1.1","SS1619739687151","trial","","40","500","694.9650000005495","images/stimuli/spore_stims/simple_20_A_a.gif","images/stimuli/spore_stims/simple_15_A_b.gif","self_paced","","11","simple_dissimilar","images/stimuli/spore_stims/simple_15_A_b.gif","","","","",""
"","null","html-keyboard-response","144","666010","0.0-31.0-0.2","SS1619739687151","","","null","","","","","","<p><img src= images/blank.png width =""600"" height = ""600"" style=""position:fixed;top:50%; left:50%; transform: translate(-50%, -50%); border:5px solid black"">","","","","","","","",""
"","326.5449999998091","sequential-stimulus-presentation-old","145","666843","0.0-31.0-1.2","SS1619739687151","trial","","40","500","826.5449999998091","images/stimuli/spore_stims/simple_20_A_a.gif","images/stimuli/spore_stims/simple_15_A_b.gif","self_paced","","11","simple_dissimilar","images/stimuli/spore_stims/simple_15_A_b.gif","","","","",""
"","null","html-keyboard-response","146","667773","0.0-31.0-0.3","SS1619739687151","","","null","","","","","","<p><img src= images/blank.png width =""600"" height = ""600"" style=""position:fixed;top:50%; left:50%; transform: translate(-50%, -50%); border:5px solid black"">","","","","","","","",""
"","437.2149999999674","sequential-stimulus-presentation-old","147","668715","0.0-31.0-1.3","SS1619739687151","trial","","40","500","937.2149999999674","images/stimuli/spore_stims/simple_20_A_a.gif","images/stimuli/spore_stims/simple_15_A_b.gif","self_paced","","11","simple_dissimilar","images/stimuli/spore_stims/simple_15_A_b.gif","","","","",""
"","null","html-keyboard-response","148","669995","0.0-31.0-0.4","SS1619739687151","","","null","","","","","","<p><img src= images/blank.png width =""600"" height = ""600"" style=""position:fixed;top:50%; left:50%; transform: translate(-50%, -50%); border:5px solid black"">","","","","","","","",""
"","319.09999999869615","sequential-stimulus-presentation-old","149","670821","0.0-31.0-1.4","SS1619739687151","trial","","40","500","819.0999999986961","images/stimuli/spore_stims/simple_20_A_a.gif","images/stimuli/spore_stims/simple_15_A_b.gif","self_paced","","11","simple_dissimilar","images/stimuli/spore_stims/simple_20_A_a.gif","","","","",""
"[{""page_index"":0,""viewing_time"":5992.895000001299}]","5993.2400000016205","instructions","150","676821","0.0-32.0","SS1619739687151","instructions","","","","","","","","","","","","","","","",""
"","5167.509999999311","survey-likert","151","681996","0.0-33.0","SS1619739687151","similarity_question","","","","","","","","","","","","{""Q0"":5}","[0]","","images/stimuli/spore_stims/simple_12_A_a.gif","images/stimuli/spore_stims/simple_09_A_b.gif"
"","7770.759999999427","survey-likert","152","689774","0.0-34.0","SS1619739687151","similarity_question","","","","","","","","","","","","{""Q0"":1}","[0]","","images/stimuli/spore_stims/complex_19_A_b.gif","images/stimuli/spore_stims/complex_05_A_a.gif"
"","7215.2049999986775","survey-likert","153","696999","0.0-35.0","SS1619739687151","similarity_question","","","","","","","","","","","","{""Q0"":2}","[0]","","images/stimuli/spore_stims/complex_17_A_a.gif","images/stimuli/spore_stims/complex_16_A_b.gif"
"","7615.115000000573","survey-likert","154","704621","0.0-36.0","SS1619739687151","similarity_question","","","","","","","","","","","","{""Q0"":1}","[0]","","images/stimuli/spore_stims/complex_09_A_b.gif","images/stimuli/spore_stims/complex_13_A_a.gif"
"","4485.819999999832","survey-likert","155","709115","0.0-37.0","SS1619739687151","similarity_question","","","","","","","","","","","","{""Q0"":2}","[0]","","images/stimuli/spore_stims/simple_01_A_a.gif","images/stimuli/spore_stims/simple_18_A_b.gif"
"","7040.114999999758","survey-likert","156","716162","0.0-38.0","SS1619739687151","similarity_question","","","","","","","","","","","","{""Q0"":0}","[0]","","images/stimuli/spore_stims/complex_03_A_b.gif","images/stimuli/spore_stims/complex_19_A_a.gif"
"","6864.154999999213","survey-likert","157","723037","0.0-39.0","SS1619739687151","similarity_question","","","","","","","","","","","","{""Q0"":2}","[0]","","images/stimuli/spore_stims/simple_06_A_b.gif","images/stimuli/spore_stims/simple_14_A_a.gif"
"","6966.570000000531","survey-likert","158","730015","0.0-40.0","SS1619739687151","similarity_question","","","","","","","","","","","","{""Q0"":1}","[0]","","images/stimuli/spore_stims/complex_08_A_b.gif","images/stimuli/spore_stims/complex_11_A_a.gif"
"","6272.375000000466","survey-likert","159","736297","0.0-41.0","SS1619739687151","similarity_question","","","","","","","","","","","","{""Q0"":1}","[0]","","images/stimuli/spore_stims/simple_11_A_a.gif","images/stimuli/spore_stims/simple_13_A_b.gif"
"","5759.890000001178","survey-likert","160","742069","0.0-42.0","SS1619739687151","similarity_question","","","","","","","","","","","","{""Q0"":2}","[0]","","images/stimuli/spore_stims/simple_15_A_b.gif","images/stimuli/spore_stims/simple_20_A_a.gif"
"","4310.185000000289","survey-likert","161","746386","0.0-43.0","SS1619739687151","similarity_question","","","","","","","","","","","","{""Q0"":0}","[0]","","images/stimuli/spore_stims/complex_12_A_b.gif","images/stimuli/spore_stims/complex_07_A_a.gif"
"","4875.444999999716","survey-likert","162","751266","0.0-44.0","SS1619739687151","similarity_question","","","","","","","","","","","","{""Q0"":2}","[0]","","images/stimuli/spore_stims/simple_02_A_a.gif","images/stimuli/spore_stims/simple_16_A_b.gif"
"[{""page_index"":0,""viewing_time"":2296.409999998985}]","2296.8149999997113","instructions","163","753569","0.0-45.0","SS1619739687151","instructions","","","","","","","","","","","","","","","",""
"","7886.785000000615","survey-likert","164","761463","0.0-46.0","SS1619739687151","","","","","","","","","images/stimuli/spore_stims/complex_11_A_a.gif","","","","{""Q0"":4}","[0]","","",""
"","3529.0899999999674","survey-likert","165","765002","0.0-47.0","SS1619739687151","","","","","","","","","images/stimuli/spore_stims/complex_17_A_a.gif","","","","{""Q0"":4}","[0]","","",""
"","3529.6349999989616","survey-likert","166","768538","0.0-48.0","SS1619739687151","","","","","","","","","images/stimuli/spore_stims/complex_07_A_a.gif","","","","{""Q0"":5}","[0]","","",""
"","2507.594999999157","survey-likert","167","771054","0.0-49.0","SS1619739687151","","","","","","","","","images/stimuli/spore_stims/simple_13_A_b.gif","","","","{""Q0"":1}","[0]","","",""
"","4315.865000000456","survey-likert","168","775376","0.0-50.0","SS1619739687151","","","","","","","","","images/stimuli/spore_stims/complex_09_A_b.gif","","","","{""Q0"":4}","[0]","","",""
"","3977.950000000419","survey-likert","169","779360","0.0-51.0","SS1619739687151","","","","","","","","","images/stimuli/spore_stims/complex_19_A_b.gif","","","","{""Q0"":4}","[0]","","",""
"","2221.9300000015646","survey-likert","170","781590","0.0-52.0","SS1619739687151","","","","","","","","","images/stimuli/spore_stims/simple_12_A_a.gif","","","","{""Q0"":1}","[0]","","",""
"","1504.279999999213","survey-likert","171","783102","0.0-53.0","SS1619739687151","","","","","","","","","images/stimuli/spore_stims/simple_20_A_a.gif","","","","{""Q0"":1}","[0]","","",""
"","1349.5849999999627","survey-likert","172","784457","0.0-54.0","SS1619739687151","","","","","","","","","images/stimuli/spore_stims/simple_01_A_a.gif","","","","{""Q0"":1}","[0]","","",""
"","2542.840000000084","survey-likert","173","787007","0.0-55.0","SS1619739687151","","","","","","","","","images/stimuli/spore_stims/complex_03_A_b.gif","","","","{""Q0"":4}","[0]","","",""
"","1523.1999999997206","survey-likert","174","788538","0.0-56.0","SS1619739687151","","","","","","","","","images/stimuli/spore_stims/simple_16_A_b.gif","","","","{""Q0"":1}","[0]","","",""
"","1253.0050000004703","survey-likert","175","789797","0.0-57.0","SS1619739687151","","","","","","","","","images/stimuli/spore_stims/simple_14_A_a.gif","","","","{""Q0"":1}","[0]","","",""
"[{""page_index"":0,""viewing_time"":1340.5849999998463}]","1340.8299999991432","instructions","176","791142","0.0-58.0","SS1619739687151","instructions","","","","","","","","","","","","","","","",""
"","2947.1649999995716","demog-age","177","794104","0.0-59.0","SS1619739687151","","","","","","","","","","","","","{""age"":""19""}","","","",""
"","4495.539999999921","demog-ethnic-US","178","798609","0.0-60.0","SS1619739687151","","","","","","","","","","","","","{""ethnicity"":[""Hispanic or Latino""]}","[0]","","",""
"","9041.350000001257","demog-gender-and-education","179","807659","0.0-61.0","SS1619739687151","","","","","","","","","","","","","{""gender"":""Female"",""education"":""Bachelor's Degree""}","[0,1]","","",""
"","18814.72999999998","survey-text","180","826485","0.0-62.0","SS1619739687151","feedback","","","","","","","","","","","","{""Q0"":""i did not have any problem""}","","","",""
"[{""page_index"":0,""viewing_time"":1613.389999998617}]","1613.6850000002887","instructions","181","828107","0.0-63.0","SS1619739687151","instructions","","","","","","","","","","","","","","","",""
