"view_history","rt","trial_type","trial_index","time_elapsed","internal_node_id","subject","stimulus_type","trial_stimulus","key_press","minimum_viewing_duration","trial_looking_time","block_deviant","block_background","exposure_type","stimulus","block_number","block_type","stimulus_displayed","responses","question_order","math_correct_answer","stimulus_left","stimulus_right"
"[{""page_index"":0,""viewing_time"":9654.034999199212}]","9656.879999674857","instructions","0","9661","0.0-0.0","SS1619740041688","","","","","","","","","","","","","","","","",""
"[{""page_index"":0,""viewing_time"":17340.760000050068},{""page_index"":1,""viewing_time"":7343.849999830127}]","24685.159999877214","instructions","1","36351","0.0-1.0","SS1619740041688","instructions","","","","","","","","","","","","","","","",""
"","12021.560000255704","sequential-stimulus-presentation-old","2","48882","0.0-2.0","SS1619740041688","","","40","500","12521.560000255704","null","null","self_paced","","","","","","","","",""
"","6547.120000235736","sequential-stimulus-presentation-old","3","55935","0.0-3.0","SS1619740041688","","","40","500","7047.120000235736","null","null","self_paced","","","","","","","","",""
"[{""page_index"":0,""viewing_time"":26321.96000032127}]","26322.55000062287","instructions","4","82260","0.0-4.0","SS1619740041688","instructions","","","","","","","","","","","","","","","",""
"","2702.345000579953","sequential-stimulus-presentation-old","5","99969","0.0-5.0","SS1619740041688","","","40","500","3202.345000579953","null","null","forced_long","","","","","","","","",""
"","7241.3849998265505","sequential-stimulus-presentation-old","6","107717","0.0-6.0","SS1619740041688","","","40","500","7741.3849998265505","null","null","forced_long","","","","","","","","",""
"[{""page_index"":0,""viewing_time"":6974.864999763668}]","6975.314999930561","instructions","7","114695","0.0-7.0","SS1619740041688","instructions","","","","","","","","","","","","","","","",""
"[{""page_index"":0,""viewing_time"":13164.56500068307},{""page_index"":1,""viewing_time"":10427.345000207424},{""page_index"":2,""viewing_time"":6688.144999556243},{""page_index"":3,""viewing_time"":1752.8100004419684},{""page_index"":4,""viewing_time"":1616.6899995878339}]","33650.120000354946","instructions","8","148347","0.0-8.0","SS1619740041688","instructions","","","","","","","","","","","","","","","",""
"","null","html-keyboard-response","9","149349","0.0-9.0-0.0","SS1619740041688","","","null","","","","","","<p><img src= images/blank.png width =""600"" height = ""600"" style=""position:fixed;top:50%; left:50%; transform: translate(-50%, -50%); border:5px solid black"">","","","","","","","",""
"","3038.0449993535876","sequential-stimulus-presentation-old","10","167397","0.0-9.0-1.0","SS1619740041688","trial","","40","500","3538.0449993535876","images/stimuli/spore_stims/complex_17_A_a.gif","images/stimuli/spore_stims/complex_16_A_b.gif","forced_long","","0","complex_dissimilar","images/stimuli/spore_stims/complex_16_A_b.gif","","","","",""
"","null","html-keyboard-response","11","168513","0.0-9.0-0.1","SS1619740041688","","","null","","","","","","<p><img src= images/blank.png width =""600"" height = ""600"" style=""position:fixed;top:50%; left:50%; transform: translate(-50%, -50%); border:5px solid black"">","","","","","","","",""
"","42734.62999984622","sequential-stimulus-presentation-old","12","211756","0.0-9.0-1.1","SS1619740041688","trial","","40","500","43234.62999984622","images/stimuli/spore_stims/complex_17_A_a.gif","images/stimuli/spore_stims/complex_16_A_b.gif","forced_long","","0","complex_dissimilar","images/stimuli/spore_stims/complex_16_A_b.gif","","","","",""
"","null","html-keyboard-response","13","212814","0.0-9.0-0.2","SS1619740041688","","","null","","","","","","<p><img src= images/blank.png width =""600"" height = ""600"" style=""position:fixed;top:50%; left:50%; transform: translate(-50%, -50%); border:5px solid black"">","","","","","","","",""
"","31172.280000522733","sequential-stimulus-presentation-old","14","244495","0.0-9.0-1.2","SS1619740041688","trial","","40","500","31672.280000522733","images/stimuli/spore_stims/complex_17_A_a.gif","images/stimuli/spore_stims/complex_16_A_b.gif","forced_long","","0","complex_dissimilar","images/stimuli/spore_stims/complex_16_A_b.gif","","","","",""
"","null","html-keyboard-response","15","245684","0.0-9.0-0.3","SS1619740041688","","","null","","","","","","<p><img src= images/blank.png width =""600"" height = ""600"" style=""position:fixed;top:50%; left:50%; transform: translate(-50%, -50%); border:5px solid black"">","","","","","","","",""
"","13516.36500004679","sequential-stimulus-presentation-old","16","259709","0.0-9.0-1.3","SS1619740041688","trial","","40","500","14016.36500004679","images/stimuli/spore_stims/complex_17_A_a.gif","images/stimuli/spore_stims/complex_16_A_b.gif","forced_long","","0","complex_dissimilar","images/stimuli/spore_stims/complex_16_A_b.gif","","","","",""
"","6542.305000126362","survey-multi-choice","17","266260","0.0-10.0","SS1619740041688","math_question","","","","","","","","","","","","{""Q0"":""4""}","[0]","4","",""
"","null","html-keyboard-response","18","267186","0.0-11.0-0.0","SS1619740041688","","","null","","","","","","<p><img src= images/blank.png width =""600"" height = ""600"" style=""position:fixed;top:50%; left:50%; transform: translate(-50%, -50%); border:5px solid black"">","","","","","","","",""
"","775.3800004720688","sequential-stimulus-presentation-old","19","282979","0.0-11.0-1.0","SS1619740041688","trial","","40","500","1275.3800004720688","images/stimuli/spore_stims/complex_18_A_a.gif","images/stimuli/spore_stims/complex_12_A_b.gif","forced_long","","1","complex_dissimilar","images/stimuli/spore_stims/complex_12_A_b.gif","","","","",""
"","null","html-keyboard-response","20","283835","0.0-11.0-0.1","SS1619740041688","","","null","","","","","","<p><img src= images/blank.png width =""600"" height = ""600"" style=""position:fixed;top:50%; left:50%; transform: translate(-50%, -50%); border:5px solid black"">","","","","","","","",""
"","13715.285000391304","sequential-stimulus-presentation-old","21","298060","0.0-11.0-1.1","SS1619740041688","trial","","40","500","14215.285000391304","images/stimuli/spore_stims/complex_18_A_a.gif","images/stimuli/spore_stims/complex_12_A_b.gif","forced_long","","1","complex_dissimilar","images/stimuli/spore_stims/complex_12_A_b.gif","","","","",""
"","null","html-keyboard-response","22","299048","0.0-11.0-0.2","SS1619740041688","","","null","","","","","","<p><img src= images/blank.png width =""600"" height = ""600"" style=""position:fixed;top:50%; left:50%; transform: translate(-50%, -50%); border:5px solid black"">","","","","","","","",""
"","16583.56999978423","sequential-stimulus-presentation-old","23","316140","0.0-11.0-1.2","SS1619740041688","trial","","40","500","17083.56999978423","images/stimuli/spore_stims/complex_18_A_a.gif","images/stimuli/spore_stims/complex_12_A_b.gif","forced_long","","1","complex_dissimilar","images/stimuli/spore_stims/complex_18_A_a.gif","","","","",""
"","null","html-keyboard-response","24","317231","0.0-11.0-0.3","SS1619740041688","","","null","","","","","","<p><img src= images/blank.png width =""600"" height = ""600"" style=""position:fixed;top:50%; left:50%; transform: translate(-50%, -50%); border:5px solid black"">","","","","","","","",""
"","15954.515000805259","sequential-stimulus-presentation-old","25","333693","0.0-11.0-1.3","SS1619740041688","trial","","40","500","16454.51500080526","images/stimuli/spore_stims/complex_18_A_a.gif","images/stimuli/spore_stims/complex_12_A_b.gif","forced_long","","1","complex_dissimilar","images/stimuli/spore_stims/complex_12_A_b.gif","","","","",""
"","5870.970000512898","survey-multi-choice","26","339569","0.0-12.0","SS1619740041688","math_question","","","","","","","","","","","","{""Q0"":""6""}","[0]","6","",""
"","null","html-keyboard-response","27","340682","0.0-13.0-0.0","SS1619740041688","","","null","","","","","","<p><img src= images/blank.png width =""600"" height = ""600"" style=""position:fixed;top:50%; left:50%; transform: translate(-50%, -50%); border:5px solid black"">","","","","","","","",""
"","40062.6349998638","sequential-stimulus-presentation-old","28","381255","0.0-13.0-1.0","SS1619740041688","trial","","40","500","40562.6349998638","images/stimuli/spore_stims/complex_10_A_a.gif","images/stimuli/spore_stims/complex_11_A_b.gif","self_paced","","2","complex_dissimilar","images/stimuli/spore_stims/complex_11_A_b.gif","","","","",""
"","null","html-keyboard-response","29","382065","0.0-13.0-0.1","SS1619740041688","","","null","","","","","","<p><img src= images/blank.png width =""600"" height = ""600"" style=""position:fixed;top:50%; left:50%; transform: translate(-50%, -50%); border:5px solid black"">","","","","","","","",""
"","8699.869999662042","sequential-stimulus-presentation-old","30","391274","0.0-13.0-1.1","SS1619740041688","trial","","40","500","9199.869999662042","images/stimuli/spore_stims/complex_10_A_a.gif","images/stimuli/spore_stims/complex_11_A_b.gif","self_paced","","2","complex_dissimilar","images/stimuli/spore_stims/complex_11_A_b.gif","","","","",""
"","null","html-keyboard-response","31","392554","0.0-13.0-0.2","SS1619740041688","","","null","","","","","","<p><img src= images/blank.png width =""600"" height = ""600"" style=""position:fixed;top:50%; left:50%; transform: translate(-50%, -50%); border:5px solid black"">","","","","","","","",""
"","6708.844999782741","sequential-stimulus-presentation-old","32","399773","0.0-13.0-1.2","SS1619740041688","trial","","40","500","7208.844999782741","images/stimuli/spore_stims/complex_10_A_a.gif","images/stimuli/spore_stims/complex_11_A_b.gif","self_paced","","2","complex_dissimilar","images/stimuli/spore_stims/complex_11_A_b.gif","","","","",""
"","null","html-keyboard-response","33","400935","0.0-13.0-0.3","SS1619740041688","","","null","","","","","","<p><img src= images/blank.png width =""600"" height = ""600"" style=""position:fixed;top:50%; left:50%; transform: translate(-50%, -50%); border:5px solid black"">","","","","","","","",""
"","6961.739999242127","sequential-stimulus-presentation-old","34","408405","0.0-13.0-1.3","SS1619740041688","trial","","40","500","7461.739999242127","images/stimuli/spore_stims/complex_10_A_a.gif","images/stimuli/spore_stims/complex_11_A_b.gif","self_paced","","2","complex_dissimilar","images/stimuli/spore_stims/complex_11_A_b.gif","","","","",""
"","null","html-keyboard-response","35","409647","0.0-13.0-0.4","SS1619740041688","","","null","","","","","","<p><img src= images/blank.png width =""600"" height = ""600"" style=""position:fixed;top:50%; left:50%; transform: translate(-50%, -50%); border:5px solid black"">","","","","","","","",""
"","7971.920000389218","sequential-stimulus-presentation-old","36","418130","0.0-13.0-1.4","SS1619740041688","trial","","40","500","8471.920000389218","images/stimuli/spore_stims/complex_10_A_a.gif","images/stimuli/spore_stims/complex_11_A_b.gif","self_paced","","2","complex_dissimilar","images/stimuli/spore_stims/complex_10_A_a.gif","","","","",""
"","null","html-keyboard-response","37","419261","0.0-13.0-0.5","SS1619740041688","","","null","","","","","","<p><img src= images/blank.png width =""600"" height = ""600"" style=""position:fixed;top:50%; left:50%; transform: translate(-50%, -50%); border:5px solid black"">","","","","","","","",""
"","6207.775000482798","sequential-stimulus-presentation-old","38","425977","0.0-13.0-1.5","SS1619740041688","trial","","40","500","6707.775000482798","images/stimuli/spore_stims/complex_10_A_a.gif","images/stimuli/spore_stims/complex_11_A_b.gif","self_paced","","2","complex_dissimilar","images/stimuli/spore_stims/complex_11_A_b.gif","","","","",""
"","4299.169999547303","survey-multi-choice","39","430281","0.0-14.0","SS1619740041688","math_question","","","","","","","","","","","","{""Q0"":""3""}","[0]","3","",""
"","null","html-keyboard-response","40","431585","0.0-15.0-0.0","SS1619740041688","","","null","","","","","","<p><img src= images/blank.png width =""600"" height = ""600"" style=""position:fixed;top:50%; left:50%; transform: translate(-50%, -50%); border:5px solid black"">","","","","","","","",""
"","3147.520000115037","sequential-stimulus-presentation-old","41","435242","0.0-15.0-1.0","SS1619740041688","trial","","40","500","3647.520000115037","images/stimuli/spore_stims/simple_05_A_a.gif","images/stimuli/spore_stims/simple_01_A_b.gif","forced_short","","3","simple_dissimilar","images/stimuli/spore_stims/simple_01_A_b.gif","","","","",""
"","null","html-keyboard-response","42","436107","0.0-15.0-0.1","SS1619740041688","","","null","","","","","","<p><img src= images/blank.png width =""600"" height = ""600"" style=""position:fixed;top:50%; left:50%; transform: translate(-50%, -50%); border:5px solid black"">","","","","","","","",""
"","10133.08500032872","sequential-stimulus-presentation-old","43","446750","0.0-15.0-1.1","SS1619740041688","trial","","40","500","10633.08500032872","images/stimuli/spore_stims/simple_05_A_a.gif","images/stimuli/spore_stims/simple_01_A_b.gif","forced_short","","3","simple_dissimilar","images/stimuli/spore_stims/simple_01_A_b.gif","","","","",""
"","null","html-keyboard-response","44","447784","0.0-15.0-0.2","SS1619740041688","","","null","","","","","","<p><img src= images/blank.png width =""600"" height = ""600"" style=""position:fixed;top:50%; left:50%; transform: translate(-50%, -50%); border:5px solid black"">","","","","","","","",""
"","10081.170000135899","sequential-stimulus-presentation-old","45","458374","0.0-15.0-1.2","SS1619740041688","trial","","40","500","10581.170000135899","images/stimuli/spore_stims/simple_05_A_a.gif","images/stimuli/spore_stims/simple_01_A_b.gif","forced_short","","3","simple_dissimilar","images/stimuli/spore_stims/simple_01_A_b.gif","","","","",""
"","null","html-keyboard-response","46","459232","0.0-15.0-0.3","SS1619740041688","","","null","","","","","","<p><img src= images/blank.png width =""600"" height = ""600"" style=""position:fixed;top:50%; left:50%; transform: translate(-50%, -50%); border:5px solid black"">","","","","","","","",""
"","7001.384999603033","sequential-stimulus-presentation-old","47","466743","0.0-15.0-1.3","SS1619740041688","trial","","40","500","7501.384999603033","images/stimuli/spore_stims/simple_05_A_a.gif","images/stimuli/spore_stims/simple_01_A_b.gif","forced_short","","3","simple_dissimilar","images/stimuli/spore_stims/simple_05_A_a.gif","","","","",""
"","null","html-keyboard-response","48","467715","0.0-15.0-0.4","SS1619740041688","","","null","","","","","","<p><img src= images/blank.png width =""600"" height = ""600"" style=""position:fixed;top:50%; left:50%; transform: translate(-50%, -50%); border:5px solid black"">","","","","","","","",""
"","9767.04000029713","sequential-stimulus-presentation-old","49","477991","0.0-15.0-1.4","SS1619740041688","trial","","40","500","10267.04000029713","images/stimuli/spore_stims/simple_05_A_a.gif","images/stimuli/spore_stims/simple_01_A_b.gif","forced_short","","3","simple_dissimilar","images/stimuli/spore_stims/simple_01_A_b.gif","","","","",""
"","null","html-keyboard-response","50","478899","0.0-15.0-0.5","SS1619740041688","","","null","","","","","","<p><img src= images/blank.png width =""600"" height = ""600"" style=""position:fixed;top:50%; left:50%; transform: translate(-50%, -50%); border:5px solid black"">","","","","","","","",""
"","7982.800000347197","sequential-stimulus-presentation-old","51","487391","0.0-15.0-1.5","SS1619740041688","trial","","40","500","8482.800000347197","images/stimuli/spore_stims/simple_05_A_a.gif","images/stimuli/spore_stims/simple_01_A_b.gif","forced_short","","3","simple_dissimilar","images/stimuli/spore_stims/simple_05_A_a.gif","","","","",""
"","7864.265000447631","survey-multi-choice","52","495261","0.0-16.0","SS1619740041688","math_question","","","","","","","","","","","","{""Q0"":""15""}","[0]","15","",""
"","null","html-keyboard-response","53","496321","0.0-17.0-0.0","SS1619740041688","","","null","","","","","","<p><img src= images/blank.png width =""600"" height = ""600"" style=""position:fixed;top:50%; left:50%; transform: translate(-50%, -50%); border:5px solid black"">","","","","","","","",""
"","14027.780000120401","sequential-stimulus-presentation-old","54","510859","0.0-17.0-1.0","SS1619740041688","trial","","40","500","14527.780000120401","images/stimuli/spore_stims/simple_02_A_a.gif","images/stimuli/spore_stims/simple_16_A_b.gif","self_paced","","4","simple_dissimilar","images/stimuli/spore_stims/simple_16_A_b.gif","","","","",""
"","null","html-keyboard-response","55","511789","0.0-17.0-0.1","SS1619740041688","","","null","","","","","","<p><img src= images/blank.png width =""600"" height = ""600"" style=""position:fixed;top:50%; left:50%; transform: translate(-50%, -50%); border:5px solid black"">","","","","","","","",""
"","11534.509999677539","sequential-stimulus-presentation-old","56","523833","0.0-17.0-1.1","SS1619740041688","trial","","40","500","12034.509999677539","images/stimuli/spore_stims/simple_02_A_a.gif","images/stimuli/spore_stims/simple_16_A_b.gif","self_paced","","4","simple_dissimilar","images/stimuli/spore_stims/simple_02_A_a.gif","","","","",""
"","null","html-keyboard-response","57","524791","0.0-17.0-0.2","SS1619740041688","","","null","","","","","","<p><img src= images/blank.png width =""600"" height = ""600"" style=""position:fixed;top:50%; left:50%; transform: translate(-50%, -50%); border:5px solid black"">","","","","","","","",""
"","9027.754999697208","sequential-stimulus-presentation-old","58","534330","0.0-17.0-1.2","SS1619740041688","trial","","40","500","9527.754999697208","images/stimuli/spore_stims/simple_02_A_a.gif","images/stimuli/spore_stims/simple_16_A_b.gif","self_paced","","4","simple_dissimilar","images/stimuli/spore_stims/simple_16_A_b.gif","","","","",""
"","null","html-keyboard-response","59","535504","0.0-17.0-0.3","SS1619740041688","","","null","","","","","","<p><img src= images/blank.png width =""600"" height = ""600"" style=""position:fixed;top:50%; left:50%; transform: translate(-50%, -50%); border:5px solid black"">","","","","","","","",""
"","9706.234999932349","sequential-stimulus-presentation-old","60","545721","0.0-17.0-1.3","SS1619740041688","trial","","40","500","10206.234999932349","images/stimuli/spore_stims/simple_02_A_a.gif","images/stimuli/spore_stims/simple_16_A_b.gif","self_paced","","4","simple_dissimilar","images/stimuli/spore_stims/simple_02_A_a.gif","","","","",""
"","5436.854999512434","survey-multi-choice","61","551165","0.0-18.0","SS1619740041688","math_question","","","","","","","","","","","","{""Q0"":""6""}","[0]","6","",""
"","null","html-keyboard-response","62","552361","0.0-19.0-0.0","SS1619740041688","","","null","","","","","","<p><img src= images/blank.png width =""600"" height = ""600"" style=""position:fixed;top:50%; left:50%; transform: translate(-50%, -50%); border:5px solid black"">","","","","","","","",""
"","1121.2649997323751","sequential-stimulus-presentation-old","63","553992","0.0-19.0-1.0","SS1619740041688","trial","","40","500","1621.2649997323751","images/stimuli/spore_stims/simple_06_A_b.gif","images/stimuli/spore_stims/simple_15_A_a.gif","forced_short","","5","simple_dissimilar","images/stimuli/spore_stims/simple_15_A_a.gif","","","","",""
"","null","html-keyboard-response","64","554956","0.0-19.0-0.1","SS1619740041688","","","null","","","","","","<p><img src= images/blank.png width =""600"" height = ""600"" style=""position:fixed;top:50%; left:50%; transform: translate(-50%, -50%); border:5px solid black"">","","","","","","","",""
"","10564.060000702739","sequential-stimulus-presentation-old","65","566029","0.0-19.0-1.1","SS1619740041688","trial","","40","500","11064.060000702739","images/stimuli/spore_stims/simple_06_A_b.gif","images/stimuli/spore_stims/simple_15_A_a.gif","forced_short","","5","simple_dissimilar","images/stimuli/spore_stims/simple_15_A_a.gif","","","","",""
"","null","html-keyboard-response","66","567035","0.0-19.0-0.2","SS1619740041688","","","null","","","","","","<p><img src= images/blank.png width =""600"" height = ""600"" style=""position:fixed;top:50%; left:50%; transform: translate(-50%, -50%); border:5px solid black"">","","","","","","","",""
"","23256.870000623167","sequential-stimulus-presentation-old","67","590802","0.0-19.0-1.2","SS1619740041688","trial","","40","500","23756.870000623167","images/stimuli/spore_stims/simple_06_A_b.gif","images/stimuli/spore_stims/simple_15_A_a.gif","forced_short","","5","simple_dissimilar","images/stimuli/spore_stims/simple_15_A_a.gif","","","","",""
"","null","html-keyboard-response","68","592096","0.0-19.0-0.3","SS1619740041688","","","null","","","","","","<p><img src= images/blank.png width =""600"" height = ""600"" style=""position:fixed;top:50%; left:50%; transform: translate(-50%, -50%); border:5px solid black"">","","","","","","","",""
"","9765.864999964833","sequential-stimulus-presentation-old","69","602382","0.0-19.0-1.3","SS1619740041688","trial","","40","500","10265.864999964833","images/stimuli/spore_stims/simple_06_A_b.gif","images/stimuli/spore_stims/simple_15_A_a.gif","forced_short","","5","simple_dissimilar","images/stimuli/spore_stims/simple_15_A_a.gif","","","","",""
"","null","html-keyboard-response","70","603376","0.0-19.0-0.4","SS1619740041688","","","null","","","","","","<p><img src= images/blank.png width =""600"" height = ""600"" style=""position:fixed;top:50%; left:50%; transform: translate(-50%, -50%); border:5px solid black"">","","","","","","","",""
"","9908.884999342263","sequential-stimulus-presentation-old","71","613796","0.0-19.0-1.4","SS1619740041688","trial","","40","500","10408.884999342263","images/stimuli/spore_stims/simple_06_A_b.gif","images/stimuli/spore_stims/simple_15_A_a.gif","forced_short","","5","simple_dissimilar","images/stimuli/spore_stims/simple_15_A_a.gif","","","","",""
"","null","html-keyboard-response","72","614720","0.0-19.0-0.5","SS1619740041688","","","null","","","","","","<p><img src= images/blank.png width =""600"" height = ""600"" style=""position:fixed;top:50%; left:50%; transform: translate(-50%, -50%); border:5px solid black"">","","","","","","","",""
"","18583.580000326037","sequential-stimulus-presentation-old","73","633814","0.0-19.0-1.5","SS1619740041688","trial","","40","500","19083.580000326037","images/stimuli/spore_stims/simple_06_A_b.gif","images/stimuli/spore_stims/simple_15_A_a.gif","forced_short","","5","simple_dissimilar","images/stimuli/spore_stims/simple_15_A_a.gif","","","","",""
"","7877.624999731779","survey-multi-choice","74","641697","0.0-20.0","SS1619740041688","math_question","","","","","","","","","","","","{""Q0"":""14""}","[0]","14","",""
"","null","html-keyboard-response","75","642851","0.0-21.0-0.0","SS1619740041688","","","null","","","","","","<p><img src= images/blank.png width =""600"" height = ""600"" style=""position:fixed;top:50%; left:50%; transform: translate(-50%, -50%); border:5px solid black"">","","","","","","","",""
"","11390.314999967813","sequential-stimulus-presentation-old","76","654753","0.0-21.0-1.0","SS1619740041688","trial","","40","500","11890.314999967813","images/stimuli/spore_stims/complex_13_A_b.gif","images/stimuli/spore_stims/complex_08_A_a.gif","self_paced","","6","complex_dissimilar","images/stimuli/spore_stims/complex_08_A_a.gif","","","","",""
"","null","html-keyboard-response","77","655941","0.0-21.0-0.1","SS1619740041688","","","null","","","","","","<p><img src= images/blank.png width =""600"" height = ""600"" style=""position:fixed;top:50%; left:50%; transform: translate(-50%, -50%); border:5px solid black"">","","","","","","","",""
"","27314.100000075996","sequential-stimulus-presentation-old","78","683766","0.0-21.0-1.1","SS1619740041688","trial","","40","500","27814.100000075996","images/stimuli/spore_stims/complex_13_A_b.gif","images/stimuli/spore_stims/complex_08_A_a.gif","self_paced","","6","complex_dissimilar","images/stimuli/spore_stims/complex_08_A_a.gif","","","","",""
"","null","html-keyboard-response","79","684741","0.0-21.0-0.2","SS1619740041688","","","null","","","","","","<p><img src= images/blank.png width =""600"" height = ""600"" style=""position:fixed;top:50%; left:50%; transform: translate(-50%, -50%); border:5px solid black"">","","","","","","","",""
"","12207.724999636412","sequential-stimulus-presentation-old","80","697459","0.0-21.0-1.2","SS1619740041688","trial","","40","500","12707.724999636412","images/stimuli/spore_stims/complex_13_A_b.gif","images/stimuli/spore_stims/complex_08_A_a.gif","self_paced","","6","complex_dissimilar","images/stimuli/spore_stims/complex_08_A_a.gif","","","","",""
"","null","html-keyboard-response","81","698486","0.0-21.0-0.3","SS1619740041688","","","null","","","","","","<p><img src= images/blank.png width =""600"" height = ""600"" style=""position:fixed;top:50%; left:50%; transform: translate(-50%, -50%); border:5px solid black"">","","","","","","","",""
"","10498.01000021398","sequential-stimulus-presentation-old","82","709495","0.0-21.0-1.3","SS1619740041688","trial","","40","500","10998.01000021398","images/stimuli/spore_stims/complex_13_A_b.gif","images/stimuli/spore_stims/complex_08_A_a.gif","self_paced","","6","complex_dissimilar","images/stimuli/spore_stims/complex_08_A_a.gif","","","","",""
"","null","html-keyboard-response","83","710621","0.0-21.0-0.4","SS1619740041688","","","null","","","","","","<p><img src= images/blank.png width =""600"" height = ""600"" style=""position:fixed;top:50%; left:50%; transform: translate(-50%, -50%); border:5px solid black"">","","","","","","","",""
"","7703.2149992883205","sequential-stimulus-presentation-old","84","718836","0.0-21.0-1.4","SS1619740041688","trial","","40","500","8203.21499928832","images/stimuli/spore_stims/complex_13_A_b.gif","images/stimuli/spore_stims/complex_08_A_a.gif","self_paced","","6","complex_dissimilar","images/stimuli/spore_stims/complex_13_A_b.gif","","","","",""
"","null","html-keyboard-response","85","719972","0.0-21.0-0.5","SS1619740041688","","","null","","","","","","<p><img src= images/blank.png width =""600"" height = ""600"" style=""position:fixed;top:50%; left:50%; transform: translate(-50%, -50%); border:5px solid black"">","","","","","","","",""
"","7263.190000317991","sequential-stimulus-presentation-old","86","727747","0.0-21.0-1.5","SS1619740041688","trial","","40","500","7763.190000317991","images/stimuli/spore_stims/complex_13_A_b.gif","images/stimuli/spore_stims/complex_08_A_a.gif","self_paced","","6","complex_dissimilar","images/stimuli/spore_stims/complex_13_A_b.gif","","","","",""
"","5355.144999921322","survey-multi-choice","87","733109","0.0-22.0","SS1619740041688","math_question","","","","","","","","","","","","{""Q0"":""8""}","[0]","8","",""
"","null","html-keyboard-response","88","734220","0.0-23.0-0.0","SS1619740041688","","","null","","","","","","<p><img src= images/blank.png width =""600"" height = ""600"" style=""position:fixed;top:50%; left:50%; transform: translate(-50%, -50%); border:5px solid black"">","","","","","","","",""
"","684.3900000676513","sequential-stimulus-presentation-old","89","749915","0.0-23.0-1.0","SS1619740041688","trial","","40","500","1184.3900000676513","images/stimuli/spore_stims/simple_06_A_a.gif","images/stimuli/spore_stims/simple_11_A_b.gif","forced_long","","7","simple_dissimilar","images/stimuli/spore_stims/simple_11_A_b.gif","","","","",""
"","null","html-keyboard-response","90","750745","0.0-23.0-0.1","SS1619740041688","","","null","","","","","","<p><img src= images/blank.png width =""600"" height = ""600"" style=""position:fixed;top:50%; left:50%; transform: translate(-50%, -50%); border:5px solid black"">","","","","","","","",""
"","16545.660000294447","sequential-stimulus-presentation-old","91","767801","0.0-23.0-1.1","SS1619740041688","trial","","40","500","17045.660000294447","images/stimuli/spore_stims/simple_06_A_a.gif","images/stimuli/spore_stims/simple_11_A_b.gif","forced_long","","7","simple_dissimilar","images/stimuli/spore_stims/simple_11_A_b.gif","","","","",""
"","null","html-keyboard-response","92","768640","0.0-23.0-0.2","SS1619740041688","","","null","","","","","","<p><img src= images/blank.png width =""600"" height = ""600"" style=""position:fixed;top:50%; left:50%; transform: translate(-50%, -50%); border:5px solid black"">","","","","","","","",""
"","9136.330000124872","sequential-stimulus-presentation-old","93","778289","0.0-23.0-1.2","SS1619740041688","trial","","40","500","9636.330000124872","images/stimuli/spore_stims/simple_06_A_a.gif","images/stimuli/spore_stims/simple_11_A_b.gif","forced_long","","7","simple_dissimilar","images/stimuli/spore_stims/simple_11_A_b.gif","","","","",""
"","null","html-keyboard-response","94","779422","0.0-23.0-0.3","SS1619740041688","","","null","","","","","","<p><img src= images/blank.png width =""600"" height = ""600"" style=""position:fixed;top:50%; left:50%; transform: translate(-50%, -50%); border:5px solid black"">","","","","","","","",""
"","8085.00500023365","sequential-stimulus-presentation-old","95","788020","0.0-23.0-1.3","SS1619740041688","trial","","40","500","8585.00500023365","images/stimuli/spore_stims/simple_06_A_a.gif","images/stimuli/spore_stims/simple_11_A_b.gif","forced_long","","7","simple_dissimilar","images/stimuli/spore_stims/simple_11_A_b.gif","","","","",""
"","null","html-keyboard-response","96","789312","0.0-23.0-0.4","SS1619740041688","","","null","","","","","","<p><img src= images/blank.png width =""600"" height = ""600"" style=""position:fixed;top:50%; left:50%; transform: translate(-50%, -50%); border:5px solid black"">","","","","","","","",""
"","9460.034999996424","sequential-stimulus-presentation-old","97","799283","0.0-23.0-1.4","SS1619740041688","trial","","40","500","9960.034999996424","images/stimuli/spore_stims/simple_06_A_a.gif","images/stimuli/spore_stims/simple_11_A_b.gif","forced_long","","7","simple_dissimilar","images/stimuli/spore_stims/simple_11_A_b.gif","","","","",""
"","6400.439999997616","survey-multi-choice","98","805690","0.0-24.0","SS1619740041688","math_question","","","","","","","","","","","","{""Q0"":""8""}","[0]","8","",""
"","null","html-keyboard-response","99","806603","0.0-25.0-0.0","SS1619740041688","","","null","","","","","","<p><img src= images/blank.png width =""600"" height = ""600"" style=""position:fixed;top:50%; left:50%; transform: translate(-50%, -50%); border:5px solid black"">","","","","","","","",""
"","1679.925000295043","sequential-stimulus-presentation-old","100","808799","0.0-25.0-1.0","SS1619740041688","trial","","40","500","2179.925000295043","images/stimuli/spore_stims/complex_18_A_b.gif","images/stimuli/spore_stims/complex_04_A_a.gif","forced_short","","8","complex_dissimilar","images/stimuli/spore_stims/complex_04_A_a.gif","","","","",""
"","null","html-keyboard-response","101","809731","0.0-25.0-0.1","SS1619740041688","","","null","","","","","","<p><img src= images/blank.png width =""600"" height = ""600"" style=""position:fixed;top:50%; left:50%; transform: translate(-50%, -50%); border:5px solid black"">","","","","","","","",""
"","5775.925000198185","sequential-stimulus-presentation-old","102","816019","0.0-25.0-1.1","SS1619740041688","trial","","40","500","6275.925000198185","images/stimuli/spore_stims/complex_18_A_b.gif","images/stimuli/spore_stims/complex_04_A_a.gif","forced_short","","8","complex_dissimilar","images/stimuli/spore_stims/complex_04_A_a.gif","","","","",""
"","null","html-keyboard-response","103","816897","0.0-25.0-0.2","SS1619740041688","","","null","","","","","","<p><img src= images/blank.png width =""600"" height = ""600"" style=""position:fixed;top:50%; left:50%; transform: translate(-50%, -50%); border:5px solid black"">","","","","","","","",""
"","6860.335000790656","sequential-stimulus-presentation-old","104","824272","0.0-25.0-1.2","SS1619740041688","trial","","40","500","7360.335000790656","images/stimuli/spore_stims/complex_18_A_b.gif","images/stimuli/spore_stims/complex_04_A_a.gif","forced_short","","8","complex_dissimilar","images/stimuli/spore_stims/complex_04_A_a.gif","","","","",""
"","null","html-keyboard-response","105","825159","0.0-25.0-0.3","SS1619740041688","","","null","","","","","","<p><img src= images/blank.png width =""600"" height = ""600"" style=""position:fixed;top:50%; left:50%; transform: translate(-50%, -50%); border:5px solid black"">","","","","","","","",""
"","5957.274999469519","sequential-stimulus-presentation-old","106","831628","0.0-25.0-1.3","SS1619740041688","trial","","40","500","6457.274999469519","images/stimuli/spore_stims/complex_18_A_b.gif","images/stimuli/spore_stims/complex_04_A_a.gif","forced_short","","8","complex_dissimilar","images/stimuli/spore_stims/complex_04_A_a.gif","","","","",""
"","5551.4350002631545","survey-multi-choice","107","837194","0.0-26.0","SS1619740041688","math_question","","","","","","","","","","","","{""Q0"":""7""}","[0]","7","",""
"","null","html-keyboard-response","108","838109","0.0-27.0-0.0","SS1619740041688","","","null","","","","","","<p><img src= images/blank.png width =""600"" height = ""600"" style=""position:fixed;top:50%; left:50%; transform: translate(-50%, -50%); border:5px solid black"">","","","","","","","",""
"","1403.5099996253848","sequential-stimulus-presentation-old","109","840025","0.0-27.0-1.0","SS1619740041688","trial","","40","500","1903.5099996253848","images/stimuli/spore_stims/complex_08_A_b.gif","images/stimuli/spore_stims/complex_07_A_a.gif","forced_short","","9","complex_dissimilar","images/stimuli/spore_stims/complex_07_A_a.gif","","","","",""
"","null","html-keyboard-response","110","841084","0.0-27.0-0.1","SS1619740041688","","","null","","","","","","<p><img src= images/blank.png width =""600"" height = ""600"" style=""position:fixed;top:50%; left:50%; transform: translate(-50%, -50%); border:5px solid black"">","","","","","","","",""
"","5265.85500035435","sequential-stimulus-presentation-old","111","846860","0.0-27.0-1.1","SS1619740041688","trial","","40","500","5765.85500035435","images/stimuli/spore_stims/complex_08_A_b.gif","images/stimuli/spore_stims/complex_07_A_a.gif","forced_short","","9","complex_dissimilar","images/stimuli/spore_stims/complex_07_A_a.gif","","","","",""
"","null","html-keyboard-response","112","847729","0.0-27.0-0.2","SS1619740041688","","","null","","","","","","<p><img src= images/blank.png width =""600"" height = ""600"" style=""position:fixed;top:50%; left:50%; transform: translate(-50%, -50%); border:5px solid black"">","","","","","","","",""
"","6626.225000247359","sequential-stimulus-presentation-old","113","854868","0.0-27.0-1.2","SS1619740041688","trial","","40","500","7126.225000247359","images/stimuli/spore_stims/complex_08_A_b.gif","images/stimuli/spore_stims/complex_07_A_a.gif","forced_short","","9","complex_dissimilar","images/stimuli/spore_stims/complex_07_A_a.gif","","","","",""
"","null","html-keyboard-response","114","855894","0.0-27.0-0.3","SS1619740041688","","","null","","","","","","<p><img src= images/blank.png width =""600"" height = ""600"" style=""position:fixed;top:50%; left:50%; transform: translate(-50%, -50%); border:5px solid black"">","","","","","","","",""
"","5652.104999870062","sequential-stimulus-presentation-old","115","862057","0.0-27.0-1.3","SS1619740041688","trial","","40","500","6152.104999870062","images/stimuli/spore_stims/complex_08_A_b.gif","images/stimuli/spore_stims/complex_07_A_a.gif","forced_short","","9","complex_dissimilar","images/stimuli/spore_stims/complex_08_A_b.gif","","","","",""
"","null","html-keyboard-response","116","863042","0.0-27.0-0.4","SS1619740041688","","","null","","","","","","<p><img src= images/blank.png width =""600"" height = ""600"" style=""position:fixed;top:50%; left:50%; transform: translate(-50%, -50%); border:5px solid black"">","","","","","","","",""
"","6387.220000848174","sequential-stimulus-presentation-old","117","869941","0.0-27.0-1.4","SS1619740041688","trial","","40","500","6887.220000848174","images/stimuli/spore_stims/complex_08_A_b.gif","images/stimuli/spore_stims/complex_07_A_a.gif","forced_short","","9","complex_dissimilar","images/stimuli/spore_stims/complex_07_A_a.gif","","","","",""
"","null","html-keyboard-response","118","870986","0.0-27.0-0.5","SS1619740041688","","","null","","","","","","<p><img src= images/blank.png width =""600"" height = ""600"" style=""position:fixed;top:50%; left:50%; transform: translate(-50%, -50%); border:5px solid black"">","","","","","","","",""
"","7946.765000000596","sequential-stimulus-presentation-old","119","879445","0.0-27.0-1.5","SS1619740041688","trial","","40","500","8446.765000000596","images/stimuli/spore_stims/complex_08_A_b.gif","images/stimuli/spore_stims/complex_07_A_a.gif","forced_short","","9","complex_dissimilar","images/stimuli/spore_stims/complex_08_A_b.gif","","","","",""
"","4964.039999991655","survey-multi-choice","120","884418","0.0-28.0","SS1619740041688","math_question","","","","","","","","","","","","{""Q0"":""11""}","[0]","11","",""
"","null","html-keyboard-response","121","885512","0.0-29.0-0.0","SS1619740041688","","","null","","","","","","<p><img src= images/blank.png width =""600"" height = ""600"" style=""position:fixed;top:50%; left:50%; transform: translate(-50%, -50%); border:5px solid black"">","","","","","","","",""
"","11265.910000540316","sequential-stimulus-presentation-old","122","897291","0.0-29.0-1.0","SS1619740041688","trial","","40","500","11765.910000540316","images/stimuli/spore_stims/simple_13_A_b.gif","images/stimuli/spore_stims/simple_04_A_a.gif","self_paced","","10","simple_dissimilar","images/stimuli/spore_stims/simple_04_A_a.gif","","","","",""
"","null","html-keyboard-response","123","898392","0.0-29.0-0.1","SS1619740041688","","","null","","","","","","<p><img src= images/blank.png width =""600"" height = ""600"" style=""position:fixed;top:50%; left:50%; transform: translate(-50%, -50%); border:5px solid black"">","","","","","","","",""
"","5074.249999597669","sequential-stimulus-presentation-old","124","903980","0.0-29.0-1.1","SS1619740041688","trial","","40","500","5574.249999597669","images/stimuli/spore_stims/simple_13_A_b.gif","images/stimuli/spore_stims/simple_04_A_a.gif","self_paced","","10","simple_dissimilar","images/stimuli/spore_stims/simple_04_A_a.gif","","","","",""
"","null","html-keyboard-response","125","904876","0.0-29.0-0.2","SS1619740041688","","","null","","","","","","<p><img src= images/blank.png width =""600"" height = ""600"" style=""position:fixed;top:50%; left:50%; transform: translate(-50%, -50%); border:5px solid black"">","","","","","","","",""
"","3807.955000549555","sequential-stimulus-presentation-old","126","909198","0.0-29.0-1.2","SS1619740041688","trial","","40","500","4307.955000549555","images/stimuli/spore_stims/simple_13_A_b.gif","images/stimuli/spore_stims/simple_04_A_a.gif","self_paced","","10","simple_dissimilar","images/stimuli/spore_stims/simple_04_A_a.gif","","","","",""
"","null","html-keyboard-response","127","910386","0.0-29.0-0.3","SS1619740041688","","","null","","","","","","<p><img src= images/blank.png width =""600"" height = ""600"" style=""position:fixed;top:50%; left:50%; transform: translate(-50%, -50%); border:5px solid black"">","","","","","","","",""
"","3142.179999500513","sequential-stimulus-presentation-old","128","914041","0.0-29.0-1.3","SS1619740041688","trial","","40","500","3642.179999500513","images/stimuli/spore_stims/simple_13_A_b.gif","images/stimuli/spore_stims/simple_04_A_a.gif","self_paced","","10","simple_dissimilar","images/stimuli/spore_stims/simple_04_A_a.gif","","","","",""
"","null","html-keyboard-response","129","915297","0.0-29.0-0.4","SS1619740041688","","","null","","","","","","<p><img src= images/blank.png width =""600"" height = ""600"" style=""position:fixed;top:50%; left:50%; transform: translate(-50%, -50%); border:5px solid black"">","","","","","","","",""
"","3451.890000142157","sequential-stimulus-presentation-old","130","919262","0.0-29.0-1.4","SS1619740041688","trial","","40","500","3951.890000142157","images/stimuli/spore_stims/simple_13_A_b.gif","images/stimuli/spore_stims/simple_04_A_a.gif","self_paced","","10","simple_dissimilar","images/stimuli/spore_stims/simple_04_A_a.gif","","","","",""
"","null","html-keyboard-response","131","920472","0.0-29.0-0.5","SS1619740041688","","","null","","","","","","<p><img src= images/blank.png width =""600"" height = ""600"" style=""position:fixed;top:50%; left:50%; transform: translate(-50%, -50%); border:5px solid black"">","","","","","","","",""
"","3198.9350002259016","sequential-stimulus-presentation-old","132","924185","0.0-29.0-1.5","SS1619740041688","trial","","40","500","3698.9350002259016","images/stimuli/spore_stims/simple_13_A_b.gif","images/stimuli/spore_stims/simple_04_A_a.gif","self_paced","","10","simple_dissimilar","images/stimuli/spore_stims/simple_13_A_b.gif","","","","",""
"","5768.924999982119","survey-multi-choice","133","929963","0.0-30.0","SS1619740041688","math_question","","","","","","","","","","","","{""Q0"":""9""}","[0]","9","",""
"","null","html-keyboard-response","134","930778","0.0-31.0-0.0","SS1619740041688","","","null","","","","","","<p><img src= images/blank.png width =""600"" height = ""600"" style=""position:fixed;top:50%; left:50%; transform: translate(-50%, -50%); border:5px solid black"">","","","","","","","",""
"","568.7849996611476","sequential-stimulus-presentation-old","135","946359","0.0-31.0-1.0","SS1619740041688","trial","","40","500","1068.7849996611476","images/stimuli/spore_stims/simple_05_A_b.gif","images/stimuli/spore_stims/simple_10_A_a.gif","forced_long","","11","simple_dissimilar","images/stimuli/spore_stims/simple_10_A_a.gif","","","","",""
"","null","html-keyboard-response","136","947186","0.0-31.0-0.1","SS1619740041688","","","null","","","","","","<p><img src= images/blank.png width =""600"" height = ""600"" style=""position:fixed;top:50%; left:50%; transform: translate(-50%, -50%); border:5px solid black"">","","","","","","","",""
"","5762.729999609292","sequential-stimulus-presentation-old","137","953463","0.0-31.0-1.1","SS1619740041688","trial","","40","500","6262.729999609292","images/stimuli/spore_stims/simple_05_A_b.gif","images/stimuli/spore_stims/simple_10_A_a.gif","forced_long","","11","simple_dissimilar","images/stimuli/spore_stims/simple_05_A_b.gif","","","","",""
"","null","html-keyboard-response","138","954539","0.0-31.0-0.2","SS1619740041688","","","null","","","","","","<p><img src= images/blank.png width =""600"" height = ""600"" style=""position:fixed;top:50%; left:50%; transform: translate(-50%, -50%); border:5px solid black"">","","","","","","","",""
"","4515.79499989748","sequential-stimulus-presentation-old","139","959568","0.0-31.0-1.2","SS1619740041688","trial","","40","500","5015.79499989748","images/stimuli/spore_stims/simple_05_A_b.gif","images/stimuli/spore_stims/simple_10_A_a.gif","forced_long","","11","simple_dissimilar","images/stimuli/spore_stims/simple_10_A_a.gif","","","","",""
"","null","html-keyboard-response","140","960678","0.0-31.0-0.3","SS1619740041688","","","null","","","","","","<p><img src= images/blank.png width =""600"" height = ""600"" style=""position:fixed;top:50%; left:50%; transform: translate(-50%, -50%); border:5px solid black"">","","","","","","","",""
"","3042.0599998906255","sequential-stimulus-presentation-old","141","964233","0.0-31.0-1.3","SS1619740041688","trial","","40","500","3542.0599998906255","images/stimuli/spore_stims/simple_05_A_b.gif","images/stimuli/spore_stims/simple_10_A_a.gif","forced_long","","11","simple_dissimilar","images/stimuli/spore_stims/simple_05_A_b.gif","","","","",""
"[{""page_index"":0,""viewing_time"":7920.590000227094}]","7921.3100001215935","instructions","142","972162","0.0-32.0","SS1619740041688","instructions","","","","","","","","","","","","","","","",""
"","15046.160000376403","survey-likert","143","987221","0.0-33.0","SS1619740041688","similarity_question","","","","","","","","","","","","{""Q0"":1}","[0]","","images/stimuli/spore_stims/complex_08_A_a.gif","images/stimuli/spore_stims/complex_13_A_b.gif"
"","8108.319999650121","survey-likert","144","995342","0.0-34.0","SS1619740041688","similarity_question","","","","","","","","","","","","{""Q0"":4}","[0]","","images/stimuli/spore_stims/simple_06_A_b.gif","images/stimuli/spore_stims/simple_15_A_a.gif"
"","5751.224999316037","survey-likert","145","1001105","0.0-35.0","SS1619740041688","similarity_question","","","","","","","","","","","","{""Q0"":4}","[0]","","images/stimuli/spore_stims/simple_06_A_a.gif","images/stimuli/spore_stims/simple_11_A_b.gif"
"","6380.325000733137","survey-likert","146","1007499","0.0-36.0","SS1619740041688","similarity_question","","","","","","","","","","","","{""Q0"":6}","[0]","","images/stimuli/spore_stims/simple_10_A_a.gif","images/stimuli/spore_stims/simple_05_A_b.gif"
"","11477.74500027299","survey-likert","147","1018990","0.0-37.0","SS1619740041688","similarity_question","","","","","","","","","","","","{""Q0"":2}","[0]","","images/stimuli/spore_stims/complex_07_A_a.gif","images/stimuli/spore_stims/complex_08_A_b.gif"
"","9825.164999812841","survey-likert","148","1028828","0.0-38.0","SS1619740041688","similarity_question","","","","","","","","","","","","{""Q0"":1}","[0]","","images/stimuli/spore_stims/complex_10_A_a.gif","images/stimuli/spore_stims/complex_11_A_b.gif"
"","5344.544999301434","survey-likert","149","1034184","0.0-39.0","SS1619740041688","similarity_question","","","","","","","","","","","","{""Q0"":6}","[0]","","images/stimuli/spore_stims/simple_04_A_a.gif","images/stimuli/spore_stims/simple_13_A_b.gif"
"","7640.064999461174","survey-likert","150","1041837","0.0-40.0","SS1619740041688","similarity_question","","","","","","","","","","","","{""Q0"":4}","[0]","","images/stimuli/spore_stims/complex_16_A_b.gif","images/stimuli/spore_stims/complex_17_A_a.gif"
"","8639.709999784827","survey-likert","151","1050490","0.0-41.0","SS1619740041688","similarity_question","","","","","","","","","","","","{""Q0"":4}","[0]","","images/stimuli/spore_stims/complex_04_A_a.gif","images/stimuli/spore_stims/complex_18_A_b.gif"
"","3568.2100001722574","survey-likert","152","1054069","0.0-42.0","SS1619740041688","similarity_question","","","","","","","","","","","","{""Q0"":5}","[0]","","images/stimuli/spore_stims/simple_05_A_a.gif","images/stimuli/spore_stims/simple_01_A_b.gif"
"","4269.925000146031","survey-likert","153","1058353","0.0-43.0","SS1619740041688","similarity_question","","","","","","","","","","","","{""Q0"":4}","[0]","","images/stimuli/spore_stims/simple_02_A_a.gif","images/stimuli/spore_stims/simple_16_A_b.gif"
"","5454.344999976456","survey-likert","154","1063820","0.0-44.0","SS1619740041688","similarity_question","","","","","","","","","","","","{""Q0"":4}","[0]","","images/stimuli/spore_stims/complex_12_A_b.gif","images/stimuli/spore_stims/complex_18_A_a.gif"
"[{""page_index"":0,""viewing_time"":8456.015000119805}]","8456.635000184178","instructions","155","1072288","0.0-45.0","SS1619740041688","instructions","","","","","","","","","","","","","","","",""
"","5605.965000577271","survey-likert","156","1077906","0.0-46.0","SS1619740041688","","","","","","","","","images/stimuli/spore_stims/simple_04_A_a.gif","","","","{""Q0"":2}","[0]","","",""
"","4304.554999805987","survey-likert","157","1082224","0.0-47.0","SS1619740041688","","","","","","","","","images/stimuli/spore_stims/complex_18_A_a.gif","","","","{""Q0"":5}","[0]","","",""
"","5886.874999850988","survey-likert","158","1088123","0.0-48.0","SS1619740041688","","","","","","","","","images/stimuli/spore_stims/simple_02_A_a.gif","","","","{""Q0"":0}","[0]","","",""
"","7120.189999230206","survey-likert","159","1095257","0.0-49.0","SS1619740041688","","","","","","","","","images/stimuli/spore_stims/simple_10_A_a.gif","","","","{""Q0"":1}","[0]","","",""
"","3122.7900004014373","survey-likert","160","1098394","0.0-50.0","SS1619740041688","","","","","","","","","images/stimuli/spore_stims/simple_05_A_a.gif","","","","{""Q0"":1}","[0]","","",""
"","5034.345000050962","survey-likert","161","1103441","0.0-51.0","SS1619740041688","","","","","","","","","images/stimuli/spore_stims/complex_08_A_a.gif","","","","{""Q0"":4}","[0]","","",""
"","3528.424999676645","survey-likert","162","1106983","0.0-52.0","SS1619740041688","","","","","","","","","images/stimuli/spore_stims/complex_11_A_b.gif","","","","{""Q0"":5}","[0]","","",""
"","2862.735000438988","survey-likert","163","1109859","0.0-53.0","SS1619740041688","","","","","","","","","images/stimuli/spore_stims/complex_08_A_b.gif","","","","{""Q0"":4}","[0]","","",""
"","5663.970000110567","survey-likert","164","1115536","0.0-54.0","SS1619740041688","","","","","","","","","images/stimuli/spore_stims/simple_15_A_a.gif","","","","{""Q0"":1}","[0]","","",""
"","4752.460000105202","survey-likert","165","1120302","0.0-55.0","SS1619740041688","","","","","","","","","images/stimuli/spore_stims/complex_17_A_a.gif","","","","{""Q0"":4}","[0]","","",""
"","6813.334999606013","survey-likert","166","1127129","0.0-56.0","SS1619740041688","","","","","","","","","images/stimuli/spore_stims/complex_04_A_a.gif","","","","{""Q0"":4}","[0]","","",""
"","2763.9899998903275","survey-likert","167","1129905","0.0-57.0","SS1619740041688","","","","","","","","","images/stimuli/spore_stims/simple_11_A_b.gif","","","","{""Q0"":2}","[0]","","",""
"[{""page_index"":0,""viewing_time"":3269.8400001972914}]","3270.430000498891","instructions","168","1133188","0.0-58.0","SS1619740041688","instructions","","","","","","","","","","","","","","","",""
"","3354.790000244975","demog-age","169","1136558","0.0-59.0","SS1619740041688","","","","","","","","","","","","","{""age"":""35""}","","","",""
"","3501.5899995341897","demog-ethnic-US","170","1140078","0.0-60.0","SS1619740041688","","","","","","","","","","","","","{""ethnicity"":[""Hispanic or Latino""]}","[0]","","",""
"","8553.875000216067","demog-gender-and-education","171","1148645","0.0-61.0","SS1619740041688","","","","","","","","","","","","","{""gender"":""Male"",""education"":""Bachelor's Degree""}","[0,1]","","",""
"","14247.489999979734","survey-text","172","1162911","0.0-62.0","SS1619740041688","feedback","","","","","","","","","","","","{""Q0"":""All good""}","","","",""
"[{""page_index"":0,""viewing_time"":2878.2299999147654}]","2878.7650000303984","instructions","173","1165800","0.0-63.0","SS1619740041688","instructions","","","","","","","","","","","","","","","",""
