"view_history","rt","trial_type","trial_index","time_elapsed","internal_node_id","subject","stimulus_type","trial_stimulus","key_press","minimum_viewing_duration","trial_looking_time","block_deviant","block_background","exposure_type","stimulus","block_number","block_type","stimulus_displayed","responses","question_order","math_correct_answer","stimulus_left","stimulus_right"
"[{""page_index"":0,""viewing_time"":70420.0149999815}]","70421.09499999788","instructions","0","70423","0.0-0.0","SS1619739489473","","","","","","","","","","","","","","","","",""
"[{""page_index"":0,""viewing_time"":9319.060000008903},{""page_index"":1,""viewing_time"":17708.069999993313}]","27027.440000034403","instructions","1","99453","0.0-1.0","SS1619739489473","instructions","","","","","","","","","","","","","","","",""
"","11281.879999965895","sequential-stimulus-presentation-old","2","111238","0.0-2.0","SS1619739489473","","","40","500","11781.879999965895","null","null","self_paced","","","","","","","","",""
"","7774.100000038743","sequential-stimulus-presentation-old","3","119515","0.0-3.0","SS1619739489473","","","40","500","8274.100000038743","null","null","self_paced","","","","","","","","",""
"[{""page_index"":0,""viewing_time"":22647.010000015143}]","22647.274999995716","instructions","4","142164","0.0-4.0","SS1619739489473","instructions","","","","","","","","","","","","","","","",""
"","1309.5200000097975","sequential-stimulus-presentation-old","5","158477","0.0-5.0","SS1619739489473","","","40","500","1809.5200000097975","null","null","forced_long","","","","","","","","",""
"","1002.0299999741837","sequential-stimulus-presentation-old","6","159982","0.0-6.0","SS1619739489473","","","40","500","1502.0299999741837","null","null","forced_long","","","","","","","","",""
"[{""page_index"":0,""viewing_time"":5849.864999996498}]","5850.129999977071","instructions","7","165835","0.0-7.0","SS1619739489473","instructions","","","","","","","","","","","","","","","",""
"[{""page_index"":0,""viewing_time"":18147.009999956936},{""page_index"":1,""viewing_time"":15309.60999999661},{""page_index"":2,""viewing_time"":11572.390000044834},{""page_index"":3,""viewing_time"":2191.980000003241},{""page_index"":4,""viewing_time"":1452.3999999510124}]","48673.68999996688","instructions","8","214510","0.0-8.0","SS1619739489473","instructions","","","","","","","","","","","","","","","",""
"","null","html-keyboard-response","9","215662","0.0-9.0-0.0","SS1619739489473","","","null","","","","","","<p><img src= images/blank.png width =""600"" height = ""600"" style=""position:fixed;top:50%; left:50%; transform: translate(-50%, -50%); border:5px solid black"">","","","","","","","",""
"","522.6950000505894","sequential-stimulus-presentation-old","10","216691","0.0-9.0-1.0","SS1619739489473","trial","","40","500","1022.6950000505894","images/stimuli/spore_stims/simple_10_A_b.gif","images/stimuli/spore_stims/simple_01_A_a.gif","forced_short","","0","simple_dissimilar","images/stimuli/spore_stims/simple_01_A_a.gif","","","","",""
"","null","html-keyboard-response","11","217797","0.0-9.0-0.1","SS1619739489473","","","null","","","","","","<p><img src= images/blank.png width =""600"" height = ""600"" style=""position:fixed;top:50%; left:50%; transform: translate(-50%, -50%); border:5px solid black"">","","","","","","","",""
"","11120.080000022426","sequential-stimulus-presentation-old","12","229422","0.0-9.0-1.1","SS1619739489473","trial","","40","500","11620.080000022426","images/stimuli/spore_stims/simple_10_A_b.gif","images/stimuli/spore_stims/simple_01_A_a.gif","forced_short","","0","simple_dissimilar","images/stimuli/spore_stims/simple_01_A_a.gif","","","","",""
"","null","html-keyboard-response","13","230698","0.0-9.0-0.2","SS1619739489473","","","null","","","","","","<p><img src= images/blank.png width =""600"" height = ""600"" style=""position:fixed;top:50%; left:50%; transform: translate(-50%, -50%); border:5px solid black"">","","","","","","","",""
"","1089.864999987185","sequential-stimulus-presentation-old","14","232292","0.0-9.0-1.2","SS1619739489473","trial","","40","500","1589.864999987185","images/stimuli/spore_stims/simple_10_A_b.gif","images/stimuli/spore_stims/simple_01_A_a.gif","forced_short","","0","simple_dissimilar","images/stimuli/spore_stims/simple_01_A_a.gif","","","","",""
"","null","html-keyboard-response","15","233271","0.0-9.0-0.3","SS1619739489473","","","null","","","","","","<p><img src= images/blank.png width =""600"" height = ""600"" style=""position:fixed;top:50%; left:50%; transform: translate(-50%, -50%); border:5px solid black"">","","","","","","","",""
"","218.04000000702217","sequential-stimulus-presentation-old","16","233993","0.0-9.0-1.3","SS1619739489473","trial","","40","500","718.0400000070222","images/stimuli/spore_stims/simple_10_A_b.gif","images/stimuli/spore_stims/simple_01_A_a.gif","forced_short","","0","simple_dissimilar","images/stimuli/spore_stims/simple_01_A_a.gif","","","","",""
"","null","html-keyboard-response","17","234822","0.0-9.0-0.4","SS1619739489473","","","null","","","","","","<p><img src= images/blank.png width =""600"" height = ""600"" style=""position:fixed;top:50%; left:50%; transform: translate(-50%, -50%); border:5px solid black"">","","","","","","","",""
"","1004.335000005085","sequential-stimulus-presentation-old","18","236332","0.0-9.0-1.4","SS1619739489473","trial","","40","500","1504.335000005085","images/stimuli/spore_stims/simple_10_A_b.gif","images/stimuli/spore_stims/simple_01_A_a.gif","forced_short","","0","simple_dissimilar","images/stimuli/spore_stims/simple_01_A_a.gif","","","","",""
"","null","html-keyboard-response","19","237542","0.0-9.0-0.5","SS1619739489473","","","null","","","","","","<p><img src= images/blank.png width =""600"" height = ""600"" style=""position:fixed;top:50%; left:50%; transform: translate(-50%, -50%); border:5px solid black"">","","","","","","","",""
"","47.429999976884574","sequential-stimulus-presentation-old","20","238095","0.0-9.0-1.5","SS1619739489473","trial","","40","500","547.4299999768846","images/stimuli/spore_stims/simple_10_A_b.gif","images/stimuli/spore_stims/simple_01_A_a.gif","forced_short","","0","simple_dissimilar","images/stimuli/spore_stims/simple_01_A_a.gif","","","","",""
"","4490.9500000067055","survey-multi-choice","21","242590","0.0-10.0","SS1619739489473","math_question","","","","","","","","","","","","{""Q0"":""2""}","[0]","2","",""
"","null","html-keyboard-response","22","243895","0.0-11.0-0.0","SS1619739489473","","","null","","","","","","<p><img src= images/blank.png width =""600"" height = ""600"" style=""position:fixed;top:50%; left:50%; transform: translate(-50%, -50%); border:5px solid black"">","","","","","","","",""
"","13916.324999998324","sequential-stimulus-presentation-old","23","258317","0.0-11.0-1.0","SS1619739489473","trial","","40","500","14416.324999998324","images/stimuli/spore_stims/simple_01_A_b.gif","images/stimuli/spore_stims/simple_13_A_a.gif","forced_short","","1","simple_dissimilar","images/stimuli/spore_stims/simple_13_A_a.gif","","","","",""
"","null","html-keyboard-response","24","259404","0.0-11.0-0.1","SS1619739489473","","","null","","","","","","<p><img src= images/blank.png width =""600"" height = ""600"" style=""position:fixed;top:50%; left:50%; transform: translate(-50%, -50%); border:5px solid black"">","","","","","","","",""
"","749.8350000241771","sequential-stimulus-presentation-old","25","260659","0.0-11.0-1.1","SS1619739489473","trial","","40","500","1249.8350000241771","images/stimuli/spore_stims/simple_01_A_b.gif","images/stimuli/spore_stims/simple_13_A_a.gif","forced_short","","1","simple_dissimilar","images/stimuli/spore_stims/simple_13_A_a.gif","","","","",""
"","null","html-keyboard-response","26","261646","0.0-11.0-0.2","SS1619739489473","","","null","","","","","","<p><img src= images/blank.png width =""600"" height = ""600"" style=""position:fixed;top:50%; left:50%; transform: translate(-50%, -50%); border:5px solid black"">","","","","","","","",""
"","171.09499999787658","sequential-stimulus-presentation-old","27","262322","0.0-11.0-1.2","SS1619739489473","trial","","40","500","671.0949999978766","images/stimuli/spore_stims/simple_01_A_b.gif","images/stimuli/spore_stims/simple_13_A_a.gif","forced_short","","1","simple_dissimilar","images/stimuli/spore_stims/simple_13_A_a.gif","","","","",""
"","null","html-keyboard-response","28","263422","0.0-11.0-0.3","SS1619739489473","","","null","","","","","","<p><img src= images/blank.png width =""600"" height = ""600"" style=""position:fixed;top:50%; left:50%; transform: translate(-50%, -50%); border:5px solid black"">","","","","","","","",""
"","729.9750000238419","sequential-stimulus-presentation-old","29","264656","0.0-11.0-1.3","SS1619739489473","trial","","40","500","1229.9750000238419","images/stimuli/spore_stims/simple_01_A_b.gif","images/stimuli/spore_stims/simple_13_A_a.gif","forced_short","","1","simple_dissimilar","images/stimuli/spore_stims/simple_13_A_a.gif","","","","",""
"","4715.794999967329","survey-multi-choice","30","269375","0.0-12.0","SS1619739489473","math_question","","","","","","","","","","","","{""Q0"":""11""}","[0]","11","",""
"","null","html-keyboard-response","31","270338","0.0-13.0-0.0","SS1619739489473","","","null","","","","","","<p><img src= images/blank.png width =""600"" height = ""600"" style=""position:fixed;top:50%; left:50%; transform: translate(-50%, -50%); border:5px solid black"">","","","","","","","",""
"","1269.849999982398","sequential-stimulus-presentation-old","32","286613","0.0-13.0-1.0","SS1619739489473","trial","","40","500","1769.849999982398","images/stimuli/spore_stims/complex_13_A_b.gif","images/stimuli/spore_stims/complex_16_A_a.gif","forced_long","","2","complex_dissimilar","images/stimuli/spore_stims/complex_16_A_a.gif","","","","",""
"","null","html-keyboard-response","33","287523","0.0-13.0-0.1","SS1619739489473","","","null","","","","","","<p><img src= images/blank.png width =""600"" height = ""600"" style=""position:fixed;top:50%; left:50%; transform: translate(-50%, -50%); border:5px solid black"">","","","","","","","",""
"","1899.9000000185333","sequential-stimulus-presentation-old","34","289930","0.0-13.0-1.1","SS1619739489473","trial","","40","500","2399.9000000185333","images/stimuli/spore_stims/complex_13_A_b.gif","images/stimuli/spore_stims/complex_16_A_a.gif","forced_long","","2","complex_dissimilar","images/stimuli/spore_stims/complex_13_A_b.gif","","","","",""
"","null","html-keyboard-response","35","291141","0.0-13.0-0.2","SS1619739489473","","","null","","","","","","<p><img src= images/blank.png width =""600"" height = ""600"" style=""position:fixed;top:50%; left:50%; transform: translate(-50%, -50%); border:5px solid black"">","","","","","","","",""
"","942.354999948293","sequential-stimulus-presentation-old","36","292590","0.0-13.0-1.2","SS1619739489473","trial","","40","500","1442.354999948293","images/stimuli/spore_stims/complex_13_A_b.gif","images/stimuli/spore_stims/complex_16_A_a.gif","forced_long","","2","complex_dissimilar","images/stimuli/spore_stims/complex_16_A_a.gif","","","","",""
"","null","html-keyboard-response","37","293470","0.0-13.0-0.3","SS1619739489473","","","null","","","","","","<p><img src= images/blank.png width =""600"" height = ""600"" style=""position:fixed;top:50%; left:50%; transform: translate(-50%, -50%); border:5px solid black"">","","","","","","","",""
"","1093.2899999897927","sequential-stimulus-presentation-old","38","295069","0.0-13.0-1.3","SS1619739489473","trial","","40","500","1593.2899999897927","images/stimuli/spore_stims/complex_13_A_b.gif","images/stimuli/spore_stims/complex_16_A_a.gif","forced_long","","2","complex_dissimilar","images/stimuli/spore_stims/complex_16_A_a.gif","","","","",""
"","null","html-keyboard-response","39","296042","0.0-13.0-0.4","SS1619739489473","","","null","","","","","","<p><img src= images/blank.png width =""600"" height = ""600"" style=""position:fixed;top:50%; left:50%; transform: translate(-50%, -50%); border:5px solid black"">","","","","","","","",""
"","827.0499999634922","sequential-stimulus-presentation-old","40","297378","0.0-13.0-1.4","SS1619739489473","trial","","40","500","1327.0499999634922","images/stimuli/spore_stims/complex_13_A_b.gif","images/stimuli/spore_stims/complex_16_A_a.gif","forced_long","","2","complex_dissimilar","images/stimuli/spore_stims/complex_16_A_a.gif","","","","",""
"","null","html-keyboard-response","41","298390","0.0-13.0-0.5","SS1619739489473","","","null","","","","","","<p><img src= images/blank.png width =""600"" height = ""600"" style=""position:fixed;top:50%; left:50%; transform: translate(-50%, -50%); border:5px solid black"">","","","","","","","",""
"","634.955000015907","sequential-stimulus-presentation-old","42","299531","0.0-13.0-1.5","SS1619739489473","trial","","40","500","1134.955000015907","images/stimuli/spore_stims/complex_13_A_b.gif","images/stimuli/spore_stims/complex_16_A_a.gif","forced_long","","2","complex_dissimilar","images/stimuli/spore_stims/complex_13_A_b.gif","","","","",""
"","3338.4700000169687","survey-multi-choice","43","302874","0.0-14.0","SS1619739489473","math_question","","","","","","","","","","","","{""Q0"":""12""}","[0]","12","",""
"","null","html-keyboard-response","44","304007","0.0-15.0-0.0","SS1619739489473","","","null","","","","","","<p><img src= images/blank.png width =""600"" height = ""600"" style=""position:fixed;top:50%; left:50%; transform: translate(-50%, -50%); border:5px solid black"">","","","","","","","",""
"","19378.700000001118","sequential-stimulus-presentation-old","45","338393","0.0-15.0-1.0","SS1619739489473","trial","","40","500","19878.700000001118","images/stimuli/spore_stims/simple_02_A_b.gif","images/stimuli/spore_stims/simple_20_A_a.gif","forced_long","","3","simple_dissimilar","images/stimuli/spore_stims/simple_20_A_a.gif","","","","",""
"","null","html-keyboard-response","46","339526","0.0-15.0-0.1","SS1619739489473","","","null","","","","","","<p><img src= images/blank.png width =""600"" height = ""600"" style=""position:fixed;top:50%; left:50%; transform: translate(-50%, -50%); border:5px solid black"">","","","","","","","",""
"","2175.7999999681488","sequential-stimulus-presentation-old","47","342210","0.0-15.0-1.1","SS1619739489473","trial","","40","500","2675.7999999681488","images/stimuli/spore_stims/simple_02_A_b.gif","images/stimuli/spore_stims/simple_20_A_a.gif","forced_long","","3","simple_dissimilar","images/stimuli/spore_stims/simple_20_A_a.gif","","","","",""
"","null","html-keyboard-response","48","343244","0.0-15.0-0.2","SS1619739489473","","","null","","","","","","<p><img src= images/blank.png width =""600"" height = ""600"" style=""position:fixed;top:50%; left:50%; transform: translate(-50%, -50%); border:5px solid black"">","","","","","","","",""
"","175.27499998686835","sequential-stimulus-presentation-old","49","343927","0.0-15.0-1.2","SS1619739489473","trial","","40","500","675.2749999868684","images/stimuli/spore_stims/simple_02_A_b.gif","images/stimuli/spore_stims/simple_20_A_a.gif","forced_long","","3","simple_dissimilar","images/stimuli/spore_stims/simple_20_A_a.gif","","","","",""
"","null","html-keyboard-response","50","344844","0.0-15.0-0.3","SS1619739489473","","","null","","","","","","<p><img src= images/blank.png width =""600"" height = ""600"" style=""position:fixed;top:50%; left:50%; transform: translate(-50%, -50%); border:5px solid black"">","","","","","","","",""
"","146.1649999837391","sequential-stimulus-presentation-old","51","345498","0.0-15.0-1.3","SS1619739489473","trial","","40","500","646.1649999837391","images/stimuli/spore_stims/simple_02_A_b.gif","images/stimuli/spore_stims/simple_20_A_a.gif","forced_long","","3","simple_dissimilar","images/stimuli/spore_stims/simple_20_A_a.gif","","","","",""
"","4499.190000002272","survey-multi-choice","52","350002","0.0-16.0","SS1619739489473","math_question","","","","","","","","","","","","{""Q0"":""9""}","[0]","9","",""
"","null","html-keyboard-response","53","351185","0.0-17.0-0.0","SS1619739489473","","","null","","","","","","<p><img src= images/blank.png width =""600"" height = ""600"" style=""position:fixed;top:50%; left:50%; transform: translate(-50%, -50%); border:5px solid black"">","","","","","","","",""
"","24319.66999999713","sequential-stimulus-presentation-old","54","376011","0.0-17.0-1.0","SS1619739489473","trial","","40","500","24819.66999999713","images/stimuli/spore_stims/complex_01_A_a.gif","images/stimuli/spore_stims/complex_12_A_b.gif","forced_short","","4","complex_dissimilar","images/stimuli/spore_stims/complex_12_A_b.gif","","","","",""
"","null","html-keyboard-response","55","376822","0.0-17.0-0.1","SS1619739489473","","","null","","","","","","<p><img src= images/blank.png width =""600"" height = ""600"" style=""position:fixed;top:50%; left:50%; transform: translate(-50%, -50%); border:5px solid black"">","","","","","","","",""
"","422.69500001566485","sequential-stimulus-presentation-old","56","377751","0.0-17.0-1.1","SS1619739489473","trial","","40","500","922.6950000156648","images/stimuli/spore_stims/complex_01_A_a.gif","images/stimuli/spore_stims/complex_12_A_b.gif","forced_short","","4","complex_dissimilar","images/stimuli/spore_stims/complex_12_A_b.gif","","","","",""
"","null","html-keyboard-response","57","378756","0.0-17.0-0.2","SS1619739489473","","","null","","","","","","<p><img src= images/blank.png width =""600"" height = ""600"" style=""position:fixed;top:50%; left:50%; transform: translate(-50%, -50%); border:5px solid black"">","","","","","","","",""
"","411.18499997537583","sequential-stimulus-presentation-old","58","379674","0.0-17.0-1.2","SS1619739489473","trial","","40","500","911.1849999753758","images/stimuli/spore_stims/complex_01_A_a.gif","images/stimuli/spore_stims/complex_12_A_b.gif","forced_short","","4","complex_dissimilar","images/stimuli/spore_stims/complex_12_A_b.gif","","","","",""
"","null","html-keyboard-response","59","380495","0.0-17.0-0.3","SS1619739489473","","","null","","","","","","<p><img src= images/blank.png width =""600"" height = ""600"" style=""position:fixed;top:50%; left:50%; transform: translate(-50%, -50%); border:5px solid black"">","","","","","","","",""
"","1112.250000005588","sequential-stimulus-presentation-old","60","382114","0.0-17.0-1.3","SS1619739489473","trial","","40","500","1612.250000005588","images/stimuli/spore_stims/complex_01_A_a.gif","images/stimuli/spore_stims/complex_12_A_b.gif","forced_short","","4","complex_dissimilar","images/stimuli/spore_stims/complex_12_A_b.gif","","","","",""
"","4388.414999993984","survey-multi-choice","61","386508","0.0-18.0","SS1619739489473","math_question","","","","","","","","","","","","{""Q0"":""10""}","[0]","10","",""
"","null","html-keyboard-response","62","387451","0.0-19.0-0.0","SS1619739489473","","","null","","","","","","<p><img src= images/blank.png width =""600"" height = ""600"" style=""position:fixed;top:50%; left:50%; transform: translate(-50%, -50%); border:5px solid black"">","","","","","","","",""
"","546.245000034105","sequential-stimulus-presentation-old","63","388505","0.0-19.0-1.0","SS1619739489473","trial","","40","500","1046.245000034105","images/stimuli/spore_stims/complex_04_A_b.gif","images/stimuli/spore_stims/complex_09_A_a.gif","self_paced","","5","complex_dissimilar","images/stimuli/spore_stims/complex_09_A_a.gif","","","","",""
"","null","html-keyboard-response","64","389384","0.0-19.0-0.1","SS1619739489473","","","null","","","","","","<p><img src= images/blank.png width =""600"" height = ""600"" style=""position:fixed;top:50%; left:50%; transform: translate(-50%, -50%); border:5px solid black"">","","","","","","","",""
"","2630.360000010114","sequential-stimulus-presentation-old","65","392522","0.0-19.0-1.1","SS1619739489473","trial","","40","500","3130.360000010114","images/stimuli/spore_stims/complex_04_A_b.gif","images/stimuli/spore_stims/complex_09_A_a.gif","self_paced","","5","complex_dissimilar","images/stimuli/spore_stims/complex_09_A_a.gif","","","","",""
"","null","html-keyboard-response","66","393520","0.0-19.0-0.2","SS1619739489473","","","null","","","","","","<p><img src= images/blank.png width =""600"" height = ""600"" style=""position:fixed;top:50%; left:50%; transform: translate(-50%, -50%); border:5px solid black"">","","","","","","","",""
"","253.4449999802746","sequential-stimulus-presentation-old","67","394281","0.0-19.0-1.2","SS1619739489473","trial","","40","500","753.4449999802746","images/stimuli/spore_stims/complex_04_A_b.gif","images/stimuli/spore_stims/complex_09_A_a.gif","self_paced","","5","complex_dissimilar","images/stimuli/spore_stims/complex_09_A_a.gif","","","","",""
"","null","html-keyboard-response","68","395569","0.0-19.0-0.3","SS1619739489473","","","null","","","","","","<p><img src= images/blank.png width =""600"" height = ""600"" style=""position:fixed;top:50%; left:50%; transform: translate(-50%, -50%); border:5px solid black"">","","","","","","","",""
"","16.684999980498105","sequential-stimulus-presentation-old","69","396093","0.0-19.0-1.3","SS1619739489473","trial","","40","500","516.6849999804981","images/stimuli/spore_stims/complex_04_A_b.gif","images/stimuli/spore_stims/complex_09_A_a.gif","self_paced","","5","complex_dissimilar","images/stimuli/spore_stims/complex_09_A_a.gif","","","","",""
"","null","html-keyboard-response","70","397307","0.0-19.0-0.4","SS1619739489473","","","null","","","","","","<p><img src= images/blank.png width =""600"" height = ""600"" style=""position:fixed;top:50%; left:50%; transform: translate(-50%, -50%); border:5px solid black"">","","","","","","","",""
"","4262.099999992643","sequential-stimulus-presentation-old","71","402075","0.0-19.0-1.4","SS1619739489473","trial","","40","500","4762.099999992643","images/stimuli/spore_stims/complex_04_A_b.gif","images/stimuli/spore_stims/complex_09_A_a.gif","self_paced","","5","complex_dissimilar","images/stimuli/spore_stims/complex_09_A_a.gif","","","","",""
"","null","html-keyboard-response","72","403030","0.0-19.0-0.5","SS1619739489473","","","null","","","","","","<p><img src= images/blank.png width =""600"" height = ""600"" style=""position:fixed;top:50%; left:50%; transform: translate(-50%, -50%); border:5px solid black"">","","","","","","","",""
"","3342.6849999814294","sequential-stimulus-presentation-old","73","406879","0.0-19.0-1.5","SS1619739489473","trial","","40","500","3842.6849999814294","images/stimuli/spore_stims/complex_04_A_b.gif","images/stimuli/spore_stims/complex_09_A_a.gif","self_paced","","5","complex_dissimilar","images/stimuli/spore_stims/complex_04_A_b.gif","","","","",""
"","3682.235000014771","survey-multi-choice","74","410567","0.0-20.0","SS1619739489473","math_question","","","","","","","","","","","","{""Q0"":""10""}","[0]","10","",""
"","null","html-keyboard-response","75","411712","0.0-21.0-0.0","SS1619739489473","","","null","","","","","","<p><img src= images/blank.png width =""600"" height = ""600"" style=""position:fixed;top:50%; left:50%; transform: translate(-50%, -50%); border:5px solid black"">","","","","","","","",""
"","3931.960000016261","sequential-stimulus-presentation-old","76","416153","0.0-21.0-1.0","SS1619739489473","trial","","40","500","4431.960000016261","images/stimuli/spore_stims/complex_08_A_b.gif","images/stimuli/spore_stims/complex_15_A_a.gif","self_paced","","6","complex_dissimilar","images/stimuli/spore_stims/complex_15_A_a.gif","","","","",""
"","null","html-keyboard-response","77","417139","0.0-21.0-0.1","SS1619739489473","","","null","","","","","","<p><img src= images/blank.png width =""600"" height = ""600"" style=""position:fixed;top:50%; left:50%; transform: translate(-50%, -50%); border:5px solid black"">","","","","","","","",""
"","1434.000000008382","sequential-stimulus-presentation-old","78","419079","0.0-21.0-1.1","SS1619739489473","trial","","40","500","1934.000000008382","images/stimuli/spore_stims/complex_08_A_b.gif","images/stimuli/spore_stims/complex_15_A_a.gif","self_paced","","6","complex_dissimilar","images/stimuli/spore_stims/complex_15_A_a.gif","","","","",""
"","null","html-keyboard-response","79","419902","0.0-21.0-0.2","SS1619739489473","","","null","","","","","","<p><img src= images/blank.png width =""600"" height = ""600"" style=""position:fixed;top:50%; left:50%; transform: translate(-50%, -50%); border:5px solid black"">","","","","","","","",""
"","796.2500000139698","sequential-stimulus-presentation-old","80","421207","0.0-21.0-1.2","SS1619739489473","trial","","40","500","1296.2500000139698","images/stimuli/spore_stims/complex_08_A_b.gif","images/stimuli/spore_stims/complex_15_A_a.gif","self_paced","","6","complex_dissimilar","images/stimuli/spore_stims/complex_15_A_a.gif","","","","",""
"","null","html-keyboard-response","81","422271","0.0-21.0-0.3","SS1619739489473","","","null","","","","","","<p><img src= images/blank.png width =""600"" height = ""600"" style=""position:fixed;top:50%; left:50%; transform: translate(-50%, -50%); border:5px solid black"">","","","","","","","",""
"","1228.5350000020117","sequential-stimulus-presentation-old","82","424007","0.0-21.0-1.3","SS1619739489473","trial","","40","500","1728.5350000020117","images/stimuli/spore_stims/complex_08_A_b.gif","images/stimuli/spore_stims/complex_15_A_a.gif","self_paced","","6","complex_dissimilar","images/stimuli/spore_stims/complex_15_A_a.gif","","","","",""
"","null","html-keyboard-response","83","425085","0.0-21.0-0.4","SS1619739489473","","","null","","","","","","<p><img src= images/blank.png width =""600"" height = ""600"" style=""position:fixed;top:50%; left:50%; transform: translate(-50%, -50%); border:5px solid black"">","","","","","","","",""
"","1287.320000003092","sequential-stimulus-presentation-old","84","426882","0.0-21.0-1.4","SS1619739489473","trial","","40","500","1787.320000003092","images/stimuli/spore_stims/complex_08_A_b.gif","images/stimuli/spore_stims/complex_15_A_a.gif","self_paced","","6","complex_dissimilar","images/stimuli/spore_stims/complex_15_A_a.gif","","","","",""
"","null","html-keyboard-response","85","428017","0.0-21.0-0.5","SS1619739489473","","","null","","","","","","<p><img src= images/blank.png width =""600"" height = ""600"" style=""position:fixed;top:50%; left:50%; transform: translate(-50%, -50%); border:5px solid black"">","","","","","","","",""
"","786.7950000218116","sequential-stimulus-presentation-old","86","429313","0.0-21.0-1.5","SS1619739489473","trial","","40","500","1286.7950000218116","images/stimuli/spore_stims/complex_08_A_b.gif","images/stimuli/spore_stims/complex_15_A_a.gif","self_paced","","6","complex_dissimilar","images/stimuli/spore_stims/complex_15_A_a.gif","","","","",""
"","5874.27500000922","survey-multi-choice","87","435194","0.0-22.0","SS1619739489473","math_question","","","","","","","","","","","","{""Q0"":""15""}","[0]","15","",""
"","null","html-keyboard-response","88","436371","0.0-23.0-0.0","SS1619739489473","","","null","","","","","","<p><img src= images/blank.png width =""600"" height = ""600"" style=""position:fixed;top:50%; left:50%; transform: translate(-50%, -50%); border:5px solid black"">","","","","","","","",""
"","5716.710000007879","sequential-stimulus-presentation-old","89","442596","0.0-23.0-1.0","SS1619739489473","trial","","40","500","6216.710000007879","images/stimuli/spore_stims/simple_13_A_b.gif","images/stimuli/spore_stims/simple_04_A_a.gif","self_paced","","7","simple_dissimilar","images/stimuli/spore_stims/simple_04_A_a.gif","","","","",""
"","null","html-keyboard-response","90","443524","0.0-23.0-0.1","SS1619739489473","","","null","","","","","","<p><img src= images/blank.png width =""600"" height = ""600"" style=""position:fixed;top:50%; left:50%; transform: translate(-50%, -50%); border:5px solid black"">","","","","","","","",""
"","770.8399999537505","sequential-stimulus-presentation-old","91","444800","0.0-23.0-1.1","SS1619739489473","trial","","40","500","1270.8399999537505","images/stimuli/spore_stims/simple_13_A_b.gif","images/stimuli/spore_stims/simple_04_A_a.gif","self_paced","","7","simple_dissimilar","images/stimuli/spore_stims/simple_13_A_b.gif","","","","",""
"","null","html-keyboard-response","92","445888","0.0-23.0-0.2","SS1619739489473","","","null","","","","","","<p><img src= images/blank.png width =""600"" height = ""600"" style=""position:fixed;top:50%; left:50%; transform: translate(-50%, -50%); border:5px solid black"">","","","","","","","",""
"","64.08500001998618","sequential-stimulus-presentation-old","93","446460","0.0-23.0-1.2","SS1619739489473","trial","","40","500","564.0850000199862","images/stimuli/spore_stims/simple_13_A_b.gif","images/stimuli/spore_stims/simple_04_A_a.gif","self_paced","","7","simple_dissimilar","images/stimuli/spore_stims/simple_04_A_a.gif","","","","",""
"","null","html-keyboard-response","94","447664","0.0-23.0-0.3","SS1619739489473","","","null","","","","","","<p><img src= images/blank.png width =""600"" height = ""600"" style=""position:fixed;top:50%; left:50%; transform: translate(-50%, -50%); border:5px solid black"">","","","","","","","",""
"","137.10500003071502","sequential-stimulus-presentation-old","95","448308","0.0-23.0-1.3","SS1619739489473","trial","","40","500","637.105000030715","images/stimuli/spore_stims/simple_13_A_b.gif","images/stimuli/spore_stims/simple_04_A_a.gif","self_paced","","7","simple_dissimilar","images/stimuli/spore_stims/simple_13_A_b.gif","","","","",""
"","null","html-keyboard-response","96","449544","0.0-23.0-0.4","SS1619739489473","","","null","","","","","","<p><img src= images/blank.png width =""600"" height = ""600"" style=""position:fixed;top:50%; left:50%; transform: translate(-50%, -50%); border:5px solid black"">","","","","","","","",""
"","573.9700000267476","sequential-stimulus-presentation-old","97","450626","0.0-23.0-1.4","SS1619739489473","trial","","40","500","1073.9700000267476","images/stimuli/spore_stims/simple_13_A_b.gif","images/stimuli/spore_stims/simple_04_A_a.gif","self_paced","","7","simple_dissimilar","images/stimuli/spore_stims/simple_04_A_a.gif","","","","",""
"","7969.485000008717","survey-multi-choice","98","458602","0.0-24.0","SS1619739489473","math_question","","","","","","","","","","","","{""Q0"":""14""}","[0]","14","",""
"","null","html-keyboard-response","99","459496","0.0-25.0-0.0","SS1619739489473","","","null","","","","","","<p><img src= images/blank.png width =""600"" height = ""600"" style=""position:fixed;top:50%; left:50%; transform: translate(-50%, -50%); border:5px solid black"">","","","","","","","",""
"","36521.539999987","sequential-stimulus-presentation-old","100","511028","0.0-25.0-1.0","SS1619739489473","trial","","40","500","37021.539999987","images/stimuli/spore_stims/complex_14_A_b.gif","images/stimuli/spore_stims/complex_08_A_a.gif","forced_long","","8","complex_dissimilar","images/stimuli/spore_stims/complex_08_A_a.gif","","","","",""
"","null","html-keyboard-response","101","512138","0.0-25.0-0.1","SS1619739489473","","","null","","","","","","<p><img src= images/blank.png width =""600"" height = ""600"" style=""position:fixed;top:50%; left:50%; transform: translate(-50%, -50%); border:5px solid black"">","","","","","","","",""
"","783.7799999979325","sequential-stimulus-presentation-old","102","513433","0.0-25.0-1.1","SS1619739489473","trial","","40","500","1283.7799999979325","images/stimuli/spore_stims/complex_14_A_b.gif","images/stimuli/spore_stims/complex_08_A_a.gif","forced_long","","8","complex_dissimilar","images/stimuli/spore_stims/complex_08_A_a.gif","","","","",""
"","null","html-keyboard-response","103","514634","0.0-25.0-0.2","SS1619739489473","","","null","","","","","","<p><img src= images/blank.png width =""600"" height = ""600"" style=""position:fixed;top:50%; left:50%; transform: translate(-50%, -50%); border:5px solid black"">","","","","","","","",""
"","5392.504999996163","sequential-stimulus-presentation-old","104","520540","0.0-25.0-1.2","SS1619739489473","trial","","40","500","5892.504999996163","images/stimuli/spore_stims/complex_14_A_b.gif","images/stimuli/spore_stims/complex_08_A_a.gif","forced_long","","8","complex_dissimilar","images/stimuli/spore_stims/complex_08_A_a.gif","","","","",""
"","null","html-keyboard-response","105","521488","0.0-25.0-0.3","SS1619739489473","","","null","","","","","","<p><img src= images/blank.png width =""600"" height = ""600"" style=""position:fixed;top:50%; left:50%; transform: translate(-50%, -50%); border:5px solid black"">","","","","","","","",""
"","2226.5800000168383","sequential-stimulus-presentation-old","106","524227","0.0-25.0-1.3","SS1619739489473","trial","","40","500","2726.5800000168383","images/stimuli/spore_stims/complex_14_A_b.gif","images/stimuli/spore_stims/complex_08_A_a.gif","forced_long","","8","complex_dissimilar","images/stimuli/spore_stims/complex_08_A_a.gif","","","","",""
"","5225.729999947362","survey-multi-choice","107","529464","0.0-26.0","SS1619739489473","math_question","","","","","","","","","","","","{""Q0"":""14""}","[0]","14","",""
"","null","html-keyboard-response","108","530455","0.0-27.0-0.0","SS1619739489473","","","null","","","","","","<p><img src= images/blank.png width =""600"" height = ""600"" style=""position:fixed;top:50%; left:50%; transform: translate(-50%, -50%); border:5px solid black"">","","","","","","","",""
"","7969.709999975748","sequential-stimulus-presentation-old","109","538942","0.0-27.0-1.0","SS1619739489473","trial","","40","500","8469.709999975748","images/stimuli/spore_stims/complex_19_A_a.gif","images/stimuli/spore_stims/complex_06_A_b.gif","forced_short","","9","complex_dissimilar","images/stimuli/spore_stims/complex_06_A_b.gif","","","","",""
"","null","html-keyboard-response","110","539803","0.0-27.0-0.1","SS1619739489473","","","null","","","","","","<p><img src= images/blank.png width =""600"" height = ""600"" style=""position:fixed;top:50%; left:50%; transform: translate(-50%, -50%); border:5px solid black"">","","","","","","","",""
"","679.9449999816716","sequential-stimulus-presentation-old","111","540997","0.0-27.0-1.1","SS1619739489473","trial","","40","500","1179.9449999816716","images/stimuli/spore_stims/complex_19_A_a.gif","images/stimuli/spore_stims/complex_06_A_b.gif","forced_short","","9","complex_dissimilar","images/stimuli/spore_stims/complex_06_A_b.gif","","","","",""
"","null","html-keyboard-response","112","542077","0.0-27.0-0.2","SS1619739489473","","","null","","","","","","<p><img src= images/blank.png width =""600"" height = ""600"" style=""position:fixed;top:50%; left:50%; transform: translate(-50%, -50%); border:5px solid black"">","","","","","","","",""
"","165.65500001888722","sequential-stimulus-presentation-old","113","542755","0.0-27.0-1.2","SS1619739489473","trial","","40","500","665.6550000188872","images/stimuli/spore_stims/complex_19_A_a.gif","images/stimuli/spore_stims/complex_06_A_b.gif","forced_short","","9","complex_dissimilar","images/stimuli/spore_stims/complex_19_A_a.gif","","","","",""
"","null","html-keyboard-response","114","543860","0.0-27.0-0.3","SS1619739489473","","","null","","","","","","<p><img src= images/blank.png width =""600"" height = ""600"" style=""position:fixed;top:50%; left:50%; transform: translate(-50%, -50%); border:5px solid black"">","","","","","","","",""
"","1151.624999998603","sequential-stimulus-presentation-old","115","545523","0.0-27.0-1.3","SS1619739489473","trial","","40","500","1651.624999998603","images/stimuli/spore_stims/complex_19_A_a.gif","images/stimuli/spore_stims/complex_06_A_b.gif","forced_short","","9","complex_dissimilar","images/stimuli/spore_stims/complex_19_A_a.gif","","","","",""
"","4691.989999962971","survey-multi-choice","116","550224","0.0-28.0","SS1619739489473","math_question","","","","","","","","","","","","{""Q0"":""11""}","[0]","11","",""
"","null","html-keyboard-response","117","551215","0.0-29.0-0.0","SS1619739489473","","","null","","","","","","<p><img src= images/blank.png width =""600"" height = ""600"" style=""position:fixed;top:50%; left:50%; transform: translate(-50%, -50%); border:5px solid black"">","","","","","","","",""
"","432.97500000335276","sequential-stimulus-presentation-old","118","552161","0.0-29.0-1.0","SS1619739489473","trial","","40","500","932.9750000033528","images/stimuli/spore_stims/simple_16_A_b.gif","images/stimuli/spore_stims/simple_09_A_a.gif","self_paced","","10","simple_dissimilar","images/stimuli/spore_stims/simple_09_A_a.gif","","","","",""
"","null","html-keyboard-response","119","553382","0.0-29.0-0.1","SS1619739489473","","","null","","","","","","<p><img src= images/blank.png width =""600"" height = ""600"" style=""position:fixed;top:50%; left:50%; transform: translate(-50%, -50%); border:5px solid black"">","","","","","","","",""
"","3776.4399999869056","sequential-stimulus-presentation-old","120","557673","0.0-29.0-1.1","SS1619739489473","trial","","40","500","4276.439999986906","images/stimuli/spore_stims/simple_16_A_b.gif","images/stimuli/spore_stims/simple_09_A_a.gif","self_paced","","10","simple_dissimilar","images/stimuli/spore_stims/simple_09_A_a.gif","","","","",""
"","null","html-keyboard-response","121","558748","0.0-29.0-0.2","SS1619739489473","","","null","","","","","","<p><img src= images/blank.png width =""600"" height = ""600"" style=""position:fixed;top:50%; left:50%; transform: translate(-50%, -50%); border:5px solid black"">","","","","","","","",""
"","364.1749999951571","sequential-stimulus-presentation-old","122","559626","0.0-29.0-1.2","SS1619739489473","trial","","40","500","864.1749999951571","images/stimuli/spore_stims/simple_16_A_b.gif","images/stimuli/spore_stims/simple_09_A_a.gif","self_paced","","10","simple_dissimilar","images/stimuli/spore_stims/simple_09_A_a.gif","","","","",""
"","null","html-keyboard-response","123","560741","0.0-29.0-0.3","SS1619739489473","","","null","","","","","","<p><img src= images/blank.png width =""600"" height = ""600"" style=""position:fixed;top:50%; left:50%; transform: translate(-50%, -50%); border:5px solid black"">","","","","","","","",""
"","1322.6100000320002","sequential-stimulus-presentation-old","124","562576","0.0-29.0-1.3","SS1619739489473","trial","","40","500","1822.6100000320002","images/stimuli/spore_stims/simple_16_A_b.gif","images/stimuli/spore_stims/simple_09_A_a.gif","self_paced","","10","simple_dissimilar","images/stimuli/spore_stims/simple_09_A_a.gif","","","","",""
"","null","html-keyboard-response","125","563524","0.0-29.0-0.4","SS1619739489473","","","null","","","","","","<p><img src= images/blank.png width =""600"" height = ""600"" style=""position:fixed;top:50%; left:50%; transform: translate(-50%, -50%); border:5px solid black"">","","","","","","","",""
"","112.18500003451481","sequential-stimulus-presentation-old","126","564150","0.0-29.0-1.4","SS1619739489473","trial","","40","500","612.1850000345148","images/stimuli/spore_stims/simple_16_A_b.gif","images/stimuli/spore_stims/simple_09_A_a.gif","self_paced","","10","simple_dissimilar","images/stimuli/spore_stims/simple_09_A_a.gif","","","","",""
"","4179.145000001881","survey-multi-choice","127","568339","0.0-30.0","SS1619739489473","math_question","","","","","","","","","","","","{""Q0"":""11""}","[0]","11","",""
"","null","html-keyboard-response","128","569316","0.0-31.0-0.0","SS1619739489473","","","null","","","","","","<p><img src= images/blank.png width =""600"" height = ""600"" style=""position:fixed;top:50%; left:50%; transform: translate(-50%, -50%); border:5px solid black"">","","","","","","","",""
"","7893.259999982547","sequential-stimulus-presentation-old","129","592224","0.0-31.0-1.0","SS1619739489473","trial","","40","500","8393.259999982547","images/stimuli/spore_stims/simple_09_A_b.gif","images/stimuli/spore_stims/simple_02_A_a.gif","forced_long","","11","simple_dissimilar","images/stimuli/spore_stims/simple_02_A_a.gif","","","","",""
"","null","html-keyboard-response","130","593322","0.0-31.0-0.1","SS1619739489473","","","null","","","","","","<p><img src= images/blank.png width =""600"" height = ""600"" style=""position:fixed;top:50%; left:50%; transform: translate(-50%, -50%); border:5px solid black"">","","","","","","","",""
"","1504.819999972824","sequential-stimulus-presentation-old","131","595340","0.0-31.0-1.1","SS1619739489473","trial","","40","500","2004.819999972824","images/stimuli/spore_stims/simple_09_A_b.gif","images/stimuli/spore_stims/simple_02_A_a.gif","forced_long","","11","simple_dissimilar","images/stimuli/spore_stims/simple_09_A_b.gif","","","","",""
"","null","html-keyboard-response","132","596398","0.0-31.0-0.2","SS1619739489473","","","null","","","","","","<p><img src= images/blank.png width =""600"" height = ""600"" style=""position:fixed;top:50%; left:50%; transform: translate(-50%, -50%); border:5px solid black"">","","","","","","","",""
"","495.7600000197999","sequential-stimulus-presentation-old","133","597408","0.0-31.0-1.2","SS1619739489473","trial","","40","500","995.7600000197999","images/stimuli/spore_stims/simple_09_A_b.gif","images/stimuli/spore_stims/simple_02_A_a.gif","forced_long","","11","simple_dissimilar","images/stimuli/spore_stims/simple_02_A_a.gif","","","","",""
"","null","html-keyboard-response","134","598611","0.0-31.0-0.3","SS1619739489473","","","null","","","","","","<p><img src= images/blank.png width =""600"" height = ""600"" style=""position:fixed;top:50%; left:50%; transform: translate(-50%, -50%); border:5px solid black"">","","","","","","","",""
"","64.39999997382984","sequential-stimulus-presentation-old","135","599190","0.0-31.0-1.3","SS1619739489473","trial","","40","500","564.3999999738298","images/stimuli/spore_stims/simple_09_A_b.gif","images/stimuli/spore_stims/simple_02_A_a.gif","forced_long","","11","simple_dissimilar","images/stimuli/spore_stims/simple_02_A_a.gif","","","","",""
"","null","html-keyboard-response","136","600182","0.0-31.0-0.4","SS1619739489473","","","null","","","","","","<p><img src= images/blank.png width =""600"" height = ""600"" style=""position:fixed;top:50%; left:50%; transform: translate(-50%, -50%); border:5px solid black"">","","","","","","","",""
"","53.37000003783032","sequential-stimulus-presentation-old","137","600751","0.0-31.0-1.4","SS1619739489473","trial","","40","500","553.3700000378303","images/stimuli/spore_stims/simple_09_A_b.gif","images/stimuli/spore_stims/simple_02_A_a.gif","forced_long","","11","simple_dissimilar","images/stimuli/spore_stims/simple_09_A_b.gif","","","","",""
"","null","html-keyboard-response","138","601764","0.0-31.0-0.5","SS1619739489473","","","null","","","","","","<p><img src= images/blank.png width =""600"" height = ""600"" style=""position:fixed;top:50%; left:50%; transform: translate(-50%, -50%); border:5px solid black"">","","","","","","","",""
"","1492.5700000021607","sequential-stimulus-presentation-old","139","603770","0.0-31.0-1.5","SS1619739489473","trial","","40","500","1992.5700000021607","images/stimuli/spore_stims/simple_09_A_b.gif","images/stimuli/spore_stims/simple_02_A_a.gif","forced_long","","11","simple_dissimilar","images/stimuli/spore_stims/simple_02_A_a.gif","","","","",""
"[{""page_index"":0,""viewing_time"":9246.784999966621}]","9247.134999954142","instructions","140","613029","0.0-32.0","SS1619739489473","instructions","","","","","","","","","","","","","","","",""
"","19103.37999998592","survey-likert","141","632151","0.0-33.0","SS1619739489473","similarity_question","","","","","","","","","","","","{""Q0"":1}","[0]","","images/stimuli/spore_stims/complex_01_A_a.gif","images/stimuli/spore_stims/complex_12_A_b.gif"
"","9309.620000014547","survey-likert","142","641475","0.0-34.0","SS1619739489473","similarity_question","","","","","","","","","","","","{""Q0"":4}","[0]","","images/stimuli/spore_stims/simple_16_A_b.gif","images/stimuli/spore_stims/simple_09_A_a.gif"
"","5592.160000000149","survey-likert","143","647082","0.0-35.0","SS1619739489473","similarity_question","","","","","","","","","","","","{""Q0"":2}","[0]","","images/stimuli/spore_stims/simple_09_A_b.gif","images/stimuli/spore_stims/simple_02_A_a.gif"
"","5614.999999990687","survey-likert","144","652713","0.0-36.0","SS1619739489473","similarity_question","","","","","","","","","","","","{""Q0"":5}","[0]","","images/stimuli/spore_stims/simple_13_A_a.gif","images/stimuli/spore_stims/simple_01_A_b.gif"
"","8084.7000000067055","survey-likert","145","660817","0.0-37.0","SS1619739489473","similarity_question","","","","","","","","","","","","{""Q0"":2}","[0]","","images/stimuli/spore_stims/complex_16_A_a.gif","images/stimuli/spore_stims/complex_13_A_b.gif"
"","35325.639999995474","survey-likert","146","696158","0.0-38.0","SS1619739489473","similarity_question","","","","","","","","","","","","{""Q0"":4}","[0]","","images/stimuli/spore_stims/complex_06_A_b.gif","images/stimuli/spore_stims/complex_19_A_a.gif"
"","5217.2499999869615","survey-likert","147","701389","0.0-39.0","SS1619739489473","similarity_question","","","","","","","","","","","","{""Q0"":4}","[0]","","images/stimuli/spore_stims/simple_13_A_b.gif","images/stimuli/spore_stims/simple_04_A_a.gif"
"","6575.279999990016","survey-likert","148","707979","0.0-40.0","SS1619739489473","similarity_question","","","","","","","","","","","","{""Q0"":0}","[0]","","images/stimuli/spore_stims/complex_08_A_b.gif","images/stimuli/spore_stims/complex_15_A_a.gif"
"","4409.06500001438","survey-likert","149","712404","0.0-41.0","SS1619739489473","similarity_question","","","","","","","","","","","","{""Q0"":4}","[0]","","images/stimuli/spore_stims/simple_01_A_a.gif","images/stimuli/spore_stims/simple_10_A_b.gif"
"","5373.704999976326","survey-likert","150","717794","0.0-42.0","SS1619739489473","similarity_question","","","","","","","","","","","","{""Q0"":2}","[0]","","images/stimuli/spore_stims/simple_02_A_b.gif","images/stimuli/spore_stims/simple_20_A_a.gif"
"","9381.660000013653","survey-likert","151","727193","0.0-43.0","SS1619739489473","similarity_question","","","","","","","","","","","","{""Q0"":0}","[0]","","images/stimuli/spore_stims/complex_08_A_a.gif","images/stimuli/spore_stims/complex_14_A_b.gif"
"","38583.500000007916","survey-likert","152","765794","0.0-44.0","SS1619739489473","similarity_question","","","","","","","","","","","","{""Q0"":4}","[0]","","images/stimuli/spore_stims/complex_09_A_a.gif","images/stimuli/spore_stims/complex_04_A_b.gif"
"[{""page_index"":0,""viewing_time"":7431.9950000499375}]","7432.365000015125","instructions","153","773246","0.0-45.0","SS1619739489473","instructions","","","","","","","","","","","","","","","",""
"","8021.065000037197","survey-likert","154","781282","0.0-46.0","SS1619739489473","","","","","","","","","images/stimuli/spore_stims/simple_09_A_a.gif","","","","{""Q0"":0}","[0]","","",""
"","5066.590000002179","survey-likert","155","786364","0.0-47.0","SS1619739489473","","","","","","","","","images/stimuli/spore_stims/simple_13_A_b.gif","","","","{""Q0"":0}","[0]","","",""
"","7599.824999982957","survey-likert","156","793979","0.0-48.0","SS1619739489473","","","","","","","","","images/stimuli/spore_stims/complex_19_A_a.gif","","","","{""Q0"":4}","[0]","","",""
"","2897.819999954663","survey-likert","157","796893","0.0-49.0","SS1619739489473","","","","","","","","","images/stimuli/spore_stims/complex_04_A_b.gif","","","","{""Q0"":4}","[0]","","",""
"","8820.37999999011","survey-likert","158","805730","0.0-50.0","SS1619739489473","","","","","","","","","images/stimuli/spore_stims/complex_01_A_a.gif","","","","{""Q0"":2}","[0]","","",""
"","5096.900000004098","survey-likert","159","810844","0.0-51.0","SS1619739489473","","","","","","","","","images/stimuli/spore_stims/complex_16_A_a.gif","","","","{""Q0"":5}","[0]","","",""
"","6057.644999993499","survey-likert","160","816918","0.0-52.0","SS1619739489473","","","","","","","","","images/stimuli/spore_stims/simple_09_A_b.gif","","","","{""Q0"":0}","[0]","","",""
"","66293.55999996187","survey-likert","161","883236","0.0-53.0","SS1619739489473","","","","","","","","","images/stimuli/spore_stims/complex_14_A_b.gif","","","","{""Q0"":5}","[0]","","",""
"","3039.4349999842234","survey-likert","162","886291","0.0-54.0","SS1619739489473","","","","","","","","","images/stimuli/spore_stims/simple_01_A_b.gif","","","","{""Q0"":0}","[0]","","",""
"","4045.3050000360236","survey-likert","163","890351","0.0-55.0","SS1619739489473","","","","","","","","","images/stimuli/spore_stims/simple_20_A_a.gif","","","","{""Q0"":0}","[0]","","",""
"","3234.950000012759","survey-likert","164","893603","0.0-56.0","SS1619739489473","","","","","","","","","images/stimuli/spore_stims/simple_01_A_a.gif","","","","{""Q0"":0}","[0]","","",""
"","6931.830000015907","survey-likert","165","900551","0.0-57.0","SS1619739489473","","","","","","","","","images/stimuli/spore_stims/complex_15_A_a.gif","","","","{""Q0"":4}","[0]","","",""
"[{""page_index"":0,""viewing_time"":3480.9750000131316}]","3481.3149999827147","instructions","166","904048","0.0-58.0","SS1619739489473","instructions","","","","","","","","","","","","","","","",""
"","7587.020000035409","demog-age","167","911654","0.0-59.0","SS1619739489473","","","","","","","","","","","","","{""age"":""20""}","","","",""
"","3703.0300000333227","demog-ethnic-US","168","915381","0.0-60.0","SS1619739489473","","","","","","","","","","","","","{""ethnicity"":[""Black or African American""]}","[0]","","",""
"","8870.21000002278","demog-gender-and-education","169","924273","0.0-61.0","SS1619739489473","","","","","","","","","","","","","{""gender"":""Female"",""education"":""High school diploma""}","[0,1]","","",""
"","28997.514999995474","survey-text","170","953290","0.0-62.0","SS1619739489473","feedback","","","","","","","","","","","","{""Q0"":""No it was all fine.""}","","","",""
"[{""page_index"":0,""viewing_time"":1102.9449999914505}]","1103.2699999632314","instructions","171","954411","0.0-63.0","SS1619739489473","instructions","","","","","","","","","","","","","","","",""
