"view_history","rt","trial_type","trial_index","time_elapsed","internal_node_id","subject","stimulus_type","trial_stimulus","key_press","minimum_viewing_duration","trial_looking_time","block_deviant","block_background","exposure_type","stimulus","block_number","block_type","stimulus_displayed","responses","question_order","math_correct_answer","stimulus_left","stimulus_right"
"[{""page_index"":0,""viewing_time"":75481.80000000866}]","75482.4700000172","instructions","0","75486","0.0-0.0","SS1619739713443","","","","","","","","","","","","","","","","",""
"[{""page_index"":0,""viewing_time"":9581.139999994775},{""page_index"":1,""viewing_time"":8216.940000012983}]","17798.559999995632","instructions","1","95294","0.0-1.0","SS1619739713443","instructions","","","","","","","","","","","","","","","",""
"","7590.53999997559","sequential-stimulus-presentation-old","2","103392","0.0-2.0","SS1619739713443","","","40","500","8090.53999997559","null","null","self_paced","","","","","","","","",""
"","5086.890000005951","sequential-stimulus-presentation-old","3","108984","0.0-3.0","SS1619739713443","","","40","500","5586.890000005951","null","null","self_paced","","","","","","","","",""
"[{""page_index"":0,""viewing_time"":14188.89499999932}]","14189.24499998684","instructions","4","123176","0.0-4.0","SS1619739713443","instructions","","","","","","","","","","","","","","","",""
"","679.9999999930151","sequential-stimulus-presentation-old","5","138860","0.0-5.0","SS1619739713443","","","40","500","1179.999999993015","null","null","forced_long","","","","","","","","",""
"","1388.7349999858998","sequential-stimulus-presentation-old","6","140756","0.0-6.0","SS1619739713443","","","40","500","1888.7349999858998","null","null","forced_long","","","","","","","","",""
"[{""page_index"":0,""viewing_time"":6031.040000001667}]","6031.739999976708","instructions","7","146790","0.0-7.0","SS1619739713443","instructions","","","","","","","","","","","","","","","",""
"[{""page_index"":0,""viewing_time"":7356.570000003558},{""page_index"":1,""viewing_time"":56671.29999998724},{""page_index"":2,""viewing_time"":4169.309999997495},{""page_index"":3,""viewing_time"":1039.5950000092853},{""page_index"":4,""viewing_time"":904.2750000080559}]","70141.83999999659","instructions","8","216934","0.0-8.0","SS1619739713443","instructions","","","","","","","","","","","","","","","",""
"","null","html-keyboard-response","9","217925","0.0-9.0-0.0","SS1619739713443","","","null","","","","","","<p><img src= images/blank.png width =""600"" height = ""600"" style=""position:fixed;top:50%; left:50%; transform: translate(-50%, -50%); border:5px solid black"">","","","","","","","",""
"","12095.405000000028","sequential-stimulus-presentation-old","10","230528","0.0-9.0-1.0","SS1619739713443","trial","","40","500","12595.405000000028","images/stimuli/spore_stims/simple_12_A_b.gif","images/stimuli/spore_stims/simple_20_A_a.gif","self_paced","","0","simple_dissimilar","images/stimuli/spore_stims/simple_20_A_a.gif","","","","",""
"","null","html-keyboard-response","11","231795","0.0-9.0-0.1","SS1619739713443","","","null","","","","","","<p><img src= images/blank.png width =""600"" height = ""600"" style=""position:fixed;top:50%; left:50%; transform: translate(-50%, -50%); border:5px solid black"">","","","","","","","",""
"","5876.835000002757","sequential-stimulus-presentation-old","12","238177","0.0-9.0-1.1","SS1619739713443","trial","","40","500","6376.835000002757","images/stimuli/spore_stims/simple_12_A_b.gif","images/stimuli/spore_stims/simple_20_A_a.gif","self_paced","","0","simple_dissimilar","images/stimuli/spore_stims/simple_12_A_b.gif","","","","",""
"","null","html-keyboard-response","13","239026","0.0-9.0-0.2","SS1619739713443","","","null","","","","","","<p><img src= images/blank.png width =""600"" height = ""600"" style=""position:fixed;top:50%; left:50%; transform: translate(-50%, -50%); border:5px solid black"">","","","","","","","",""
"","4754.019999993034","sequential-stimulus-presentation-old","14","244287","0.0-9.0-1.2","SS1619739713443","trial","","40","500","5254.019999993034","images/stimuli/spore_stims/simple_12_A_b.gif","images/stimuli/spore_stims/simple_20_A_a.gif","self_paced","","0","simple_dissimilar","images/stimuli/spore_stims/simple_20_A_a.gif","","","","",""
"","null","html-keyboard-response","15","245154","0.0-9.0-0.3","SS1619739713443","","","null","","","","","","<p><img src= images/blank.png width =""600"" height = ""600"" style=""position:fixed;top:50%; left:50%; transform: translate(-50%, -50%); border:5px solid black"">","","","","","","","",""
"","6974.464999977499","sequential-stimulus-presentation-old","16","252635","0.0-9.0-1.3","SS1619739713443","trial","","40","500","7474.464999977499","images/stimuli/spore_stims/simple_12_A_b.gif","images/stimuli/spore_stims/simple_20_A_a.gif","self_paced","","0","simple_dissimilar","images/stimuli/spore_stims/simple_20_A_a.gif","","","","",""
"","3247.2499999857973","survey-multi-choice","17","255888","0.0-10.0","SS1619739713443","math_question","","","","","","","","","","","","{""Q0"":""11""}","[0]","11","",""
"","null","html-keyboard-response","18","256872","0.0-11.0-0.0","SS1619739713443","","","null","","","","","","<p><img src= images/blank.png width =""600"" height = ""600"" style=""position:fixed;top:50%; left:50%; transform: translate(-50%, -50%); border:5px solid black"">","","","","","","","",""
"","944.3599999940488","sequential-stimulus-presentation-old","19","258326","0.0-11.0-1.0","SS1619739713443","trial","","40","500","1444.3599999940488","images/stimuli/spore_stims/complex_16_A_b.gif","images/stimuli/spore_stims/complex_17_A_a.gif","forced_short","","1","complex_dissimilar","images/stimuli/spore_stims/complex_17_A_a.gif","","","","",""
"","null","html-keyboard-response","20","259266","0.0-11.0-0.1","SS1619739713443","","","null","","","","","","<p><img src= images/blank.png width =""600"" height = ""600"" style=""position:fixed;top:50%; left:50%; transform: translate(-50%, -50%); border:5px solid black"">","","","","","","","",""
"","6325.2250000077765","sequential-stimulus-presentation-old","21","266098","0.0-11.0-1.1","SS1619739713443","trial","","40","500","6825.2250000077765","images/stimuli/spore_stims/complex_16_A_b.gif","images/stimuli/spore_stims/complex_17_A_a.gif","forced_short","","1","complex_dissimilar","images/stimuli/spore_stims/complex_17_A_a.gif","","","","",""
"","null","html-keyboard-response","22","266909","0.0-11.0-0.2","SS1619739713443","","","null","","","","","","<p><img src= images/blank.png width =""600"" height = ""600"" style=""position:fixed;top:50%; left:50%; transform: translate(-50%, -50%); border:5px solid black"">","","","","","","","",""
"","5622.564999997849","sequential-stimulus-presentation-old","23","273037","0.0-11.0-1.2","SS1619739713443","trial","","40","500","6122.564999997849","images/stimuli/spore_stims/complex_16_A_b.gif","images/stimuli/spore_stims/complex_17_A_a.gif","forced_short","","1","complex_dissimilar","images/stimuli/spore_stims/complex_17_A_a.gif","","","","",""
"","null","html-keyboard-response","24","274136","0.0-11.0-0.3","SS1619739713443","","","null","","","","","","<p><img src= images/blank.png width =""600"" height = ""600"" style=""position:fixed;top:50%; left:50%; transform: translate(-50%, -50%); border:5px solid black"">","","","","","","","",""
"","16469.485000008717","sequential-stimulus-presentation-old","25","291124","0.0-11.0-1.3","SS1619739713443","trial","","40","500","16969.485000008717","images/stimuli/spore_stims/complex_16_A_b.gif","images/stimuli/spore_stims/complex_17_A_a.gif","forced_short","","1","complex_dissimilar","images/stimuli/spore_stims/complex_17_A_a.gif","","","","",""
"","null","html-keyboard-response","26","291967","0.0-11.0-0.4","SS1619739713443","","","null","","","","","","<p><img src= images/blank.png width =""600"" height = ""600"" style=""position:fixed;top:50%; left:50%; transform: translate(-50%, -50%); border:5px solid black"">","","","","","","","",""
"","5972.154999995837","sequential-stimulus-presentation-old","27","298454","0.0-11.0-1.4","SS1619739713443","trial","","40","500","6472.154999995837","images/stimuli/spore_stims/complex_16_A_b.gif","images/stimuli/spore_stims/complex_17_A_a.gif","forced_short","","1","complex_dissimilar","images/stimuli/spore_stims/complex_17_A_a.gif","","","","",""
"","2147.9549999930896","survey-multi-choice","28","300606","0.0-12.0","SS1619739713443","math_question","","","","","","","","","","","","{""Q0"":""9""}","[0]","9","",""
"","null","html-keyboard-response","29","301624","0.0-13.0-0.0","SS1619739713443","","","null","","","","","","<p><img src= images/blank.png width =""600"" height = ""600"" style=""position:fixed;top:50%; left:50%; transform: translate(-50%, -50%); border:5px solid black"">","","","","","","","",""
"","445.74500000453554","sequential-stimulus-presentation-old","30","317077","0.0-13.0-1.0","SS1619739713443","trial","","40","500","945.7450000045355","images/stimuli/spore_stims/simple_15_A_a.gif","images/stimuli/spore_stims/simple_08_A_b.gif","forced_long","","2","simple_dissimilar","images/stimuli/spore_stims/simple_08_A_b.gif","","","","",""
"","null","html-keyboard-response","31","318279","0.0-13.0-0.1","SS1619739713443","","","null","","","","","","<p><img src= images/blank.png width =""600"" height = ""600"" style=""position:fixed;top:50%; left:50%; transform: translate(-50%, -50%); border:5px solid black"">","","","","","","","",""
"","956.415000022389","sequential-stimulus-presentation-old","32","319751","0.0-13.0-1.1","SS1619739713443","trial","","40","500","1456.415000022389","images/stimuli/spore_stims/simple_15_A_a.gif","images/stimuli/spore_stims/simple_08_A_b.gif","forced_long","","2","simple_dissimilar","images/stimuli/spore_stims/simple_15_A_a.gif","","","","",""
"","null","html-keyboard-response","33","320568","0.0-13.0-0.2","SS1619739713443","","","null","","","","","","<p><img src= images/blank.png width =""600"" height = ""600"" style=""position:fixed;top:50%; left:50%; transform: translate(-50%, -50%); border:5px solid black"">","","","","","","","",""
"","3876.300000003539","sequential-stimulus-presentation-old","34","324950","0.0-13.0-1.2","SS1619739713443","trial","","40","500","4376.300000003539","images/stimuli/spore_stims/simple_15_A_a.gif","images/stimuli/spore_stims/simple_08_A_b.gif","forced_long","","2","simple_dissimilar","images/stimuli/spore_stims/simple_08_A_b.gif","","","","",""
"","null","html-keyboard-response","35","326165","0.0-13.0-0.3","SS1619739713443","","","null","","","","","","<p><img src= images/blank.png width =""600"" height = ""600"" style=""position:fixed;top:50%; left:50%; transform: translate(-50%, -50%); border:5px solid black"">","","","","","","","",""
"","2695.9400000050664","sequential-stimulus-presentation-old","36","329373","0.0-13.0-1.3","SS1619739713443","trial","","40","500","3195.9400000050664","images/stimuli/spore_stims/simple_15_A_a.gif","images/stimuli/spore_stims/simple_08_A_b.gif","forced_long","","2","simple_dissimilar","images/stimuli/spore_stims/simple_08_A_b.gif","","","","",""
"","null","html-keyboard-response","37","330477","0.0-13.0-0.4","SS1619739713443","","","null","","","","","","<p><img src= images/blank.png width =""600"" height = ""600"" style=""position:fixed;top:50%; left:50%; transform: translate(-50%, -50%); border:5px solid black"">","","","","","","","",""
"","4458.119999995688","sequential-stimulus-presentation-old","38","335449","0.0-13.0-1.4","SS1619739713443","trial","","40","500","4958.119999995688","images/stimuli/spore_stims/simple_15_A_a.gif","images/stimuli/spore_stims/simple_08_A_b.gif","forced_long","","2","simple_dissimilar","images/stimuli/spore_stims/simple_08_A_b.gif","","","","",""
"","null","html-keyboard-response","39","336738","0.0-13.0-0.5","SS1619739713443","","","null","","","","","","<p><img src= images/blank.png width =""600"" height = ""600"" style=""position:fixed;top:50%; left:50%; transform: translate(-50%, -50%); border:5px solid black"">","","","","","","","",""
"","4074.1799999959767","sequential-stimulus-presentation-old","40","341321","0.0-13.0-1.5","SS1619739713443","trial","","40","500","4574.179999995977","images/stimuli/spore_stims/simple_15_A_a.gif","images/stimuli/spore_stims/simple_08_A_b.gif","forced_long","","2","simple_dissimilar","images/stimuli/spore_stims/simple_15_A_a.gif","","","","",""
"","3313.8549999857787","survey-multi-choice","41","344638","0.0-14.0","SS1619739713443","math_question","","","","","","","","","","","","{""Q0"":""13""}","[0]","13","",""
"","null","html-keyboard-response","42","345906","0.0-15.0-0.0","SS1619739713443","","","null","","","","","","<p><img src= images/blank.png width =""600"" height = ""600"" style=""position:fixed;top:50%; left:50%; transform: translate(-50%, -50%); border:5px solid black"">","","","","","","","",""
"","1632.9099999857135","sequential-stimulus-presentation-old","43","348047","0.0-15.0-1.0","SS1619739713443","trial","","40","500","2132.9099999857135","images/stimuli/spore_stims/simple_03_A_a.gif","images/stimuli/spore_stims/simple_16_A_b.gif","forced_short","","3","simple_dissimilar","images/stimuli/spore_stims/simple_16_A_b.gif","","","","",""
"","null","html-keyboard-response","44","349303","0.0-15.0-0.1","SS1619739713443","","","null","","","","","","<p><img src= images/blank.png width =""600"" height = ""600"" style=""position:fixed;top:50%; left:50%; transform: translate(-50%, -50%); border:5px solid black"">","","","","","","","",""
"","1154.8450000118464","sequential-stimulus-presentation-old","45","350964","0.0-15.0-1.1","SS1619739713443","trial","","40","500","1654.8450000118464","images/stimuli/spore_stims/simple_03_A_a.gif","images/stimuli/spore_stims/simple_16_A_b.gif","forced_short","","3","simple_dissimilar","images/stimuli/spore_stims/simple_16_A_b.gif","","","","",""
"","null","html-keyboard-response","46","352216","0.0-15.0-0.2","SS1619739713443","","","null","","","","","","<p><img src= images/blank.png width =""600"" height = ""600"" style=""position:fixed;top:50%; left:50%; transform: translate(-50%, -50%); border:5px solid black"">","","","","","","","",""
"","2422.084999998333","sequential-stimulus-presentation-old","47","355144","0.0-15.0-1.2","SS1619739713443","trial","","40","500","2922.084999998333","images/stimuli/spore_stims/simple_03_A_a.gif","images/stimuli/spore_stims/simple_16_A_b.gif","forced_short","","3","simple_dissimilar","images/stimuli/spore_stims/simple_16_A_b.gif","","","","",""
"","null","html-keyboard-response","48","356213","0.0-15.0-0.3","SS1619739713443","","","null","","","","","","<p><img src= images/blank.png width =""600"" height = ""600"" style=""position:fixed;top:50%; left:50%; transform: translate(-50%, -50%); border:5px solid black"">","","","","","","","",""
"","3096.7949999903794","sequential-stimulus-presentation-old","49","359817","0.0-15.0-1.3","SS1619739713443","trial","","40","500","3596.7949999903794","images/stimuli/spore_stims/simple_03_A_a.gif","images/stimuli/spore_stims/simple_16_A_b.gif","forced_short","","3","simple_dissimilar","images/stimuli/spore_stims/simple_16_A_b.gif","","","","",""
"","null","html-keyboard-response","50","361047","0.0-15.0-0.4","SS1619739713443","","","null","","","","","","<p><img src= images/blank.png width =""600"" height = ""600"" style=""position:fixed;top:50%; left:50%; transform: translate(-50%, -50%); border:5px solid black"">","","","","","","","",""
"","2678.6100000026636","sequential-stimulus-presentation-old","51","364240","0.0-15.0-1.4","SS1619739713443","trial","","40","500","3178.6100000026636","images/stimuli/spore_stims/simple_03_A_a.gif","images/stimuli/spore_stims/simple_16_A_b.gif","forced_short","","3","simple_dissimilar","images/stimuli/spore_stims/simple_16_A_b.gif","","","","",""
"","null","html-keyboard-response","52","365237","0.0-15.0-0.5","SS1619739713443","","","null","","","","","","<p><img src= images/blank.png width =""600"" height = ""600"" style=""position:fixed;top:50%; left:50%; transform: translate(-50%, -50%); border:5px solid black"">","","","","","","","",""
"","2988.004999991972","sequential-stimulus-presentation-old","53","368733","0.0-15.0-1.5","SS1619739713443","trial","","40","500","3488.004999991972","images/stimuli/spore_stims/simple_03_A_a.gif","images/stimuli/spore_stims/simple_16_A_b.gif","forced_short","","3","simple_dissimilar","images/stimuli/spore_stims/simple_03_A_a.gif","","","","",""
"","3269.1000000049826","survey-multi-choice","54","372007","0.0-16.0","SS1619739713443","math_question","","","","","","","","","","","","{""Q0"":""12""}","[0]","12","",""
"","null","html-keyboard-response","55","373010","0.0-17.0-0.0","SS1619739713443","","","null","","","","","","<p><img src= images/blank.png width =""600"" height = ""600"" style=""position:fixed;top:50%; left:50%; transform: translate(-50%, -50%); border:5px solid black"">","","","","","","","",""
"","6455.89499999187","sequential-stimulus-presentation-old","56","379973","0.0-17.0-1.0","SS1619739713443","trial","","40","500","6955.89499999187","images/stimuli/spore_stims/complex_12_A_b.gif","images/stimuli/spore_stims/complex_05_A_a.gif","self_paced","","4","complex_dissimilar","images/stimuli/spore_stims/complex_05_A_a.gif","","","","",""
"","null","html-keyboard-response","57","381062","0.0-17.0-0.1","SS1619739713443","","","null","","","","","","<p><img src= images/blank.png width =""600"" height = ""600"" style=""position:fixed;top:50%; left:50%; transform: translate(-50%, -50%); border:5px solid black"">","","","","","","","",""
"","5577.159999986179","sequential-stimulus-presentation-old","58","387146","0.0-17.0-1.1","SS1619739713443","trial","","40","500","6077.159999986179","images/stimuli/spore_stims/complex_12_A_b.gif","images/stimuli/spore_stims/complex_05_A_a.gif","self_paced","","4","complex_dissimilar","images/stimuli/spore_stims/complex_05_A_a.gif","","","","",""
"","null","html-keyboard-response","59","388067","0.0-17.0-0.2","SS1619739713443","","","null","","","","","","<p><img src= images/blank.png width =""600"" height = ""600"" style=""position:fixed;top:50%; left:50%; transform: translate(-50%, -50%); border:5px solid black"">","","","","","","","",""
"","1448.369999998249","sequential-stimulus-presentation-old","60","390022","0.0-17.0-1.2","SS1619739713443","trial","","40","500","1948.369999998249","images/stimuli/spore_stims/complex_12_A_b.gif","images/stimuli/spore_stims/complex_05_A_a.gif","self_paced","","4","complex_dissimilar","images/stimuli/spore_stims/complex_05_A_a.gif","","","","",""
"","null","html-keyboard-response","61","391027","0.0-17.0-0.3","SS1619739713443","","","null","","","","","","<p><img src= images/blank.png width =""600"" height = ""600"" style=""position:fixed;top:50%; left:50%; transform: translate(-50%, -50%); border:5px solid black"">","","","","","","","",""
"","2990.3599999961443","sequential-stimulus-presentation-old","62","394530","0.0-17.0-1.3","SS1619739713443","trial","","40","500","3490.3599999961443","images/stimuli/spore_stims/complex_12_A_b.gif","images/stimuli/spore_stims/complex_05_A_a.gif","self_paced","","4","complex_dissimilar","images/stimuli/spore_stims/complex_05_A_a.gif","","","","",""
"","null","html-keyboard-response","63","395558","0.0-17.0-0.4","SS1619739713443","","","null","","","","","","<p><img src= images/blank.png width =""600"" height = ""600"" style=""position:fixed;top:50%; left:50%; transform: translate(-50%, -50%); border:5px solid black"">","","","","","","","",""
"","5178.985000005923","sequential-stimulus-presentation-old","64","401244","0.0-17.0-1.4","SS1619739713443","trial","","40","500","5678.985000005923","images/stimuli/spore_stims/complex_12_A_b.gif","images/stimuli/spore_stims/complex_05_A_a.gif","self_paced","","4","complex_dissimilar","images/stimuli/spore_stims/complex_12_A_b.gif","","","","",""
"","null","html-keyboard-response","65","402399","0.0-17.0-0.5","SS1619739713443","","","null","","","","","","<p><img src= images/blank.png width =""600"" height = ""600"" style=""position:fixed;top:50%; left:50%; transform: translate(-50%, -50%); border:5px solid black"">","","","","","","","",""
"","4657.789999997476","sequential-stimulus-presentation-old","66","407563","0.0-17.0-1.5","SS1619739713443","trial","","40","500","5157.789999997476","images/stimuli/spore_stims/complex_12_A_b.gif","images/stimuli/spore_stims/complex_05_A_a.gif","self_paced","","4","complex_dissimilar","images/stimuli/spore_stims/complex_12_A_b.gif","","","","",""
"","2998.4549999935552","survey-multi-choice","67","410567","0.0-18.0","SS1619739713443","math_question","","","","","","","","","","","","{""Q0"":""13""}","[0]","13","",""
"","null","html-keyboard-response","68","411741","0.0-19.0-0.0","SS1619739713443","","","null","","","","","","<p><img src= images/blank.png width =""600"" height = ""600"" style=""position:fixed;top:50%; left:50%; transform: translate(-50%, -50%); border:5px solid black"">","","","","","","","",""
"","680.610000010347","sequential-stimulus-presentation-old","69","412930","0.0-19.0-1.0","SS1619739713443","trial","","40","500","1180.610000010347","images/stimuli/spore_stims/simple_14_A_b.gif","images/stimuli/spore_stims/simple_04_A_a.gif","forced_short","","5","simple_dissimilar","images/stimuli/spore_stims/simple_04_A_a.gif","","","","",""
"","null","html-keyboard-response","70","413764","0.0-19.0-0.1","SS1619739713443","","","null","","","","","","<p><img src= images/blank.png width =""600"" height = ""600"" style=""position:fixed;top:50%; left:50%; transform: translate(-50%, -50%); border:5px solid black"">","","","","","","","",""
"","5585.980000003474","sequential-stimulus-presentation-old","71","419867","0.0-19.0-1.1","SS1619739713443","trial","","40","500","6085.980000003474","images/stimuli/spore_stims/simple_14_A_b.gif","images/stimuli/spore_stims/simple_04_A_a.gif","forced_short","","5","simple_dissimilar","images/stimuli/spore_stims/simple_04_A_a.gif","","","","",""
"","null","html-keyboard-response","72","420710","0.0-19.0-0.2","SS1619739713443","","","null","","","","","","<p><img src= images/blank.png width =""600"" height = ""600"" style=""position:fixed;top:50%; left:50%; transform: translate(-50%, -50%); border:5px solid black"">","","","","","","","",""
"","2461.879999988014","sequential-stimulus-presentation-old","73","423680","0.0-19.0-1.2","SS1619739713443","trial","","40","500","2961.879999988014","images/stimuli/spore_stims/simple_14_A_b.gif","images/stimuli/spore_stims/simple_04_A_a.gif","forced_short","","5","simple_dissimilar","images/stimuli/spore_stims/simple_04_A_a.gif","","","","",""
"","null","html-keyboard-response","74","424820","0.0-19.0-0.3","SS1619739713443","","","null","","","","","","<p><img src= images/blank.png width =""600"" height = ""600"" style=""position:fixed;top:50%; left:50%; transform: translate(-50%, -50%); border:5px solid black"">","","","","","","","",""
"","694.1400000068825","sequential-stimulus-presentation-old","75","426021","0.0-19.0-1.3","SS1619739713443","trial","","40","500","1194.1400000068825","images/stimuli/spore_stims/simple_14_A_b.gif","images/stimuli/spore_stims/simple_04_A_a.gif","forced_short","","5","simple_dissimilar","images/stimuli/spore_stims/simple_04_A_a.gif","","","","",""
"","null","html-keyboard-response","76","427133","0.0-19.0-0.4","SS1619739713443","","","null","","","","","","<p><img src= images/blank.png width =""600"" height = ""600"" style=""position:fixed;top:50%; left:50%; transform: translate(-50%, -50%); border:5px solid black"">","","","","","","","",""
"","2993.7750000099186","sequential-stimulus-presentation-old","77","430634","0.0-19.0-1.4","SS1619739713443","trial","","40","500","3493.7750000099186","images/stimuli/spore_stims/simple_14_A_b.gif","images/stimuli/spore_stims/simple_04_A_a.gif","forced_short","","5","simple_dissimilar","images/stimuli/spore_stims/simple_14_A_b.gif","","","","",""
"","2335.9399999899324","survey-multi-choice","78","432974","0.0-20.0","SS1619739713443","math_question","","","","","","","","","","","","{""Q0"":""5""}","[0]","5","",""
"","null","html-keyboard-response","79","434171","0.0-21.0-0.0","SS1619739713443","","","null","","","","","","<p><img src= images/blank.png width =""600"" height = ""600"" style=""position:fixed;top:50%; left:50%; transform: translate(-50%, -50%); border:5px solid black"">","","","","","","","",""
"","413.3399999991525","sequential-stimulus-presentation-old","80","449593","0.0-21.0-1.0","SS1619739713443","trial","","40","500","913.3399999991525","images/stimuli/spore_stims/complex_20_A_b.gif","images/stimuli/spore_stims/complex_13_A_a.gif","forced_long","","6","complex_dissimilar","images/stimuli/spore_stims/complex_13_A_a.gif","","","","",""
"","null","html-keyboard-response","81","450626","0.0-21.0-0.1","SS1619739713443","","","null","","","","","","<p><img src= images/blank.png width =""600"" height = ""600"" style=""position:fixed;top:50%; left:50%; transform: translate(-50%, -50%); border:5px solid black"">","","","","","","","",""
"","1454.7050000110175","sequential-stimulus-presentation-old","82","452588","0.0-21.0-1.1","SS1619739713443","trial","","40","500","1954.7050000110175","images/stimuli/spore_stims/complex_20_A_b.gif","images/stimuli/spore_stims/complex_13_A_a.gif","forced_long","","6","complex_dissimilar","images/stimuli/spore_stims/complex_13_A_a.gif","","","","",""
"","null","html-keyboard-response","83","453521","0.0-21.0-0.2","SS1619739713443","","","null","","","","","","<p><img src= images/blank.png width =""600"" height = ""600"" style=""position:fixed;top:50%; left:50%; transform: translate(-50%, -50%); border:5px solid black"">","","","","","","","",""
"","2851.6949999902863","sequential-stimulus-presentation-old","84","456889","0.0-21.0-1.2","SS1619739713443","trial","","40","500","3351.6949999902863","images/stimuli/spore_stims/complex_20_A_b.gif","images/stimuli/spore_stims/complex_13_A_a.gif","forced_long","","6","complex_dissimilar","images/stimuli/spore_stims/complex_13_A_a.gif","","","","",""
"","null","html-keyboard-response","85","458024","0.0-21.0-0.3","SS1619739713443","","","null","","","","","","<p><img src= images/blank.png width =""600"" height = ""600"" style=""position:fixed;top:50%; left:50%; transform: translate(-50%, -50%); border:5px solid black"">","","","","","","","",""
"","1371.2149999919347","sequential-stimulus-presentation-old","86","459903","0.0-21.0-1.3","SS1619739713443","trial","","40","500","1871.2149999919347","images/stimuli/spore_stims/complex_20_A_b.gif","images/stimuli/spore_stims/complex_13_A_a.gif","forced_long","","6","complex_dissimilar","images/stimuli/spore_stims/complex_13_A_a.gif","","","","",""
"","null","html-keyboard-response","87","461184","0.0-21.0-0.4","SS1619739713443","","","null","","","","","","<p><img src= images/blank.png width =""600"" height = ""600"" style=""position:fixed;top:50%; left:50%; transform: translate(-50%, -50%); border:5px solid black"">","","","","","","","",""
"","1444.9549999844749","sequential-stimulus-presentation-old","88","463137","0.0-21.0-1.4","SS1619739713443","trial","","40","500","1944.9549999844749","images/stimuli/spore_stims/complex_20_A_b.gif","images/stimuli/spore_stims/complex_13_A_a.gif","forced_long","","6","complex_dissimilar","images/stimuli/spore_stims/complex_13_A_a.gif","","","","",""
"","4031.700000021374","survey-multi-choice","89","467175","0.0-22.0","SS1619739713443","math_question","","","","","","","","","","","","{""Q0"":""12""}","[0]","12","",""
"","null","html-keyboard-response","90","469364","0.0-23.0-0.0","SS1619739713443","","","null","","","","","","<p><img src= images/blank.png width =""600"" height = ""600"" style=""position:fixed;top:50%; left:50%; transform: translate(-50%, -50%); border:5px solid black"">","","","","","","","",""
"","3218.880000000354","sequential-stimulus-presentation-old","91","473091","0.0-23.0-1.0","SS1619739713443","trial","","40","500","3718.880000000354","images/stimuli/spore_stims/simple_05_A_b.gif","images/stimuli/spore_stims/simple_07_A_a.gif","self_paced","","7","simple_dissimilar","images/stimuli/spore_stims/simple_07_A_a.gif","","","","",""
"","null","html-keyboard-response","92","473982","0.0-23.0-0.1","SS1619739713443","","","null","","","","","","<p><img src= images/blank.png width =""600"" height = ""600"" style=""position:fixed;top:50%; left:50%; transform: translate(-50%, -50%); border:5px solid black"">","","","","","","","",""
"","2043.4949999907985","sequential-stimulus-presentation-old","93","476533","0.0-23.0-1.1","SS1619739713443","trial","","40","500","2543.4949999907985","images/stimuli/spore_stims/simple_05_A_b.gif","images/stimuli/spore_stims/simple_07_A_a.gif","self_paced","","7","simple_dissimilar","images/stimuli/spore_stims/simple_07_A_a.gif","","","","",""
"","null","html-keyboard-response","94","477484","0.0-23.0-0.2","SS1619739713443","","","null","","","","","","<p><img src= images/blank.png width =""600"" height = ""600"" style=""position:fixed;top:50%; left:50%; transform: translate(-50%, -50%); border:5px solid black"">","","","","","","","",""
"","1661.2549999845214","sequential-stimulus-presentation-old","95","479654","0.0-23.0-1.2","SS1619739713443","trial","","40","500","2161.2549999845214","images/stimuli/spore_stims/simple_05_A_b.gif","images/stimuli/spore_stims/simple_07_A_a.gif","self_paced","","7","simple_dissimilar","images/stimuli/spore_stims/simple_07_A_a.gif","","","","",""
"","null","html-keyboard-response","96","480868","0.0-23.0-0.3","SS1619739713443","","","null","","","","","","<p><img src= images/blank.png width =""600"" height = ""600"" style=""position:fixed;top:50%; left:50%; transform: translate(-50%, -50%); border:5px solid black"">","","","","","","","",""
"","1687.2300000104588","sequential-stimulus-presentation-old","97","483066","0.0-23.0-1.3","SS1619739713443","trial","","40","500","2187.2300000104588","images/stimuli/spore_stims/simple_05_A_b.gif","images/stimuli/spore_stims/simple_07_A_a.gif","self_paced","","7","simple_dissimilar","images/stimuli/spore_stims/simple_07_A_a.gif","","","","",""
"","null","html-keyboard-response","98","483940","0.0-23.0-0.4","SS1619739713443","","","null","","","","","","<p><img src= images/blank.png width =""600"" height = ""600"" style=""position:fixed;top:50%; left:50%; transform: translate(-50%, -50%); border:5px solid black"">","","","","","","","",""
"","1920.2450000157114","sequential-stimulus-presentation-old","99","486368","0.0-23.0-1.4","SS1619739713443","trial","","40","500","2420.2450000157114","images/stimuli/spore_stims/simple_05_A_b.gif","images/stimuli/spore_stims/simple_07_A_a.gif","self_paced","","7","simple_dissimilar","images/stimuli/spore_stims/simple_07_A_a.gif","","","","",""
"","null","html-keyboard-response","100","487334","0.0-23.0-0.5","SS1619739713443","","","null","","","","","","<p><img src= images/blank.png width =""600"" height = ""600"" style=""position:fixed;top:50%; left:50%; transform: translate(-50%, -50%); border:5px solid black"">","","","","","","","",""
"","1516.139999992447","sequential-stimulus-presentation-old","101","489359","0.0-23.0-1.5","SS1619739713443","trial","","40","500","2016.139999992447","images/stimuli/spore_stims/simple_05_A_b.gif","images/stimuli/spore_stims/simple_07_A_a.gif","self_paced","","7","simple_dissimilar","images/stimuli/spore_stims/simple_05_A_b.gif","","","","",""
"","2714.365000021644","survey-multi-choice","102","492079","0.0-24.0","SS1619739713443","math_question","","","","","","","","","","","","{""Q0"":""13""}","[0]","13","",""
"","null","html-keyboard-response","103","492960","0.0-25.0-0.0","SS1619739713443","","","null","","","","","","<p><img src= images/blank.png width =""600"" height = ""600"" style=""position:fixed;top:50%; left:50%; transform: translate(-50%, -50%); border:5px solid black"">","","","","","","","",""
"","544.3999999843072","sequential-stimulus-presentation-old","104","508513","0.0-25.0-1.0","SS1619739713443","trial","","40","500","1044.3999999843072","images/stimuli/spore_stims/complex_05_A_b.gif","images/stimuli/spore_stims/complex_14_A_a.gif","forced_long","","8","complex_dissimilar","images/stimuli/spore_stims/complex_14_A_a.gif","","","","",""
"","null","html-keyboard-response","105","509541","0.0-25.0-0.1","SS1619739713443","","","null","","","","","","<p><img src= images/blank.png width =""600"" height = ""600"" style=""position:fixed;top:50%; left:50%; transform: translate(-50%, -50%); border:5px solid black"">","","","","","","","",""
"","556.8600000115111","sequential-stimulus-presentation-old","106","510607","0.0-25.0-1.1","SS1619739713443","trial","","40","500","1056.8600000115111","images/stimuli/spore_stims/complex_05_A_b.gif","images/stimuli/spore_stims/complex_14_A_a.gif","forced_long","","8","complex_dissimilar","images/stimuli/spore_stims/complex_14_A_a.gif","","","","",""
"","null","html-keyboard-response","107","511532","0.0-25.0-0.2","SS1619739713443","","","null","","","","","","<p><img src= images/blank.png width =""600"" height = ""600"" style=""position:fixed;top:50%; left:50%; transform: translate(-50%, -50%); border:5px solid black"">","","","","","","","",""
"","546.0299999976996","sequential-stimulus-presentation-old","108","512586","0.0-25.0-1.2","SS1619739713443","trial","","40","500","1046.0299999976996","images/stimuli/spore_stims/complex_05_A_b.gif","images/stimuli/spore_stims/complex_14_A_a.gif","forced_long","","8","complex_dissimilar","images/stimuli/spore_stims/complex_14_A_a.gif","","","","",""
"","null","html-keyboard-response","109","513901","0.0-25.0-0.3","SS1619739713443","","","null","","","","","","<p><img src= images/blank.png width =""600"" height = ""600"" style=""position:fixed;top:50%; left:50%; transform: translate(-50%, -50%); border:5px solid black"">","","","","","","","",""
"","598.8300000026356","sequential-stimulus-presentation-old","110","515009","0.0-25.0-1.3","SS1619739713443","trial","","40","500","1098.8300000026356","images/stimuli/spore_stims/complex_05_A_b.gif","images/stimuli/spore_stims/complex_14_A_a.gif","forced_long","","8","complex_dissimilar","images/stimuli/spore_stims/complex_14_A_a.gif","","","","",""
"","4575.6600000022445","survey-multi-choice","111","519591","0.0-26.0","SS1619739713443","math_question","","","","","","","","","","","","{""Q0"":""10""}","[0]","10","",""
"","null","html-keyboard-response","112","520565","0.0-27.0-0.0","SS1619739713443","","","null","","","","","","<p><img src= images/blank.png width =""600"" height = ""600"" style=""position:fixed;top:50%; left:50%; transform: translate(-50%, -50%); border:5px solid black"">","","","","","","","",""
"","562.7299999759998","sequential-stimulus-presentation-old","113","536147","0.0-27.0-1.0","SS1619739713443","trial","","40","500","1062.7299999759998","images/stimuli/spore_stims/simple_14_A_a.gif","images/stimuli/spore_stims/simple_10_A_b.gif","forced_long","","9","simple_dissimilar","images/stimuli/spore_stims/simple_10_A_b.gif","","","","",""
"","null","html-keyboard-response","114","537420","0.0-27.0-0.1","SS1619739713443","","","null","","","","","","<p><img src= images/blank.png width =""600"" height = ""600"" style=""position:fixed;top:50%; left:50%; transform: translate(-50%, -50%); border:5px solid black"">","","","","","","","",""
"","1043.3199999970384","sequential-stimulus-presentation-old","115","538972","0.0-27.0-1.1","SS1619739713443","trial","","40","500","1543.3199999970384","images/stimuli/spore_stims/simple_14_A_a.gif","images/stimuli/spore_stims/simple_10_A_b.gif","forced_long","","9","simple_dissimilar","images/stimuli/spore_stims/simple_10_A_b.gif","","","","",""
"","null","html-keyboard-response","116","540038","0.0-27.0-0.2","SS1619739713443","","","null","","","","","","<p><img src= images/blank.png width =""600"" height = ""600"" style=""position:fixed;top:50%; left:50%; transform: translate(-50%, -50%); border:5px solid black"">","","","","","","","",""
"","1513.4350000007544","sequential-stimulus-presentation-old","117","542059","0.0-27.0-1.2","SS1619739713443","trial","","40","500","2013.4350000007544","images/stimuli/spore_stims/simple_14_A_a.gif","images/stimuli/spore_stims/simple_10_A_b.gif","forced_long","","9","simple_dissimilar","images/stimuli/spore_stims/simple_10_A_b.gif","","","","",""
"","null","html-keyboard-response","118","542891","0.0-27.0-0.3","SS1619739713443","","","null","","","","","","<p><img src= images/blank.png width =""600"" height = ""600"" style=""position:fixed;top:50%; left:50%; transform: translate(-50%, -50%); border:5px solid black"">","","","","","","","",""
"","1705.3900000173599","sequential-stimulus-presentation-old","119","545112","0.0-27.0-1.3","SS1619739713443","trial","","40","500","2205.39000001736","images/stimuli/spore_stims/simple_14_A_a.gif","images/stimuli/spore_stims/simple_10_A_b.gif","forced_long","","9","simple_dissimilar","images/stimuli/spore_stims/simple_10_A_b.gif","","","","",""
"","null","html-keyboard-response","120","546166","0.0-27.0-0.4","SS1619739713443","","","null","","","","","","<p><img src= images/blank.png width =""600"" height = ""600"" style=""position:fixed;top:50%; left:50%; transform: translate(-50%, -50%); border:5px solid black"">","","","","","","","",""
"","556.1900000029709","sequential-stimulus-presentation-old","121","547230","0.0-27.0-1.4","SS1619739713443","trial","","40","500","1056.190000002971","images/stimuli/spore_stims/simple_14_A_a.gif","images/stimuli/spore_stims/simple_10_A_b.gif","forced_long","","9","simple_dissimilar","images/stimuli/spore_stims/simple_10_A_b.gif","","","","",""
"","null","html-keyboard-response","122","548413","0.0-27.0-0.5","SS1619739713443","","","null","","","","","","<p><img src= images/blank.png width =""600"" height = ""600"" style=""position:fixed;top:50%; left:50%; transform: translate(-50%, -50%); border:5px solid black"">","","","","","","","",""
"","1907.340000005206","sequential-stimulus-presentation-old","123","550834","0.0-27.0-1.5","SS1619739713443","trial","","40","500","2407.340000005206","images/stimuli/spore_stims/simple_14_A_a.gif","images/stimuli/spore_stims/simple_10_A_b.gif","forced_long","","9","simple_dissimilar","images/stimuli/spore_stims/simple_14_A_a.gif","","","","",""
"","2317.9649999947287","survey-multi-choice","124","553158","0.0-28.0","SS1619739713443","math_question","","","","","","","","","","","","{""Q0"":""8""}","[0]","8","",""
"","null","html-keyboard-response","125","554385","0.0-29.0-0.0","SS1619739713443","","","null","","","","","","<p><img src= images/blank.png width =""600"" height = ""600"" style=""position:fixed;top:50%; left:50%; transform: translate(-50%, -50%); border:5px solid black"">","","","","","","","",""
"","724.145000014687","sequential-stimulus-presentation-old","126","555617","0.0-29.0-1.0","SS1619739713443","trial","","40","500","1224.145000014687","images/stimuli/spore_stims/complex_04_A_a.gif","images/stimuli/spore_stims/complex_02_A_b.gif","self_paced","","10","complex_dissimilar","images/stimuli/spore_stims/complex_02_A_b.gif","","","","",""
"","null","html-keyboard-response","127","556767","0.0-29.0-0.1","SS1619739713443","","","null","","","","","","<p><img src= images/blank.png width =""600"" height = ""600"" style=""position:fixed;top:50%; left:50%; transform: translate(-50%, -50%); border:5px solid black"">","","","","","","","",""
"","1006.9749999966007","sequential-stimulus-presentation-old","128","558290","0.0-29.0-1.1","SS1619739713443","trial","","40","500","1506.9749999966007","images/stimuli/spore_stims/complex_04_A_a.gif","images/stimuli/spore_stims/complex_02_A_b.gif","self_paced","","10","complex_dissimilar","images/stimuli/spore_stims/complex_04_A_a.gif","","","","",""
"","null","html-keyboard-response","129","559448","0.0-29.0-0.2","SS1619739713443","","","null","","","","","","<p><img src= images/blank.png width =""600"" height = ""600"" style=""position:fixed;top:50%; left:50%; transform: translate(-50%, -50%); border:5px solid black"">","","","","","","","",""
"","573.7549999903422","sequential-stimulus-presentation-old","130","560531","0.0-29.0-1.2","SS1619739713443","trial","","40","500","1073.7549999903422","images/stimuli/spore_stims/complex_04_A_a.gif","images/stimuli/spore_stims/complex_02_A_b.gif","self_paced","","10","complex_dissimilar","images/stimuli/spore_stims/complex_02_A_b.gif","","","","",""
"","null","html-keyboard-response","131","561441","0.0-29.0-0.3","SS1619739713443","","","null","","","","","","<p><img src= images/blank.png width =""600"" height = ""600"" style=""position:fixed;top:50%; left:50%; transform: translate(-50%, -50%); border:5px solid black"">","","","","","","","",""
"","2195.110000000568","sequential-stimulus-presentation-old","132","564145","0.0-29.0-1.3","SS1619739713443","trial","","40","500","2695.110000000568","images/stimuli/spore_stims/complex_04_A_a.gif","images/stimuli/spore_stims/complex_02_A_b.gif","self_paced","","10","complex_dissimilar","images/stimuli/spore_stims/complex_02_A_b.gif","","","","",""
"","2655.674999987241","survey-multi-choice","133","566807","0.0-30.0","SS1619739713443","math_question","","","","","","","","","","","","{""Q0"":""9""}","[0]","9","",""
"","null","html-keyboard-response","134","568039","0.0-31.0-0.0","SS1619739713443","","","null","","","","","","<p><img src= images/blank.png width =""600"" height = ""600"" style=""position:fixed;top:50%; left:50%; transform: translate(-50%, -50%); border:5px solid black"">","","","","","","","",""
"","1424.1600000241306","sequential-stimulus-presentation-old","135","569973","0.0-31.0-1.0","SS1619739713443","trial","","40","500","1924.1600000241306","images/stimuli/spore_stims/complex_13_A_b.gif","images/stimuli/spore_stims/complex_07_A_a.gif","forced_short","","11","complex_dissimilar","images/stimuli/spore_stims/complex_07_A_a.gif","","","","",""
"","null","html-keyboard-response","136","570907","0.0-31.0-0.1","SS1619739713443","","","null","","","","","","<p><img src= images/blank.png width =""600"" height = ""600"" style=""position:fixed;top:50%; left:50%; transform: translate(-50%, -50%); border:5px solid black"">","","","","","","","",""
"","1334.35499999905","sequential-stimulus-presentation-old","137","572752","0.0-31.0-1.1","SS1619739713443","trial","","40","500","1834.35499999905","images/stimuli/spore_stims/complex_13_A_b.gif","images/stimuli/spore_stims/complex_07_A_a.gif","forced_short","","11","complex_dissimilar","images/stimuli/spore_stims/complex_07_A_a.gif","","","","",""
"","null","html-keyboard-response","138","573714","0.0-31.0-0.2","SS1619739713443","","","null","","","","","","<p><img src= images/blank.png width =""600"" height = ""600"" style=""position:fixed;top:50%; left:50%; transform: translate(-50%, -50%); border:5px solid black"">","","","","","","","",""
"","1226.410000002943","sequential-stimulus-presentation-old","139","575449","0.0-31.0-1.2","SS1619739713443","trial","","40","500","1726.410000002943","images/stimuli/spore_stims/complex_13_A_b.gif","images/stimuli/spore_stims/complex_07_A_a.gif","forced_short","","11","complex_dissimilar","images/stimuli/spore_stims/complex_07_A_a.gif","","","","",""
"","null","html-keyboard-response","140","576534","0.0-31.0-0.3","SS1619739713443","","","null","","","","","","<p><img src= images/blank.png width =""600"" height = ""600"" style=""position:fixed;top:50%; left:50%; transform: translate(-50%, -50%); border:5px solid black"">","","","","","","","",""
"","2152.2249999979977","sequential-stimulus-presentation-old","141","579196","0.0-31.0-1.3","SS1619739713443","trial","","40","500","2652.2249999979977","images/stimuli/spore_stims/complex_13_A_b.gif","images/stimuli/spore_stims/complex_07_A_a.gif","forced_short","","11","complex_dissimilar","images/stimuli/spore_stims/complex_13_A_b.gif","","","","",""
"","null","html-keyboard-response","142","580069","0.0-31.0-0.4","SS1619739713443","","","null","","","","","","<p><img src= images/blank.png width =""600"" height = ""600"" style=""position:fixed;top:50%; left:50%; transform: translate(-50%, -50%); border:5px solid black"">","","","","","","","",""
"","2795.4199999803677","sequential-stimulus-presentation-old","143","583372","0.0-31.0-1.4","SS1619739713443","trial","","40","500","3295.4199999803677","images/stimuli/spore_stims/complex_13_A_b.gif","images/stimuli/spore_stims/complex_07_A_a.gif","forced_short","","11","complex_dissimilar","images/stimuli/spore_stims/complex_13_A_b.gif","","","","",""
"","null","html-keyboard-response","144","584239","0.0-31.0-0.5","SS1619739713443","","","null","","","","","","<p><img src= images/blank.png width =""600"" height = ""600"" style=""position:fixed;top:50%; left:50%; transform: translate(-50%, -50%); border:5px solid black"">","","","","","","","",""
"","2826.7350000096485","sequential-stimulus-presentation-old","145","587575","0.0-31.0-1.5","SS1619739713443","trial","","40","500","3326.7350000096485","images/stimuli/spore_stims/complex_13_A_b.gif","images/stimuli/spore_stims/complex_07_A_a.gif","forced_short","","11","complex_dissimilar","images/stimuli/spore_stims/complex_07_A_a.gif","","","","",""
"[{""page_index"":0,""viewing_time"":63728.63500000676}]","63729.315000004135","instructions","146","651310","0.0-32.0","SS1619739713443","instructions","","","","","","","","","","","","","","","",""
"","6869.539999985136","survey-likert","147","658191","0.0-33.0","SS1619739713443","similarity_question","","","","","","","","","","","","{""Q0"":4}","[0]","","images/stimuli/spore_stims/simple_20_A_a.gif","images/stimuli/spore_stims/simple_12_A_b.gif"
"","6271.150000015041","survey-likert","148","664472","0.0-34.0","SS1619739713443","similarity_question","","","","","","","","","","","","{""Q0"":0}","[0]","","images/stimuli/spore_stims/complex_13_A_b.gif","images/stimuli/spore_stims/complex_07_A_a.gif"
"","3980.3499999979977","survey-likert","149","668462","0.0-35.0","SS1619739713443","similarity_question","","","","","","","","","","","","{""Q0"":1}","[0]","","images/stimuli/spore_stims/complex_04_A_a.gif","images/stimuli/spore_stims/complex_02_A_b.gif"
"","3293.470000004163","survey-likert","150","671767","0.0-36.0","SS1619739713443","similarity_question","","","","","","","","","","","","{""Q0"":2}","[0]","","images/stimuli/spore_stims/simple_04_A_a.gif","images/stimuli/spore_stims/simple_14_A_b.gif"
"","6174.869999988005","survey-likert","151","677951","0.0-37.0","SS1619739713443","similarity_question","","","","","","","","","","","","{""Q0"":2}","[0]","","images/stimuli/spore_stims/complex_16_A_b.gif","images/stimuli/spore_stims/complex_17_A_a.gif"
"","7502.020000014454","survey-likert","152","685463","0.0-38.0","SS1619739713443","similarity_question","","","","","","","","","","","","{""Q0"":2}","[0]","","images/stimuli/spore_stims/complex_14_A_a.gif","images/stimuli/spore_stims/complex_05_A_b.gif"
"","4222.255000000587","survey-likert","153","689695","0.0-39.0","SS1619739713443","similarity_question","","","","","","","","","","","","{""Q0"":4}","[0]","","images/stimuli/spore_stims/simple_15_A_a.gif","images/stimuli/spore_stims/simple_08_A_b.gif"
"","4405.1650000037625","survey-likert","154","694111","0.0-40.0","SS1619739713443","similarity_question","","","","","","","","","","","","{""Q0"":4}","[0]","","images/stimuli/spore_stims/complex_05_A_a.gif","images/stimuli/spore_stims/complex_12_A_b.gif"
"","4485.575000027893","survey-likert","155","698607","0.0-41.0","SS1619739713443","similarity_question","","","","","","","","","","","","{""Q0"":5}","[0]","","images/stimuli/spore_stims/complex_20_A_b.gif","images/stimuli/spore_stims/complex_13_A_a.gif"
"","4454.905000020517","survey-likert","156","703071","0.0-42.0","SS1619739713443","similarity_question","","","","","","","","","","","","{""Q0"":3}","[0]","","images/stimuli/spore_stims/simple_14_A_a.gif","images/stimuli/spore_stims/simple_10_A_b.gif"
"","3462.1249999909196","survey-likert","157","706542","0.0-43.0","SS1619739713443","similarity_question","","","","","","","","","","","","{""Q0"":2}","[0]","","images/stimuli/spore_stims/simple_07_A_a.gif","images/stimuli/spore_stims/simple_05_A_b.gif"
"","3135.855000000447","survey-likert","158","709688","0.0-44.0","SS1619739713443","similarity_question","","","","","","","","","","","","{""Q0"":3}","[0]","","images/stimuli/spore_stims/simple_16_A_b.gif","images/stimuli/spore_stims/simple_03_A_a.gif"
"[{""page_index"":0,""viewing_time"":2999.8650000197813}]","3000.430000014603","instructions","159","712695","0.0-45.0","SS1619739713443","instructions","","","","","","","","","","","","","","","",""
"","3822.49000002048","survey-likert","160","716527","0.0-46.0","SS1619739713443","","","","","","","","","images/stimuli/spore_stims/simple_14_A_a.gif","","","","{""Q0"":1}","[0]","","",""
"","2109.7200000076555","survey-likert","161","718647","0.0-47.0","SS1619739713443","","","","","","","","","images/stimuli/spore_stims/simple_16_A_b.gif","","","","{""Q0"":1}","[0]","","",""
"","3550.7050000014715","survey-likert","162","722208","0.0-48.0","SS1619739713443","","","","","","","","","images/stimuli/spore_stims/complex_07_A_a.gif","","","","{""Q0"":5}","[0]","","",""
"","4876.539999997476","survey-likert","163","727095","0.0-49.0","SS1619739713443","","","","","","","","","images/stimuli/spore_stims/complex_02_A_b.gif","","","","{""Q0"":4}","[0]","","",""
"","2286.070000001928","survey-likert","164","729391","0.0-50.0","SS1619739713443","","","","","","","","","images/stimuli/spore_stims/simple_05_A_b.gif","","","","{""Q0"":0}","[0]","","",""
"","28774.695000000065","survey-likert","165","758175","0.0-51.0","SS1619739713443","","","","","","","","","images/stimuli/spore_stims/simple_04_A_a.gif","","","","{""Q0"":0}","[0]","","",""
"","4389.680000022054","survey-likert","166","762575","0.0-52.0","SS1619739713443","","","","","","","","","images/stimuli/spore_stims/complex_14_A_a.gif","","","","{""Q0"":5}","[0]","","",""
"","5503.389999998035","survey-likert","167","768087","0.0-53.0","SS1619739713443","","","","","","","","","images/stimuli/spore_stims/complex_13_A_a.gif","","","","{""Q0"":5}","[0]","","",""
"","3301.8450000090525","survey-likert","168","771399","0.0-54.0","SS1619739713443","","","","","","","","","images/stimuli/spore_stims/complex_12_A_b.gif","","","","{""Q0"":6}","[0]","","",""
"","3452.609999978449","survey-likert","169","774864","0.0-55.0","SS1619739713443","","","","","","","","","images/stimuli/spore_stims/simple_12_A_b.gif","","","","{""Q0"":1}","[0]","","",""
"","1965.9699999901932","survey-likert","170","776839","0.0-56.0","SS1619739713443","","","","","","","","","images/stimuli/spore_stims/simple_15_A_a.gif","","","","{""Q0"":1}","[0]","","",""
"","3724.275000015041","survey-likert","171","780575","0.0-57.0","SS1619739713443","","","","","","","","","images/stimuli/spore_stims/complex_17_A_a.gif","","","","{""Q0"":4}","[0]","","",""
"[{""page_index"":0,""viewing_time"":1368.545000004815}]","1369.4450000184588","instructions","172","781952","0.0-58.0","SS1619739713443","instructions","","","","","","","","","","","","","","","",""
"","2587.0149999973364","demog-age","173","784551","0.0-59.0","SS1619739713443","","","","","","","","","","","","","{""age"":""21""}","","","",""
"","2848.5949999885634","demog-ethnic-US","174","787417","0.0-60.0","SS1619739713443","","","","","","","","","","","","","{""ethnicity"":[""White""]}","[0]","","",""
"","8348.354999994626","demog-gender-and-education","175","795776","0.0-61.0","SS1619739713443","","","","","","","","","","","","","{""gender"":""Male"",""education"":""High school diploma""}","[0,1]","","",""
"","6841.800000023795","survey-text","176","802632","0.0-62.0","SS1619739713443","feedback","","","","","","","","","","","","{""Q0"":""no""}","","","",""
"[{""page_index"":0,""viewing_time"":1205.8400000096299}]","1206.2350000196602","instructions","177","803846","0.0-63.0","SS1619739713443","instructions","","","","","","","","","","","","","","","",""
