"view_history","rt","trial_type","trial_index","time_elapsed","internal_node_id","subject","stimulus_type","trial_stimulus","key_press","minimum_viewing_duration","trial_looking_time","block_deviant","block_background","exposure_type","stimulus","block_number","block_type","stimulus_displayed","responses","question_order","math_correct_answer","stimulus_left","stimulus_right"
"[{""page_index"":0,""viewing_time"":2906.5750000008848}]","2907.0449999999255","instructions","0","2909","0.0-0.0","SS1619739929640","","","","","","","","","","","","","","","","",""
"[{""page_index"":0,""viewing_time"":1847.8649999997288},{""page_index"":1,""viewing_time"":9351.409999999305}]","11199.74000000002","instructions","1","16117","0.0-1.0","SS1619739929640","instructions","","","","","","","","","","","","","","","",""
"","8119.470000001456","sequential-stimulus-presentation-old","2","24747","0.0-2.0","SS1619739929640","","","40","500","8619.470000001456","null","null","self_paced","","","","","","","","",""
"","6083.295000000362","sequential-stimulus-presentation-old","3","31339","0.0-3.0","SS1619739929640","","","40","500","6583.295000000362","null","null","self_paced","","","","","","","","",""
"[{""page_index"":0,""viewing_time"":10951.774999997724}]","10952.22499999727","instructions","4","42292","0.0-4.0","SS1619739929640","instructions","","","","","","","","","","","","","","","",""
"","7011.239999999816","sequential-stimulus-presentation-old","5","64309","0.0-5.0","SS1619739929640","","","40","500","7511.239999999816","null","null","forced_long","","","","","","","","",""
"","1527.1099999990838","sequential-stimulus-presentation-old","6","66354","0.0-6.0","SS1619739929640","","","40","500","2027.1099999990838","null","null","forced_long","","","","","","","","",""
"[{""page_index"":0,""viewing_time"":5009.0499999969325}]","5009.529999999359","instructions","7","71365","0.0-7.0","SS1619739929640","instructions","","","","","","","","","","","","","","","",""
"[{""page_index"":0,""viewing_time"":8557.769999999437},{""page_index"":1,""viewing_time"":5424.054999999498},{""page_index"":2,""viewing_time"":6055.480000002717},{""page_index"":3,""viewing_time"":1920.2299999997194},{""page_index"":4,""viewing_time"":1487.9099999998289}]","23445.950000001176","instructions","8","94813","0.0-8.0","SS1619739929640","instructions","","","","","","","","","","","","","","","",""
"","null","html-keyboard-response","9","95997","0.0-9.0-0.0","SS1619739929640","","","null","","","","","","<p><img src= images/blank.png width =""600"" height = ""600"" style=""position:fixed;top:50%; left:50%; transform: translate(-50%, -50%); border:5px solid black"">","","","","","","","",""
"","13929.579999999987","sequential-stimulus-presentation-old","10","110432","0.0-9.0-1.0","SS1619739929640","trial","","40","500","14429.579999999987","images/stimuli/spore_stims/complex_12_A_a.gif","images/stimuli/spore_stims/complex_16_A_b.gif","self_paced","","0","complex_dissimilar","images/stimuli/spore_stims/complex_16_A_b.gif","","","","",""
"","null","html-keyboard-response","11","111423","0.0-9.0-0.1","SS1619739929640","","","null","","","","","","<p><img src= images/blank.png width =""600"" height = ""600"" style=""position:fixed;top:50%; left:50%; transform: translate(-50%, -50%); border:5px solid black"">","","","","","","","",""
"","2400.6050000025425","sequential-stimulus-presentation-old","12","114329","0.0-9.0-1.1","SS1619739929640","trial","","40","500","2900.6050000025425","images/stimuli/spore_stims/complex_12_A_a.gif","images/stimuli/spore_stims/complex_16_A_b.gif","self_paced","","0","complex_dissimilar","images/stimuli/spore_stims/complex_16_A_b.gif","","","","",""
"","null","html-keyboard-response","13","115379","0.0-9.0-0.2","SS1619739929640","","","null","","","","","","<p><img src= images/blank.png width =""600"" height = ""600"" style=""position:fixed;top:50%; left:50%; transform: translate(-50%, -50%); border:5px solid black"">","","","","","","","",""
"","1980.5100000012317","sequential-stimulus-presentation-old","14","117873","0.0-9.0-1.2","SS1619739929640","trial","","40","500","2480.5100000012317","images/stimuli/spore_stims/complex_12_A_a.gif","images/stimuli/spore_stims/complex_16_A_b.gif","self_paced","","0","complex_dissimilar","images/stimuli/spore_stims/complex_16_A_b.gif","","","","",""
"","null","html-keyboard-response","15","118791","0.0-9.0-0.3","SS1619739929640","","","null","","","","","","<p><img src= images/blank.png width =""600"" height = ""600"" style=""position:fixed;top:50%; left:50%; transform: translate(-50%, -50%); border:5px solid black"">","","","","","","","",""
"","780.4200000027777","sequential-stimulus-presentation-old","16","120076","0.0-9.0-1.3","SS1619739929640","trial","","40","500","1280.4200000027777","images/stimuli/spore_stims/complex_12_A_a.gif","images/stimuli/spore_stims/complex_16_A_b.gif","self_paced","","0","complex_dissimilar","images/stimuli/spore_stims/complex_16_A_b.gif","","","","",""
"","null","html-keyboard-response","17","121021","0.0-9.0-0.4","SS1619739929640","","","null","","","","","","<p><img src= images/blank.png width =""600"" height = ""600"" style=""position:fixed;top:50%; left:50%; transform: translate(-50%, -50%); border:5px solid black"">","","","","","","","",""
"","681.8899999998393","sequential-stimulus-presentation-old","18","122209","0.0-9.0-1.4","SS1619739929640","trial","","40","500","1181.8899999998393","images/stimuli/spore_stims/complex_12_A_a.gif","images/stimuli/spore_stims/complex_16_A_b.gif","self_paced","","0","complex_dissimilar","images/stimuli/spore_stims/complex_16_A_b.gif","","","","",""
"","null","html-keyboard-response","19","123470","0.0-9.0-0.5","SS1619739929640","","","null","","","","","","<p><img src= images/blank.png width =""600"" height = ""600"" style=""position:fixed;top:50%; left:50%; transform: translate(-50%, -50%); border:5px solid black"">","","","","","","","",""
"","163.87499999837019","sequential-stimulus-presentation-old","20","124152","0.0-9.0-1.5","SS1619739929640","trial","","40","500","663.8749999983702","images/stimuli/spore_stims/complex_12_A_a.gif","images/stimuli/spore_stims/complex_16_A_b.gif","self_paced","","0","complex_dissimilar","images/stimuli/spore_stims/complex_16_A_b.gif","","","","",""
"","5121.895000000222","survey-multi-choice","21","129279","0.0-10.0","SS1619739929640","math_question","","","","","","","","","","","","{""Q0"":""3""}","[0]","3","",""
"","null","html-keyboard-response","22","130329","0.0-11.0-0.0","SS1619739929640","","","null","","","","","","<p><img src= images/blank.png width =""600"" height = ""600"" style=""position:fixed;top:50%; left:50%; transform: translate(-50%, -50%); border:5px solid black"">","","","","","","","",""
"","5223.849999998492","sequential-stimulus-presentation-old","23","136057","0.0-11.0-1.0","SS1619739929640","trial","","40","500","5723.849999998492","images/stimuli/spore_stims/simple_07_A_a.gif","images/stimuli/spore_stims/simple_11_A_b.gif","self_paced","","1","simple_dissimilar","images/stimuli/spore_stims/simple_11_A_b.gif","","","","",""
"","null","html-keyboard-response","24","137049","0.0-11.0-0.1","SS1619739929640","","","null","","","","","","<p><img src= images/blank.png width =""600"" height = ""600"" style=""position:fixed;top:50%; left:50%; transform: translate(-50%, -50%); border:5px solid black"">","","","","","","","",""
"","1344.359999999142","sequential-stimulus-presentation-old","25","138898","0.0-11.0-1.1","SS1619739929640","trial","","40","500","1844.359999999142","images/stimuli/spore_stims/simple_07_A_a.gif","images/stimuli/spore_stims/simple_11_A_b.gif","self_paced","","1","simple_dissimilar","images/stimuli/spore_stims/simple_07_A_a.gif","","","","",""
"","null","html-keyboard-response","26","140073","0.0-11.0-0.2","SS1619739929640","","","null","","","","","","<p><img src= images/blank.png width =""600"" height = ""600"" style=""position:fixed;top:50%; left:50%; transform: translate(-50%, -50%); border:5px solid black"">","","","","","","","",""
"","1001.0500000025786","sequential-stimulus-presentation-old","27","141588","0.0-11.0-1.2","SS1619739929640","trial","","40","500","1501.0500000025786","images/stimuli/spore_stims/simple_07_A_a.gif","images/stimuli/spore_stims/simple_11_A_b.gif","self_paced","","1","simple_dissimilar","images/stimuli/spore_stims/simple_11_A_b.gif","","","","",""
"","null","html-keyboard-response","28","142766","0.0-11.0-0.3","SS1619739929640","","","null","","","","","","<p><img src= images/blank.png width =""600"" height = ""600"" style=""position:fixed;top:50%; left:50%; transform: translate(-50%, -50%); border:5px solid black"">","","","","","","","",""
"","30207.81999999963","sequential-stimulus-presentation-old","29","173484","0.0-11.0-1.3","SS1619739929640","trial","","40","500","30707.81999999963","images/stimuli/spore_stims/simple_07_A_a.gif","images/stimuli/spore_stims/simple_11_A_b.gif","self_paced","","1","simple_dissimilar","images/stimuli/spore_stims/simple_07_A_a.gif","","","","",""
"","null","html-keyboard-response","30","174411","0.0-11.0-0.4","SS1619739929640","","","null","","","","","","<p><img src= images/blank.png width =""600"" height = ""600"" style=""position:fixed;top:50%; left:50%; transform: translate(-50%, -50%); border:5px solid black"">","","","","","","","",""
"","804.3799999977637","sequential-stimulus-presentation-old","31","175731","0.0-11.0-1.4","SS1619739929640","trial","","40","500","1304.3799999977637","images/stimuli/spore_stims/simple_07_A_a.gif","images/stimuli/spore_stims/simple_11_A_b.gif","self_paced","","1","simple_dissimilar","images/stimuli/spore_stims/simple_11_A_b.gif","","","","",""
"","null","html-keyboard-response","32","176683","0.0-11.0-0.5","SS1619739929640","","","null","","","","","","<p><img src= images/blank.png width =""600"" height = ""600"" style=""position:fixed;top:50%; left:50%; transform: translate(-50%, -50%); border:5px solid black"">","","","","","","","",""
"","173.09000000022934","sequential-stimulus-presentation-old","33","177363","0.0-11.0-1.5","SS1619739929640","trial","","40","500","673.0900000002293","images/stimuli/spore_stims/simple_07_A_a.gif","images/stimuli/spore_stims/simple_11_A_b.gif","self_paced","","1","simple_dissimilar","images/stimuli/spore_stims/simple_11_A_b.gif","","","","",""
"","6286.790000001929","survey-multi-choice","34","183653","0.0-12.0","SS1619739929640","math_question","","","","","","","","","","","","{""Q0"":""7""}","[0]","7","",""
"","null","html-keyboard-response","35","184837","0.0-13.0-0.0","SS1619739929640","","","null","","","","","","<p><img src= images/blank.png width =""600"" height = ""600"" style=""position:fixed;top:50%; left:50%; transform: translate(-50%, -50%); border:5px solid black"">","","","","","","","",""
"","6024.034999998548","sequential-stimulus-presentation-old","36","205875","0.0-13.0-1.0","SS1619739929640","trial","","40","500","6524.034999998548","images/stimuli/spore_stims/simple_04_A_a.gif","images/stimuli/spore_stims/simple_14_A_b.gif","forced_long","","2","simple_dissimilar","images/stimuli/spore_stims/simple_14_A_b.gif","","","","",""
"","null","html-keyboard-response","37","206837","0.0-13.0-0.1","SS1619739929640","","","null","","","","","","<p><img src= images/blank.png width =""600"" height = ""600"" style=""position:fixed;top:50%; left:50%; transform: translate(-50%, -50%); border:5px solid black"">","","","","","","","",""
"","1373.7450000007811","sequential-stimulus-presentation-old","38","208715","0.0-13.0-1.1","SS1619739929640","trial","","40","500","1873.7450000007811","images/stimuli/spore_stims/simple_04_A_a.gif","images/stimuli/spore_stims/simple_14_A_b.gif","forced_long","","2","simple_dissimilar","images/stimuli/spore_stims/simple_14_A_b.gif","","","","",""
"","null","html-keyboard-response","39","209955","0.0-13.0-0.2","SS1619739929640","","","null","","","","","","<p><img src= images/blank.png width =""600"" height = ""600"" style=""position:fixed;top:50%; left:50%; transform: translate(-50%, -50%); border:5px solid black"">","","","","","","","",""
"","54.36000000190688","sequential-stimulus-presentation-old","40","210512","0.0-13.0-1.2","SS1619739929640","trial","","40","500","554.3600000019069","images/stimuli/spore_stims/simple_04_A_a.gif","images/stimuli/spore_stims/simple_14_A_b.gif","forced_long","","2","simple_dissimilar","images/stimuli/spore_stims/simple_14_A_b.gif","","","","",""
"","null","html-keyboard-response","41","211654","0.0-13.0-0.3","SS1619739929640","","","null","","","","","","<p><img src= images/blank.png width =""600"" height = ""600"" style=""position:fixed;top:50%; left:50%; transform: translate(-50%, -50%); border:5px solid black"">","","","","","","","",""
"","682.8099999984261","sequential-stimulus-presentation-old","42","212841","0.0-13.0-1.3","SS1619739929640","trial","","40","500","1182.809999998426","images/stimuli/spore_stims/simple_04_A_a.gif","images/stimuli/spore_stims/simple_14_A_b.gif","forced_long","","2","simple_dissimilar","images/stimuli/spore_stims/simple_14_A_b.gif","","","","",""
"","null","html-keyboard-response","43","214096","0.0-13.0-0.4","SS1619739929640","","","null","","","","","","<p><img src= images/blank.png width =""600"" height = ""600"" style=""position:fixed;top:50%; left:50%; transform: translate(-50%, -50%); border:5px solid black"">","","","","","","","",""
"","5428.295000001526","sequential-stimulus-presentation-old","44","220041","0.0-13.0-1.4","SS1619739929640","trial","","40","500","5928.295000001526","images/stimuli/spore_stims/simple_04_A_a.gif","images/stimuli/spore_stims/simple_14_A_b.gif","forced_long","","2","simple_dissimilar","images/stimuli/spore_stims/simple_14_A_b.gif","","","","",""
"","10009.125000000495","survey-multi-choice","45","230078","0.0-14.0","SS1619739929640","math_question","","","","","","","","","","","","{""Q0"":""17""}","[0]","17","",""
"","null","html-keyboard-response","46","231321","0.0-15.0-0.0","SS1619739929640","","","null","","","","","","<p><img src= images/blank.png width =""600"" height = ""600"" style=""position:fixed;top:50%; left:50%; transform: translate(-50%, -50%); border:5px solid black"">","","","","","","","",""
"","3296.1599999980535","sequential-stimulus-presentation-old","47","249634","0.0-15.0-1.0","SS1619739929640","trial","","40","500","3796.1599999980535","images/stimuli/spore_stims/complex_08_A_b.gif","images/stimuli/spore_stims/complex_10_A_a.gif","forced_long","","3","complex_dissimilar","images/stimuli/spore_stims/complex_10_A_a.gif","","","","",""
"","null","html-keyboard-response","48","250628","0.0-15.0-0.1","SS1619739929640","","","null","","","","","","<p><img src= images/blank.png width =""600"" height = ""600"" style=""position:fixed;top:50%; left:50%; transform: translate(-50%, -50%); border:5px solid black"">","","","","","","","",""
"","1018.274999998539","sequential-stimulus-presentation-old","49","252152","0.0-15.0-1.1","SS1619739929640","trial","","40","500","1518.274999998539","images/stimuli/spore_stims/complex_08_A_b.gif","images/stimuli/spore_stims/complex_10_A_a.gif","forced_long","","3","complex_dissimilar","images/stimuli/spore_stims/complex_10_A_a.gif","","","","",""
"","null","html-keyboard-response","50","253451","0.0-15.0-0.2","SS1619739929640","","","null","","","","","","<p><img src= images/blank.png width =""600"" height = ""600"" style=""position:fixed;top:50%; left:50%; transform: translate(-50%, -50%); border:5px solid black"">","","","","","","","",""
"","82.1700000014971","sequential-stimulus-presentation-old","51","254049","0.0-15.0-1.2","SS1619739929640","trial","","40","500","582.1700000014971","images/stimuli/spore_stims/complex_08_A_b.gif","images/stimuli/spore_stims/complex_10_A_a.gif","forced_long","","3","complex_dissimilar","images/stimuli/spore_stims/complex_10_A_a.gif","","","","",""
"","null","html-keyboard-response","52","255323","0.0-15.0-0.3","SS1619739929640","","","null","","","","","","<p><img src= images/blank.png width =""600"" height = ""600"" style=""position:fixed;top:50%; left:50%; transform: translate(-50%, -50%); border:5px solid black"">","","","","","","","",""
"","191.03499999985797","sequential-stimulus-presentation-old","53","256030","0.0-15.0-1.3","SS1619739929640","trial","","40","500","691.034999999858","images/stimuli/spore_stims/complex_08_A_b.gif","images/stimuli/spore_stims/complex_10_A_a.gif","forced_long","","3","complex_dissimilar","images/stimuli/spore_stims/complex_10_A_a.gif","","","","",""
"","null","html-keyboard-response","54","257115","0.0-15.0-0.4","SS1619739929640","","","null","","","","","","<p><img src= images/blank.png width =""600"" height = ""600"" style=""position:fixed;top:50%; left:50%; transform: translate(-50%, -50%); border:5px solid black"">","","","","","","","",""
"","119.55999999912456","sequential-stimulus-presentation-old","55","257739","0.0-15.0-1.4","SS1619739929640","trial","","40","500","619.5599999991246","images/stimuli/spore_stims/complex_08_A_b.gif","images/stimuli/spore_stims/complex_10_A_a.gif","forced_long","","3","complex_dissimilar","images/stimuli/spore_stims/complex_10_A_a.gif","","","","",""
"","3400.1400000015274","survey-multi-choice","56","261142","0.0-16.0","SS1619739929640","math_question","","","","","","","","","","","","{""Q0"":""15""}","[0]","15","",""
"","null","html-keyboard-response","57","262191","0.0-17.0-0.0","SS1619739929640","","","null","","","","","","<p><img src= images/blank.png width =""600"" height = ""600"" style=""position:fixed;top:50%; left:50%; transform: translate(-50%, -50%); border:5px solid black"">","","","","","","","",""
"","49.7750000031665","sequential-stimulus-presentation-old","58","262755","0.0-17.0-1.0","SS1619739929640","trial","","40","500","549.7750000031665","images/stimuli/spore_stims/simple_13_A_b.gif","images/stimuli/spore_stims/simple_20_A_a.gif","forced_short","","4","simple_dissimilar","images/stimuli/spore_stims/simple_20_A_a.gif","","","","",""
"","null","html-keyboard-response","59","263909","0.0-17.0-0.1","SS1619739929640","","","null","","","","","","<p><img src= images/blank.png width =""600"" height = ""600"" style=""position:fixed;top:50%; left:50%; transform: translate(-50%, -50%); border:5px solid black"">","","","","","","","",""
"","1315.9500000001863","sequential-stimulus-presentation-old","60","265730","0.0-17.0-1.1","SS1619739929640","trial","","40","500","1815.9500000001863","images/stimuli/spore_stims/simple_13_A_b.gif","images/stimuli/spore_stims/simple_20_A_a.gif","forced_short","","4","simple_dissimilar","images/stimuli/spore_stims/simple_20_A_a.gif","","","","",""
"","null","html-keyboard-response","61","266644","0.0-17.0-0.2","SS1619739929640","","","null","","","","","","<p><img src= images/blank.png width =""600"" height = ""600"" style=""position:fixed;top:50%; left:50%; transform: translate(-50%, -50%); border:5px solid black"">","","","","","","","",""
"","377.30999999982305","sequential-stimulus-presentation-old","62","267526","0.0-17.0-1.2","SS1619739929640","trial","","40","500","877.309999999823","images/stimuli/spore_stims/simple_13_A_b.gif","images/stimuli/spore_stims/simple_20_A_a.gif","forced_short","","4","simple_dissimilar","images/stimuli/spore_stims/simple_20_A_a.gif","","","","",""
"","null","html-keyboard-response","63","268736","0.0-17.0-0.3","SS1619739929640","","","null","","","","","","<p><img src= images/blank.png width =""600"" height = ""600"" style=""position:fixed;top:50%; left:50%; transform: translate(-50%, -50%); border:5px solid black"">","","","","","","","",""
"","474.6950000007637","sequential-stimulus-presentation-old","64","269716","0.0-17.0-1.3","SS1619739929640","trial","","40","500","974.6950000007637","images/stimuli/spore_stims/simple_13_A_b.gif","images/stimuli/spore_stims/simple_20_A_a.gif","forced_short","","4","simple_dissimilar","images/stimuli/spore_stims/simple_20_A_a.gif","","","","",""
"","3405.8550000008545","survey-multi-choice","65","273125","0.0-18.0","SS1619739929640","math_question","","","","","","","","","","","","{""Q0"":""6""}","[0]","6","",""
"","null","html-keyboard-response","66","274205","0.0-19.0-0.0","SS1619739929640","","","null","","","","","","<p><img src= images/blank.png width =""600"" height = ""600"" style=""position:fixed;top:50%; left:50%; transform: translate(-50%, -50%); border:5px solid black"">","","","","","","","",""
"","1655.3649999987101","sequential-stimulus-presentation-old","67","290867","0.0-19.0-1.0","SS1619739929640","trial","","40","500","2155.36499999871","images/stimuli/spore_stims/complex_19_A_b.gif","images/stimuli/spore_stims/complex_06_A_a.gif","forced_long","","5","complex_dissimilar","images/stimuli/spore_stims/complex_06_A_a.gif","","","","",""
"","null","html-keyboard-response","68","292012","0.0-19.0-0.1","SS1619739929640","","","null","","","","","","<p><img src= images/blank.png width =""600"" height = ""600"" style=""position:fixed;top:50%; left:50%; transform: translate(-50%, -50%); border:5px solid black"">","","","","","","","",""
"","2228.2049999994924","sequential-stimulus-presentation-old","69","294789","0.0-19.0-1.1","SS1619739929640","trial","","40","500","2728.2049999994924","images/stimuli/spore_stims/complex_19_A_b.gif","images/stimuli/spore_stims/complex_06_A_a.gif","forced_long","","5","complex_dissimilar","images/stimuli/spore_stims/complex_19_A_b.gif","","","","",""
"","null","html-keyboard-response","70","295815","0.0-19.0-0.2","SS1619739929640","","","null","","","","","","<p><img src= images/blank.png width =""600"" height = ""600"" style=""position:fixed;top:50%; left:50%; transform: translate(-50%, -50%); border:5px solid black"">","","","","","","","",""
"","5285.414999998524","sequential-stimulus-presentation-old","71","301615","0.0-19.0-1.2","SS1619739929640","trial","","40","500","5785.414999998524","images/stimuli/spore_stims/complex_19_A_b.gif","images/stimuli/spore_stims/complex_06_A_a.gif","forced_long","","5","complex_dissimilar","images/stimuli/spore_stims/complex_06_A_a.gif","","","","",""
"","null","html-keyboard-response","72","302665","0.0-19.0-0.3","SS1619739929640","","","null","","","","","","<p><img src= images/blank.png width =""600"" height = ""600"" style=""position:fixed;top:50%; left:50%; transform: translate(-50%, -50%); border:5px solid black"">","","","","","","","",""
"","4566.820000000065","sequential-stimulus-presentation-old","73","307738","0.0-19.0-1.3","SS1619739929640","trial","","40","500","5066.820000000065","images/stimuli/spore_stims/complex_19_A_b.gif","images/stimuli/spore_stims/complex_06_A_a.gif","forced_long","","5","complex_dissimilar","images/stimuli/spore_stims/complex_06_A_a.gif","","","","",""
"","null","html-keyboard-response","74","308628","0.0-19.0-0.4","SS1619739929640","","","null","","","","","","<p><img src= images/blank.png width =""600"" height = ""600"" style=""position:fixed;top:50%; left:50%; transform: translate(-50%, -50%); border:5px solid black"">","","","","","","","",""
"","4487.199999999546","sequential-stimulus-presentation-old","75","313621","0.0-19.0-1.4","SS1619739929640","trial","","40","500","4987.199999999546","images/stimuli/spore_stims/complex_19_A_b.gif","images/stimuli/spore_stims/complex_06_A_a.gif","forced_long","","5","complex_dissimilar","images/stimuli/spore_stims/complex_19_A_b.gif","","","","",""
"","7773.080000002636","survey-multi-choice","76","321398","0.0-20.0","SS1619739929640","math_question","","","","","","","","","","","","{""Q0"":""16""}","[0]","16","",""
"","null","html-keyboard-response","77","322562","0.0-21.0-0.0","SS1619739929640","","","null","","","","","","<p><img src= images/blank.png width =""600"" height = ""600"" style=""position:fixed;top:50%; left:50%; transform: translate(-50%, -50%); border:5px solid black"">","","","","","","","",""
"","5109.809999998135","sequential-stimulus-presentation-old","78","343157","0.0-21.0-1.0","SS1619739929640","trial","","40","500","5609.809999998135","images/stimuli/spore_stims/simple_02_A_b.gif","images/stimuli/spore_stims/simple_11_A_a.gif","forced_long","","6","simple_dissimilar","images/stimuli/spore_stims/simple_11_A_a.gif","","","","",""
"","null","html-keyboard-response","79","344030","0.0-21.0-0.1","SS1619739929640","","","null","","","","","","<p><img src= images/blank.png width =""600"" height = ""600"" style=""position:fixed;top:50%; left:50%; transform: translate(-50%, -50%); border:5px solid black"">","","","","","","","",""
"","219.56000000133645","sequential-stimulus-presentation-old","80","344764","0.0-21.0-1.1","SS1619739929640","trial","","40","500","719.5600000013364","images/stimuli/spore_stims/simple_02_A_b.gif","images/stimuli/spore_stims/simple_11_A_a.gif","forced_long","","6","simple_dissimilar","images/stimuli/spore_stims/simple_02_A_b.gif","","","","",""
"","null","html-keyboard-response","81","345721","0.0-21.0-0.2","SS1619739929640","","","null","","","","","","<p><img src= images/blank.png width =""600"" height = ""600"" style=""position:fixed;top:50%; left:50%; transform: translate(-50%, -50%); border:5px solid black"">","","","","","","","",""
"","6533.849999999744","sequential-stimulus-presentation-old","82","353588","0.0-21.0-1.2","SS1619739929640","trial","","40","500","7033.849999999744","images/stimuli/spore_stims/simple_02_A_b.gif","images/stimuli/spore_stims/simple_11_A_a.gif","forced_long","","6","simple_dissimilar","images/stimuli/spore_stims/simple_11_A_a.gif","","","","",""
"","null","html-keyboard-response","83","354642","0.0-21.0-0.3","SS1619739929640","","","null","","","","","","<p><img src= images/blank.png width =""600"" height = ""600"" style=""position:fixed;top:50%; left:50%; transform: translate(-50%, -50%); border:5px solid black"">","","","","","","","",""
"","398.7999999989988","sequential-stimulus-presentation-old","84","355556","0.0-21.0-1.3","SS1619739929640","trial","","40","500","898.7999999989988","images/stimuli/spore_stims/simple_02_A_b.gif","images/stimuli/spore_stims/simple_11_A_a.gif","forced_long","","6","simple_dissimilar","images/stimuli/spore_stims/simple_11_A_a.gif","","","","",""
"","null","html-keyboard-response","85","356415","0.0-21.0-0.4","SS1619739929640","","","null","","","","","","<p><img src= images/blank.png width =""600"" height = ""600"" style=""position:fixed;top:50%; left:50%; transform: translate(-50%, -50%); border:5px solid black"">","","","","","","","",""
"","217.9599999981001","sequential-stimulus-presentation-old","86","357145","0.0-21.0-1.4","SS1619739929640","trial","","40","500","717.9599999981001","images/stimuli/spore_stims/simple_02_A_b.gif","images/stimuli/spore_stims/simple_11_A_a.gif","forced_long","","6","simple_dissimilar","images/stimuli/spore_stims/simple_11_A_a.gif","","","","",""
"","null","html-keyboard-response","87","358068","0.0-21.0-0.5","SS1619739929640","","","null","","","","","","<p><img src= images/blank.png width =""600"" height = ""600"" style=""position:fixed;top:50%; left:50%; transform: translate(-50%, -50%); border:5px solid black"">","","","","","","","",""
"","488.6149999984191","sequential-stimulus-presentation-old","88","359068","0.0-21.0-1.5","SS1619739929640","trial","","40","500","988.6149999984191","images/stimuli/spore_stims/simple_02_A_b.gif","images/stimuli/spore_stims/simple_11_A_a.gif","forced_long","","6","simple_dissimilar","images/stimuli/spore_stims/simple_02_A_b.gif","","","","",""
"","4854.380000000703","survey-multi-choice","89","363926","0.0-22.0","SS1619739929640","math_question","","","","","","","","","","","","{""Q0"":""11""}","[0]","11","",""
"","null","html-keyboard-response","90","364980","0.0-23.0-0.0","SS1619739929640","","","null","","","","","","<p><img src= images/blank.png width =""600"" height = ""600"" style=""position:fixed;top:50%; left:50%; transform: translate(-50%, -50%); border:5px solid black"">","","","","","","","",""
"","79.43499999964843","sequential-stimulus-presentation-old","91","365566","0.0-23.0-1.0","SS1619739929640","trial","","40","500","579.4349999996484","images/stimuli/spore_stims/simple_08_A_b.gif","images/stimuli/spore_stims/simple_10_A_a.gif","self_paced","","7","simple_dissimilar","images/stimuli/spore_stims/simple_10_A_a.gif","","","","",""
"","null","html-keyboard-response","92","367043","0.0-23.0-0.1","SS1619739929640","","","null","","","","","","<p><img src= images/blank.png width =""600"" height = ""600"" style=""position:fixed;top:50%; left:50%; transform: translate(-50%, -50%); border:5px solid black"">","","","","","","","",""
"","2031.2950000007404","sequential-stimulus-presentation-old","93","370068","0.0-23.0-1.1","SS1619739929640","trial","","40","500","2531.2950000007404","images/stimuli/spore_stims/simple_08_A_b.gif","images/stimuli/spore_stims/simple_10_A_a.gif","self_paced","","7","simple_dissimilar","images/stimuli/spore_stims/simple_08_A_b.gif","","","","",""
"","null","html-keyboard-response","94","370944","0.0-23.0-0.2","SS1619739929640","","","null","","","","","","<p><img src= images/blank.png width =""600"" height = ""600"" style=""position:fixed;top:50%; left:50%; transform: translate(-50%, -50%); border:5px solid black"">","","","","","","","",""
"","423.1350000008824","sequential-stimulus-presentation-old","95","371916","0.0-23.0-1.2","SS1619739929640","trial","","40","500","923.1350000008824","images/stimuli/spore_stims/simple_08_A_b.gif","images/stimuli/spore_stims/simple_10_A_a.gif","self_paced","","7","simple_dissimilar","images/stimuli/spore_stims/simple_10_A_a.gif","","","","",""
"","null","html-keyboard-response","96","373084","0.0-23.0-0.3","SS1619739929640","","","null","","","","","","<p><img src= images/blank.png width =""600"" height = ""600"" style=""position:fixed;top:50%; left:50%; transform: translate(-50%, -50%); border:5px solid black"">","","","","","","","",""
"","350.6699999998091","sequential-stimulus-presentation-old","97","373952","0.0-23.0-1.3","SS1619739929640","trial","","40","500","850.6699999998091","images/stimuli/spore_stims/simple_08_A_b.gif","images/stimuli/spore_stims/simple_10_A_a.gif","self_paced","","7","simple_dissimilar","images/stimuli/spore_stims/simple_10_A_a.gif","","","","",""
"","null","html-keyboard-response","98","375168","0.0-23.0-0.4","SS1619739929640","","","null","","","","","","<p><img src= images/blank.png width =""600"" height = ""600"" style=""position:fixed;top:50%; left:50%; transform: translate(-50%, -50%); border:5px solid black"">","","","","","","","",""
"","367.920000000624","sequential-stimulus-presentation-old","99","376040","0.0-23.0-1.4","SS1619739929640","trial","","40","500","867.920000000624","images/stimuli/spore_stims/simple_08_A_b.gif","images/stimuli/spore_stims/simple_10_A_a.gif","self_paced","","7","simple_dissimilar","images/stimuli/spore_stims/simple_10_A_a.gif","","","","",""
"","3376.5950000014855","survey-multi-choice","100","379421","0.0-24.0","SS1619739929640","math_question","","","","","","","","","","","","{""Q0"":""5""}","[0]","5","",""
"","null","html-keyboard-response","101","380645","0.0-25.0-0.0","SS1619739929640","","","null","","","","","","<p><img src= images/blank.png width =""600"" height = ""600"" style=""position:fixed;top:50%; left:50%; transform: translate(-50%, -50%); border:5px solid black"">","","","","","","","",""
"","43.66500000102678","sequential-stimulus-presentation-old","102","381204","0.0-25.0-1.0","SS1619739929640","trial","","40","500","543.6650000010268","images/stimuli/spore_stims/complex_13_A_b.gif","images/stimuli/spore_stims/complex_14_A_a.gif","forced_short","","8","complex_dissimilar","images/stimuli/spore_stims/complex_14_A_a.gif","","","","",""
"","null","html-keyboard-response","103","382358","0.0-25.0-0.1","SS1619739929640","","","null","","","","","","<p><img src= images/blank.png width =""600"" height = ""600"" style=""position:fixed;top:50%; left:50%; transform: translate(-50%, -50%); border:5px solid black"">","","","","","","","",""
"","148.13999999756925","sequential-stimulus-presentation-old","104","383020","0.0-25.0-1.1","SS1619739929640","trial","","40","500","648.1399999975692","images/stimuli/spore_stims/complex_13_A_b.gif","images/stimuli/spore_stims/complex_14_A_a.gif","forced_short","","8","complex_dissimilar","images/stimuli/spore_stims/complex_14_A_a.gif","","","","",""
"","null","html-keyboard-response","105","383935","0.0-25.0-0.2","SS1619739929640","","","null","","","","","","<p><img src= images/blank.png width =""600"" height = ""600"" style=""position:fixed;top:50%; left:50%; transform: translate(-50%, -50%); border:5px solid black"">","","","","","","","",""
"","268.46499999734806","sequential-stimulus-presentation-old","106","384715","0.0-25.0-1.2","SS1619739929640","trial","","40","500","768.4649999973481","images/stimuli/spore_stims/complex_13_A_b.gif","images/stimuli/spore_stims/complex_14_A_a.gif","forced_short","","8","complex_dissimilar","images/stimuli/spore_stims/complex_13_A_b.gif","","","","",""
"","null","html-keyboard-response","107","385958","0.0-25.0-0.3","SS1619739929640","","","null","","","","","","<p><img src= images/blank.png width =""600"" height = ""600"" style=""position:fixed;top:50%; left:50%; transform: translate(-50%, -50%); border:5px solid black"">","","","","","","","",""
"","692.8000000006869","sequential-stimulus-presentation-old","108","387166","0.0-25.0-1.3","SS1619739929640","trial","","40","500","1192.8000000006869","images/stimuli/spore_stims/complex_13_A_b.gif","images/stimuli/spore_stims/complex_14_A_a.gif","forced_short","","8","complex_dissimilar","images/stimuli/spore_stims/complex_14_A_a.gif","","","","",""
"","null","html-keyboard-response","109","388118","0.0-25.0-0.4","SS1619739929640","","","null","","","","","","<p><img src= images/blank.png width =""600"" height = ""600"" style=""position:fixed;top:50%; left:50%; transform: translate(-50%, -50%); border:5px solid black"">","","","","","","","",""
"","99.27999999851454","sequential-stimulus-presentation-old","110","388721","0.0-25.0-1.4","SS1619739929640","trial","","40","500","599.2799999985145","images/stimuli/spore_stims/complex_13_A_b.gif","images/stimuli/spore_stims/complex_14_A_a.gif","forced_short","","8","complex_dissimilar","images/stimuli/spore_stims/complex_14_A_a.gif","","","","",""
"","null","html-keyboard-response","111","389977","0.0-25.0-0.5","SS1619739929640","","","null","","","","","","<p><img src= images/blank.png width =""600"" height = ""600"" style=""position:fixed;top:50%; left:50%; transform: translate(-50%, -50%); border:5px solid black"">","","","","","","","",""
"","264.46500000020023","sequential-stimulus-presentation-old","112","390759","0.0-25.0-1.5","SS1619739929640","trial","","40","500","764.4650000002002","images/stimuli/spore_stims/complex_13_A_b.gif","images/stimuli/spore_stims/complex_14_A_a.gif","forced_short","","8","complex_dissimilar","images/stimuli/spore_stims/complex_14_A_a.gif","","","","",""
"","3898.365000000922","survey-multi-choice","113","394661","0.0-26.0","SS1619739929640","math_question","","","","","","","","","","","","{""Q0"":""9""}","[0]","9","",""
"","null","html-keyboard-response","114","395920","0.0-27.0-0.0","SS1619739929640","","","null","","","","","","<p><img src= images/blank.png width =""600"" height = ""600"" style=""position:fixed;top:50%; left:50%; transform: translate(-50%, -50%); border:5px solid black"">","","","","","","","",""
"","79.81999999901745","sequential-stimulus-presentation-old","115","396516","0.0-27.0-1.0","SS1619739929640","trial","","40","500","579.8199999990175","images/stimuli/spore_stims/simple_05_A_a.gif","images/stimuli/spore_stims/simple_03_A_b.gif","forced_short","","9","simple_dissimilar","images/stimuli/spore_stims/simple_03_A_b.gif","","","","",""
"","null","html-keyboard-response","116","397757","0.0-27.0-0.1","SS1619739929640","","","null","","","","","","<p><img src= images/blank.png width =""600"" height = ""600"" style=""position:fixed;top:50%; left:50%; transform: translate(-50%, -50%); border:5px solid black"">","","","","","","","",""
"","305.5800000001909","sequential-stimulus-presentation-old","117","398578","0.0-27.0-1.1","SS1619739929640","trial","","40","500","805.5800000001909","images/stimuli/spore_stims/simple_05_A_a.gif","images/stimuli/spore_stims/simple_03_A_b.gif","forced_short","","9","simple_dissimilar","images/stimuli/spore_stims/simple_03_A_b.gif","","","","",""
"","null","html-keyboard-response","118","399393","0.0-27.0-0.2","SS1619739929640","","","null","","","","","","<p><img src= images/blank.png width =""600"" height = ""600"" style=""position:fixed;top:50%; left:50%; transform: translate(-50%, -50%); border:5px solid black"">","","","","","","","",""
"","279.225000002014","sequential-stimulus-presentation-old","119","400179","0.0-27.0-1.2","SS1619739929640","trial","","40","500","779.225000002014","images/stimuli/spore_stims/simple_05_A_a.gif","images/stimuli/spore_stims/simple_03_A_b.gif","forced_short","","9","simple_dissimilar","images/stimuli/spore_stims/simple_03_A_b.gif","","","","",""
"","null","html-keyboard-response","120","401390","0.0-27.0-0.3","SS1619739929640","","","null","","","","","","<p><img src= images/blank.png width =""600"" height = ""600"" style=""position:fixed;top:50%; left:50%; transform: translate(-50%, -50%); border:5px solid black"">","","","","","","","",""
"","97.83000000246102","sequential-stimulus-presentation-old","121","401994","0.0-27.0-1.3","SS1619739929640","trial","","40","500","597.830000002461","images/stimuli/spore_stims/simple_05_A_a.gif","images/stimuli/spore_stims/simple_03_A_b.gif","forced_short","","9","simple_dissimilar","images/stimuli/spore_stims/simple_03_A_b.gif","","","","",""
"","null","html-keyboard-response","122","403277","0.0-27.0-0.4","SS1619739929640","","","null","","","","","","<p><img src= images/blank.png width =""600"" height = ""600"" style=""position:fixed;top:50%; left:50%; transform: translate(-50%, -50%); border:5px solid black"">","","","","","","","",""
"","2702.320000000298","sequential-stimulus-presentation-old","123","406490","0.0-27.0-1.4","SS1619739929640","trial","","40","500","3202.320000000298","images/stimuli/spore_stims/simple_05_A_a.gif","images/stimuli/spore_stims/simple_03_A_b.gif","forced_short","","9","simple_dissimilar","images/stimuli/spore_stims/simple_05_A_a.gif","","","","",""
"","null","html-keyboard-response","124","407603","0.0-27.0-0.5","SS1619739929640","","","null","","","","","","<p><img src= images/blank.png width =""600"" height = ""600"" style=""position:fixed;top:50%; left:50%; transform: translate(-50%, -50%); border:5px solid black"">","","","","","","","",""
"","197.92499999672873","sequential-stimulus-presentation-old","125","408307","0.0-27.0-1.5","SS1619739929640","trial","","40","500","697.9249999967287","images/stimuli/spore_stims/simple_05_A_a.gif","images/stimuli/spore_stims/simple_03_A_b.gif","forced_short","","9","simple_dissimilar","images/stimuli/spore_stims/simple_05_A_a.gif","","","","",""
"","2087.5400000004447","survey-multi-choice","126","410397","0.0-28.0","SS1619739929640","math_question","","","","","","","","","","","","{""Q0"":""10""}","[0]","10","",""
"","null","html-keyboard-response","127","411694","0.0-29.0-0.0","SS1619739929640","","","null","","","","","","<p><img src= images/blank.png width =""600"" height = ""600"" style=""position:fixed;top:50%; left:50%; transform: translate(-50%, -50%); border:5px solid black"">","","","","","","","",""
"","2585.675000002084","sequential-stimulus-presentation-old","128","414797","0.0-29.0-1.0","SS1619739929640","trial","","40","500","3085.675000002084","images/stimuli/spore_stims/complex_18_A_b.gif","images/stimuli/spore_stims/complex_03_A_a.gif","forced_short","","10","complex_dissimilar","images/stimuli/spore_stims/complex_03_A_a.gif","","","","",""
"","null","html-keyboard-response","129","415919","0.0-29.0-0.1","SS1619739929640","","","null","","","","","","<p><img src= images/blank.png width =""600"" height = ""600"" style=""position:fixed;top:50%; left:50%; transform: translate(-50%, -50%); border:5px solid black"">","","","","","","","",""
"","743.3000000019092","sequential-stimulus-presentation-old","130","417168","0.0-29.0-1.1","SS1619739929640","trial","","40","500","1243.3000000019092","images/stimuli/spore_stims/complex_18_A_b.gif","images/stimuli/spore_stims/complex_03_A_a.gif","forced_short","","10","complex_dissimilar","images/stimuli/spore_stims/complex_18_A_b.gif","","","","",""
"","null","html-keyboard-response","131","418376","0.0-29.0-0.2","SS1619739929640","","","null","","","","","","<p><img src= images/blank.png width =""600"" height = ""600"" style=""position:fixed;top:50%; left:50%; transform: translate(-50%, -50%); border:5px solid black"">","","","","","","","",""
"","115.87499999947613","sequential-stimulus-presentation-old","132","418997","0.0-29.0-1.2","SS1619739929640","trial","","40","500","615.8749999994761","images/stimuli/spore_stims/complex_18_A_b.gif","images/stimuli/spore_stims/complex_03_A_a.gif","forced_short","","10","complex_dissimilar","images/stimuli/spore_stims/complex_03_A_a.gif","","","","",""
"","null","html-keyboard-response","133","420055","0.0-29.0-0.3","SS1619739929640","","","null","","","","","","<p><img src= images/blank.png width =""600"" height = ""600"" style=""position:fixed;top:50%; left:50%; transform: translate(-50%, -50%); border:5px solid black"">","","","","","","","",""
"","983.6449999966426","sequential-stimulus-presentation-old","134","421552","0.0-29.0-1.3","SS1619739929640","trial","","40","500","1483.6449999966426","images/stimuli/spore_stims/complex_18_A_b.gif","images/stimuli/spore_stims/complex_03_A_a.gif","forced_short","","10","complex_dissimilar","images/stimuli/spore_stims/complex_18_A_b.gif","","","","",""
"","null","html-keyboard-response","135","422691","0.0-29.0-0.4","SS1619739929640","","","null","","","","","","<p><img src= images/blank.png width =""600"" height = ""600"" style=""position:fixed;top:50%; left:50%; transform: translate(-50%, -50%); border:5px solid black"">","","","","","","","",""
"","163.4699999995064","sequential-stimulus-presentation-old","136","423361","0.0-29.0-1.4","SS1619739929640","trial","","40","500","663.4699999995064","images/stimuli/spore_stims/complex_18_A_b.gif","images/stimuli/spore_stims/complex_03_A_a.gif","forced_short","","10","complex_dissimilar","images/stimuli/spore_stims/complex_03_A_a.gif","","","","",""
"","2414.9350000007544","survey-multi-choice","137","425780","0.0-30.0","SS1619739929640","math_question","","","","","","","","","","","","{""Q0"":""6""}","[0]","6","",""
"","null","html-keyboard-response","138","426665","0.0-31.0-0.0","SS1619739929640","","","null","","","","","","<p><img src= images/blank.png width =""600"" height = ""600"" style=""position:fixed;top:50%; left:50%; transform: translate(-50%, -50%); border:5px solid black"">","","","","","","","",""
"","162.20000000251457","sequential-stimulus-presentation-old","139","427340","0.0-31.0-1.0","SS1619739929640","trial","","40","500","662.2000000025146","images/stimuli/spore_stims/complex_04_A_a.gif","images/stimuli/spore_stims/complex_15_A_b.gif","self_paced","","11","complex_dissimilar","images/stimuli/spore_stims/complex_15_A_b.gif","","","","",""
"","null","html-keyboard-response","140","428209","0.0-31.0-0.1","SS1619739929640","","","null","","","","","","<p><img src= images/blank.png width =""600"" height = ""600"" style=""position:fixed;top:50%; left:50%; transform: translate(-50%, -50%); border:5px solid black"">","","","","","","","",""
"","351.8949999997858","sequential-stimulus-presentation-old","141","429074","0.0-31.0-1.1","SS1619739929640","trial","","40","500","851.8949999997858","images/stimuli/spore_stims/complex_04_A_a.gif","images/stimuli/spore_stims/complex_15_A_b.gif","self_paced","","11","complex_dissimilar","images/stimuli/spore_stims/complex_04_A_a.gif","","","","",""
"","null","html-keyboard-response","142","429923","0.0-31.0-0.2","SS1619739929640","","","null","","","","","","<p><img src= images/blank.png width =""600"" height = ""600"" style=""position:fixed;top:50%; left:50%; transform: translate(-50%, -50%); border:5px solid black"">","","","","","","","",""
"","48.455000000074506","sequential-stimulus-presentation-old","143","430486","0.0-31.0-1.2","SS1619739929640","trial","","40","500","548.4550000000745","images/stimuli/spore_stims/complex_04_A_a.gif","images/stimuli/spore_stims/complex_15_A_b.gif","self_paced","","11","complex_dissimilar","images/stimuli/spore_stims/complex_15_A_b.gif","","","","",""
"","null","html-keyboard-response","144","431467","0.0-31.0-0.3","SS1619739929640","","","null","","","","","","<p><img src= images/blank.png width =""600"" height = ""600"" style=""position:fixed;top:50%; left:50%; transform: translate(-50%, -50%); border:5px solid black"">","","","","","","","",""
"","54.79500000004191","sequential-stimulus-presentation-old","145","432035","0.0-31.0-1.3","SS1619739929640","trial","","40","500","554.7950000000419","images/stimuli/spore_stims/complex_04_A_a.gif","images/stimuli/spore_stims/complex_15_A_b.gif","self_paced","","11","complex_dissimilar","images/stimuli/spore_stims/complex_04_A_a.gif","","","","",""
"","null","html-keyboard-response","146","433086","0.0-31.0-0.4","SS1619739929640","","","null","","","","","","<p><img src= images/blank.png width =""600"" height = ""600"" style=""position:fixed;top:50%; left:50%; transform: translate(-50%, -50%); border:5px solid black"">","","","","","","","",""
"","68.0900000006659","sequential-stimulus-presentation-old","147","433661","0.0-31.0-1.4","SS1619739929640","trial","","40","500","568.0900000006659","images/stimuli/spore_stims/complex_04_A_a.gif","images/stimuli/spore_stims/complex_15_A_b.gif","self_paced","","11","complex_dissimilar","images/stimuli/spore_stims/complex_15_A_b.gif","","","","",""
"[{""page_index"":0,""viewing_time"":6193.810000000696}]","6194.260000000184","instructions","148","439861","0.0-32.0","SS1619739929640","instructions","","","","","","","","","","","","","","","",""
"","6045.6000000013155","survey-likert","149","445913","0.0-33.0","SS1619739929640","similarity_question","","","","","","","","","","","","{""Q0"":0}","[0]","","images/stimuli/spore_stims/simple_11_A_b.gif","images/stimuli/spore_stims/simple_07_A_a.gif"
"","3502.3550000005635","survey-likert","150","449423","0.0-34.0","SS1619739929640","similarity_question","","","","","","","","","","","","{""Q0"":0}","[0]","","images/stimuli/spore_stims/simple_14_A_b.gif","images/stimuli/spore_stims/simple_04_A_a.gif"
"","4451.5749999991385","survey-likert","151","453893","0.0-35.0","SS1619739929640","similarity_question","","","","","","","","","","","","{""Q0"":0}","[0]","","images/stimuli/spore_stims/complex_03_A_a.gif","images/stimuli/spore_stims/complex_18_A_b.gif"
"","3531.2599999997765","survey-likert","152","457429","0.0-36.0","SS1619739929640","similarity_question","","","","","","","","","","","","{""Q0"":0}","[0]","","images/stimuli/spore_stims/complex_15_A_b.gif","images/stimuli/spore_stims/complex_04_A_a.gif"
"","3113.194999998086","survey-likert","153","460548","0.0-37.0","SS1619739929640","similarity_question","","","","","","","","","","","","{""Q0"":1}","[0]","","images/stimuli/spore_stims/simple_03_A_b.gif","images/stimuli/spore_stims/simple_05_A_a.gif"
"","6793.849999998172","survey-likert","154","467349","0.0-38.0","SS1619739929640","similarity_question","","","","","","","","","","","","{""Q0"":4}","[0]","","images/stimuli/spore_stims/simple_11_A_a.gif","images/stimuli/spore_stims/simple_02_A_b.gif"
"","3987.8699999972014","survey-likert","155","471342","0.0-39.0","SS1619739929640","similarity_question","","","","","","","","","","","","{""Q0"":1}","[0]","","images/stimuli/spore_stims/simple_20_A_a.gif","images/stimuli/spore_stims/simple_13_A_b.gif"
"","3260.715000000375","survey-likert","156","474613","0.0-40.0","SS1619739929640","similarity_question","","","","","","","","","","","","{""Q0"":0}","[0]","","images/stimuli/spore_stims/complex_10_A_a.gif","images/stimuli/spore_stims/complex_08_A_b.gif"
"","2057.749999999942","survey-likert","157","476678","0.0-41.0","SS1619739929640","similarity_question","","","","","","","","","","","","{""Q0"":4}","[0]","","images/stimuli/spore_stims/simple_10_A_a.gif","images/stimuli/spore_stims/simple_08_A_b.gif"
"","5234.10000000149","survey-likert","158","481917","0.0-42.0","SS1619739929640","similarity_question","","","","","","","","","","","","{""Q0"":1}","[0]","","images/stimuli/spore_stims/complex_06_A_a.gif","images/stimuli/spore_stims/complex_19_A_b.gif"
"","2882.6049999989336","survey-likert","159","484806","0.0-43.0","SS1619739929640","similarity_question","","","","","","","","","","","","{""Q0"":0}","[0]","","images/stimuli/spore_stims/complex_13_A_b.gif","images/stimuli/spore_stims/complex_14_A_a.gif"
"","3318.745000000519","survey-likert","160","488133","0.0-44.0","SS1619739929640","similarity_question","","","","","","","","","","","","{""Q0"":0}","[0]","","images/stimuli/spore_stims/complex_16_A_b.gif","images/stimuli/spore_stims/complex_12_A_a.gif"
"[{""page_index"":0,""viewing_time"":2995.650000000722}]","2996.0199999986216","instructions","161","491133","0.0-45.0","SS1619739929640","instructions","","","","","","","","","","","","","","","",""
"","4843.369999998715","survey-likert","162","495981","0.0-46.0","SS1619739929640","","","","","","","","","images/stimuli/spore_stims/simple_08_A_b.gif","","","","{""Q0"":0}","[0]","","",""
"","1737.3599999991711","survey-likert","163","497726","0.0-47.0","SS1619739929640","","","","","","","","","images/stimuli/spore_stims/simple_20_A_a.gif","","","","{""Q0"":0}","[0]","","",""
"","1754.7000000012922","survey-likert","164","499486","0.0-48.0","SS1619739929640","","","","","","","","","images/stimuli/spore_stims/simple_04_A_a.gif","","","","{""Q0"":0}","[0]","","",""
"","3809.7550000019837","survey-likert","165","503301","0.0-49.0","SS1619739929640","","","","","","","","","images/stimuli/spore_stims/complex_06_A_a.gif","","","","{""Q0"":4}","[0]","","",""
"","3121.5899999988033","survey-likert","166","506430","0.0-50.0","SS1619739929640","","","","","","","","","images/stimuli/spore_stims/complex_13_A_b.gif","","","","{""Q0"":5}","[0]","","",""
"","1978.885000000475","survey-likert","167","508413","0.0-51.0","SS1619739929640","","","","","","","","","images/stimuli/spore_stims/simple_02_A_b.gif","","","","{""Q0"":0}","[0]","","",""
"","4881.934999997611","survey-likert","168","513301","0.0-52.0","SS1619739929640","","","","","","","","","images/stimuli/spore_stims/complex_03_A_a.gif","","","","{""Q0"":4}","[0]","","",""
"","2299.6649999986985","survey-likert","169","515606","0.0-53.0","SS1619739929640","","","","","","","","","images/stimuli/spore_stims/simple_05_A_a.gif","","","","{""Q0"":0}","[0]","","",""
"","2314.285000000382","survey-likert","170","517927","0.0-54.0","SS1619739929640","","","","","","","","","images/stimuli/spore_stims/complex_16_A_b.gif","","","","{""Q0"":4}","[0]","","",""
"","2368.699999999022","survey-likert","171","520302","0.0-55.0","SS1619739929640","","","","","","","","","images/stimuli/spore_stims/complex_04_A_a.gif","","","","{""Q0"":5}","[0]","","",""
"","3258.0549999984214","survey-likert","172","523565","0.0-56.0","SS1619739929640","","","","","","","","","images/stimuli/spore_stims/complex_08_A_b.gif","","","","{""Q0"":6}","[0]","","",""
"","1745.8200000000652","survey-likert","173","525318","0.0-57.0","SS1619739929640","","","","","","","","","images/stimuli/spore_stims/simple_07_A_a.gif","","","","{""Q0"":0}","[0]","","",""
"[{""page_index"":0,""viewing_time"":2207.350000000675}]","2207.754999999539","instructions","174","527533","0.0-58.0","SS1619739929640","instructions","","","","","","","","","","","","","","","",""
"","3649.1900000000605","demog-age","175","531189","0.0-59.0","SS1619739929640","","","","","","","","","","","","","{""age"":""18""}","","","",""
"","5176.755000000354","demog-ethnic-US","176","536374","0.0-60.0","SS1619739929640","","","","","","","","","","","","","{""ethnicity"":[""White""]}","[0]","","",""
"","7824.775000000955","demog-gender-and-education","177","544206","0.0-61.0","SS1619739929640","","","","","","","","","","","","","{""gender"":""Male"",""education"":""Some high school""}","[0,1]","","",""
"","5423.969999999856","survey-text","178","549638","0.0-62.0","SS1619739929640","feedback","","","","","","","","","","","","{""Q0"":""nop""}","","","",""
"[{""page_index"":0,""viewing_time"":3994.9049999995623}]","3995.275000001071","instructions","179","553637","0.0-63.0","SS1619739929640","instructions","","","","","","","","","","","","","","","",""
