"view_history","rt","trial_type","trial_index","time_elapsed","internal_node_id","subject","stimulus_type","trial_stimulus","key_press","minimum_viewing_duration","trial_looking_time","block_deviant","block_background","exposure_type","stimulus","block_number","block_type","stimulus_displayed","responses","question_order","math_correct_answer","stimulus_left","stimulus_right"
"[{""page_index"":0,""viewing_time"":5361.189999999624}]","5361.67000000205","instructions","0","5363","0.0-0.0","SS1619739705444","","","","","","","","","","","","","","","","",""
"[{""page_index"":0,""viewing_time"":12774.000000001251},{""page_index"":1,""viewing_time"":4655.940000000555}]","17430.130000000645","instructions","1","24795","0.0-1.0","SS1619739705444","instructions","","","","","","","","","","","","","","","",""
"","14866.365000001679","sequential-stimulus-presentation-old","2","40163","0.0-2.0","SS1619739705444","","","40","500","15366.365000001679","null","null","self_paced","","","","","","","","",""
"","6546.815000001516","sequential-stimulus-presentation-old","3","47212","0.0-3.0","SS1619739705444","","","40","500","7046.815000001516","null","null","self_paced","","","","","","","","",""
"[{""page_index"":0,""viewing_time"":30126.029999999446}]","30126.17500000124","instructions","4","77339","0.0-4.0","SS1619739705444","instructions","","","","","","","","","","","","","","","",""
"","1614.6650000009686","sequential-stimulus-presentation-old","5","93955","0.0-5.0","SS1619739705444","","","40","500","2114.6650000009686","null","null","forced_long","","","","","","","","",""
"","3234.1299999970943","sequential-stimulus-presentation-old","6","97699","0.0-6.0","SS1619739705444","","","40","500","3734.1299999970943","null","null","forced_long","","","","","","","","",""
"[{""page_index"":0,""viewing_time"":3430.884999997943}]","3431.0499999992317","instructions","7","101131","0.0-7.0","SS1619739705444","instructions","","","","","","","","","","","","","","","",""
"[{""page_index"":0,""viewing_time"":8599.289999998291},{""page_index"":1,""viewing_time"":23000.15500000154},{""page_index"":2,""viewing_time"":8735.649999998714},{""page_index"":3,""viewing_time"":2975.9500000000116},{""page_index"":4,""viewing_time"":1136.2350000017614}]","44447.43499999822","instructions","8","145579","0.0-8.0","SS1619739705444","instructions","","","","","","","","","","","","","","","",""
"","null","html-keyboard-response","9","146730","0.0-9.0-0.0","SS1619739705444","","","null","","","","","","<p><img src= images/blank.png width =""600"" height = ""600"" style=""position:fixed;top:50%; left:50%; transform: translate(-50%, -50%); border:5px solid black"">","","","","","","","",""
"","7017.264999998588","sequential-stimulus-presentation-old","10","154251","0.0-9.0-1.0","SS1619739705444","trial","","40","500","7517.264999998588","images/stimuli/spore_stims/complex_04_A_b.gif","images/stimuli/spore_stims/complex_13_A_a.gif","self_paced","","0","complex_dissimilar","images/stimuli/spore_stims/complex_13_A_a.gif","","","","",""
"","null","html-keyboard-response","11","155263","0.0-9.0-0.1","SS1619739705444","","","null","","","","","","<p><img src= images/blank.png width =""600"" height = ""600"" style=""position:fixed;top:50%; left:50%; transform: translate(-50%, -50%); border:5px solid black"">","","","","","","","",""
"","8277.719999998226","sequential-stimulus-presentation-old","12","164044","0.0-9.0-1.1","SS1619739705444","trial","","40","500","8777.719999998226","images/stimuli/spore_stims/complex_04_A_b.gif","images/stimuli/spore_stims/complex_13_A_a.gif","self_paced","","0","complex_dissimilar","images/stimuli/spore_stims/complex_13_A_a.gif","","","","",""
"","null","html-keyboard-response","13","164897","0.0-9.0-0.2","SS1619739705444","","","null","","","","","","<p><img src= images/blank.png width =""600"" height = ""600"" style=""position:fixed;top:50%; left:50%; transform: translate(-50%, -50%); border:5px solid black"">","","","","","","","",""
"","8177.7599999986705","sequential-stimulus-presentation-old","14","173587","0.0-9.0-1.2","SS1619739705444","trial","","40","500","8677.75999999867","images/stimuli/spore_stims/complex_04_A_b.gif","images/stimuli/spore_stims/complex_13_A_a.gif","self_paced","","0","complex_dissimilar","images/stimuli/spore_stims/complex_13_A_a.gif","","","","",""
"","null","html-keyboard-response","15","174468","0.0-9.0-0.3","SS1619739705444","","","null","","","","","","<p><img src= images/blank.png width =""600"" height = ""600"" style=""position:fixed;top:50%; left:50%; transform: translate(-50%, -50%); border:5px solid black"">","","","","","","","",""
"","9792.979999998352","sequential-stimulus-presentation-old","16","184764","0.0-9.0-1.3","SS1619739705444","trial","","40","500","10292.979999998352","images/stimuli/spore_stims/complex_04_A_b.gif","images/stimuli/spore_stims/complex_13_A_a.gif","self_paced","","0","complex_dissimilar","images/stimuli/spore_stims/complex_13_A_a.gif","","","","",""
"","5203.795000001264","survey-multi-choice","17","189971","0.0-10.0","SS1619739705444","math_question","","","","","","","","","","","","{""Q0"":""13""}","[0]","13","",""
"","null","html-keyboard-response","18","190817","0.0-11.0-0.0","SS1619739705444","","","null","","","","","","<p><img src= images/blank.png width =""600"" height = ""600"" style=""position:fixed;top:50%; left:50%; transform: translate(-50%, -50%); border:5px solid black"">","","","","","","","",""
"","10304.540000000998","sequential-stimulus-presentation-old","19","201628","0.0-11.0-1.0","SS1619739705444","trial","","40","500","10804.540000000998","images/stimuli/spore_stims/simple_04_A_a.gif","images/stimuli/spore_stims/simple_16_A_b.gif","self_paced","","1","simple_dissimilar","images/stimuli/spore_stims/simple_16_A_b.gif","","","","",""
"","null","html-keyboard-response","20","202613","0.0-11.0-0.1","SS1619739705444","","","null","","","","","","<p><img src= images/blank.png width =""600"" height = ""600"" style=""position:fixed;top:50%; left:50%; transform: translate(-50%, -50%); border:5px solid black"">","","","","","","","",""
"","9757.63999999981","sequential-stimulus-presentation-old","21","212884","0.0-11.0-1.1","SS1619739705444","trial","","40","500","10257.63999999981","images/stimuli/spore_stims/simple_04_A_a.gif","images/stimuli/spore_stims/simple_16_A_b.gif","self_paced","","1","simple_dissimilar","images/stimuli/spore_stims/simple_04_A_a.gif","","","","",""
"","null","html-keyboard-response","22","213808","0.0-11.0-0.2","SS1619739705444","","","null","","","","","","<p><img src= images/blank.png width =""600"" height = ""600"" style=""position:fixed;top:50%; left:50%; transform: translate(-50%, -50%); border:5px solid black"">","","","","","","","",""
"","8713.210000001709","sequential-stimulus-presentation-old","23","223035","0.0-11.0-1.2","SS1619739705444","trial","","40","500","9213.210000001709","images/stimuli/spore_stims/simple_04_A_a.gif","images/stimuli/spore_stims/simple_16_A_b.gif","self_paced","","1","simple_dissimilar","images/stimuli/spore_stims/simple_16_A_b.gif","","","","",""
"","null","html-keyboard-response","24","223864","0.0-11.0-0.3","SS1619739705444","","","null","","","","","","<p><img src= images/blank.png width =""600"" height = ""600"" style=""position:fixed;top:50%; left:50%; transform: translate(-50%, -50%); border:5px solid black"">","","","","","","","",""
"","10595.7550000021","sequential-stimulus-presentation-old","25","234964","0.0-11.0-1.3","SS1619739705444","trial","","40","500","11095.7550000021","images/stimuli/spore_stims/simple_04_A_a.gif","images/stimuli/spore_stims/simple_16_A_b.gif","self_paced","","1","simple_dissimilar","images/stimuli/spore_stims/simple_16_A_b.gif","","","","",""
"","null","html-keyboard-response","26","235802","0.0-11.0-0.4","SS1619739705444","","","null","","","","","","<p><img src= images/blank.png width =""600"" height = ""600"" style=""position:fixed;top:50%; left:50%; transform: translate(-50%, -50%); border:5px solid black"">","","","","","","","",""
"","7898.070000002917","sequential-stimulus-presentation-old","27","244203","0.0-11.0-1.4","SS1619739705444","trial","","40","500","8398.070000002917","images/stimuli/spore_stims/simple_04_A_a.gif","images/stimuli/spore_stims/simple_16_A_b.gif","self_paced","","1","simple_dissimilar","images/stimuli/spore_stims/simple_04_A_a.gif","","","","",""
"","3877.5949999981094","survey-multi-choice","28","248083","0.0-12.0","SS1619739705444","math_question","","","","","","","","","","","","{""Q0"":""9""}","[0]","9","",""
"","null","html-keyboard-response","29","249250","0.0-13.0-0.0","SS1619739705444","","","null","","","","","","<p><img src= images/blank.png width =""600"" height = ""600"" style=""position:fixed;top:50%; left:50%; transform: translate(-50%, -50%); border:5px solid black"">","","","","","","","",""
"","2243.660000000091","sequential-stimulus-presentation-old","30","266499","0.0-13.0-1.0","SS1619739705444","trial","","40","500","2743.660000000091","images/stimuli/spore_stims/complex_20_A_a.gif","images/stimuli/spore_stims/complex_06_A_b.gif","forced_long","","2","complex_dissimilar","images/stimuli/spore_stims/complex_06_A_b.gif","","","","",""
"","null","html-keyboard-response","31","267760","0.0-13.0-0.1","SS1619739705444","","","null","","","","","","<p><img src= images/blank.png width =""600"" height = ""600"" style=""position:fixed;top:50%; left:50%; transform: translate(-50%, -50%); border:5px solid black"">","","","","","","","",""
"","11149.160000000848","sequential-stimulus-presentation-old","32","279412","0.0-13.0-1.1","SS1619739705444","trial","","40","500","11649.160000000848","images/stimuli/spore_stims/complex_20_A_a.gif","images/stimuli/spore_stims/complex_06_A_b.gif","forced_long","","2","complex_dissimilar","images/stimuli/spore_stims/complex_06_A_b.gif","","","","",""
"","null","html-keyboard-response","33","280433","0.0-13.0-0.2","SS1619739705444","","","null","","","","","","<p><img src= images/blank.png width =""600"" height = ""600"" style=""position:fixed;top:50%; left:50%; transform: translate(-50%, -50%); border:5px solid black"">","","","","","","","",""
"","17930.004999998317","sequential-stimulus-presentation-old","34","298867","0.0-13.0-1.2","SS1619739705444","trial","","40","500","18430.004999998317","images/stimuli/spore_stims/complex_20_A_a.gif","images/stimuli/spore_stims/complex_06_A_b.gif","forced_long","","2","complex_dissimilar","images/stimuli/spore_stims/complex_20_A_a.gif","","","","",""
"","null","html-keyboard-response","35","299927","0.0-13.0-0.3","SS1619739705444","","","null","","","","","","<p><img src= images/blank.png width =""600"" height = ""600"" style=""position:fixed;top:50%; left:50%; transform: translate(-50%, -50%); border:5px solid black"">","","","","","","","",""
"","6546.459999997751","sequential-stimulus-presentation-old","36","306986","0.0-13.0-1.3","SS1619739705444","trial","","40","500","7046.459999997751","images/stimuli/spore_stims/complex_20_A_a.gif","images/stimuli/spore_stims/complex_06_A_b.gif","forced_long","","2","complex_dissimilar","images/stimuli/spore_stims/complex_20_A_a.gif","","","","",""
"","7286.324999997276","survey-multi-choice","37","314275","0.0-14.0","SS1619739705444","math_question","","","","","","","","","","","","{""Q0"":""11""}","[0]","11","",""
"","null","html-keyboard-response","38","315188","0.0-15.0-0.0","SS1619739705444","","","null","","","","","","<p><img src= images/blank.png width =""600"" height = ""600"" style=""position:fixed;top:50%; left:50%; transform: translate(-50%, -50%); border:5px solid black"">","","","","","","","",""
"","2202.7150000031106","sequential-stimulus-presentation-old","39","332395","0.0-15.0-1.0","SS1619739705444","trial","","40","500","2702.7150000031106","images/stimuli/spore_stims/complex_17_A_a.gif","images/stimuli/spore_stims/complex_10_A_b.gif","forced_long","","3","complex_dissimilar","images/stimuli/spore_stims/complex_10_A_b.gif","","","","",""
"","null","html-keyboard-response","40","333543","0.0-15.0-0.1","SS1619739705444","","","null","","","","","","<p><img src= images/blank.png width =""600"" height = ""600"" style=""position:fixed;top:50%; left:50%; transform: translate(-50%, -50%); border:5px solid black"">","","","","","","","",""
"","7553.4350000016275","sequential-stimulus-presentation-old","41","341611","0.0-15.0-1.1","SS1619739705444","trial","","40","500","8053.4350000016275","images/stimuli/spore_stims/complex_17_A_a.gif","images/stimuli/spore_stims/complex_10_A_b.gif","forced_long","","3","complex_dissimilar","images/stimuli/spore_stims/complex_10_A_b.gif","","","","",""
"","null","html-keyboard-response","42","342422","0.0-15.0-0.2","SS1619739705444","","","null","","","","","","<p><img src= images/blank.png width =""600"" height = ""600"" style=""position:fixed;top:50%; left:50%; transform: translate(-50%, -50%); border:5px solid black"">","","","","","","","",""
"","11155.999999999069","sequential-stimulus-presentation-old","43","354083","0.0-15.0-1.2","SS1619739705444","trial","","40","500","11655.999999999069","images/stimuli/spore_stims/complex_17_A_a.gif","images/stimuli/spore_stims/complex_10_A_b.gif","forced_long","","3","complex_dissimilar","images/stimuli/spore_stims/complex_17_A_a.gif","","","","",""
"","null","html-keyboard-response","44","355307","0.0-15.0-0.3","SS1619739705444","","","null","","","","","","<p><img src= images/blank.png width =""600"" height = ""600"" style=""position:fixed;top:50%; left:50%; transform: translate(-50%, -50%); border:5px solid black"">","","","","","","","",""
"","8785.785000000033","sequential-stimulus-presentation-old","45","364603","0.0-15.0-1.3","SS1619739705444","trial","","40","500","9285.785000000033","images/stimuli/spore_stims/complex_17_A_a.gif","images/stimuli/spore_stims/complex_10_A_b.gif","forced_long","","3","complex_dissimilar","images/stimuli/spore_stims/complex_17_A_a.gif","","","","",""
"","null","html-keyboard-response","46","365879","0.0-15.0-0.4","SS1619739705444","","","null","","","","","","<p><img src= images/blank.png width =""600"" height = ""600"" style=""position:fixed;top:50%; left:50%; transform: translate(-50%, -50%); border:5px solid black"">","","","","","","","",""
"","8076.094999996712","sequential-stimulus-presentation-old","47","374459","0.0-15.0-1.4","SS1619739705444","trial","","40","500","8576.094999996712","images/stimuli/spore_stims/complex_17_A_a.gif","images/stimuli/spore_stims/complex_10_A_b.gif","forced_long","","3","complex_dissimilar","images/stimuli/spore_stims/complex_10_A_b.gif","","","","",""
"","null","html-keyboard-response","48","375481","0.0-15.0-0.5","SS1619739705444","","","null","","","","","","<p><img src= images/blank.png width =""600"" height = ""600"" style=""position:fixed;top:50%; left:50%; transform: translate(-50%, -50%); border:5px solid black"">","","","","","","","",""
"","9426.179999998596","sequential-stimulus-presentation-old","49","385420","0.0-15.0-1.5","SS1619739705444","trial","","40","500","9926.179999998596","images/stimuli/spore_stims/complex_17_A_a.gif","images/stimuli/spore_stims/complex_10_A_b.gif","forced_long","","3","complex_dissimilar","images/stimuli/spore_stims/complex_10_A_b.gif","","","","",""
"","4364.574999999604","survey-multi-choice","50","389787","0.0-16.0","SS1619739705444","math_question","","","","","","","","","","","","{""Q0"":""7""}","[0]","7","",""
"","null","html-keyboard-response","51","390589","0.0-17.0-0.0","SS1619739705444","","","null","","","","","","<p><img src= images/blank.png width =""600"" height = ""600"" style=""position:fixed;top:50%; left:50%; transform: translate(-50%, -50%); border:5px solid black"">","","","","","","","",""
"","2245.7649999996647","sequential-stimulus-presentation-old","52","393339","0.0-17.0-1.0","SS1619739705444","trial","","40","500","2745.7649999996647","images/stimuli/spore_stims/complex_02_A_b.gif","images/stimuli/spore_stims/complex_03_A_a.gif","forced_short","","4","complex_dissimilar","images/stimuli/spore_stims/complex_03_A_a.gif","","","","",""
"","null","html-keyboard-response","53","394250","0.0-17.0-0.1","SS1619739705444","","","null","","","","","","<p><img src= images/blank.png width =""600"" height = ""600"" style=""position:fixed;top:50%; left:50%; transform: translate(-50%, -50%); border:5px solid black"">","","","","","","","",""
"","11161.384999999427","sequential-stimulus-presentation-old","54","405915","0.0-17.0-1.1","SS1619739705444","trial","","40","500","11661.384999999427","images/stimuli/spore_stims/complex_02_A_b.gif","images/stimuli/spore_stims/complex_03_A_a.gif","forced_short","","4","complex_dissimilar","images/stimuli/spore_stims/complex_03_A_a.gif","","","","",""
"","null","html-keyboard-response","55","406764","0.0-17.0-0.2","SS1619739705444","","","null","","","","","","<p><img src= images/blank.png width =""600"" height = ""600"" style=""position:fixed;top:50%; left:50%; transform: translate(-50%, -50%); border:5px solid black"">","","","","","","","",""
"","8063.005000000005","sequential-stimulus-presentation-old","56","415339","0.0-17.0-1.2","SS1619739705444","trial","","40","500","8563.005000000005","images/stimuli/spore_stims/complex_02_A_b.gif","images/stimuli/spore_stims/complex_03_A_a.gif","forced_short","","4","complex_dissimilar","images/stimuli/spore_stims/complex_03_A_a.gif","","","","",""
"","null","html-keyboard-response","57","416165","0.0-17.0-0.3","SS1619739705444","","","null","","","","","","<p><img src= images/blank.png width =""600"" height = ""600"" style=""position:fixed;top:50%; left:50%; transform: translate(-50%, -50%); border:5px solid black"">","","","","","","","",""
"","9804.514999999781","sequential-stimulus-presentation-old","58","426475","0.0-17.0-1.3","SS1619739705444","trial","","40","500","10304.514999999781","images/stimuli/spore_stims/complex_02_A_b.gif","images/stimuli/spore_stims/complex_03_A_a.gif","forced_short","","4","complex_dissimilar","images/stimuli/spore_stims/complex_03_A_a.gif","","","","",""
"","null","html-keyboard-response","59","427342","0.0-17.0-0.4","SS1619739705444","","","null","","","","","","<p><img src= images/blank.png width =""600"" height = ""600"" style=""position:fixed;top:50%; left:50%; transform: translate(-50%, -50%); border:5px solid black"">","","","","","","","",""
"","5807.225000000501","sequential-stimulus-presentation-old","60","433651","0.0-17.0-1.4","SS1619739705444","trial","","40","500","6307.225000000501","images/stimuli/spore_stims/complex_02_A_b.gif","images/stimuli/spore_stims/complex_03_A_a.gif","forced_short","","4","complex_dissimilar","images/stimuli/spore_stims/complex_03_A_a.gif","","","","",""
"","null","html-keyboard-response","61","434857","0.0-17.0-0.5","SS1619739705444","","","null","","","","","","<p><img src= images/blank.png width =""600"" height = ""600"" style=""position:fixed;top:50%; left:50%; transform: translate(-50%, -50%); border:5px solid black"">","","","","","","","",""
"","5977.820000000065","sequential-stimulus-presentation-old","62","441340","0.0-17.0-1.5","SS1619739705444","trial","","40","500","6477.820000000065","images/stimuli/spore_stims/complex_02_A_b.gif","images/stimuli/spore_stims/complex_03_A_a.gif","forced_short","","4","complex_dissimilar","images/stimuli/spore_stims/complex_03_A_a.gif","","","","",""
"","4149.314999998722","survey-multi-choice","63","445491","0.0-18.0","SS1619739705444","math_question","","","","","","","","","","","","{""Q0"":""10""}","[0]","10","",""
"","null","html-keyboard-response","64","446345","0.0-19.0-0.0","SS1619739705444","","","null","","","","","","<p><img src= images/blank.png width =""600"" height = ""600"" style=""position:fixed;top:50%; left:50%; transform: translate(-50%, -50%); border:5px solid black"">","","","","","","","",""
"","1853.0350000000326","sequential-stimulus-presentation-old","65","448707","0.0-19.0-1.0","SS1619739705444","trial","","40","500","2353.0350000000326","images/stimuli/spore_stims/simple_13_A_a.gif","images/stimuli/spore_stims/simple_07_A_b.gif","forced_short","","5","simple_dissimilar","images/stimuli/spore_stims/simple_07_A_b.gif","","","","",""
"","null","html-keyboard-response","66","449592","0.0-19.0-0.1","SS1619739705444","","","null","","","","","","<p><img src= images/blank.png width =""600"" height = ""600"" style=""position:fixed;top:50%; left:50%; transform: translate(-50%, -50%); border:5px solid black"">","","","","","","","",""
"","10787.860000000335","sequential-stimulus-presentation-old","67","460883","0.0-19.0-1.1","SS1619739705444","trial","","40","500","11287.860000000335","images/stimuli/spore_stims/simple_13_A_a.gif","images/stimuli/spore_stims/simple_07_A_b.gif","forced_short","","5","simple_dissimilar","images/stimuli/spore_stims/simple_13_A_a.gif","","","","",""
"","null","html-keyboard-response","68","461842","0.0-19.0-0.2","SS1619739705444","","","null","","","","","","<p><img src= images/blank.png width =""600"" height = ""600"" style=""position:fixed;top:50%; left:50%; transform: translate(-50%, -50%); border:5px solid black"">","","","","","","","",""
"","9401.15500000323","sequential-stimulus-presentation-old","69","471747","0.0-19.0-1.2","SS1619739705444","trial","","40","500","9901.15500000323","images/stimuli/spore_stims/simple_13_A_a.gif","images/stimuli/spore_stims/simple_07_A_b.gif","forced_short","","5","simple_dissimilar","images/stimuli/spore_stims/simple_13_A_a.gif","","","","",""
"","null","html-keyboard-response","70","472962","0.0-19.0-0.3","SS1619739705444","","","null","","","","","","<p><img src= images/blank.png width =""600"" height = ""600"" style=""position:fixed;top:50%; left:50%; transform: translate(-50%, -50%); border:5px solid black"">","","","","","","","",""
"","9131.044999998237","sequential-stimulus-presentation-old","71","482595","0.0-19.0-1.3","SS1619739705444","trial","","40","500","9631.044999998237","images/stimuli/spore_stims/simple_13_A_a.gif","images/stimuli/spore_stims/simple_07_A_b.gif","forced_short","","5","simple_dissimilar","images/stimuli/spore_stims/simple_07_A_b.gif","","","","",""
"","null","html-keyboard-response","72","483857","0.0-19.0-0.4","SS1619739705444","","","null","","","","","","<p><img src= images/blank.png width =""600"" height = ""600"" style=""position:fixed;top:50%; left:50%; transform: translate(-50%, -50%); border:5px solid black"">","","","","","","","",""
"","6833.010000002105","sequential-stimulus-presentation-old","73","491203","0.0-19.0-1.4","SS1619739705444","trial","","40","500","7333.010000002105","images/stimuli/spore_stims/simple_13_A_a.gif","images/stimuli/spore_stims/simple_07_A_b.gif","forced_short","","5","simple_dissimilar","images/stimuli/spore_stims/simple_07_A_b.gif","","","","",""
"","3613.3349999981583","survey-multi-choice","74","494819","0.0-20.0","SS1619739705444","math_question","","","","","","","","","","","","{""Q0"":""8""}","[0]","8","",""
"","null","html-keyboard-response","75","495958","0.0-21.0-0.0","SS1619739705444","","","null","","","","","","<p><img src= images/blank.png width =""600"" height = ""600"" style=""position:fixed;top:50%; left:50%; transform: translate(-50%, -50%); border:5px solid black"">","","","","","","","",""
"","1835.3500000011409","sequential-stimulus-presentation-old","76","498298","0.0-21.0-1.0","SS1619739705444","trial","","40","500","2335.350000001141","images/stimuli/spore_stims/simple_11_A_a.gif","images/stimuli/spore_stims/simple_19_A_b.gif","forced_short","","6","simple_dissimilar","images/stimuli/spore_stims/simple_19_A_b.gif","","","","",""
"","null","html-keyboard-response","77","499388","0.0-21.0-0.1","SS1619739705444","","","null","","","","","","<p><img src= images/blank.png width =""600"" height = ""600"" style=""position:fixed;top:50%; left:50%; transform: translate(-50%, -50%); border:5px solid black"">","","","","","","","",""
"","6693.735000000801","sequential-stimulus-presentation-old","78","506587","0.0-21.0-1.1","SS1619739705444","trial","","40","500","7193.735000000801","images/stimuli/spore_stims/simple_11_A_a.gif","images/stimuli/spore_stims/simple_19_A_b.gif","forced_short","","6","simple_dissimilar","images/stimuli/spore_stims/simple_19_A_b.gif","","","","",""
"","null","html-keyboard-response","79","507847","0.0-21.0-0.2","SS1619739705444","","","null","","","","","","<p><img src= images/blank.png width =""600"" height = ""600"" style=""position:fixed;top:50%; left:50%; transform: translate(-50%, -50%); border:5px solid black"">","","","","","","","",""
"","8499.92999999813","sequential-stimulus-presentation-old","80","516858","0.0-21.0-1.2","SS1619739705444","trial","","40","500","8999.92999999813","images/stimuli/spore_stims/simple_11_A_a.gif","images/stimuli/spore_stims/simple_19_A_b.gif","forced_short","","6","simple_dissimilar","images/stimuli/spore_stims/simple_19_A_b.gif","","","","",""
"","null","html-keyboard-response","81","517913","0.0-21.0-0.3","SS1619739705444","","","null","","","","","","<p><img src= images/blank.png width =""600"" height = ""600"" style=""position:fixed;top:50%; left:50%; transform: translate(-50%, -50%); border:5px solid black"">","","","","","","","",""
"","8154.7499999979045","sequential-stimulus-presentation-old","82","526571","0.0-21.0-1.3","SS1619739705444","trial","","40","500","8654.749999997905","images/stimuli/spore_stims/simple_11_A_a.gif","images/stimuli/spore_stims/simple_19_A_b.gif","forced_short","","6","simple_dissimilar","images/stimuli/spore_stims/simple_19_A_b.gif","","","","",""
"","null","html-keyboard-response","83","527686","0.0-21.0-0.4","SS1619739705444","","","null","","","","","","<p><img src= images/blank.png width =""600"" height = ""600"" style=""position:fixed;top:50%; left:50%; transform: translate(-50%, -50%); border:5px solid black"">","","","","","","","",""
"","11566.704999997397","sequential-stimulus-presentation-old","84","539755","0.0-21.0-1.4","SS1619739705444","trial","","40","500","12066.704999997397","images/stimuli/spore_stims/simple_11_A_a.gif","images/stimuli/spore_stims/simple_19_A_b.gif","forced_short","","6","simple_dissimilar","images/stimuli/spore_stims/simple_11_A_a.gif","","","","",""
"","4211.644999999437","survey-multi-choice","85","543971","0.0-22.0","SS1619739705444","math_question","","","","","","","","","","","","{""Q0"":""12""}","[0]","12","",""
"","null","html-keyboard-response","86","544838","0.0-23.0-0.0","SS1619739705444","","","null","","","","","","<p><img src= images/blank.png width =""600"" height = ""600"" style=""position:fixed;top:50%; left:50%; transform: translate(-50%, -50%); border:5px solid black"">","","","","","","","",""
"","1899.92500000156","sequential-stimulus-presentation-old","87","547242","0.0-23.0-1.0","SS1619739705444","trial","","40","500","2399.92500000156","images/stimuli/spore_stims/complex_15_A_a.gif","images/stimuli/spore_stims/complex_07_A_b.gif","forced_short","","7","complex_dissimilar","images/stimuli/spore_stims/complex_07_A_b.gif","","","","",""
"","null","html-keyboard-response","88","548206","0.0-23.0-0.1","SS1619739705444","","","null","","","","","","<p><img src= images/blank.png width =""600"" height = ""600"" style=""position:fixed;top:50%; left:50%; transform: translate(-50%, -50%); border:5px solid black"">","","","","","","","",""
"","9156.979999999749","sequential-stimulus-presentation-old","89","557867","0.0-23.0-1.1","SS1619739705444","trial","","40","500","9656.979999999749","images/stimuli/spore_stims/complex_15_A_a.gif","images/stimuli/spore_stims/complex_07_A_b.gif","forced_short","","7","complex_dissimilar","images/stimuli/spore_stims/complex_07_A_b.gif","","","","",""
"","null","html-keyboard-response","90","558987","0.0-23.0-0.2","SS1619739705444","","","null","","","","","","<p><img src= images/blank.png width =""600"" height = ""600"" style=""position:fixed;top:50%; left:50%; transform: translate(-50%, -50%); border:5px solid black"">","","","","","","","",""
"","13589.56500000204","sequential-stimulus-presentation-old","91","573090","0.0-23.0-1.2","SS1619739705444","trial","","40","500","14089.56500000204","images/stimuli/spore_stims/complex_15_A_a.gif","images/stimuli/spore_stims/complex_07_A_b.gif","forced_short","","7","complex_dissimilar","images/stimuli/spore_stims/complex_07_A_b.gif","","","","",""
"","null","html-keyboard-response","92","574233","0.0-23.0-0.3","SS1619739705444","","","null","","","","","","<p><img src= images/blank.png width =""600"" height = ""600"" style=""position:fixed;top:50%; left:50%; transform: translate(-50%, -50%); border:5px solid black"">","","","","","","","",""
"","7269.080000001821","sequential-stimulus-presentation-old","93","582018","0.0-23.0-1.3","SS1619739705444","trial","","40","500","7769.080000001821","images/stimuli/spore_stims/complex_15_A_a.gif","images/stimuli/spore_stims/complex_07_A_b.gif","forced_short","","7","complex_dissimilar","images/stimuli/spore_stims/complex_07_A_b.gif","","","","",""
"","null","html-keyboard-response","94","583215","0.0-23.0-0.4","SS1619739705444","","","null","","","","","","<p><img src= images/blank.png width =""600"" height = ""600"" style=""position:fixed;top:50%; left:50%; transform: translate(-50%, -50%); border:5px solid black"">","","","","","","","",""
"","10930.169999999576","sequential-stimulus-presentation-old","95","594651","0.0-23.0-1.4","SS1619739705444","trial","","40","500","11430.169999999576","images/stimuli/spore_stims/complex_15_A_a.gif","images/stimuli/spore_stims/complex_07_A_b.gif","forced_short","","7","complex_dissimilar","images/stimuli/spore_stims/complex_07_A_b.gif","","","","",""
"","4485.889999999898","survey-multi-choice","96","599138","0.0-24.0","SS1619739705444","math_question","","","","","","","","","","","","{""Q0"":""16""}","[0]","16","",""
"","null","html-keyboard-response","97","600353","0.0-25.0-0.0","SS1619739705444","","","null","","","","","","<p><img src= images/blank.png width =""600"" height = ""600"" style=""position:fixed;top:50%; left:50%; transform: translate(-50%, -50%); border:5px solid black"">","","","","","","","",""
"","6978.455000000424","sequential-stimulus-presentation-old","98","607835","0.0-25.0-1.0","SS1619739705444","trial","","40","500","7478.455000000424","images/stimuli/spore_stims/simple_20_A_b.gif","images/stimuli/spore_stims/simple_07_A_a.gif","self_paced","","8","simple_dissimilar","images/stimuli/spore_stims/simple_07_A_a.gif","","","","",""
"","null","html-keyboard-response","99","608751","0.0-25.0-0.1","SS1619739705444","","","null","","","","","","<p><img src= images/blank.png width =""600"" height = ""600"" style=""position:fixed;top:50%; left:50%; transform: translate(-50%, -50%); border:5px solid black"">","","","","","","","",""
"","13415.569999997388","sequential-stimulus-presentation-old","100","622683","0.0-25.0-1.1","SS1619739705444","trial","","40","500","13915.569999997388","images/stimuli/spore_stims/simple_20_A_b.gif","images/stimuli/spore_stims/simple_07_A_a.gif","self_paced","","8","simple_dissimilar","images/stimuli/spore_stims/simple_07_A_a.gif","","","","",""
"","null","html-keyboard-response","101","623854","0.0-25.0-0.2","SS1619739705444","","","null","","","","","","<p><img src= images/blank.png width =""600"" height = ""600"" style=""position:fixed;top:50%; left:50%; transform: translate(-50%, -50%); border:5px solid black"">","","","","","","","",""
"","14706.129999998724","sequential-stimulus-presentation-old","102","639066","0.0-25.0-1.2","SS1619739705444","trial","","40","500","15206.129999998724","images/stimuli/spore_stims/simple_20_A_b.gif","images/stimuli/spore_stims/simple_07_A_a.gif","self_paced","","8","simple_dissimilar","images/stimuli/spore_stims/simple_20_A_b.gif","","","","",""
"","null","html-keyboard-response","103","640157","0.0-25.0-0.3","SS1619739705444","","","null","","","","","","<p><img src= images/blank.png width =""600"" height = ""600"" style=""position:fixed;top:50%; left:50%; transform: translate(-50%, -50%); border:5px solid black"">","","","","","","","",""
"","9803.734999997658","sequential-stimulus-presentation-old","104","650467","0.0-25.0-1.3","SS1619739705444","trial","","40","500","10303.734999997658","images/stimuli/spore_stims/simple_20_A_b.gif","images/stimuli/spore_stims/simple_07_A_a.gif","self_paced","","8","simple_dissimilar","images/stimuli/spore_stims/simple_07_A_a.gif","","","","",""
"","null","html-keyboard-response","105","651364","0.0-25.0-0.4","SS1619739705444","","","null","","","","","","<p><img src= images/blank.png width =""600"" height = ""600"" style=""position:fixed;top:50%; left:50%; transform: translate(-50%, -50%); border:5px solid black"">","","","","","","","",""
"","9725.545000001206","sequential-stimulus-presentation-old","106","661602","0.0-25.0-1.4","SS1619739705444","trial","","40","500","10225.545000001206","images/stimuli/spore_stims/simple_20_A_b.gif","images/stimuli/spore_stims/simple_07_A_a.gif","self_paced","","8","simple_dissimilar","images/stimuli/spore_stims/simple_07_A_a.gif","","","","",""
"","null","html-keyboard-response","107","662442","0.0-25.0-0.5","SS1619739705444","","","null","","","","","","<p><img src= images/blank.png width =""600"" height = ""600"" style=""position:fixed;top:50%; left:50%; transform: translate(-50%, -50%); border:5px solid black"">","","","","","","","",""
"","9094.584999998915","sequential-stimulus-presentation-old","108","672044","0.0-25.0-1.5","SS1619739705444","trial","","40","500","9594.584999998915","images/stimuli/spore_stims/simple_20_A_b.gif","images/stimuli/spore_stims/simple_07_A_a.gif","self_paced","","8","simple_dissimilar","images/stimuli/spore_stims/simple_07_A_a.gif","","","","",""
"","3322.8049999998184","survey-multi-choice","109","675370","0.0-26.0","SS1619739705444","math_question","","","","","","","","","","","","{""Q0"":""7""}","[0]","7","",""
"","null","html-keyboard-response","110","676394","0.0-27.0-0.0","SS1619739705444","","","null","","","","","","<p><img src= images/blank.png width =""600"" height = ""600"" style=""position:fixed;top:50%; left:50%; transform: translate(-50%, -50%); border:5px solid black"">","","","","","","","",""
"","1065.5450000013225","sequential-stimulus-presentation-old","111","692466","0.0-27.0-1.0","SS1619739705444","trial","","40","500","1565.5450000013225","images/stimuli/spore_stims/simple_17_A_b.gif","images/stimuli/spore_stims/simple_03_A_a.gif","forced_long","","9","simple_dissimilar","images/stimuli/spore_stims/simple_03_A_a.gif","","","","",""
"","null","html-keyboard-response","112","693635","0.0-27.0-0.1","SS1619739705444","","","null","","","","","","<p><img src= images/blank.png width =""600"" height = ""600"" style=""position:fixed;top:50%; left:50%; transform: translate(-50%, -50%); border:5px solid black"">","","","","","","","",""
"","9277.145000000019","sequential-stimulus-presentation-old","113","703418","0.0-27.0-1.1","SS1619739705444","trial","","40","500","9777.145000000019","images/stimuli/spore_stims/simple_17_A_b.gif","images/stimuli/spore_stims/simple_03_A_a.gif","forced_long","","9","simple_dissimilar","images/stimuli/spore_stims/simple_03_A_a.gif","","","","",""
"","null","html-keyboard-response","114","704304","0.0-27.0-0.2","SS1619739705444","","","null","","","","","","<p><img src= images/blank.png width =""600"" height = ""600"" style=""position:fixed;top:50%; left:50%; transform: translate(-50%, -50%); border:5px solid black"">","","","","","","","",""
"","11383.705000000191","sequential-stimulus-presentation-old","115","716194","0.0-27.0-1.2","SS1619739705444","trial","","40","500","11883.705000000191","images/stimuli/spore_stims/simple_17_A_b.gif","images/stimuli/spore_stims/simple_03_A_a.gif","forced_long","","9","simple_dissimilar","images/stimuli/spore_stims/simple_17_A_b.gif","","","","",""
"","null","html-keyboard-response","116","717135","0.0-27.0-0.3","SS1619739705444","","","null","","","","","","<p><img src= images/blank.png width =""600"" height = ""600"" style=""position:fixed;top:50%; left:50%; transform: translate(-50%, -50%); border:5px solid black"">","","","","","","","",""
"","14362.349999999511","sequential-stimulus-presentation-old","117","732010","0.0-27.0-1.3","SS1619739705444","trial","","40","500","14862.349999999511","images/stimuli/spore_stims/simple_17_A_b.gif","images/stimuli/spore_stims/simple_03_A_a.gif","forced_long","","9","simple_dissimilar","images/stimuli/spore_stims/simple_03_A_a.gif","","","","",""
"","null","html-keyboard-response","118","733042","0.0-27.0-0.4","SS1619739705444","","","null","","","","","","<p><img src= images/blank.png width =""600"" height = ""600"" style=""position:fixed;top:50%; left:50%; transform: translate(-50%, -50%); border:5px solid black"">","","","","","","","",""
"","5708.070000000647","sequential-stimulus-presentation-old","119","739257","0.0-27.0-1.4","SS1619739705444","trial","","40","500","6208.070000000647","images/stimuli/spore_stims/simple_17_A_b.gif","images/stimuli/spore_stims/simple_03_A_a.gif","forced_long","","9","simple_dissimilar","images/stimuli/spore_stims/simple_03_A_a.gif","","","","",""
"","null","html-keyboard-response","120","740271","0.0-27.0-0.5","SS1619739705444","","","null","","","","","","<p><img src= images/blank.png width =""600"" height = ""600"" style=""position:fixed;top:50%; left:50%; transform: translate(-50%, -50%); border:5px solid black"">","","","","","","","",""
"","7668.464999998803","sequential-stimulus-presentation-old","121","748451","0.0-27.0-1.5","SS1619739705444","trial","","40","500","8168.464999998803","images/stimuli/spore_stims/simple_17_A_b.gif","images/stimuli/spore_stims/simple_03_A_a.gif","forced_long","","9","simple_dissimilar","images/stimuli/spore_stims/simple_03_A_a.gif","","","","",""
"","3444.019999998971","survey-multi-choice","122","751898","0.0-28.0","SS1619739705444","math_question","","","","","","","","","","","","{""Q0"":""9""}","[0]","9","",""
"","null","html-keyboard-response","123","752788","0.0-29.0-0.0","SS1619739705444","","","null","","","","","","<p><img src= images/blank.png width =""600"" height = ""600"" style=""position:fixed;top:50%; left:50%; transform: translate(-50%, -50%); border:5px solid black"">","","","","","","","",""
"","8767.81000000122","sequential-stimulus-presentation-old","124","762058","0.0-29.0-1.0","SS1619739705444","trial","","40","500","9267.81000000122","images/stimuli/spore_stims/complex_08_A_b.gif","images/stimuli/spore_stims/complex_05_A_a.gif","self_paced","","10","complex_dissimilar","images/stimuli/spore_stims/complex_05_A_a.gif","","","","",""
"","null","html-keyboard-response","125","762870","0.0-29.0-0.1","SS1619739705444","","","null","","","","","","<p><img src= images/blank.png width =""600"" height = ""600"" style=""position:fixed;top:50%; left:50%; transform: translate(-50%, -50%); border:5px solid black"">","","","","","","","",""
"","16025.985000000219","sequential-stimulus-presentation-old","126","779402","0.0-29.0-1.1","SS1619739705444","trial","","40","500","16525.98500000022","images/stimuli/spore_stims/complex_08_A_b.gif","images/stimuli/spore_stims/complex_05_A_a.gif","self_paced","","10","complex_dissimilar","images/stimuli/spore_stims/complex_05_A_a.gif","","","","",""
"","null","html-keyboard-response","127","780675","0.0-29.0-0.2","SS1619739705444","","","null","","","","","","<p><img src= images/blank.png width =""600"" height = ""600"" style=""position:fixed;top:50%; left:50%; transform: translate(-50%, -50%); border:5px solid black"">","","","","","","","",""
"","12749.650000001537","sequential-stimulus-presentation-old","128","793939","0.0-29.0-1.2","SS1619739705444","trial","","40","500","13249.650000001537","images/stimuli/spore_stims/complex_08_A_b.gif","images/stimuli/spore_stims/complex_05_A_a.gif","self_paced","","10","complex_dissimilar","images/stimuli/spore_stims/complex_08_A_b.gif","","","","",""
"","null","html-keyboard-response","129","794958","0.0-29.0-0.3","SS1619739705444","","","null","","","","","","<p><img src= images/blank.png width =""600"" height = ""600"" style=""position:fixed;top:50%; left:50%; transform: translate(-50%, -50%); border:5px solid black"">","","","","","","","",""
"","7202.724999999162","sequential-stimulus-presentation-old","130","802666","0.0-29.0-1.3","SS1619739705444","trial","","40","500","7702.724999999162","images/stimuli/spore_stims/complex_08_A_b.gif","images/stimuli/spore_stims/complex_05_A_a.gif","self_paced","","10","complex_dissimilar","images/stimuli/spore_stims/complex_05_A_a.gif","","","","",""
"","null","html-keyboard-response","131","803760","0.0-29.0-0.4","SS1619739705444","","","null","","","","","","<p><img src= images/blank.png width =""600"" height = ""600"" style=""position:fixed;top:50%; left:50%; transform: translate(-50%, -50%); border:5px solid black"">","","","","","","","",""
"","10992.449999997974","sequential-stimulus-presentation-old","132","815258","0.0-29.0-1.4","SS1619739705444","trial","","40","500","11492.449999997974","images/stimuli/spore_stims/complex_08_A_b.gif","images/stimuli/spore_stims/complex_05_A_a.gif","self_paced","","10","complex_dissimilar","images/stimuli/spore_stims/complex_08_A_b.gif","","","","",""
"","3235.179999999702","survey-multi-choice","133","818498","0.0-30.0","SS1619739705444","math_question","","","","","","","","","","","","{""Q0"":""5""}","[0]","5","",""
"","null","html-keyboard-response","134","819604","0.0-31.0-0.0","SS1619739705444","","","null","","","","","","<p><img src= images/blank.png width =""600"" height = ""600"" style=""position:fixed;top:50%; left:50%; transform: translate(-50%, -50%); border:5px solid black"">","","","","","","","",""
"","1351.1099999995204","sequential-stimulus-presentation-old","135","835962","0.0-31.0-1.0","SS1619739705444","trial","","40","500","1851.1099999995204","images/stimuli/spore_stims/simple_01_A_a.gif","images/stimuli/spore_stims/simple_15_A_b.gif","forced_long","","11","simple_dissimilar","images/stimuli/spore_stims/simple_15_A_b.gif","","","","",""
"","null","html-keyboard-response","136","836917","0.0-31.0-0.1","SS1619739705444","","","null","","","","","","<p><img src= images/blank.png width =""600"" height = ""600"" style=""position:fixed;top:50%; left:50%; transform: translate(-50%, -50%); border:5px solid black"">","","","","","","","",""
"","6662.355000000331","sequential-stimulus-presentation-old","137","844082","0.0-31.0-1.1","SS1619739705444","trial","","40","500","7162.355000000331","images/stimuli/spore_stims/simple_01_A_a.gif","images/stimuli/spore_stims/simple_15_A_b.gif","forced_long","","11","simple_dissimilar","images/stimuli/spore_stims/simple_15_A_b.gif","","","","",""
"","null","html-keyboard-response","138","844918","0.0-31.0-0.2","SS1619739705444","","","null","","","","","","<p><img src= images/blank.png width =""600"" height = ""600"" style=""position:fixed;top:50%; left:50%; transform: translate(-50%, -50%); border:5px solid black"">","","","","","","","",""
"","6429.199999998673","sequential-stimulus-presentation-old","139","851850","0.0-31.0-1.2","SS1619739705444","trial","","40","500","6929.199999998673","images/stimuli/spore_stims/simple_01_A_a.gif","images/stimuli/spore_stims/simple_15_A_b.gif","forced_long","","11","simple_dissimilar","images/stimuli/spore_stims/simple_15_A_b.gif","","","","",""
"","null","html-keyboard-response","140","852917","0.0-31.0-0.3","SS1619739705444","","","null","","","","","","<p><img src= images/blank.png width =""600"" height = ""600"" style=""position:fixed;top:50%; left:50%; transform: translate(-50%, -50%); border:5px solid black"">","","","","","","","",""
"","5155.034999999683","sequential-stimulus-presentation-old","141","858578","0.0-31.0-1.3","SS1619739705444","trial","","40","500","5655.034999999683","images/stimuli/spore_stims/simple_01_A_a.gif","images/stimuli/spore_stims/simple_15_A_b.gif","forced_long","","11","simple_dissimilar","images/stimuli/spore_stims/simple_15_A_b.gif","","","","",""
"","null","html-keyboard-response","142","859394","0.0-31.0-0.4","SS1619739705444","","","null","","","","","","<p><img src= images/blank.png width =""600"" height = ""600"" style=""position:fixed;top:50%; left:50%; transform: translate(-50%, -50%); border:5px solid black"">","","","","","","","",""
"","8230.289999999572","sequential-stimulus-presentation-old","143","868130","0.0-31.0-1.4","SS1619739705444","trial","","40","500","8730.289999999572","images/stimuli/spore_stims/simple_01_A_a.gif","images/stimuli/spore_stims/simple_15_A_b.gif","forced_long","","11","simple_dissimilar","images/stimuli/spore_stims/simple_01_A_a.gif","","","","",""
"[{""page_index"":0,""viewing_time"":5140.589999999036}]","5140.745000000577","instructions","144","873274","0.0-32.0","SS1619739705444","instructions","","","","","","","","","","","","","","","",""
"","23765.735000000917","survey-likert","145","897042","0.0-33.0","SS1619739705444","similarity_question","","","","","","","","","","","","{""Q0"":2}","[0]","","images/stimuli/spore_stims/complex_06_A_b.gif","images/stimuli/spore_stims/complex_20_A_a.gif"
"","10213.504999999655","survey-likert","146","907258","0.0-34.0","SS1619739705444","similarity_question","","","","","","","","","","","","{""Q0"":1}","[0]","","images/stimuli/spore_stims/complex_05_A_a.gif","images/stimuli/spore_stims/complex_08_A_b.gif"
"","10630.21000000299","survey-likert","147","917890","0.0-35.0","SS1619739705444","similarity_question","","","","","","","","","","","","{""Q0"":4}","[0]","","images/stimuli/spore_stims/simple_04_A_a.gif","images/stimuli/spore_stims/simple_16_A_b.gif"
"","8725.974999997532","survey-likert","148","926618","0.0-36.0","SS1619739705444","similarity_question","","","","","","","","","","","","{""Q0"":1}","[0]","","images/stimuli/spore_stims/complex_07_A_b.gif","images/stimuli/spore_stims/complex_15_A_a.gif"
"","28037.17500000121","survey-likert","149","954657","0.0-37.0","SS1619739705444","similarity_question","","","","","","","","","","","","{""Q0"":4}","[0]","","images/stimuli/spore_stims/simple_19_A_b.gif","images/stimuli/spore_stims/simple_11_A_a.gif"
"","28830.08499999775","survey-likert","150","983490","0.0-38.0","SS1619739705444","similarity_question","","","","","","","","","","","","{""Q0"":1}","[0]","","images/stimuli/spore_stims/complex_02_A_b.gif","images/stimuli/spore_stims/complex_03_A_a.gif"
"","24925.749999998487","survey-likert","151","1008417","0.0-39.0","SS1619739705444","similarity_question","","","","","","","","","","","","{""Q0"":2}","[0]","","images/stimuli/spore_stims/simple_07_A_b.gif","images/stimuli/spore_stims/simple_13_A_a.gif"
"","16173.629999997444","survey-likert","152","1024593","0.0-40.0","SS1619739705444","similarity_question","","","","","","","","","","","","{""Q0"":6}","[0]","","images/stimuli/spore_stims/simple_01_A_a.gif","images/stimuli/spore_stims/simple_15_A_b.gif"
"","24429.744999997783","survey-likert","153","1049025","0.0-41.0","SS1619739705444","similarity_question","","","","","","","","","","","","{""Q0"":3}","[0]","","images/stimuli/spore_stims/simple_20_A_b.gif","images/stimuli/spore_stims/simple_07_A_a.gif"
"","18453.434999999357","survey-likert","154","1067481","0.0-42.0","SS1619739705444","similarity_question","","","","","","","","","","","","{""Q0"":2}","[0]","","images/stimuli/spore_stims/complex_17_A_a.gif","images/stimuli/spore_stims/complex_10_A_b.gif"
"","18149.689999998314","survey-likert","155","1085634","0.0-43.0","SS1619739705444","similarity_question","","","","","","","","","","","","{""Q0"":4}","[0]","","images/stimuli/spore_stims/simple_03_A_a.gif","images/stimuli/spore_stims/simple_17_A_b.gif"
"","12629.520000002347","survey-likert","156","1098266","0.0-44.0","SS1619739705444","similarity_question","","","","","","","","","","","","{""Q0"":3}","[0]","","images/stimuli/spore_stims/complex_04_A_b.gif","images/stimuli/spore_stims/complex_13_A_a.gif"
"[{""page_index"":0,""viewing_time"":3445.72500000149}]","3445.9300000017975","instructions","157","1101714","0.0-45.0","SS1619739705444","instructions","","","","","","","","","","","","","","","",""
"","6846.344999998109","survey-likert","158","1108562","0.0-46.0","SS1619739705444","","","","","","","","","images/stimuli/spore_stims/simple_04_A_a.gif","","","","{""Q0"":1}","[0]","","",""
"","2853.1750000002794","survey-likert","159","1111418","0.0-47.0","SS1619739705444","","","","","","","","","images/stimuli/spore_stims/simple_19_A_b.gif","","","","{""Q0"":2}","[0]","","",""
"","13398.000000001164","survey-likert","160","1124818","0.0-48.0","SS1619739705444","","","","","","","","","images/stimuli/spore_stims/complex_20_A_a.gif","","","","{""Q0"":4}","[0]","","",""
"","7045.8650000002235","survey-likert","161","1131866","0.0-49.0","SS1619739705444","","","","","","","","","images/stimuli/spore_stims/simple_01_A_a.gif","","","","{""Q0"":1}","[0]","","",""
"","13661.38499999931","survey-likert","162","1145530","0.0-50.0","SS1619739705444","","","","","","","","","images/stimuli/spore_stims/complex_10_A_b.gif","","","","{""Q0"":4}","[0]","","",""
"","10142.120000000345","survey-likert","163","1155674","0.0-51.0","SS1619739705444","","","","","","","","","images/stimuli/spore_stims/simple_03_A_a.gif","","","","{""Q0"":2}","[0]","","",""
"","7197.7949999999255","survey-likert","164","1162874","0.0-52.0","SS1619739705444","","","","","","","","","images/stimuli/spore_stims/complex_05_A_a.gif","","","","{""Q0"":4}","[0]","","",""
"","6429.425000001909","survey-likert","165","1169306","0.0-53.0","SS1619739705444","","","","","","","","","images/stimuli/spore_stims/simple_20_A_b.gif","","","","{""Q0"":2}","[0]","","",""
"","16213.899999998743","survey-likert","166","1185522","0.0-54.0","SS1619739705444","","","","","","","","","images/stimuli/spore_stims/complex_07_A_b.gif","","","","{""Q0"":5}","[0]","","",""
"","9253.349999999162","survey-likert","167","1194778","0.0-55.0","SS1619739705444","","","","","","","","","images/stimuli/spore_stims/complex_04_A_b.gif","","","","{""Q0"":4}","[0]","","",""
"","18325.6949999996","survey-likert","168","1213106","0.0-56.0","SS1619739705444","","","","","","","","","images/stimuli/spore_stims/complex_02_A_b.gif","","","","{""Q0"":3}","[0]","","",""
"","3893.5000000018626","survey-likert","169","1217001","0.0-57.0","SS1619739705444","","","","","","","","","images/stimuli/spore_stims/simple_07_A_b.gif","","","","{""Q0"":1}","[0]","","",""
"[{""page_index"":0,""viewing_time"":1957.5699999986682}]","1957.6899999992456","instructions","170","1218961","0.0-58.0","SS1619739705444","instructions","","","","","","","","","","","","","","","",""
"","2757.7649999985006","demog-age","171","1221722","0.0-59.0","SS1619739705444","","","","","","","","","","","","","{""age"":""32""}","","","",""
"","3340.674999999581","demog-ethnic-US","172","1225066","0.0-60.0","SS1619739705444","","","","","","","","","","","","","{""ethnicity"":[""White""]}","[0]","","",""
"","7661.589999999851","demog-gender-and-education","173","1232730","0.0-61.0","SS1619739705444","","","","","","","","","","","","","{""gender"":""Female"",""education"":""Master's Degree""}","[0,1]","","",""
"","151021.06500000088","survey-text","174","1383753","0.0-62.0","SS1619739705444","feedback","","","","","","","","","","","","{""Q0"":""(No issues) Some creatures seemed to move like a heartbeat wave, I wonder if that was actually the case""}","","","",""
"[{""page_index"":0,""viewing_time"":1990.0799999996088}]","1990.2049999982119","instructions","175","1385745","0.0-63.0","SS1619739705444","instructions","","","","","","","","","","","","","","","",""
