"view_history","rt","trial_type","trial_index","time_elapsed","internal_node_id","subject","stimulus_type","trial_stimulus","key_press","minimum_viewing_duration","trial_looking_time","block_deviant","block_background","exposure_type","stimulus","block_number","block_type","stimulus_displayed","responses","question_order","math_correct_answer","stimulus_left","stimulus_right"
"[{""page_index"":0,""viewing_time"":4505.694999941625}]","4506.504999939352","instructions","0","4510","0.0-0.0","SS1619739719701","","","","","","","","","","","","","","","","",""
"[{""page_index"":0,""viewing_time"":24563.744999933988},{""page_index"":1,""viewing_time"":4359.969999990426}]","28923.94999996759","instructions","1","35437","0.0-1.0","SS1619739719701","instructions","","","","","","","","","","","","","","","",""
"","18803.54500003159","sequential-stimulus-presentation-old","2","54744","0.0-2.0","SS1619739719701","","","40","500","19303.54500003159","null","null","self_paced","","","","","","","","",""
"","3272.5700000301003","sequential-stimulus-presentation-old","3","58519","0.0-3.0","SS1619739719701","","","40","500","3772.5700000301003","null","null","self_paced","","","","","","","","",""
"[{""page_index"":0,""viewing_time"":15016.53499994427}]","15016.79000002332","instructions","4","73538","0.0-4.0","SS1619739719701","instructions","","","","","","","","","","","","","","","",""
"","950.4699999233708","sequential-stimulus-presentation-old","5","89494","0.0-5.0","SS1619739719701","","","40","500","1450.4699999233708","null","null","forced_long","","","","","","","","",""
"","3004.5849999878556","sequential-stimulus-presentation-old","6","93003","0.0-6.0","SS1619739719701","","","40","500","3504.5849999878556","null","null","forced_long","","","","","","","","",""
"[{""page_index"":0,""viewing_time"":2145.7749999826774}]","2146.0550000192598","instructions","7","95152","0.0-7.0","SS1619739719701","instructions","","","","","","","","","","","","","","","",""
"[{""page_index"":0,""viewing_time"":17981.789999990724},{""page_index"":1,""viewing_time"":13239.21499995049},{""page_index"":2,""viewing_time"":5210.800000000745},{""page_index"":3,""viewing_time"":699.945000000298},{""page_index"":4,""viewing_time"":796.1600000271574}]","37928.2200000016","instructions","8","133083","0.0-8.0","SS1619739719701","instructions","","","","","","","","","","","","","","","",""
"","null","html-keyboard-response","9","134171","0.0-9.0-0.0","SS1619739719701","","","null","","","","","","<p><img src= images/blank.png width =""600"" height = ""600"" style=""position:fixed;top:50%; left:50%; transform: translate(-50%, -50%); border:5px solid black"">","","","","","","","",""
"","8402.425000094809","sequential-stimulus-presentation-old","10","143082","0.0-9.0-1.0","SS1619739719701","trial","","40","500","8902.425000094809","images/stimuli/spore_stims/simple_04_A_b.gif","images/stimuli/spore_stims/simple_17_A_a.gif","self_paced","","0","simple_dissimilar","images/stimuli/spore_stims/simple_17_A_a.gif","","","","",""
"","null","html-keyboard-response","11","144358","0.0-9.0-0.1","SS1619739719701","","","null","","","","","","<p><img src= images/blank.png width =""600"" height = ""600"" style=""position:fixed;top:50%; left:50%; transform: translate(-50%, -50%); border:5px solid black"">","","","","","","","",""
"","2640.110000036657","sequential-stimulus-presentation-old","12","147504","0.0-9.0-1.1","SS1619739719701","trial","","40","500","3140.110000036657","images/stimuli/spore_stims/simple_04_A_b.gif","images/stimuli/spore_stims/simple_17_A_a.gif","self_paced","","0","simple_dissimilar","images/stimuli/spore_stims/simple_17_A_a.gif","","","","",""
"","null","html-keyboard-response","13","148801","0.0-9.0-0.2","SS1619739719701","","","null","","","","","","<p><img src= images/blank.png width =""600"" height = ""600"" style=""position:fixed;top:50%; left:50%; transform: translate(-50%, -50%); border:5px solid black"">","","","","","","","",""
"","3058.904999983497","sequential-stimulus-presentation-old","14","152367","0.0-9.0-1.2","SS1619739719701","trial","","40","500","3558.904999983497","images/stimuli/spore_stims/simple_04_A_b.gif","images/stimuli/spore_stims/simple_17_A_a.gif","self_paced","","0","simple_dissimilar","images/stimuli/spore_stims/simple_17_A_a.gif","","","","",""
"","null","html-keyboard-response","15","153658","0.0-9.0-0.3","SS1619739719701","","","null","","","","","","<p><img src= images/blank.png width =""600"" height = ""600"" style=""position:fixed;top:50%; left:50%; transform: translate(-50%, -50%); border:5px solid black"">","","","","","","","",""
"","3032.145000062883","sequential-stimulus-presentation-old","16","157198","0.0-9.0-1.3","SS1619739719701","trial","","40","500","3532.145000062883","images/stimuli/spore_stims/simple_04_A_b.gif","images/stimuli/spore_stims/simple_17_A_a.gif","self_paced","","0","simple_dissimilar","images/stimuli/spore_stims/simple_17_A_a.gif","","","","",""
"","null","html-keyboard-response","17","158445","0.0-9.0-0.4","SS1619739719701","","","null","","","","","","<p><img src= images/blank.png width =""600"" height = ""600"" style=""position:fixed;top:50%; left:50%; transform: translate(-50%, -50%); border:5px solid black"">","","","","","","","",""
"","1152.159999939613","sequential-stimulus-presentation-old","18","160104","0.0-9.0-1.4","SS1619739719701","trial","","40","500","1652.159999939613","images/stimuli/spore_stims/simple_04_A_b.gif","images/stimuli/spore_stims/simple_17_A_a.gif","self_paced","","0","simple_dissimilar","images/stimuli/spore_stims/simple_17_A_a.gif","","","","",""
"","null","html-keyboard-response","19","161270","0.0-9.0-0.5","SS1619739719701","","","null","","","","","","<p><img src= images/blank.png width =""600"" height = ""600"" style=""position:fixed;top:50%; left:50%; transform: translate(-50%, -50%); border:5px solid black"">","","","","","","","",""
"","1900.2000000327826","sequential-stimulus-presentation-old","20","163680","0.0-9.0-1.5","SS1619739719701","trial","","40","500","2400.2000000327826","images/stimuli/spore_stims/simple_04_A_b.gif","images/stimuli/spore_stims/simple_17_A_a.gif","self_paced","","0","simple_dissimilar","images/stimuli/spore_stims/simple_17_A_a.gif","","","","",""
"","4162.559999967925","survey-multi-choice","21","167846","0.0-10.0","SS1619739719701","math_question","","","","","","","","","","","","{""Q0"":""13""}","[0]","13","",""
"","null","html-keyboard-response","22","168652","0.0-11.0-0.0","SS1619739719701","","","null","","","","","","<p><img src= images/blank.png width =""600"" height = ""600"" style=""position:fixed;top:50%; left:50%; transform: translate(-50%, -50%); border:5px solid black"">","","","","","","","",""
"","14944.365000003017","sequential-stimulus-presentation-old","23","198604","0.0-11.0-1.0","SS1619739719701","trial","","40","500","15444.365000003017","images/stimuli/spore_stims/complex_05_A_b.gif","images/stimuli/spore_stims/complex_11_A_a.gif","forced_long","","1","complex_dissimilar","images/stimuli/spore_stims/complex_11_A_a.gif","","","","",""
"","null","html-keyboard-response","24","199907","0.0-11.0-0.1","SS1619739719701","","","null","","","","","","<p><img src= images/blank.png width =""600"" height = ""600"" style=""position:fixed;top:50%; left:50%; transform: translate(-50%, -50%); border:5px solid black"">","","","","","","","",""
"","11569.864999968559","sequential-stimulus-presentation-old","25","211983","0.0-11.0-1.1","SS1619739719701","trial","","40","500","12069.864999968559","images/stimuli/spore_stims/complex_05_A_b.gif","images/stimuli/spore_stims/complex_11_A_a.gif","forced_long","","1","complex_dissimilar","images/stimuli/spore_stims/complex_05_A_b.gif","","","","",""
"","null","html-keyboard-response","26","212835","0.0-11.0-0.2","SS1619739719701","","","null","","","","","","<p><img src= images/blank.png width =""600"" height = ""600"" style=""position:fixed;top:50%; left:50%; transform: translate(-50%, -50%); border:5px solid black"">","","","","","","","",""
"","2468.9249999355525","sequential-stimulus-presentation-old","27","215811","0.0-11.0-1.2","SS1619739719701","trial","","40","500","2968.9249999355525","images/stimuli/spore_stims/complex_05_A_b.gif","images/stimuli/spore_stims/complex_11_A_a.gif","forced_long","","1","complex_dissimilar","images/stimuli/spore_stims/complex_11_A_a.gif","","","","",""
"","null","html-keyboard-response","28","216650","0.0-11.0-0.3","SS1619739719701","","","null","","","","","","<p><img src= images/blank.png width =""600"" height = ""600"" style=""position:fixed;top:50%; left:50%; transform: translate(-50%, -50%); border:5px solid black"">","","","","","","","",""
"","548.1199999339879","sequential-stimulus-presentation-old","29","217705","0.0-11.0-1.3","SS1619739719701","trial","","40","500","1048.1199999339879","images/stimuli/spore_stims/complex_05_A_b.gif","images/stimuli/spore_stims/complex_11_A_a.gif","forced_long","","1","complex_dissimilar","images/stimuli/spore_stims/complex_05_A_b.gif","","","","",""
"","null","html-keyboard-response","30","218797","0.0-11.0-0.4","SS1619739719701","","","null","","","","","","<p><img src= images/blank.png width =""600"" height = ""600"" style=""position:fixed;top:50%; left:50%; transform: translate(-50%, -50%); border:5px solid black"">","","","","","","","",""
"","3970.6500000320375","sequential-stimulus-presentation-old","31","223274","0.0-11.0-1.4","SS1619739719701","trial","","40","500","4470.6500000320375","images/stimuli/spore_stims/complex_05_A_b.gif","images/stimuli/spore_stims/complex_11_A_a.gif","forced_long","","1","complex_dissimilar","images/stimuli/spore_stims/complex_11_A_a.gif","","","","",""
"","3030.9849999612197","survey-multi-choice","32","226310","0.0-12.0","SS1619739719701","math_question","","","","","","","","","","","","{""Q0"":""7""}","[0]","7","",""
"","null","html-keyboard-response","33","227115","0.0-13.0-0.0","SS1619739719701","","","null","","","","","","<p><img src= images/blank.png width =""600"" height = ""600"" style=""position:fixed;top:50%; left:50%; transform: translate(-50%, -50%); border:5px solid black"">","","","","","","","",""
"","1505.0849999533966","sequential-stimulus-presentation-old","34","229130","0.0-13.0-1.0","SS1619739719701","trial","","40","500","2005.0849999533966","images/stimuli/spore_stims/complex_02_A_b.gif","images/stimuli/spore_stims/complex_09_A_a.gif","forced_short","","2","complex_dissimilar","images/stimuli/spore_stims/complex_09_A_a.gif","","","","",""
"","null","html-keyboard-response","35","230198","0.0-13.0-0.1","SS1619739719701","","","null","","","","","","<p><img src= images/blank.png width =""600"" height = ""600"" style=""position:fixed;top:50%; left:50%; transform: translate(-50%, -50%); border:5px solid black"">","","","","","","","",""
"","843.944999971427","sequential-stimulus-presentation-old","36","231545","0.0-13.0-1.1","SS1619739719701","trial","","40","500","1343.944999971427","images/stimuli/spore_stims/complex_02_A_b.gif","images/stimuli/spore_stims/complex_09_A_a.gif","forced_short","","2","complex_dissimilar","images/stimuli/spore_stims/complex_09_A_a.gif","","","","",""
"","null","html-keyboard-response","37","232699","0.0-13.0-0.2","SS1619739719701","","","null","","","","","","<p><img src= images/blank.png width =""600"" height = ""600"" style=""position:fixed;top:50%; left:50%; transform: translate(-50%, -50%); border:5px solid black"">","","","","","","","",""
"","2166.259999969043","sequential-stimulus-presentation-old","38","235372","0.0-13.0-1.2","SS1619739719701","trial","","40","500","2666.259999969043","images/stimuli/spore_stims/complex_02_A_b.gif","images/stimuli/spore_stims/complex_09_A_a.gif","forced_short","","2","complex_dissimilar","images/stimuli/spore_stims/complex_09_A_a.gif","","","","",""
"","null","html-keyboard-response","39","236614","0.0-13.0-0.3","SS1619739719701","","","null","","","","","","<p><img src= images/blank.png width =""600"" height = ""600"" style=""position:fixed;top:50%; left:50%; transform: translate(-50%, -50%); border:5px solid black"">","","","","","","","",""
"","1944.480000063777","sequential-stimulus-presentation-old","40","239067","0.0-13.0-1.3","SS1619739719701","trial","","40","500","2444.480000063777","images/stimuli/spore_stims/complex_02_A_b.gif","images/stimuli/spore_stims/complex_09_A_a.gif","forced_short","","2","complex_dissimilar","images/stimuli/spore_stims/complex_09_A_a.gif","","","","",""
"","null","html-keyboard-response","41","240288","0.0-13.0-0.4","SS1619739719701","","","null","","","","","","<p><img src= images/blank.png width =""600"" height = ""600"" style=""position:fixed;top:50%; left:50%; transform: translate(-50%, -50%); border:5px solid black"">","","","","","","","",""
"","926.0449999710545","sequential-stimulus-presentation-old","42","241721","0.0-13.0-1.4","SS1619739719701","trial","","40","500","1426.0449999710545","images/stimuli/spore_stims/complex_02_A_b.gif","images/stimuli/spore_stims/complex_09_A_a.gif","forced_short","","2","complex_dissimilar","images/stimuli/spore_stims/complex_09_A_a.gif","","","","",""
"","null","html-keyboard-response","43","242595","0.0-13.0-0.5","SS1619739719701","","","null","","","","","","<p><img src= images/blank.png width =""600"" height = ""600"" style=""position:fixed;top:50%; left:50%; transform: translate(-50%, -50%); border:5px solid black"">","","","","","","","",""
"","1534.4000000040978","sequential-stimulus-presentation-old","44","244636","0.0-13.0-1.5","SS1619739719701","trial","","40","500","2034.4000000040978","images/stimuli/spore_stims/complex_02_A_b.gif","images/stimuli/spore_stims/complex_09_A_a.gif","forced_short","","2","complex_dissimilar","images/stimuli/spore_stims/complex_09_A_a.gif","","","","",""
"","4540.740000084043","survey-multi-choice","45","249181","0.0-14.0","SS1619739719701","math_question","","","","","","","","","","","","{""Q0"":""16""}","[0]","16","",""
"","null","html-keyboard-response","46","250404","0.0-15.0-0.0","SS1619739719701","","","null","","","","","","<p><img src= images/blank.png width =""600"" height = ""600"" style=""position:fixed;top:50%; left:50%; transform: translate(-50%, -50%); border:5px solid black"">","","","","","","","",""
"","2854.295000084676","sequential-stimulus-presentation-old","47","268267","0.0-15.0-1.0","SS1619739719701","trial","","40","500","3354.295000084676","images/stimuli/spore_stims/simple_16_A_a.gif","images/stimuli/spore_stims/simple_12_A_b.gif","forced_long","","3","simple_dissimilar","images/stimuli/spore_stims/simple_12_A_b.gif","","","","",""
"","null","html-keyboard-response","48","269270","0.0-15.0-0.1","SS1619739719701","","","null","","","","","","<p><img src= images/blank.png width =""600"" height = ""600"" style=""position:fixed;top:50%; left:50%; transform: translate(-50%, -50%); border:5px solid black"">","","","","","","","",""
"","750.1850000116974","sequential-stimulus-presentation-old","49","270529","0.0-15.0-1.1","SS1619739719701","trial","","40","500","1250.1850000116974","images/stimuli/spore_stims/simple_16_A_a.gif","images/stimuli/spore_stims/simple_12_A_b.gif","forced_long","","3","simple_dissimilar","images/stimuli/spore_stims/simple_12_A_b.gif","","","","",""
"","null","html-keyboard-response","50","271584","0.0-15.0-0.2","SS1619739719701","","","null","","","","","","<p><img src= images/blank.png width =""600"" height = ""600"" style=""position:fixed;top:50%; left:50%; transform: translate(-50%, -50%); border:5px solid black"">","","","","","","","",""
"","64.67999995220453","sequential-stimulus-presentation-old","51","272155","0.0-15.0-1.2","SS1619739719701","trial","","40","500","564.6799999522045","images/stimuli/spore_stims/simple_16_A_a.gif","images/stimuli/spore_stims/simple_12_A_b.gif","forced_long","","3","simple_dissimilar","images/stimuli/spore_stims/simple_12_A_b.gif","","","","",""
"","null","html-keyboard-response","52","273320","0.0-15.0-0.3","SS1619739719701","","","null","","","","","","<p><img src= images/blank.png width =""600"" height = ""600"" style=""position:fixed;top:50%; left:50%; transform: translate(-50%, -50%); border:5px solid black"">","","","","","","","",""
"","148.72000005561858","sequential-stimulus-presentation-old","53","273975","0.0-15.0-1.3","SS1619739719701","trial","","40","500","648.7200000556186","images/stimuli/spore_stims/simple_16_A_a.gif","images/stimuli/spore_stims/simple_12_A_b.gif","forced_long","","3","simple_dissimilar","images/stimuli/spore_stims/simple_12_A_b.gif","","","","",""
"","null","html-keyboard-response","54","274990","0.0-15.0-0.4","SS1619739719701","","","null","","","","","","<p><img src= images/blank.png width =""600"" height = ""600"" style=""position:fixed;top:50%; left:50%; transform: translate(-50%, -50%); border:5px solid black"">","","","","","","","",""
"","29.67499999795109","sequential-stimulus-presentation-old","55","275526","0.0-15.0-1.4","SS1619739719701","trial","","40","500","529.6749999979511","images/stimuli/spore_stims/simple_16_A_a.gif","images/stimuli/spore_stims/simple_12_A_b.gif","forced_long","","3","simple_dissimilar","images/stimuli/spore_stims/simple_12_A_b.gif","","","","",""
"","null","html-keyboard-response","56","276625","0.0-15.0-0.5","SS1619739719701","","","null","","","","","","<p><img src= images/blank.png width =""600"" height = ""600"" style=""position:fixed;top:50%; left:50%; transform: translate(-50%, -50%); border:5px solid black"">","","","","","","","",""
"","451.1400000192225","sequential-stimulus-presentation-old","57","277584","0.0-15.0-1.5","SS1619739719701","trial","","40","500","951.1400000192225","images/stimuli/spore_stims/simple_16_A_a.gif","images/stimuli/spore_stims/simple_12_A_b.gif","forced_long","","3","simple_dissimilar","images/stimuli/spore_stims/simple_12_A_b.gif","","","","",""
"","2696.040000068024","survey-multi-choice","58","280285","0.0-16.0","SS1619739719701","math_question","","","","","","","","","","","","{""Q0"":""7""}","[0]","7","",""
"","null","html-keyboard-response","59","281226","0.0-17.0-0.0","SS1619739719701","","","null","","","","","","<p><img src= images/blank.png width =""600"" height = ""600"" style=""position:fixed;top:50%; left:50%; transform: translate(-50%, -50%); border:5px solid black"">","","","","","","","",""
"","3943.6050000367686","sequential-stimulus-presentation-old","60","300179","0.0-17.0-1.0","SS1619739719701","trial","","40","500","4443.605000036769","images/stimuli/spore_stims/complex_13_A_a.gif","images/stimuli/spore_stims/complex_16_A_b.gif","forced_long","","4","complex_dissimilar","images/stimuli/spore_stims/complex_16_A_b.gif","","","","",""
"","null","html-keyboard-response","61","301271","0.0-17.0-0.1","SS1619739719701","","","null","","","","","","<p><img src= images/blank.png width =""600"" height = ""600"" style=""position:fixed;top:50%; left:50%; transform: translate(-50%, -50%); border:5px solid black"">","","","","","","","",""
"","5810.144999995828","sequential-stimulus-presentation-old","62","307588","0.0-17.0-1.1","SS1619739719701","trial","","40","500","6310.144999995828","images/stimuli/spore_stims/complex_13_A_a.gif","images/stimuli/spore_stims/complex_16_A_b.gif","forced_long","","4","complex_dissimilar","images/stimuli/spore_stims/complex_13_A_a.gif","","","","",""
"","null","html-keyboard-response","63","308697","0.0-17.0-0.2","SS1619739719701","","","null","","","","","","<p><img src= images/blank.png width =""600"" height = ""600"" style=""position:fixed;top:50%; left:50%; transform: translate(-50%, -50%); border:5px solid black"">","","","","","","","",""
"","601.7050000373274","sequential-stimulus-presentation-old","64","309804","0.0-17.0-1.2","SS1619739719701","trial","","40","500","1101.7050000373274","images/stimuli/spore_stims/complex_13_A_a.gif","images/stimuli/spore_stims/complex_16_A_b.gif","forced_long","","4","complex_dissimilar","images/stimuli/spore_stims/complex_16_A_b.gif","","","","",""
"","null","html-keyboard-response","65","310705","0.0-17.0-0.3","SS1619739719701","","","null","","","","","","<p><img src= images/blank.png width =""600"" height = ""600"" style=""position:fixed;top:50%; left:50%; transform: translate(-50%, -50%); border:5px solid black"">","","","","","","","",""
"","7210.504999966361","sequential-stimulus-presentation-old","66","318423","0.0-17.0-1.3","SS1619739719701","trial","","40","500","7710.504999966361","images/stimuli/spore_stims/complex_13_A_a.gif","images/stimuli/spore_stims/complex_16_A_b.gif","forced_long","","4","complex_dissimilar","images/stimuli/spore_stims/complex_16_A_b.gif","","","","",""
"","null","html-keyboard-response","67","319330","0.0-17.0-0.4","SS1619739719701","","","null","","","","","","<p><img src= images/blank.png width =""600"" height = ""600"" style=""position:fixed;top:50%; left:50%; transform: translate(-50%, -50%); border:5px solid black"">","","","","","","","",""
"","177.42999992333353","sequential-stimulus-presentation-old","68","320017","0.0-17.0-1.4","SS1619739719701","trial","","40","500","677.4299999233335","images/stimuli/spore_stims/complex_13_A_a.gif","images/stimuli/spore_stims/complex_16_A_b.gif","forced_long","","4","complex_dissimilar","images/stimuli/spore_stims/complex_13_A_a.gif","","","","",""
"","2846.8850000062957","survey-multi-choice","69","322869","0.0-18.0","SS1619739719701","math_question","","","","","","","","","","","","{""Q0"":""14""}","[0]","15","",""
"","null","html-keyboard-response","70","324004","0.0-19.0-0.0","SS1619739719701","","","null","","","","","","<p><img src= images/blank.png width =""600"" height = ""600"" style=""position:fixed;top:50%; left:50%; transform: translate(-50%, -50%); border:5px solid black"">","","","","","","","",""
"","1613.2849999703467","sequential-stimulus-presentation-old","71","326126","0.0-19.0-1.0","SS1619739719701","trial","","40","500","2113.2849999703467","images/stimuli/spore_stims/simple_19_A_a.gif","images/stimuli/spore_stims/simple_09_A_b.gif","forced_short","","5","simple_dissimilar","images/stimuli/spore_stims/simple_09_A_b.gif","","","","",""
"","null","html-keyboard-response","72","327365","0.0-19.0-0.1","SS1619739719701","","","null","","","","","","<p><img src= images/blank.png width =""600"" height = ""600"" style=""position:fixed;top:50%; left:50%; transform: translate(-50%, -50%); border:5px solid black"">","","","","","","","",""
"","5.360000068321824","sequential-stimulus-presentation-old","73","327878","0.0-19.0-1.1","SS1619739719701","trial","","40","500","505.3600000683218","images/stimuli/spore_stims/simple_19_A_a.gif","images/stimuli/spore_stims/simple_09_A_b.gif","forced_short","","5","simple_dissimilar","images/stimuli/spore_stims/simple_19_A_a.gif","","","","",""
"","null","html-keyboard-response","74","328747","0.0-19.0-0.2","SS1619739719701","","","null","","","","","","<p><img src= images/blank.png width =""600"" height = ""600"" style=""position:fixed;top:50%; left:50%; transform: translate(-50%, -50%); border:5px solid black"">","","","","","","","",""
"","77.59500003885478","sequential-stimulus-presentation-old","75","329331","0.0-19.0-1.2","SS1619739719701","trial","","40","500","577.5950000388548","images/stimuli/spore_stims/simple_19_A_a.gif","images/stimuli/spore_stims/simple_09_A_b.gif","forced_short","","5","simple_dissimilar","images/stimuli/spore_stims/simple_19_A_a.gif","","","","",""
"","null","html-keyboard-response","76","330346","0.0-19.0-0.3","SS1619739719701","","","null","","","","","","<p><img src= images/blank.png width =""600"" height = ""600"" style=""position:fixed;top:50%; left:50%; transform: translate(-50%, -50%); border:5px solid black"">","","","","","","","",""
"","1270.7050000317395","sequential-stimulus-presentation-old","77","332124","0.0-19.0-1.3","SS1619739719701","trial","","40","500","1770.7050000317395","images/stimuli/spore_stims/simple_19_A_a.gif","images/stimuli/spore_stims/simple_09_A_b.gif","forced_short","","5","simple_dissimilar","images/stimuli/spore_stims/simple_09_A_b.gif","","","","",""
"","null","html-keyboard-response","78","333389","0.0-19.0-0.4","SS1619739719701","","","null","","","","","","<p><img src= images/blank.png width =""600"" height = ""600"" style=""position:fixed;top:50%; left:50%; transform: translate(-50%, -50%); border:5px solid black"">","","","","","","","",""
"","4138.0450000287965","sequential-stimulus-presentation-old","79","338036","0.0-19.0-1.4","SS1619739719701","trial","","40","500","4638.0450000287965","images/stimuli/spore_stims/simple_19_A_a.gif","images/stimuli/spore_stims/simple_09_A_b.gif","forced_short","","5","simple_dissimilar","images/stimuli/spore_stims/simple_09_A_b.gif","","","","",""
"","3308.3849999820814","survey-multi-choice","80","341350","0.0-20.0","SS1619739719701","math_question","","","","","","","","","","","","{""Q0"":""15""}","[0]","15","",""
"","null","html-keyboard-response","81","342235","0.0-21.0-0.0","SS1619739719701","","","null","","","","","","<p><img src= images/blank.png width =""600"" height = ""600"" style=""position:fixed;top:50%; left:50%; transform: translate(-50%, -50%); border:5px solid black"">","","","","","","","",""
"","7626.3050000416115","sequential-stimulus-presentation-old","82","364872","0.0-21.0-1.0","SS1619739719701","trial","","40","500","8126.3050000416115","images/stimuli/spore_stims/simple_09_A_a.gif","images/stimuli/spore_stims/simple_16_A_b.gif","forced_long","","6","simple_dissimilar","images/stimuli/spore_stims/simple_16_A_b.gif","","","","",""
"","null","html-keyboard-response","83","365826","0.0-21.0-0.1","SS1619739719701","","","null","","","","","","<p><img src= images/blank.png width =""600"" height = ""600"" style=""position:fixed;top:50%; left:50%; transform: translate(-50%, -50%); border:5px solid black"">","","","","","","","",""
"","250.80000003799796","sequential-stimulus-presentation-old","84","366586","0.0-21.0-1.1","SS1619739719701","trial","","40","500","750.800000037998","images/stimuli/spore_stims/simple_09_A_a.gif","images/stimuli/spore_stims/simple_16_A_b.gif","forced_long","","6","simple_dissimilar","images/stimuli/spore_stims/simple_09_A_a.gif","","","","",""
"","null","html-keyboard-response","85","367789","0.0-21.0-0.2","SS1619739719701","","","null","","","","","","<p><img src= images/blank.png width =""600"" height = ""600"" style=""position:fixed;top:50%; left:50%; transform: translate(-50%, -50%); border:5px solid black"">","","","","","","","",""
"","51.76500009838492","sequential-stimulus-presentation-old","86","368350","0.0-21.0-1.2","SS1619739719701","trial","","40","500","551.7650000983849","images/stimuli/spore_stims/simple_09_A_a.gif","images/stimuli/spore_stims/simple_16_A_b.gif","forced_long","","6","simple_dissimilar","images/stimuli/spore_stims/simple_16_A_b.gif","","","","",""
"","null","html-keyboard-response","87","369464","0.0-21.0-0.3","SS1619739719701","","","null","","","","","","<p><img src= images/blank.png width =""600"" height = ""600"" style=""position:fixed;top:50%; left:50%; transform: translate(-50%, -50%); border:5px solid black"">","","","","","","","",""
"","1334.320000023581","sequential-stimulus-presentation-old","88","371308","0.0-21.0-1.3","SS1619739719701","trial","","40","500","1834.320000023581","images/stimuli/spore_stims/simple_09_A_a.gif","images/stimuli/spore_stims/simple_16_A_b.gif","forced_long","","6","simple_dissimilar","images/stimuli/spore_stims/simple_09_A_a.gif","","","","",""
"","null","html-keyboard-response","89","372244","0.0-21.0-0.4","SS1619739719701","","","null","","","","","","<p><img src= images/blank.png width =""600"" height = ""600"" style=""position:fixed;top:50%; left:50%; transform: translate(-50%, -50%); border:5px solid black"">","","","","","","","",""
"","569.3400000454858","sequential-stimulus-presentation-old","90","373322","0.0-21.0-1.4","SS1619739719701","trial","","40","500","1069.3400000454858","images/stimuli/spore_stims/simple_09_A_a.gif","images/stimuli/spore_stims/simple_16_A_b.gif","forced_long","","6","simple_dissimilar","images/stimuli/spore_stims/simple_16_A_b.gif","","","","",""
"","2781.264999997802","survey-multi-choice","91","376109","0.0-22.0","SS1619739719701","math_question","","","","","","","","","","","","{""Q0"":""10""}","[0]","10","",""
"","null","html-keyboard-response","92","376976","0.0-23.0-0.0","SS1619739719701","","","null","","","","","","<p><img src= images/blank.png width =""600"" height = ""600"" style=""position:fixed;top:50%; left:50%; transform: translate(-50%, -50%); border:5px solid black"">","","","","","","","",""
"","738.3249999256805","sequential-stimulus-presentation-old","93","378223","0.0-23.0-1.0","SS1619739719701","trial","","40","500","1238.3249999256805","images/stimuli/spore_stims/simple_02_A_b.gif","images/stimuli/spore_stims/simple_15_A_a.gif","self_paced","","7","simple_dissimilar","images/stimuli/spore_stims/simple_15_A_a.gif","","","","",""
"","null","html-keyboard-response","94","379429","0.0-23.0-0.1","SS1619739719701","","","null","","","","","","<p><img src= images/blank.png width =""600"" height = ""600"" style=""position:fixed;top:50%; left:50%; transform: translate(-50%, -50%); border:5px solid black"">","","","","","","","",""
"","2025.8349999785423","sequential-stimulus-presentation-old","95","381962","0.0-23.0-1.1","SS1619739719701","trial","","40","500","2525.8349999785423","images/stimuli/spore_stims/simple_02_A_b.gif","images/stimuli/spore_stims/simple_15_A_a.gif","self_paced","","7","simple_dissimilar","images/stimuli/spore_stims/simple_15_A_a.gif","","","","",""
"","null","html-keyboard-response","96","382957","0.0-23.0-0.2","SS1619739719701","","","null","","","","","","<p><img src= images/blank.png width =""600"" height = ""600"" style=""position:fixed;top:50%; left:50%; transform: translate(-50%, -50%); border:5px solid black"">","","","","","","","",""
"","2280.269999988377","sequential-stimulus-presentation-old","97","385747","0.0-23.0-1.2","SS1619739719701","trial","","40","500","2780.269999988377","images/stimuli/spore_stims/simple_02_A_b.gif","images/stimuli/spore_stims/simple_15_A_a.gif","self_paced","","7","simple_dissimilar","images/stimuli/spore_stims/simple_02_A_b.gif","","","","",""
"","null","html-keyboard-response","98","387004","0.0-23.0-0.3","SS1619739719701","","","null","","","","","","<p><img src= images/blank.png width =""600"" height = ""600"" style=""position:fixed;top:50%; left:50%; transform: translate(-50%, -50%); border:5px solid black"">","","","","","","","",""
"","1064.8550000041723","sequential-stimulus-presentation-old","99","388581","0.0-23.0-1.3","SS1619739719701","trial","","40","500","1564.8550000041723","images/stimuli/spore_stims/simple_02_A_b.gif","images/stimuli/spore_stims/simple_15_A_a.gif","self_paced","","7","simple_dissimilar","images/stimuli/spore_stims/simple_02_A_b.gif","","","","",""
"","null","html-keyboard-response","100","389736","0.0-23.0-0.4","SS1619739719701","","","null","","","","","","<p><img src= images/blank.png width =""600"" height = ""600"" style=""position:fixed;top:50%; left:50%; transform: translate(-50%, -50%); border:5px solid black"">","","","","","","","",""
"","2329.9800000386313","sequential-stimulus-presentation-old","101","392575","0.0-23.0-1.4","SS1619739719701","trial","","40","500","2829.9800000386313","images/stimuli/spore_stims/simple_02_A_b.gif","images/stimuli/spore_stims/simple_15_A_a.gif","self_paced","","7","simple_dissimilar","images/stimuli/spore_stims/simple_15_A_a.gif","","","","",""
"","null","html-keyboard-response","102","393391","0.0-23.0-0.5","SS1619739719701","","","null","","","","","","<p><img src= images/blank.png width =""600"" height = ""600"" style=""position:fixed;top:50%; left:50%; transform: translate(-50%, -50%); border:5px solid black"">","","","","","","","",""
"","10093.11500005424","sequential-stimulus-presentation-old","103","403993","0.0-23.0-1.5","SS1619739719701","trial","","40","500","10593.11500005424","images/stimuli/spore_stims/simple_02_A_b.gif","images/stimuli/spore_stims/simple_15_A_a.gif","self_paced","","7","simple_dissimilar","images/stimuli/spore_stims/simple_15_A_a.gif","","","","",""
"","7603.974999976344","survey-multi-choice","104","411605","0.0-24.0","SS1619739719701","math_question","","","","","","","","","","","","{""Q0"":""12""}","[0]","12","",""
"","null","html-keyboard-response","105","412832","0.0-25.0-0.0","SS1619739719701","","","null","","","","","","<p><img src= images/blank.png width =""600"" height = ""600"" style=""position:fixed;top:50%; left:50%; transform: translate(-50%, -50%); border:5px solid black"">","","","","","","","",""
"","205.3699999814853","sequential-stimulus-presentation-old","106","413548","0.0-25.0-1.0","SS1619739719701","trial","","40","500","705.3699999814853","images/stimuli/spore_stims/complex_20_A_b.gif","images/stimuli/spore_stims/complex_15_A_a.gif","self_paced","","8","complex_dissimilar","images/stimuli/spore_stims/complex_15_A_a.gif","","","","",""
"","null","html-keyboard-response","107","414515","0.0-25.0-0.1","SS1619739719701","","","null","","","","","","<p><img src= images/blank.png width =""600"" height = ""600"" style=""position:fixed;top:50%; left:50%; transform: translate(-50%, -50%); border:5px solid black"">","","","","","","","",""
"","9114.53999998048","sequential-stimulus-presentation-old","108","424139","0.0-25.0-1.1","SS1619739719701","trial","","40","500","9614.53999998048","images/stimuli/spore_stims/complex_20_A_b.gif","images/stimuli/spore_stims/complex_15_A_a.gif","self_paced","","8","complex_dissimilar","images/stimuli/spore_stims/complex_20_A_b.gif","","","","",""
"","null","html-keyboard-response","109","425310","0.0-25.0-0.2","SS1619739719701","","","null","","","","","","<p><img src= images/blank.png width =""600"" height = ""600"" style=""position:fixed;top:50%; left:50%; transform: translate(-50%, -50%); border:5px solid black"">","","","","","","","",""
"","3606.234999955632","sequential-stimulus-presentation-old","110","429426","0.0-25.0-1.2","SS1619739719701","trial","","40","500","4106.234999955632","images/stimuli/spore_stims/complex_20_A_b.gif","images/stimuli/spore_stims/complex_15_A_a.gif","self_paced","","8","complex_dissimilar","images/stimuli/spore_stims/complex_15_A_a.gif","","","","",""
"","null","html-keyboard-response","111","430378","0.0-25.0-0.3","SS1619739719701","","","null","","","","","","<p><img src= images/blank.png width =""600"" height = ""600"" style=""position:fixed;top:50%; left:50%; transform: translate(-50%, -50%); border:5px solid black"">","","","","","","","",""
"","586.2750000087544","sequential-stimulus-presentation-old","112","431474","0.0-25.0-1.3","SS1619739719701","trial","","40","500","1086.2750000087544","images/stimuli/spore_stims/complex_20_A_b.gif","images/stimuli/spore_stims/complex_15_A_a.gif","self_paced","","8","complex_dissimilar","images/stimuli/spore_stims/complex_15_A_a.gif","","","","",""
"","null","html-keyboard-response","113","432754","0.0-25.0-0.4","SS1619739719701","","","null","","","","","","<p><img src= images/blank.png width =""600"" height = ""600"" style=""position:fixed;top:50%; left:50%; transform: translate(-50%, -50%); border:5px solid black"">","","","","","","","",""
"","743.2649999391288","sequential-stimulus-presentation-old","114","434007","0.0-25.0-1.4","SS1619739719701","trial","","40","500","1243.2649999391288","images/stimuli/spore_stims/complex_20_A_b.gif","images/stimuli/spore_stims/complex_15_A_a.gif","self_paced","","8","complex_dissimilar","images/stimuli/spore_stims/complex_15_A_a.gif","","","","",""
"","null","html-keyboard-response","115","434957","0.0-25.0-0.5","SS1619739719701","","","null","","","","","","<p><img src= images/blank.png width =""600"" height = ""600"" style=""position:fixed;top:50%; left:50%; transform: translate(-50%, -50%); border:5px solid black"">","","","","","","","",""
"","533.9049999602139","sequential-stimulus-presentation-old","116","436000","0.0-25.0-1.5","SS1619739719701","trial","","40","500","1033.904999960214","images/stimuli/spore_stims/complex_20_A_b.gif","images/stimuli/spore_stims/complex_15_A_a.gif","self_paced","","8","complex_dissimilar","images/stimuli/spore_stims/complex_20_A_b.gif","","","","",""
"","2565.614999970421","survey-multi-choice","117","438573","0.0-26.0","SS1619739719701","math_question","","","","","","","","","","","","{""Q0"":""14""}","[0]","14","",""
"","null","html-keyboard-response","118","439729","0.0-27.0-0.0","SS1619739719701","","","null","","","","","","<p><img src= images/blank.png width =""600"" height = ""600"" style=""position:fixed;top:50%; left:50%; transform: translate(-50%, -50%); border:5px solid black"">","","","","","","","",""
"","608.5050000110641","sequential-stimulus-presentation-old","119","440844","0.0-27.0-1.0","SS1619739719701","trial","","40","500","1108.505000011064","images/stimuli/spore_stims/complex_04_A_a.gif","images/stimuli/spore_stims/complex_01_A_b.gif","forced_short","","9","complex_dissimilar","images/stimuli/spore_stims/complex_01_A_b.gif","","","","",""
"","null","html-keyboard-response","120","441885","0.0-27.0-0.1","SS1619739719701","","","null","","","","","","<p><img src= images/blank.png width =""600"" height = ""600"" style=""position:fixed;top:50%; left:50%; transform: translate(-50%, -50%); border:5px solid black"">","","","","","","","",""
"","4613.574999966659","sequential-stimulus-presentation-old","121","447010","0.0-27.0-1.1","SS1619739719701","trial","","40","500","5113.574999966659","images/stimuli/spore_stims/complex_04_A_a.gif","images/stimuli/spore_stims/complex_01_A_b.gif","forced_short","","9","complex_dissimilar","images/stimuli/spore_stims/complex_01_A_b.gif","","","","",""
"","null","html-keyboard-response","122","448276","0.0-27.0-0.2","SS1619739719701","","","null","","","","","","<p><img src= images/blank.png width =""600"" height = ""600"" style=""position:fixed;top:50%; left:50%; transform: translate(-50%, -50%); border:5px solid black"">","","","","","","","",""
"","6605.309999897145","sequential-stimulus-presentation-old","123","455393","0.0-27.0-1.2","SS1619739719701","trial","","40","500","7105.309999897145","images/stimuli/spore_stims/complex_04_A_a.gif","images/stimuli/spore_stims/complex_01_A_b.gif","forced_short","","9","complex_dissimilar","images/stimuli/spore_stims/complex_01_A_b.gif","","","","",""
"","null","html-keyboard-response","124","456352","0.0-27.0-0.3","SS1619739719701","","","null","","","","","","<p><img src= images/blank.png width =""600"" height = ""600"" style=""position:fixed;top:50%; left:50%; transform: translate(-50%, -50%); border:5px solid black"">","","","","","","","",""
"","5069.064999930561","sequential-stimulus-presentation-old","125","461932","0.0-27.0-1.3","SS1619739719701","trial","","40","500","5569.064999930561","images/stimuli/spore_stims/complex_04_A_a.gif","images/stimuli/spore_stims/complex_01_A_b.gif","forced_short","","9","complex_dissimilar","images/stimuli/spore_stims/complex_01_A_b.gif","","","","",""
"","null","html-keyboard-response","126","463066","0.0-27.0-0.4","SS1619739719701","","","null","","","","","","<p><img src= images/blank.png width =""600"" height = ""600"" style=""position:fixed;top:50%; left:50%; transform: translate(-50%, -50%); border:5px solid black"">","","","","","","","",""
"","712.8149999771267","sequential-stimulus-presentation-old","127","464290","0.0-27.0-1.4","SS1619739719701","trial","","40","500","1212.8149999771267","images/stimuli/spore_stims/complex_04_A_a.gif","images/stimuli/spore_stims/complex_01_A_b.gif","forced_short","","9","complex_dissimilar","images/stimuli/spore_stims/complex_04_A_a.gif","","","","",""
"","3276.134999934584","survey-multi-choice","128","467573","0.0-28.0","SS1619739719701","math_question","","","","","","","","","","","","{""Q0"":""10""}","[0]","10","",""
"","null","html-keyboard-response","129","468855","0.0-29.0-0.0","SS1619739719701","","","null","","","","","","<p><img src= images/blank.png width =""600"" height = ""600"" style=""position:fixed;top:50%; left:50%; transform: translate(-50%, -50%); border:5px solid black"">","","","","","","","",""
"","618.4649999486282","sequential-stimulus-presentation-old","130","469984","0.0-29.0-1.0","SS1619739719701","trial","","40","500","1118.4649999486282","images/stimuli/spore_stims/complex_06_A_a.gif","images/stimuli/spore_stims/complex_14_A_b.gif","self_paced","","10","complex_dissimilar","images/stimuli/spore_stims/complex_14_A_b.gif","","","","",""
"","null","html-keyboard-response","131","470880","0.0-29.0-0.1","SS1619739719701","","","null","","","","","","<p><img src= images/blank.png width =""600"" height = ""600"" style=""position:fixed;top:50%; left:50%; transform: translate(-50%, -50%); border:5px solid black"">","","","","","","","",""
"","8610.770000028424","sequential-stimulus-presentation-old","132","480007","0.0-29.0-1.1","SS1619739719701","trial","","40","500","9110.770000028424","images/stimuli/spore_stims/complex_06_A_a.gif","images/stimuli/spore_stims/complex_14_A_b.gif","self_paced","","10","complex_dissimilar","images/stimuli/spore_stims/complex_14_A_b.gif","","","","",""
"","null","html-keyboard-response","133","480949","0.0-29.0-0.2","SS1619739719701","","","null","","","","","","<p><img src= images/blank.png width =""600"" height = ""600"" style=""position:fixed;top:50%; left:50%; transform: translate(-50%, -50%); border:5px solid black"">","","","","","","","",""
"","4807.3600000934675","sequential-stimulus-presentation-old","134","486266","0.0-29.0-1.2","SS1619739719701","trial","","40","500","5307.3600000934675","images/stimuli/spore_stims/complex_06_A_a.gif","images/stimuli/spore_stims/complex_14_A_b.gif","self_paced","","10","complex_dissimilar","images/stimuli/spore_stims/complex_14_A_b.gif","","","","",""
"","null","html-keyboard-response","135","487240","0.0-29.0-0.3","SS1619739719701","","","null","","","","","","<p><img src= images/blank.png width =""600"" height = ""600"" style=""position:fixed;top:50%; left:50%; transform: translate(-50%, -50%); border:5px solid black"">","","","","","","","",""
"","2279.72500002943","sequential-stimulus-presentation-old","136","490022","0.0-29.0-1.3","SS1619739719701","trial","","40","500","2779.72500002943","images/stimuli/spore_stims/complex_06_A_a.gif","images/stimuli/spore_stims/complex_14_A_b.gif","self_paced","","10","complex_dissimilar","images/stimuli/spore_stims/complex_14_A_b.gif","","","","",""
"","3939.974999986589","survey-multi-choice","137","493965","0.0-30.0","SS1619739719701","math_question","","","","","","","","","","","","{""Q0"":""15""}","[0]","15","",""
"","null","html-keyboard-response","138","495014","0.0-31.0-0.0","SS1619739719701","","","null","","","","","","<p><img src= images/blank.png width =""600"" height = ""600"" style=""position:fixed;top:50%; left:50%; transform: translate(-50%, -50%); border:5px solid black"">","","","","","","","",""
"","469.9549999786541","sequential-stimulus-presentation-old","139","495995","0.0-31.0-1.0","SS1619739719701","trial","","40","500","969.9549999786541","images/stimuli/spore_stims/simple_01_A_a.gif","images/stimuli/spore_stims/simple_06_A_b.gif","forced_short","","11","simple_dissimilar","images/stimuli/spore_stims/simple_06_A_b.gif","","","","",""
"","null","html-keyboard-response","140","497120","0.0-31.0-0.1","SS1619739719701","","","null","","","","","","<p><img src= images/blank.png width =""600"" height = ""600"" style=""position:fixed;top:50%; left:50%; transform: translate(-50%, -50%); border:5px solid black"">","","","","","","","",""
"","661.460000090301","sequential-stimulus-presentation-old","141","498291","0.0-31.0-1.1","SS1619739719701","trial","","40","500","1161.460000090301","images/stimuli/spore_stims/simple_01_A_a.gif","images/stimuli/spore_stims/simple_06_A_b.gif","forced_short","","11","simple_dissimilar","images/stimuli/spore_stims/simple_01_A_a.gif","","","","",""
"","null","html-keyboard-response","142","499134","0.0-31.0-0.2","SS1619739719701","","","null","","","","","","<p><img src= images/blank.png width =""600"" height = ""600"" style=""position:fixed;top:50%; left:50%; transform: translate(-50%, -50%); border:5px solid black"">","","","","","","","",""
"","4983.949999907054","sequential-stimulus-presentation-old","143","504629","0.0-31.0-1.2","SS1619739719701","trial","","40","500","5483.949999907054","images/stimuli/spore_stims/simple_01_A_a.gif","images/stimuli/spore_stims/simple_06_A_b.gif","forced_short","","11","simple_dissimilar","images/stimuli/spore_stims/simple_06_A_b.gif","","","","",""
"","null","html-keyboard-response","144","505858","0.0-31.0-0.3","SS1619739719701","","","null","","","","","","<p><img src= images/blank.png width =""600"" height = ""600"" style=""position:fixed;top:50%; left:50%; transform: translate(-50%, -50%); border:5px solid black"">","","","","","","","",""
"","5869.855000055395","sequential-stimulus-presentation-old","145","512239","0.0-31.0-1.3","SS1619739719701","trial","","40","500","6369.855000055395","images/stimuli/spore_stims/simple_01_A_a.gif","images/stimuli/spore_stims/simple_06_A_b.gif","forced_short","","11","simple_dissimilar","images/stimuli/spore_stims/simple_06_A_b.gif","","","","",""
"","null","html-keyboard-response","146","513398","0.0-31.0-0.4","SS1619739719701","","","null","","","","","","<p><img src= images/blank.png width =""600"" height = ""600"" style=""position:fixed;top:50%; left:50%; transform: translate(-50%, -50%); border:5px solid black"">","","","","","","","",""
"","2792.245000018738","sequential-stimulus-presentation-old","147","516702","0.0-31.0-1.4","SS1619739719701","trial","","40","500","3292.245000018738","images/stimuli/spore_stims/simple_01_A_a.gif","images/stimuli/spore_stims/simple_06_A_b.gif","forced_short","","11","simple_dissimilar","images/stimuli/spore_stims/simple_01_A_a.gif","","","","",""
"[{""page_index"":0,""viewing_time"":5967.434999998659}]","5967.6399999298155","instructions","148","522677","0.0-32.0","SS1619739719701","instructions","","","","","","","","","","","","","","","",""
"","16068.854999961331","survey-likert","149","538750","0.0-33.0","SS1619739719701","similarity_question","","","","","","","","","","","","{""Q0"":1}","[0]","","images/stimuli/spore_stims/complex_15_A_a.gif","images/stimuli/spore_stims/complex_20_A_b.gif"
"","4747.46999994386","survey-likert","150","543501","0.0-34.0","SS1619739719701","similarity_question","","","","","","","","","","","","{""Q0"":1}","[0]","","images/stimuli/spore_stims/complex_14_A_b.gif","images/stimuli/spore_stims/complex_06_A_a.gif"
"","5746.730000013486","survey-likert","151","549252","0.0-35.0","SS1619739719701","similarity_question","","","","","","","","","","","","{""Q0"":2}","[0]","","images/stimuli/spore_stims/simple_09_A_b.gif","images/stimuli/spore_stims/simple_19_A_a.gif"
"","4739.3450000090525","survey-likert","152","553997","0.0-36.0","SS1619739719701","similarity_question","","","","","","","","","","","","{""Q0"":5}","[0]","","images/stimuli/spore_stims/simple_16_A_b.gif","images/stimuli/spore_stims/simple_09_A_a.gif"
"","7899.0699999267235","survey-likert","153","561901","0.0-37.0","SS1619739719701","similarity_question","","","","","","","","","","","","{""Q0"":1}","[0]","","images/stimuli/spore_stims/complex_01_A_b.gif","images/stimuli/spore_stims/complex_04_A_a.gif"
"","7514.764999970794","survey-likert","154","569421","0.0-38.0","SS1619739719701","similarity_question","","","","","","","","","","","","{""Q0"":5}","[0]","","images/stimuli/spore_stims/simple_17_A_a.gif","images/stimuli/spore_stims/simple_04_A_b.gif"
"","8075.575000024401","survey-likert","155","577501","0.0-39.0","SS1619739719701","similarity_question","","","","","","","","","","","","{""Q0"":4}","[0]","","images/stimuli/spore_stims/complex_11_A_a.gif","images/stimuli/spore_stims/complex_05_A_b.gif"
"","3050.5799999227747","survey-likert","156","580557","0.0-40.0","SS1619739719701","similarity_question","","","","","","","","","","","","{""Q0"":4}","[0]","","images/stimuli/spore_stims/simple_16_A_a.gif","images/stimuli/spore_stims/simple_12_A_b.gif"
"","8770.850000088103","survey-likert","157","589332","0.0-41.0","SS1619739719701","similarity_question","","","","","","","","","","","","{""Q0"":2}","[0]","","images/stimuli/spore_stims/complex_13_A_a.gif","images/stimuli/spore_stims/complex_16_A_b.gif"
"","7148.379999911413","survey-likert","158","596485","0.0-42.0","SS1619739719701","similarity_question","","","","","","","","","","","","{""Q0"":5}","[0]","","images/stimuli/spore_stims/simple_06_A_b.gif","images/stimuli/spore_stims/simple_01_A_a.gif"
"","8820.859999977984","survey-likert","159","605309","0.0-43.0","SS1619739719701","similarity_question","","","","","","","","","","","","{""Q0"":5}","[0]","","images/stimuli/spore_stims/simple_15_A_a.gif","images/stimuli/spore_stims/simple_02_A_b.gif"
"","21267.450000043027","survey-likert","160","626581","0.0-44.0","SS1619739719701","similarity_question","","","","","","","","","","","","{""Q0"":1}","[0]","","images/stimuli/spore_stims/complex_09_A_a.gif","images/stimuli/spore_stims/complex_02_A_b.gif"
"[{""page_index"":0,""viewing_time"":3747.2250000573695}]","3747.525000013411","instructions","161","630333","0.0-45.0","SS1619739719701","instructions","","","","","","","","","","","","","","","",""
"","6700.105000054464","survey-likert","162","637037","0.0-46.0","SS1619739719701","","","","","","","","","images/stimuli/spore_stims/complex_05_A_b.gif","","","","{""Q0"":1}","[0]","","",""
"","5435.844999970868","survey-likert","163","642477","0.0-47.0","SS1619739719701","","","","","","","","","images/stimuli/spore_stims/complex_15_A_a.gif","","","","{""Q0"":4}","[0]","","",""
"","5219.530000002123","survey-likert","164","647701","0.0-48.0","SS1619739719701","","","","","","","","","images/stimuli/spore_stims/simple_17_A_a.gif","","","","{""Q0"":0}","[0]","","",""
"","3203.5349999787286","survey-likert","165","650909","0.0-49.0","SS1619739719701","","","","","","","","","images/stimuli/spore_stims/simple_09_A_b.gif","","","","{""Q0"":0}","[0]","","",""
"","2058.4000000962988","survey-likert","166","652973","0.0-50.0","SS1619739719701","","","","","","","","","images/stimuli/spore_stims/simple_15_A_a.gif","","","","{""Q0"":0}","[0]","","",""
"","7292.0000000158325","survey-likert","167","660270","0.0-51.0","SS1619739719701","","","","","","","","","images/stimuli/spore_stims/complex_09_A_a.gif","","","","{""Q0"":4}","[0]","","",""
"","7804.339999915101","survey-likert","168","668078","0.0-52.0","SS1619739719701","","","","","","","","","images/stimuli/spore_stims/complex_14_A_b.gif","","","","{""Q0"":3}","[0]","","",""
"","3323.325000004843","survey-likert","169","671405","0.0-53.0","SS1619739719701","","","","","","","","","images/stimuli/spore_stims/complex_04_A_a.gif","","","","{""Q0"":4}","[0]","","",""
"","23547.885000007227","survey-likert","170","694957","0.0-54.0","SS1619739719701","","","","","","","","","images/stimuli/spore_stims/complex_16_A_b.gif","","","","{""Q0"":5}","[0]","","",""
"","3987.7299999352545","survey-likert","171","698949","0.0-55.0","SS1619739719701","","","","","","","","","images/stimuli/spore_stims/simple_16_A_a.gif","","","","{""Q0"":0}","[0]","","",""
"","1690.7349999528378","survey-likert","172","700645","0.0-56.0","SS1619739719701","","","","","","","","","images/stimuli/spore_stims/simple_09_A_a.gif","","","","{""Q0"":0}","[0]","","",""
"","1964.6500000962988","survey-likert","173","702612","0.0-57.0","SS1619739719701","","","","","","","","","images/stimuli/spore_stims/simple_06_A_b.gif","","","","{""Q0"":0}","[0]","","",""
"[{""page_index"":0,""viewing_time"":1372.804999933578}]","1373.0349999386817","instructions","174","703990","0.0-58.0","SS1619739719701","instructions","","","","","","","","","","","","","","","",""
"","2250.345000065863","demog-age","175","706245","0.0-59.0","SS1619739719701","","","","","","","","","","","","","{""age"":""24""}","","","",""
"","2450.6250000558794","demog-ethnic-US","176","708701","0.0-60.0","SS1619739719701","","","","","","","","","","","","","{""ethnicity"":[""White""]}","[0]","","",""
"","3794.6450000163168","demog-gender-and-education","177","712501","0.0-61.0","SS1619739719701","","","","","","","","","","","","","{""gender"":""Male"",""education"":""Master's Degree""}","[0,1]","","",""
"","4817.924999981187","survey-text","178","717325","0.0-62.0","SS1619739719701","feedback","","","","","","","","","","","","{""Q0"":""No""}","","","",""
"[{""page_index"":0,""viewing_time"":1236.7000000085682}]","1236.9249999755993","instructions","179","718565","0.0-63.0","SS1619739719701","instructions","","","","","","","","","","","","","","","",""
