"view_history","rt","trial_type","trial_index","time_elapsed","internal_node_id","subject","stimulus_type","trial_stimulus","key_press","minimum_viewing_duration","trial_looking_time","block_deviant","block_background","exposure_type","stimulus","block_number","block_type","stimulus_displayed","responses","question_order","math_correct_answer","stimulus_left","stimulus_right"
"[{""page_index"":0,""viewing_time"":1935.6149999985064}]","1936.1800000006042","instructions","0","1938","0.0-0.0","SS1619740071110","","","","","","","","","","","","","","","","",""
"[{""page_index"":0,""viewing_time"":6977.535000001808},{""page_index"":1,""viewing_time"":5289.740000000165}]","12267.840000000433","instructions","1","16212","0.0-1.0","SS1619740071110","instructions","","","","","","","","","","","","","","","",""
"","3411.964999999327","sequential-stimulus-presentation-old","2","20130","0.0-2.0","SS1619740071110","","","40","500","3911.964999999327","null","null","self_paced","","","","","","","","",""
"","4449.909999999363","sequential-stimulus-presentation-old","3","25083","0.0-3.0","SS1619740071110","","","40","500","4949.909999999363","null","null","self_paced","","","","","","","","",""
"[{""page_index"":0,""viewing_time"":13436.349999999948}]","13436.725000003207","instructions","4","38522","0.0-4.0","SS1619740071110","instructions","","","","","","","","","","","","","","","",""
"","616.0750000017288","sequential-stimulus-presentation-old","5","54143","0.0-5.0","SS1619740071110","","","40","500","1116.0750000017288","null","null","forced_long","","","","","","","","",""
"","1815.8450000009907","sequential-stimulus-presentation-old","6","56461","0.0-6.0","SS1619740071110","","","40","500","2315.8450000009907","null","null","forced_long","","","","","","","","",""
"[{""page_index"":0,""viewing_time"":2299.334999999701}]","2299.685000001773","instructions","7","58763","0.0-7.0","SS1619740071110","instructions","","","","","","","","","","","","","","","",""
"[{""page_index"":0,""viewing_time"":3899.649999999383},{""page_index"":1,""viewing_time"":6040.134999999282},{""page_index"":2,""viewing_time"":2522.7149999991525},{""page_index"":3,""viewing_time"":994.3449999991572},{""page_index"":4,""viewing_time"":1014.8900000021968}]","14472.129999998288","instructions","8","73237","0.0-8.0","SS1619740071110","instructions","","","","","","","","","","","","","","","",""
"","null","html-keyboard-response","9","74129","0.0-9.0-0.0","SS1619740071110","","","null","","","","","","<p><img src= images/blank.png width =""600"" height = ""600"" style=""position:fixed;top:50%; left:50%; transform: translate(-50%, -50%); border:5px solid black"">","","","","","","","",""
"","551.2300000009418","sequential-stimulus-presentation-old","10","89687","0.0-9.0-1.0","SS1619740071110","trial","","40","500","1051.2300000009418","images/stimuli/spore_stims/complex_20_A_b.gif","images/stimuli/spore_stims/complex_10_A_a.gif","forced_long","","0","complex_dissimilar","images/stimuli/spore_stims/complex_10_A_a.gif","","","","",""
"","null","html-keyboard-response","11","90546","0.0-9.0-0.1","SS1619740071110","","","null","","","","","","<p><img src= images/blank.png width =""600"" height = ""600"" style=""position:fixed;top:50%; left:50%; transform: translate(-50%, -50%); border:5px solid black"">","","","","","","","",""
"","8022.989999997662","sequential-stimulus-presentation-old","12","99074","0.0-9.0-1.1","SS1619740071110","trial","","40","500","8522.989999997662","images/stimuli/spore_stims/complex_20_A_b.gif","images/stimuli/spore_stims/complex_10_A_a.gif","forced_long","","0","complex_dissimilar","images/stimuli/spore_stims/complex_10_A_a.gif","","","","",""
"","null","html-keyboard-response","13","100037","0.0-9.0-0.2","SS1619740071110","","","null","","","","","","<p><img src= images/blank.png width =""600"" height = ""600"" style=""position:fixed;top:50%; left:50%; transform: translate(-50%, -50%); border:5px solid black"">","","","","","","","",""
"","6568.605000000389","sequential-stimulus-presentation-old","14","107110","0.0-9.0-1.2","SS1619740071110","trial","","40","500","7068.605000000389","images/stimuli/spore_stims/complex_20_A_b.gif","images/stimuli/spore_stims/complex_10_A_a.gif","forced_long","","0","complex_dissimilar","images/stimuli/spore_stims/complex_20_A_b.gif","","","","",""
"","null","html-keyboard-response","15","108164","0.0-9.0-0.3","SS1619740071110","","","null","","","","","","<p><img src= images/blank.png width =""600"" height = ""600"" style=""position:fixed;top:50%; left:50%; transform: translate(-50%, -50%); border:5px solid black"">","","","","","","","",""
"","4950.48499999757","sequential-stimulus-presentation-old","16","113620","0.0-9.0-1.3","SS1619740071110","trial","","40","500","5450.48499999757","images/stimuli/spore_stims/complex_20_A_b.gif","images/stimuli/spore_stims/complex_10_A_a.gif","forced_long","","0","complex_dissimilar","images/stimuli/spore_stims/complex_10_A_a.gif","","","","",""
"","null","html-keyboard-response","17","114597","0.0-9.0-0.4","SS1619740071110","","","null","","","","","","<p><img src= images/blank.png width =""600"" height = ""600"" style=""position:fixed;top:50%; left:50%; transform: translate(-50%, -50%); border:5px solid black"">","","","","","","","",""
"","4535.920000002079","sequential-stimulus-presentation-old","18","119638","0.0-9.0-1.4","SS1619740071110","trial","","40","500","5035.920000002079","images/stimuli/spore_stims/complex_20_A_b.gif","images/stimuli/spore_stims/complex_10_A_a.gif","forced_long","","0","complex_dissimilar","images/stimuli/spore_stims/complex_20_A_b.gif","","","","",""
"","3388.264999997773","survey-multi-choice","19","123033","0.0-10.0","SS1619740071110","math_question","","","","","","","","","","","","{""Q0"":""18""}","[0]","18","",""
"","null","html-keyboard-response","20","124280","0.0-11.0-0.0","SS1619740071110","","","null","","","","","","<p><img src= images/blank.png width =""600"" height = ""600"" style=""position:fixed;top:50%; left:50%; transform: translate(-50%, -50%); border:5px solid black"">","","","","","","","",""
"","621.3699999971141","sequential-stimulus-presentation-old","21","139908","0.0-11.0-1.0","SS1619740071110","trial","","40","500","1121.369999997114","images/stimuli/spore_stims/simple_08_A_b.gif","images/stimuli/spore_stims/simple_03_A_a.gif","forced_long","","1","simple_dissimilar","images/stimuli/spore_stims/simple_03_A_a.gif","","","","",""
"","null","html-keyboard-response","22","140824","0.0-11.0-0.1","SS1619740071110","","","null","","","","","","<p><img src= images/blank.png width =""600"" height = ""600"" style=""position:fixed;top:50%; left:50%; transform: translate(-50%, -50%); border:5px solid black"">","","","","","","","",""
"","3448.3000000000175","sequential-stimulus-presentation-old","23","144777","0.0-11.0-1.1","SS1619740071110","trial","","40","500","3948.3000000000175","images/stimuli/spore_stims/simple_08_A_b.gif","images/stimuli/spore_stims/simple_03_A_a.gif","forced_long","","1","simple_dissimilar","images/stimuli/spore_stims/simple_08_A_b.gif","","","","",""
"","null","html-keyboard-response","24","146066","0.0-11.0-0.2","SS1619740071110","","","null","","","","","","<p><img src= images/blank.png width =""600"" height = ""600"" style=""position:fixed;top:50%; left:50%; transform: translate(-50%, -50%); border:5px solid black"">","","","","","","","",""
"","4676.659999997355","sequential-stimulus-presentation-old","25","151248","0.0-11.0-1.2","SS1619740071110","trial","","40","500","5176.659999997355","images/stimuli/spore_stims/simple_08_A_b.gif","images/stimuli/spore_stims/simple_03_A_a.gif","forced_long","","1","simple_dissimilar","images/stimuli/spore_stims/simple_03_A_a.gif","","","","",""
"","null","html-keyboard-response","26","152295","0.0-11.0-0.3","SS1619740071110","","","null","","","","","","<p><img src= images/blank.png width =""600"" height = ""600"" style=""position:fixed;top:50%; left:50%; transform: translate(-50%, -50%); border:5px solid black"">","","","","","","","",""
"","1482.5249999994412","sequential-stimulus-presentation-old","27","154283","0.0-11.0-1.3","SS1619740071110","trial","","40","500","1982.5249999994412","images/stimuli/spore_stims/simple_08_A_b.gif","images/stimuli/spore_stims/simple_03_A_a.gif","forced_long","","1","simple_dissimilar","images/stimuli/spore_stims/simple_03_A_a.gif","","","","",""
"","null","html-keyboard-response","28","155424","0.0-11.0-0.4","SS1619740071110","","","null","","","","","","<p><img src= images/blank.png width =""600"" height = ""600"" style=""position:fixed;top:50%; left:50%; transform: translate(-50%, -50%); border:5px solid black"">","","","","","","","",""
"","3888.07000000088","sequential-stimulus-presentation-old","29","159818","0.0-11.0-1.4","SS1619740071110","trial","","40","500","4388.07000000088","images/stimuli/spore_stims/simple_08_A_b.gif","images/stimuli/spore_stims/simple_03_A_a.gif","forced_long","","1","simple_dissimilar","images/stimuli/spore_stims/simple_08_A_b.gif","","","","",""
"","2484.250000001339","survey-multi-choice","30","162305","0.0-12.0","SS1619740071110","math_question","","","","","","","","","","","","{""Q0"":""10""}","[0]","10","",""
"","null","html-keyboard-response","31","163267","0.0-13.0-0.0","SS1619740071110","","","null","","","","","","<p><img src= images/blank.png width =""600"" height = ""600"" style=""position:fixed;top:50%; left:50%; transform: translate(-50%, -50%); border:5px solid black"">","","","","","","","",""
"","1065.5000000006112","sequential-stimulus-presentation-old","32","164838","0.0-13.0-1.0","SS1619740071110","trial","","40","500","1565.5000000006112","images/stimuli/spore_stims/complex_05_A_b.gif","images/stimuli/spore_stims/complex_13_A_a.gif","forced_short","","2","complex_dissimilar","images/stimuli/spore_stims/complex_13_A_a.gif","","","","",""
"","null","html-keyboard-response","33","166042","0.0-13.0-0.1","SS1619740071110","","","null","","","","","","<p><img src= images/blank.png width =""600"" height = ""600"" style=""position:fixed;top:50%; left:50%; transform: translate(-50%, -50%); border:5px solid black"">","","","","","","","",""
"","6517.915000000357","sequential-stimulus-presentation-old","34","173065","0.0-13.0-1.1","SS1619740071110","trial","","40","500","7017.915000000357","images/stimuli/spore_stims/complex_05_A_b.gif","images/stimuli/spore_stims/complex_13_A_a.gif","forced_short","","2","complex_dissimilar","images/stimuli/spore_stims/complex_13_A_a.gif","","","","",""
"","null","html-keyboard-response","35","174041","0.0-13.0-0.2","SS1619740071110","","","null","","","","","","<p><img src= images/blank.png width =""600"" height = ""600"" style=""position:fixed;top:50%; left:50%; transform: translate(-50%, -50%); border:5px solid black"">","","","","","","","",""
"","6085.5200000005425","sequential-stimulus-presentation-old","36","180632","0.0-13.0-1.2","SS1619740071110","trial","","40","500","6585.5200000005425","images/stimuli/spore_stims/complex_05_A_b.gif","images/stimuli/spore_stims/complex_13_A_a.gif","forced_short","","2","complex_dissimilar","images/stimuli/spore_stims/complex_13_A_a.gif","","","","",""
"","null","html-keyboard-response","37","181501","0.0-13.0-0.3","SS1619740071110","","","null","","","","","","<p><img src= images/blank.png width =""600"" height = ""600"" style=""position:fixed;top:50%; left:50%; transform: translate(-50%, -50%); border:5px solid black"">","","","","","","","",""
"","1475.9100000010221","sequential-stimulus-presentation-old","38","183484","0.0-13.0-1.3","SS1619740071110","trial","","40","500","1975.9100000010221","images/stimuli/spore_stims/complex_05_A_b.gif","images/stimuli/spore_stims/complex_13_A_a.gif","forced_short","","2","complex_dissimilar","images/stimuli/spore_stims/complex_13_A_a.gif","","","","",""
"","null","html-keyboard-response","39","184468","0.0-13.0-0.4","SS1619740071110","","","null","","","","","","<p><img src= images/blank.png width =""600"" height = ""600"" style=""position:fixed;top:50%; left:50%; transform: translate(-50%, -50%); border:5px solid black"">","","","","","","","",""
"","5976.265000001149","sequential-stimulus-presentation-old","40","190949","0.0-13.0-1.4","SS1619740071110","trial","","40","500","6476.265000001149","images/stimuli/spore_stims/complex_05_A_b.gif","images/stimuli/spore_stims/complex_13_A_a.gif","forced_short","","2","complex_dissimilar","images/stimuli/spore_stims/complex_13_A_a.gif","","","","",""
"","null","html-keyboard-response","41","191765","0.0-13.0-0.5","SS1619740071110","","","null","","","","","","<p><img src= images/blank.png width =""600"" height = ""600"" style=""position:fixed;top:50%; left:50%; transform: translate(-50%, -50%); border:5px solid black"">","","","","","","","",""
"","8865.920000000187","sequential-stimulus-presentation-old","42","201136","0.0-13.0-1.5","SS1619740071110","trial","","40","500","9365.920000000187","images/stimuli/spore_stims/complex_05_A_b.gif","images/stimuli/spore_stims/complex_13_A_a.gif","forced_short","","2","complex_dissimilar","images/stimuli/spore_stims/complex_05_A_b.gif","","","","",""
"","2356.179999998858","survey-multi-choice","43","203495","0.0-14.0","SS1619740071110","math_question","","","","","","","","","","","","{""Q0"":""9""}","[0]","9","",""
"","null","html-keyboard-response","44","204565","0.0-15.0-0.0","SS1619740071110","","","null","","","","","","<p><img src= images/blank.png width =""600"" height = ""600"" style=""position:fixed;top:50%; left:50%; transform: translate(-50%, -50%); border:5px solid black"">","","","","","","","",""
"","844.6000000003551","sequential-stimulus-presentation-old","45","205914","0.0-15.0-1.0","SS1619740071110","trial","","40","500","1344.600000000355","images/stimuli/spore_stims/simple_12_A_b.gif","images/stimuli/spore_stims/simple_17_A_a.gif","forced_short","","3","simple_dissimilar","images/stimuli/spore_stims/simple_17_A_a.gif","","","","",""
"","null","html-keyboard-response","46","206753","0.0-15.0-0.1","SS1619740071110","","","null","","","","","","<p><img src= images/blank.png width =""600"" height = ""600"" style=""position:fixed;top:50%; left:50%; transform: translate(-50%, -50%); border:5px solid black"">","","","","","","","",""
"","3919.8150000011083","sequential-stimulus-presentation-old","47","211178","0.0-15.0-1.1","SS1619740071110","trial","","40","500","4419.815000001108","images/stimuli/spore_stims/simple_12_A_b.gif","images/stimuli/spore_stims/simple_17_A_a.gif","forced_short","","3","simple_dissimilar","images/stimuli/spore_stims/simple_12_A_b.gif","","","","",""
"","null","html-keyboard-response","48","212100","0.0-15.0-0.2","SS1619740071110","","","null","","","","","","<p><img src= images/blank.png width =""600"" height = ""600"" style=""position:fixed;top:50%; left:50%; transform: translate(-50%, -50%); border:5px solid black"">","","","","","","","",""
"","4130.750000000262","sequential-stimulus-presentation-old","49","216736","0.0-15.0-1.2","SS1619740071110","trial","","40","500","4630.750000000262","images/stimuli/spore_stims/simple_12_A_b.gif","images/stimuli/spore_stims/simple_17_A_a.gif","forced_short","","3","simple_dissimilar","images/stimuli/spore_stims/simple_17_A_a.gif","","","","",""
"","null","html-keyboard-response","50","217597","0.0-15.0-0.3","SS1619740071110","","","null","","","","","","<p><img src= images/blank.png width =""600"" height = ""600"" style=""position:fixed;top:50%; left:50%; transform: translate(-50%, -50%); border:5px solid black"">","","","","","","","",""
"","1370.6100000017614","sequential-stimulus-presentation-old","51","219473","0.0-15.0-1.3","SS1619740071110","trial","","40","500","1870.6100000017614","images/stimuli/spore_stims/simple_12_A_b.gif","images/stimuli/spore_stims/simple_17_A_a.gif","forced_short","","3","simple_dissimilar","images/stimuli/spore_stims/simple_17_A_a.gif","","","","",""
"","null","html-keyboard-response","52","220727","0.0-15.0-0.4","SS1619740071110","","","null","","","","","","<p><img src= images/blank.png width =""600"" height = ""600"" style=""position:fixed;top:50%; left:50%; transform: translate(-50%, -50%); border:5px solid black"">","","","","","","","",""
"","3123.0150000010326","sequential-stimulus-presentation-old","53","224355","0.0-15.0-1.4","SS1619740071110","trial","","40","500","3623.0150000010326","images/stimuli/spore_stims/simple_12_A_b.gif","images/stimuli/spore_stims/simple_17_A_a.gif","forced_short","","3","simple_dissimilar","images/stimuli/spore_stims/simple_17_A_a.gif","","","","",""
"","null","html-keyboard-response","54","225591","0.0-15.0-0.5","SS1619740071110","","","null","","","","","","<p><img src= images/blank.png width =""600"" height = ""600"" style=""position:fixed;top:50%; left:50%; transform: translate(-50%, -50%); border:5px solid black"">","","","","","","","",""
"","2785.3050000012445","sequential-stimulus-presentation-old","55","228886","0.0-15.0-1.5","SS1619740071110","trial","","40","500","3285.3050000012445","images/stimuli/spore_stims/simple_12_A_b.gif","images/stimuli/spore_stims/simple_17_A_a.gif","forced_short","","3","simple_dissimilar","images/stimuli/spore_stims/simple_17_A_a.gif","","","","",""
"","2463.6650000029476","survey-multi-choice","56","231353","0.0-16.0","SS1619740071110","math_question","","","","","","","","","","","","{""Q0"":""5""}","[0]","5","",""
"","null","html-keyboard-response","57","232557","0.0-17.0-0.0","SS1619740071110","","","null","","","","","","<p><img src= images/blank.png width =""600"" height = ""600"" style=""position:fixed;top:50%; left:50%; transform: translate(-50%, -50%); border:5px solid black"">","","","","","","","",""
"","200824.0149999983","sequential-stimulus-presentation-old","58","434471","0.0-17.0-1.0","SS1619740071110","trial","","40","500","201324.0149999983","images/stimuli/spore_stims/simple_06_A_a.gif","images/stimuli/spore_stims/simple_10_A_b.gif","self_paced","","4","simple_dissimilar","images/stimuli/spore_stims/simple_10_A_b.gif","","","","",""
"","null","html-keyboard-response","59","435318","0.0-17.0-0.1","SS1619740071110","","","null","","","","","","<p><img src= images/blank.png width =""600"" height = ""600"" style=""position:fixed;top:50%; left:50%; transform: translate(-50%, -50%); border:5px solid black"">","","","","","","","",""
"","1762.8100000001723","sequential-stimulus-presentation-old","60","437586","0.0-17.0-1.1","SS1619740071110","trial","","40","500","2262.8100000001723","images/stimuli/spore_stims/simple_06_A_a.gif","images/stimuli/spore_stims/simple_10_A_b.gif","self_paced","","4","simple_dissimilar","images/stimuli/spore_stims/simple_10_A_b.gif","","","","",""
"","null","html-keyboard-response","61","438673","0.0-17.0-0.2","SS1619740071110","","","null","","","","","","<p><img src= images/blank.png width =""600"" height = ""600"" style=""position:fixed;top:50%; left:50%; transform: translate(-50%, -50%); border:5px solid black"">","","","","","","","",""
"","75.66000000224449","sequential-stimulus-presentation-old","62","439254","0.0-17.0-1.2","SS1619740071110","trial","","40","500","575.6600000022445","images/stimuli/spore_stims/simple_06_A_a.gif","images/stimuli/spore_stims/simple_10_A_b.gif","self_paced","","4","simple_dissimilar","images/stimuli/spore_stims/simple_10_A_b.gif","","","","",""
"","null","html-keyboard-response","63","440479","0.0-17.0-0.3","SS1619740071110","","","null","","","","","","<p><img src= images/blank.png width =""600"" height = ""600"" style=""position:fixed;top:50%; left:50%; transform: translate(-50%, -50%); border:5px solid black"">","","","","","","","",""
"","5325.314999998198","sequential-stimulus-presentation-old","64","446310","0.0-17.0-1.3","SS1619740071110","trial","","40","500","5825.314999998198","images/stimuli/spore_stims/simple_06_A_a.gif","images/stimuli/spore_stims/simple_10_A_b.gif","self_paced","","4","simple_dissimilar","images/stimuli/spore_stims/simple_06_A_a.gif","","","","",""
"","null","html-keyboard-response","65","447558","0.0-17.0-0.4","SS1619740071110","","","null","","","","","","<p><img src= images/blank.png width =""600"" height = ""600"" style=""position:fixed;top:50%; left:50%; transform: translate(-50%, -50%); border:5px solid black"">","","","","","","","",""
"","6560.604999998701","sequential-stimulus-presentation-old","66","454627","0.0-17.0-1.4","SS1619740071110","trial","","40","500","7060.604999998701","images/stimuli/spore_stims/simple_06_A_a.gif","images/stimuli/spore_stims/simple_10_A_b.gif","self_paced","","4","simple_dissimilar","images/stimuli/spore_stims/simple_06_A_a.gif","","","","",""
"","2727.5100000005914","survey-multi-choice","67","457358","0.0-18.0","SS1619740071110","math_question","","","","","","","","","","","","{""Q0"":""12""}","[0]","12","",""
"","null","html-keyboard-response","68","458278","0.0-19.0-0.0","SS1619740071110","","","null","","","","","","<p><img src= images/blank.png width =""600"" height = ""600"" style=""position:fixed;top:50%; left:50%; transform: translate(-50%, -50%); border:5px solid black"">","","","","","","","",""
"","5997.370000000927","sequential-stimulus-presentation-old","69","464783","0.0-19.0-1.0","SS1619740071110","trial","","40","500","6497.370000000927","images/stimuli/spore_stims/complex_13_A_b.gif","images/stimuli/spore_stims/complex_19_A_a.gif","self_paced","","5","complex_dissimilar","images/stimuli/spore_stims/complex_19_A_a.gif","","","","",""
"","null","html-keyboard-response","70","465847","0.0-19.0-0.1","SS1619740071110","","","null","","","","","","<p><img src= images/blank.png width =""600"" height = ""600"" style=""position:fixed;top:50%; left:50%; transform: translate(-50%, -50%); border:5px solid black"">","","","","","","","",""
"","5651.66500000126","sequential-stimulus-presentation-old","71","472005","0.0-19.0-1.1","SS1619740071110","trial","","40","500","6151.66500000126","images/stimuli/spore_stims/complex_13_A_b.gif","images/stimuli/spore_stims/complex_19_A_a.gif","self_paced","","5","complex_dissimilar","images/stimuli/spore_stims/complex_13_A_b.gif","","","","",""
"","null","html-keyboard-response","72","473121","0.0-19.0-0.2","SS1619740071110","","","null","","","","","","<p><img src= images/blank.png width =""600"" height = ""600"" style=""position:fixed;top:50%; left:50%; transform: translate(-50%, -50%); border:5px solid black"">","","","","","","","",""
"","3278.055000002496","sequential-stimulus-presentation-old","73","476908","0.0-19.0-1.2","SS1619740071110","trial","","40","500","3778.055000002496","images/stimuli/spore_stims/complex_13_A_b.gif","images/stimuli/spore_stims/complex_19_A_a.gif","self_paced","","5","complex_dissimilar","images/stimuli/spore_stims/complex_13_A_b.gif","","","","",""
"","null","html-keyboard-response","74","478062","0.0-19.0-0.3","SS1619740071110","","","null","","","","","","<p><img src= images/blank.png width =""600"" height = ""600"" style=""position:fixed;top:50%; left:50%; transform: translate(-50%, -50%); border:5px solid black"">","","","","","","","",""
"","3523.074999997276","sequential-stimulus-presentation-old","75","482092","0.0-19.0-1.3","SS1619740071110","trial","","40","500","4023.074999997276","images/stimuli/spore_stims/complex_13_A_b.gif","images/stimuli/spore_stims/complex_19_A_a.gif","self_paced","","5","complex_dissimilar","images/stimuli/spore_stims/complex_19_A_a.gif","","","","",""
"","2908.8799999990733","survey-multi-choice","76","485005","0.0-20.0","SS1619740071110","math_question","","","","","","","","","","","","{""Q0"":""12""}","[0]","12","",""
"","null","html-keyboard-response","77","486079","0.0-21.0-0.0","SS1619740071110","","","null","","","","","","<p><img src= images/blank.png width =""600"" height = ""600"" style=""position:fixed;top:50%; left:50%; transform: translate(-50%, -50%); border:5px solid black"">","","","","","","","",""
"","1785.50499999983","sequential-stimulus-presentation-old","78","488370","0.0-21.0-1.0","SS1619740071110","trial","","40","500","2285.50499999983","images/stimuli/spore_stims/complex_11_A_a.gif","images/stimuli/spore_stims/complex_12_A_b.gif","forced_short","","6","complex_dissimilar","images/stimuli/spore_stims/complex_12_A_b.gif","","","","",""
"","null","html-keyboard-response","79","489521","0.0-21.0-0.1","SS1619740071110","","","null","","","","","","<p><img src= images/blank.png width =""600"" height = ""600"" style=""position:fixed;top:50%; left:50%; transform: translate(-50%, -50%); border:5px solid black"">","","","","","","","",""
"","4051.449999999022","sequential-stimulus-presentation-old","80","494078","0.0-21.0-1.1","SS1619740071110","trial","","40","500","4551.449999999022","images/stimuli/spore_stims/complex_11_A_a.gif","images/stimuli/spore_stims/complex_12_A_b.gif","forced_short","","6","complex_dissimilar","images/stimuli/spore_stims/complex_12_A_b.gif","","","","",""
"","null","html-keyboard-response","81","495007","0.0-21.0-0.2","SS1619740071110","","","null","","","","","","<p><img src= images/blank.png width =""600"" height = ""600"" style=""position:fixed;top:50%; left:50%; transform: translate(-50%, -50%); border:5px solid black"">","","","","","","","",""
"","6338.77500000014","sequential-stimulus-presentation-old","82","501851","0.0-21.0-1.2","SS1619740071110","trial","","40","500","6838.77500000014","images/stimuli/spore_stims/complex_11_A_a.gif","images/stimuli/spore_stims/complex_12_A_b.gif","forced_short","","6","complex_dissimilar","images/stimuli/spore_stims/complex_11_A_a.gif","","","","",""
"","null","html-keyboard-response","83","503012","0.0-21.0-0.3","SS1619740071110","","","null","","","","","","<p><img src= images/blank.png width =""600"" height = ""600"" style=""position:fixed;top:50%; left:50%; transform: translate(-50%, -50%); border:5px solid black"">","","","","","","","",""
"","3522.179999999935","sequential-stimulus-presentation-old","84","507039","0.0-21.0-1.3","SS1619740071110","trial","","40","500","4022.179999999935","images/stimuli/spore_stims/complex_11_A_a.gif","images/stimuli/spore_stims/complex_12_A_b.gif","forced_short","","6","complex_dissimilar","images/stimuli/spore_stims/complex_12_A_b.gif","","","","",""
"","null","html-keyboard-response","85","508097","0.0-21.0-0.4","SS1619740071110","","","null","","","","","","<p><img src= images/blank.png width =""600"" height = ""600"" style=""position:fixed;top:50%; left:50%; transform: translate(-50%, -50%); border:5px solid black"">","","","","","","","",""
"","2519.545000002836","sequential-stimulus-presentation-old","86","511122","0.0-21.0-1.4","SS1619740071110","trial","","40","500","3019.545000002836","images/stimuli/spore_stims/complex_11_A_a.gif","images/stimuli/spore_stims/complex_12_A_b.gif","forced_short","","6","complex_dissimilar","images/stimuli/spore_stims/complex_12_A_b.gif","","","","",""
"","null","html-keyboard-response","87","512178","0.0-21.0-0.5","SS1619740071110","","","null","","","","","","<p><img src= images/blank.png width =""600"" height = ""600"" style=""position:fixed;top:50%; left:50%; transform: translate(-50%, -50%); border:5px solid black"">","","","","","","","",""
"","2011.9500000000698","sequential-stimulus-presentation-old","88","514699","0.0-21.0-1.5","SS1619740071110","trial","","40","500","2511.95000000007","images/stimuli/spore_stims/complex_11_A_a.gif","images/stimuli/spore_stims/complex_12_A_b.gif","forced_short","","6","complex_dissimilar","images/stimuli/spore_stims/complex_11_A_a.gif","","","","",""
"","2549.2450000019744","survey-multi-choice","89","517252","0.0-22.0","SS1619740071110","math_question","","","","","","","","","","","","{""Q0"":""6""}","[0]","6","",""
"","null","html-keyboard-response","90","518187","0.0-23.0-0.0","SS1619740071110","","","null","","","","","","<p><img src= images/blank.png width =""600"" height = ""600"" style=""position:fixed;top:50%; left:50%; transform: translate(-50%, -50%); border:5px solid black"">","","","","","","","",""
"","5697.7499999993015","sequential-stimulus-presentation-old","91","524391","0.0-23.0-1.0","SS1619740071110","trial","","40","500","6197.7499999993015","images/stimuli/spore_stims/complex_04_A_b.gif","images/stimuli/spore_stims/complex_08_A_a.gif","self_paced","","7","complex_dissimilar","images/stimuli/spore_stims/complex_08_A_a.gif","","","","",""
"","null","html-keyboard-response","92","525472","0.0-23.0-0.1","SS1619740071110","","","null","","","","","","<p><img src= images/blank.png width =""600"" height = ""600"" style=""position:fixed;top:50%; left:50%; transform: translate(-50%, -50%); border:5px solid black"">","","","","","","","",""
"","6541.339999999735","sequential-stimulus-presentation-old","93","532522","0.0-23.0-1.1","SS1619740071110","trial","","40","500","7041.339999999735","images/stimuli/spore_stims/complex_04_A_b.gif","images/stimuli/spore_stims/complex_08_A_a.gif","self_paced","","7","complex_dissimilar","images/stimuli/spore_stims/complex_04_A_b.gif","","","","",""
"","null","html-keyboard-response","94","533553","0.0-23.0-0.2","SS1619740071110","","","null","","","","","","<p><img src= images/blank.png width =""600"" height = ""600"" style=""position:fixed;top:50%; left:50%; transform: translate(-50%, -50%); border:5px solid black"">","","","","","","","",""
"","1515.3599999976577","sequential-stimulus-presentation-old","95","535579","0.0-23.0-1.2","SS1619740071110","trial","","40","500","2015.3599999976577","images/stimuli/spore_stims/complex_04_A_b.gif","images/stimuli/spore_stims/complex_08_A_a.gif","self_paced","","7","complex_dissimilar","images/stimuli/spore_stims/complex_08_A_a.gif","","","","",""
"","null","html-keyboard-response","96","536516","0.0-23.0-0.3","SS1619740071110","","","null","","","","","","<p><img src= images/blank.png width =""600"" height = ""600"" style=""position:fixed;top:50%; left:50%; transform: translate(-50%, -50%); border:5px solid black"">","","","","","","","",""
"","3171.4549999997253","sequential-stimulus-presentation-old","97","540193","0.0-23.0-1.3","SS1619740071110","trial","","40","500","3671.4549999997253","images/stimuli/spore_stims/complex_04_A_b.gif","images/stimuli/spore_stims/complex_08_A_a.gif","self_paced","","7","complex_dissimilar","images/stimuli/spore_stims/complex_08_A_a.gif","","","","",""
"","null","html-keyboard-response","98","541017","0.0-23.0-0.4","SS1619740071110","","","null","","","","","","<p><img src= images/blank.png width =""600"" height = ""600"" style=""position:fixed;top:50%; left:50%; transform: translate(-50%, -50%); border:5px solid black"">","","","","","","","",""
"","1184.1849999981932","sequential-stimulus-presentation-old","99","542708","0.0-23.0-1.4","SS1619740071110","trial","","40","500","1684.1849999981932","images/stimuli/spore_stims/complex_04_A_b.gif","images/stimuli/spore_stims/complex_08_A_a.gif","self_paced","","7","complex_dissimilar","images/stimuli/spore_stims/complex_04_A_b.gif","","","","",""
"","2486.1049999999814","survey-multi-choice","100","545198","0.0-24.0","SS1619740071110","math_question","","","","","","","","","","","","{""Q0"":""12""}","[0]","12","",""
"","null","html-keyboard-response","101","546307","0.0-25.0-0.0","SS1619740071110","","","null","","","","","","<p><img src= images/blank.png width =""600"" height = ""600"" style=""position:fixed;top:50%; left:50%; transform: translate(-50%, -50%); border:5px solid black"">","","","","","","","",""
"","838.6199999985984","sequential-stimulus-presentation-old","102","562152","0.0-25.0-1.0","SS1619740071110","trial","","40","500","1338.6199999985984","images/stimuli/spore_stims/simple_06_A_b.gif","images/stimuli/spore_stims/simple_12_A_a.gif","forced_long","","8","simple_dissimilar","images/stimuli/spore_stims/simple_12_A_a.gif","","","","",""
"","null","html-keyboard-response","103","563299","0.0-25.0-0.1","SS1619740071110","","","null","","","","","","<p><img src= images/blank.png width =""600"" height = ""600"" style=""position:fixed;top:50%; left:50%; transform: translate(-50%, -50%); border:5px solid black"">","","","","","","","",""
"","3726.814999998198","sequential-stimulus-presentation-old","104","567533","0.0-25.0-1.1","SS1619740071110","trial","","40","500","4226.814999998198","images/stimuli/spore_stims/simple_06_A_b.gif","images/stimuli/spore_stims/simple_12_A_a.gif","forced_long","","8","simple_dissimilar","images/stimuli/spore_stims/simple_06_A_b.gif","","","","",""
"","null","html-keyboard-response","105","568603","0.0-25.0-0.2","SS1619740071110","","","null","","","","","","<p><img src= images/blank.png width =""600"" height = ""600"" style=""position:fixed;top:50%; left:50%; transform: translate(-50%, -50%); border:5px solid black"">","","","","","","","",""
"","4255.430000001099","sequential-stimulus-presentation-old","106","573365","0.0-25.0-1.2","SS1619740071110","trial","","40","500","4755.430000001099","images/stimuli/spore_stims/simple_06_A_b.gif","images/stimuli/spore_stims/simple_12_A_a.gif","forced_long","","8","simple_dissimilar","images/stimuli/spore_stims/simple_12_A_a.gif","","","","",""
"","null","html-keyboard-response","107","574306","0.0-25.0-0.3","SS1619740071110","","","null","","","","","","<p><img src= images/blank.png width =""600"" height = ""600"" style=""position:fixed;top:50%; left:50%; transform: translate(-50%, -50%); border:5px solid black"">","","","","","","","",""
"","3020.1099999976577","sequential-stimulus-presentation-old","108","577834","0.0-25.0-1.3","SS1619740071110","trial","","40","500","3520.1099999976577","images/stimuli/spore_stims/simple_06_A_b.gif","images/stimuli/spore_stims/simple_12_A_a.gif","forced_long","","8","simple_dissimilar","images/stimuli/spore_stims/simple_06_A_b.gif","","","","",""
"","null","html-keyboard-response","109","578932","0.0-25.0-0.4","SS1619740071110","","","null","","","","","","<p><img src= images/blank.png width =""600"" height = ""600"" style=""position:fixed;top:50%; left:50%; transform: translate(-50%, -50%); border:5px solid black"">","","","","","","","",""
"","988.9599999986822","sequential-stimulus-presentation-old","110","580429","0.0-25.0-1.4","SS1619740071110","trial","","40","500","1488.9599999986822","images/stimuli/spore_stims/simple_06_A_b.gif","images/stimuli/spore_stims/simple_12_A_a.gif","forced_long","","8","simple_dissimilar","images/stimuli/spore_stims/simple_12_A_a.gif","","","","",""
"","null","html-keyboard-response","111","581655","0.0-25.0-0.5","SS1619740071110","","","null","","","","","","<p><img src= images/blank.png width =""600"" height = ""600"" style=""position:fixed;top:50%; left:50%; transform: translate(-50%, -50%); border:5px solid black"">","","","","","","","",""
"","1011.8399999991525","sequential-stimulus-presentation-old","112","583172","0.0-25.0-1.5","SS1619740071110","trial","","40","500","1511.8399999991525","images/stimuli/spore_stims/simple_06_A_b.gif","images/stimuli/spore_stims/simple_12_A_a.gif","forced_long","","8","simple_dissimilar","images/stimuli/spore_stims/simple_12_A_a.gif","","","","",""
"","3046.2450000013923","survey-multi-choice","113","586223","0.0-26.0","SS1619740071110","math_question","","","","","","","","","","","","{""Q0"":""15""}","[0]","15","",""
"","null","html-keyboard-response","114","587077","0.0-27.0-0.0","SS1619740071110","","","null","","","","","","<p><img src= images/blank.png width =""600"" height = ""600"" style=""position:fixed;top:50%; left:50%; transform: translate(-50%, -50%); border:5px solid black"">","","","","","","","",""
"","1825.3350000013597","sequential-stimulus-presentation-old","115","603913","0.0-27.0-1.0","SS1619740071110","trial","","40","500","2325.3350000013597","images/stimuli/spore_stims/complex_03_A_a.gif","images/stimuli/spore_stims/complex_06_A_b.gif","forced_long","","9","complex_dissimilar","images/stimuli/spore_stims/complex_06_A_b.gif","","","","",""
"","null","html-keyboard-response","116","604765","0.0-27.0-0.1","SS1619740071110","","","null","","","","","","<p><img src= images/blank.png width =""600"" height = ""600"" style=""position:fixed;top:50%; left:50%; transform: translate(-50%, -50%); border:5px solid black"">","","","","","","","",""
"","5366.359999999986","sequential-stimulus-presentation-old","117","610638","0.0-27.0-1.1","SS1619740071110","trial","","40","500","5866.359999999986","images/stimuli/spore_stims/complex_03_A_a.gif","images/stimuli/spore_stims/complex_06_A_b.gif","forced_long","","9","complex_dissimilar","images/stimuli/spore_stims/complex_03_A_a.gif","","","","",""
"","null","html-keyboard-response","118","611714","0.0-27.0-0.2","SS1619740071110","","","null","","","","","","<p><img src= images/blank.png width =""600"" height = ""600"" style=""position:fixed;top:50%; left:50%; transform: translate(-50%, -50%); border:5px solid black"">","","","","","","","",""
"","6808.955000000424","sequential-stimulus-presentation-old","119","619030","0.0-27.0-1.2","SS1619740071110","trial","","40","500","7308.955000000424","images/stimuli/spore_stims/complex_03_A_a.gif","images/stimuli/spore_stims/complex_06_A_b.gif","forced_long","","9","complex_dissimilar","images/stimuli/spore_stims/complex_06_A_b.gif","","","","",""
"","null","html-keyboard-response","120","620300","0.0-27.0-0.3","SS1619740071110","","","null","","","","","","<p><img src= images/blank.png width =""600"" height = ""600"" style=""position:fixed;top:50%; left:50%; transform: translate(-50%, -50%); border:5px solid black"">","","","","","","","",""
"","2610.34500000102","sequential-stimulus-presentation-old","121","623416","0.0-27.0-1.3","SS1619740071110","trial","","40","500","3110.34500000102","images/stimuli/spore_stims/complex_03_A_a.gif","images/stimuli/spore_stims/complex_06_A_b.gif","forced_long","","9","complex_dissimilar","images/stimuli/spore_stims/complex_03_A_a.gif","","","","",""
"","null","html-keyboard-response","122","624294","0.0-27.0-0.4","SS1619740071110","","","null","","","","","","<p><img src= images/blank.png width =""600"" height = ""600"" style=""position:fixed;top:50%; left:50%; transform: translate(-50%, -50%); border:5px solid black"">","","","","","","","",""
"","2841.179999999469","sequential-stimulus-presentation-old","123","627646","0.0-27.0-1.4","SS1619740071110","trial","","40","500","3341.179999999469","images/stimuli/spore_stims/complex_03_A_a.gif","images/stimuli/spore_stims/complex_06_A_b.gif","forced_long","","9","complex_dissimilar","images/stimuli/spore_stims/complex_06_A_b.gif","","","","",""
"","null","html-keyboard-response","124","628566","0.0-27.0-0.5","SS1619740071110","","","null","","","","","","<p><img src= images/blank.png width =""600"" height = ""600"" style=""position:fixed;top:50%; left:50%; transform: translate(-50%, -50%); border:5px solid black"">","","","","","","","",""
"","1493.000000002212","sequential-stimulus-presentation-old","125","630566","0.0-27.0-1.5","SS1619740071110","trial","","40","500","1993.000000002212","images/stimuli/spore_stims/complex_03_A_a.gif","images/stimuli/spore_stims/complex_06_A_b.gif","forced_long","","9","complex_dissimilar","images/stimuli/spore_stims/complex_06_A_b.gif","","","","",""
"","2337.980000000214","survey-multi-choice","126","632908","0.0-28.0","SS1619740071110","math_question","","","","","","","","","","","","{""Q0"":""12""}","[0]","12","",""
"","null","html-keyboard-response","127","634064","0.0-29.0-0.0","SS1619740071110","","","null","","","","","","<p><img src= images/blank.png width =""600"" height = ""600"" style=""position:fixed;top:50%; left:50%; transform: translate(-50%, -50%); border:5px solid black"">","","","","","","","",""
"","1378.4349999987753","sequential-stimulus-presentation-old","128","635948","0.0-29.0-1.0","SS1619740071110","trial","","40","500","1878.4349999987753","images/stimuli/spore_stims/simple_13_A_b.gif","images/stimuli/spore_stims/simple_20_A_a.gif","forced_short","","10","simple_dissimilar","images/stimuli/spore_stims/simple_20_A_a.gif","","","","",""
"","null","html-keyboard-response","129","637193","0.0-29.0-0.1","SS1619740071110","","","null","","","","","","<p><img src= images/blank.png width =""600"" height = ""600"" style=""position:fixed;top:50%; left:50%; transform: translate(-50%, -50%); border:5px solid black"">","","","","","","","",""
"","855.9500000010012","sequential-stimulus-presentation-old","130","638556","0.0-29.0-1.1","SS1619740071110","trial","","40","500","1355.9500000010012","images/stimuli/spore_stims/simple_13_A_b.gif","images/stimuli/spore_stims/simple_20_A_a.gif","forced_short","","10","simple_dissimilar","images/stimuli/spore_stims/simple_20_A_a.gif","","","","",""
"","null","html-keyboard-response","131","639701","0.0-29.0-0.2","SS1619740071110","","","null","","","","","","<p><img src= images/blank.png width =""600"" height = ""600"" style=""position:fixed;top:50%; left:50%; transform: translate(-50%, -50%); border:5px solid black"">","","","","","","","",""
"","1624.5400000007357","sequential-stimulus-presentation-old","132","641830","0.0-29.0-1.2","SS1619740071110","trial","","40","500","2124.5400000007357","images/stimuli/spore_stims/simple_13_A_b.gif","images/stimuli/spore_stims/simple_20_A_a.gif","forced_short","","10","simple_dissimilar","images/stimuli/spore_stims/simple_13_A_b.gif","","","","",""
"","null","html-keyboard-response","133","642673","0.0-29.0-0.3","SS1619740071110","","","null","","","","","","<p><img src= images/blank.png width =""600"" height = ""600"" style=""position:fixed;top:50%; left:50%; transform: translate(-50%, -50%); border:5px solid black"">","","","","","","","",""
"","1595.4300000012154","sequential-stimulus-presentation-old","134","644775","0.0-29.0-1.3","SS1619740071110","trial","","40","500","2095.4300000012154","images/stimuli/spore_stims/simple_13_A_b.gif","images/stimuli/spore_stims/simple_20_A_a.gif","forced_short","","10","simple_dissimilar","images/stimuli/spore_stims/simple_20_A_a.gif","","","","",""
"","null","html-keyboard-response","135","645836","0.0-29.0-0.4","SS1619740071110","","","null","","","","","","<p><img src= images/blank.png width =""600"" height = ""600"" style=""position:fixed;top:50%; left:50%; transform: translate(-50%, -50%); border:5px solid black"">","","","","","","","",""
"","2302.9550000028685","sequential-stimulus-presentation-old","136","648647","0.0-29.0-1.4","SS1619740071110","trial","","40","500","2802.9550000028685","images/stimuli/spore_stims/simple_13_A_b.gif","images/stimuli/spore_stims/simple_20_A_a.gif","forced_short","","10","simple_dissimilar","images/stimuli/spore_stims/simple_20_A_a.gif","","","","",""
"","null","html-keyboard-response","137","649830","0.0-29.0-0.5","SS1619740071110","","","null","","","","","","<p><img src= images/blank.png width =""600"" height = ""600"" style=""position:fixed;top:50%; left:50%; transform: translate(-50%, -50%); border:5px solid black"">","","","","","","","",""
"","863.199999999837","sequential-stimulus-presentation-old","138","651201","0.0-29.0-1.5","SS1619740071110","trial","","40","500","1363.199999999837","images/stimuli/spore_stims/simple_13_A_b.gif","images/stimuli/spore_stims/simple_20_A_a.gif","forced_short","","10","simple_dissimilar","images/stimuli/spore_stims/simple_20_A_a.gif","","","","",""
"","2238.6499999992084","survey-multi-choice","139","653444","0.0-30.0","SS1619740071110","math_question","","","","","","","","","","","","{""Q0"":""9""}","[0]","9","",""
"","null","html-keyboard-response","140","654550","0.0-31.0-0.0","SS1619740071110","","","null","","","","","","<p><img src= images/blank.png width =""600"" height = ""600"" style=""position:fixed;top:50%; left:50%; transform: translate(-50%, -50%); border:5px solid black"">","","","","","","","",""
"","3647.3599999990547","sequential-stimulus-presentation-old","141","658707","0.0-31.0-1.0","SS1619740071110","trial","","40","500","4147.359999999055","images/stimuli/spore_stims/simple_14_A_a.gif","images/stimuli/spore_stims/simple_04_A_b.gif","self_paced","","11","simple_dissimilar","images/stimuli/spore_stims/simple_04_A_b.gif","","","","",""
"","null","html-keyboard-response","142","659613","0.0-31.0-0.1","SS1619740071110","","","null","","","","","","<p><img src= images/blank.png width =""600"" height = ""600"" style=""position:fixed;top:50%; left:50%; transform: translate(-50%, -50%); border:5px solid black"">","","","","","","","",""
"","583.0800000003073","sequential-stimulus-presentation-old","143","660706","0.0-31.0-1.1","SS1619740071110","trial","","40","500","1083.0800000003073","images/stimuli/spore_stims/simple_14_A_a.gif","images/stimuli/spore_stims/simple_04_A_b.gif","self_paced","","11","simple_dissimilar","images/stimuli/spore_stims/simple_04_A_b.gif","","","","",""
"","null","html-keyboard-response","144","661934","0.0-31.0-0.2","SS1619740071110","","","null","","","","","","<p><img src= images/blank.png width =""600"" height = ""600"" style=""position:fixed;top:50%; left:50%; transform: translate(-50%, -50%); border:5px solid black"">","","","","","","","",""
"","1041.0400000000373","sequential-stimulus-presentation-old","145","663482","0.0-31.0-1.2","SS1619740071110","trial","","40","500","1541.0400000000373","images/stimuli/spore_stims/simple_14_A_a.gif","images/stimuli/spore_stims/simple_04_A_b.gif","self_paced","","11","simple_dissimilar","images/stimuli/spore_stims/simple_04_A_b.gif","","","","",""
"","null","html-keyboard-response","146","664326","0.0-31.0-0.3","SS1619740071110","","","null","","","","","","<p><img src= images/blank.png width =""600"" height = ""600"" style=""position:fixed;top:50%; left:50%; transform: translate(-50%, -50%); border:5px solid black"">","","","","","","","",""
"","1425.7199999992736","sequential-stimulus-presentation-old","147","666260","0.0-31.0-1.3","SS1619740071110","trial","","40","500","1925.7199999992736","images/stimuli/spore_stims/simple_14_A_a.gif","images/stimuli/spore_stims/simple_04_A_b.gif","self_paced","","11","simple_dissimilar","images/stimuli/spore_stims/simple_04_A_b.gif","","","","",""
"[{""page_index"":0,""viewing_time"":2687.8049999978393}]","2688.2650000007125","instructions","148","668952","0.0-32.0","SS1619740071110","instructions","","","","","","","","","","","","","","","",""
"","6845.105000000331","survey-likert","149","675805","0.0-33.0","SS1619740071110","similarity_question","","","","","","","","","","","","{""Q0"":2}","[0]","","images/stimuli/spore_stims/complex_05_A_b.gif","images/stimuli/spore_stims/complex_13_A_a.gif"
"","3374.705000001937","survey-likert","150","679186","0.0-34.0","SS1619740071110","similarity_question","","","","","","","","","","","","{""Q0"":4}","[0]","","images/stimuli/spore_stims/complex_08_A_a.gif","images/stimuli/spore_stims/complex_04_A_b.gif"
"","6113.065000001341","survey-likert","151","685306","0.0-35.0","SS1619740071110","similarity_question","","","","","","","","","","","","{""Q0"":2}","[0]","","images/stimuli/spore_stims/complex_13_A_b.gif","images/stimuli/spore_stims/complex_19_A_a.gif"
"","5726.650000000489","survey-likert","152","691040","0.0-36.0","SS1619740071110","similarity_question","","","","","","","","","","","","{""Q0"":2}","[0]","","images/stimuli/spore_stims/complex_06_A_b.gif","images/stimuli/spore_stims/complex_03_A_a.gif"
"","3075.9700000017183","survey-likert","153","694122","0.0-37.0","SS1619740071110","similarity_question","","","","","","","","","","","","{""Q0"":5}","[0]","","images/stimuli/spore_stims/simple_10_A_b.gif","images/stimuli/spore_stims/simple_06_A_a.gif"
"","3520.214999996824","survey-likert","154","697648","0.0-38.0","SS1619740071110","similarity_question","","","","","","","","","","","","{""Q0"":5}","[0]","","images/stimuli/spore_stims/simple_06_A_b.gif","images/stimuli/spore_stims/simple_12_A_a.gif"
"","6054.8149999994785","survey-likert","155","703711","0.0-39.0","SS1619740071110","similarity_question","","","","","","","","","","","","{""Q0"":2}","[0]","","images/stimuli/spore_stims/complex_20_A_b.gif","images/stimuli/spore_stims/complex_10_A_a.gif"
"","2693.714999997639","survey-likert","156","706411","0.0-40.0","SS1619740071110","similarity_question","","","","","","","","","","","","{""Q0"":5}","[0]","","images/stimuli/spore_stims/simple_12_A_b.gif","images/stimuli/spore_stims/simple_17_A_a.gif"
"","3199.370000002091","survey-likert","157","709616","0.0-41.0","SS1619740071110","similarity_question","","","","","","","","","","","","{""Q0"":5}","[0]","","images/stimuli/spore_stims/simple_20_A_a.gif","images/stimuli/spore_stims/simple_13_A_b.gif"
"","2969.680000001914","survey-likert","158","712593","0.0-42.0","SS1619740071110","similarity_question","","","","","","","","","","","","{""Q0"":1}","[0]","","images/stimuli/spore_stims/complex_12_A_b.gif","images/stimuli/spore_stims/complex_11_A_a.gif"
"","3054.034999997355","survey-likert","159","715654","0.0-43.0","SS1619740071110","similarity_question","","","","","","","","","","","","{""Q0"":4}","[0]","","images/stimuli/spore_stims/simple_08_A_b.gif","images/stimuli/spore_stims/simple_03_A_a.gif"
"","2408.934999999474","survey-likert","160","718069","0.0-44.0","SS1619740071110","similarity_question","","","","","","","","","","","","{""Q0"":4}","[0]","","images/stimuli/spore_stims/simple_14_A_a.gif","images/stimuli/spore_stims/simple_04_A_b.gif"
"[{""page_index"":0,""viewing_time"":2003.5150000003632}]","2003.93999999878","instructions","161","720079","0.0-45.0","SS1619740071110","instructions","","","","","","","","","","","","","","","",""
"","3372.5850000010105","survey-likert","162","723458","0.0-46.0","SS1619740071110","","","","","","","","","images/stimuli/spore_stims/simple_14_A_a.gif","","","","{""Q0"":1}","[0]","","",""
"","2420.9850000006845","survey-likert","163","725885","0.0-47.0","SS1619740071110","","","","","","","","","images/stimuli/spore_stims/complex_12_A_b.gif","","","","{""Q0"":5}","[0]","","",""
"","3014.3600000010338","survey-likert","164","728906","0.0-48.0","SS1619740071110","","","","","","","","","images/stimuli/spore_stims/complex_13_A_b.gif","","","","{""Q0"":4}","[0]","","",""
"","3984.870000000228","survey-likert","165","732897","0.0-49.0","SS1619740071110","","","","","","","","","images/stimuli/spore_stims/simple_03_A_a.gif","","","","{""Q0"":1}","[0]","","",""
"","2705.514999997802","survey-likert","166","735609","0.0-50.0","SS1619740071110","","","","","","","","","images/stimuli/spore_stims/complex_06_A_b.gif","","","","{""Q0"":4}","[0]","","",""
"","4333.204999999027","survey-likert","167","739950","0.0-51.0","SS1619740071110","","","","","","","","","images/stimuli/spore_stims/simple_12_A_b.gif","","","","{""Q0"":0}","[0]","","",""
"","3788.489999998943","survey-likert","168","743746","0.0-52.0","SS1619740071110","","","","","","","","","images/stimuli/spore_stims/complex_08_A_a.gif","","","","{""Q0"":5}","[0]","","",""
"","3680.7200000003213","survey-likert","169","747432","0.0-53.0","SS1619740071110","","","","","","","","","images/stimuli/spore_stims/complex_20_A_b.gif","","","","{""Q0"":5}","[0]","","",""
"","2226.2700000028126","survey-likert","170","749666","0.0-54.0","SS1619740071110","","","","","","","","","images/stimuli/spore_stims/complex_13_A_a.gif","","","","{""Q0"":4}","[0]","","",""
"","2675.9200000015553","survey-likert","171","752347","0.0-55.0","SS1619740071110","","","","","","","","","images/stimuli/spore_stims/simple_06_A_b.gif","","","","{""Q0"":0}","[0]","","",""
"","2212.664999999106","survey-likert","172","754566","0.0-56.0","SS1619740071110","","","","","","","","","images/stimuli/spore_stims/simple_20_A_a.gif","","","","{""Q0"":1}","[0]","","",""
"","2589.0449999968987","survey-likert","173","757162","0.0-57.0","SS1619740071110","","","","","","","","","images/stimuli/spore_stims/simple_10_A_b.gif","","","","{""Q0"":0}","[0]","","",""
"[{""page_index"":0,""viewing_time"":1293.3999999987427}]","1293.744999999064","instructions","174","758462","0.0-58.0","SS1619740071110","instructions","","","","","","","","","","","","","","","",""
"","3099.904999999213","demog-age","175","761570","0.0-59.0","SS1619740071110","","","","","","","","","","","","","{""age"":""20""}","","","",""
"","2743.220000000205","demog-ethnic-US","176","764324","0.0-60.0","SS1619740071110","","","","","","","","","","","","","{""ethnicity"":[""White""]}","[0]","","",""
"","6115.379999999306","demog-gender-and-education","177","770446","0.0-61.0","SS1619740071110","","","","","","","","","","","","","{""gender"":""Non-binary"",""education"":""Associate Degree/Technical certification""}","[0,1]","","",""
"","44109.06999999855","survey-text","178","814566","0.0-62.0","SS1619740071110","feedback","","","","","","","","","","","","{""Q0"":""there was one unskippable animation that i think transitioned to a skippable one...i didnt notice the swap so i unintentionally sat with the skippable one for a long time""}","","","",""
"[{""page_index"":0,""viewing_time"":1137.0099999986123}]","1137.3950000016484","instructions","179","815709","0.0-63.0","SS1619740071110","instructions","","","","","","","","","","","","","","","",""
