"view_history","rt","trial_type","trial_index","time_elapsed","internal_node_id","subject","stimulus_type","trial_stimulus","key_press","minimum_viewing_duration","trial_looking_time","block_deviant","block_background","exposure_type","stimulus","block_number","block_type","stimulus_displayed","responses","question_order","math_correct_answer","stimulus_left","stimulus_right"
"[{""page_index"":0,""viewing_time"":6680.999999996857}]","6682.999999997264","instructions","0","6686","0.0-0.0","SS1619739724256","","","","","","","","","","","","","","","","",""
"[{""page_index"":0,""viewing_time"":13521.00000000064},{""page_index"":1,""viewing_time"":5504.000000000815}]","19025.99999999802","instructions","1","27716","0.0-1.0","SS1619739724256","instructions","","","","","","","","","","","","","","","",""
"","9259.999999994761","sequential-stimulus-presentation-old","2","37482","0.0-2.0","SS1619739724256","","","40","500","9759.999999994761","null","null","self_paced","","","","","","","","",""
"","7102.999999995518","sequential-stimulus-presentation-old","3","45090","0.0-3.0","SS1619739724256","","","40","500","7602.999999995518","null","null","self_paced","","","","","","","","",""
"[{""page_index"":0,""viewing_time"":14846.000000005006}]","14847.000000001572","instructions","4","59940","0.0-4.0","SS1619739724256","instructions","","","","","","","","","","","","","","","",""
"","5302.999999999884","sequential-stimulus-presentation-old","5","80249","0.0-5.0","SS1619739724256","","","40","500","5802.999999999884","null","null","forced_long","","","","","","","","",""
"","4223.000000005413","sequential-stimulus-presentation-old","6","84976","0.0-6.0","SS1619739724256","","","40","500","4723.000000005413","null","null","forced_long","","","","","","","","",""
"[{""page_index"":0,""viewing_time"":4705.000000001746}]","4705.999999998312","instructions","7","89684","0.0-7.0","SS1619739724256","instructions","","","","","","","","","","","","","","","",""
"[{""page_index"":0,""viewing_time"":8195.999999996275},{""page_index"":1,""viewing_time"":17167.999999997846},{""page_index"":2,""viewing_time"":4144.000000000233},{""page_index"":3,""viewing_time"":1743.000000002212},{""page_index"":4,""viewing_time"":1122.0000000030268}]","32372.999999999593","instructions","8","122061","0.0-8.0","SS1619739724256","instructions","","","","","","","","","","","","","","","",""
"","null","html-keyboard-response","9","122950","0.0-9.0-0.0","SS1619739724256","","","null","","","","","","<p><img src= images/blank.png width =""600"" height = ""600"" style=""position:fixed;top:50%; left:50%; transform: translate(-50%, -50%); border:5px solid black"">","","","","","","","",""
"","2083.999999995285","sequential-stimulus-presentation-old","10","140040","0.0-9.0-1.0","SS1619739724256","trial","","40","500","2583.999999995285","images/stimuli/spore_stims/complex_14_A_b.gif","images/stimuli/spore_stims/complex_15_A_a.gif","forced_long","","0","complex_dissimilar","images/stimuli/spore_stims/complex_15_A_a.gif","","","","",""
"","null","html-keyboard-response","11","140850","0.0-9.0-0.1","SS1619739724256","","","null","","","","","","<p><img src= images/blank.png width =""600"" height = ""600"" style=""position:fixed;top:50%; left:50%; transform: translate(-50%, -50%); border:5px solid black"">","","","","","","","",""
"","22399.00000000489","sequential-stimulus-presentation-old","12","163753","0.0-9.0-1.1","SS1619739724256","trial","","40","500","22899.00000000489","images/stimuli/spore_stims/complex_14_A_b.gif","images/stimuli/spore_stims/complex_15_A_a.gif","forced_long","","0","complex_dissimilar","images/stimuli/spore_stims/complex_14_A_b.gif","","","","",""
"","null","html-keyboard-response","13","164726","0.0-9.0-0.2","SS1619739724256","","","null","","","","","","<p><img src= images/blank.png width =""600"" height = ""600"" style=""position:fixed;top:50%; left:50%; transform: translate(-50%, -50%); border:5px solid black"">","","","","","","","",""
"","8565.999999998894","sequential-stimulus-presentation-old","14","173800","0.0-9.0-1.2","SS1619739724256","trial","","40","500","9065.999999998894","images/stimuli/spore_stims/complex_14_A_b.gif","images/stimuli/spore_stims/complex_15_A_a.gif","forced_long","","0","complex_dissimilar","images/stimuli/spore_stims/complex_14_A_b.gif","","","","",""
"","null","html-keyboard-response","15","174892","0.0-9.0-0.3","SS1619739724256","","","null","","","","","","<p><img src= images/blank.png width =""600"" height = ""600"" style=""position:fixed;top:50%; left:50%; transform: translate(-50%, -50%); border:5px solid black"">","","","","","","","",""
"","7581.999999994878","sequential-stimulus-presentation-old","16","182984","0.0-9.0-1.3","SS1619739724256","trial","","40","500","8081.999999994878","images/stimuli/spore_stims/complex_14_A_b.gif","images/stimuli/spore_stims/complex_15_A_a.gif","forced_long","","0","complex_dissimilar","images/stimuli/spore_stims/complex_15_A_a.gif","","","","",""
"","null","html-keyboard-response","17","184170","0.0-9.0-0.4","SS1619739724256","","","null","","","","","","<p><img src= images/blank.png width =""600"" height = ""600"" style=""position:fixed;top:50%; left:50%; transform: translate(-50%, -50%); border:5px solid black"">","","","","","","","",""
"","3052.000000003318","sequential-stimulus-presentation-old","18","187729","0.0-9.0-1.4","SS1619739724256","trial","","40","500","3552.000000003318","images/stimuli/spore_stims/complex_14_A_b.gif","images/stimuli/spore_stims/complex_15_A_a.gif","forced_long","","0","complex_dissimilar","images/stimuli/spore_stims/complex_15_A_a.gif","","","","",""
"","5540.000000000873","survey-multi-choice","19","193277","0.0-10.0","SS1619739724256","math_question","","","","","","","","","","","","{""Q0"":""9""}","[0]","9","",""
"","null","html-keyboard-response","20","194116","0.0-11.0-0.0","SS1619739724256","","","null","","","","","","<p><img src= images/blank.png width =""600"" height = ""600"" style=""position:fixed;top:50%; left:50%; transform: translate(-50%, -50%); border:5px solid black"">","","","","","","","",""
"","1506.0000000012224","sequential-stimulus-presentation-old","21","196128","0.0-11.0-1.0","SS1619739724256","trial","","40","500","2006.0000000012224","images/stimuli/spore_stims/simple_14_A_b.gif","images/stimuli/spore_stims/simple_01_A_a.gif","forced_short","","1","simple_dissimilar","images/stimuli/spore_stims/simple_01_A_a.gif","","","","",""
"","null","html-keyboard-response","22","196958","0.0-11.0-0.1","SS1619739724256","","","null","","","","","","<p><img src= images/blank.png width =""600"" height = ""600"" style=""position:fixed;top:50%; left:50%; transform: translate(-50%, -50%); border:5px solid black"">","","","","","","","",""
"","5951.000000000931","sequential-stimulus-presentation-old","23","203416","0.0-11.0-1.1","SS1619739724256","trial","","40","500","6451.000000000931","images/stimuli/spore_stims/simple_14_A_b.gif","images/stimuli/spore_stims/simple_01_A_a.gif","forced_short","","1","simple_dissimilar","images/stimuli/spore_stims/simple_14_A_b.gif","","","","",""
"","null","html-keyboard-response","24","204608","0.0-11.0-0.2","SS1619739724256","","","null","","","","","","<p><img src= images/blank.png width =""600"" height = ""600"" style=""position:fixed;top:50%; left:50%; transform: translate(-50%, -50%); border:5px solid black"">","","","","","","","",""
"","3359.0000000040163","sequential-stimulus-presentation-old","25","208471","0.0-11.0-1.2","SS1619739724256","trial","","40","500","3859.0000000040163","images/stimuli/spore_stims/simple_14_A_b.gif","images/stimuli/spore_stims/simple_01_A_a.gif","forced_short","","1","simple_dissimilar","images/stimuli/spore_stims/simple_01_A_a.gif","","","","",""
"","null","html-keyboard-response","26","209312","0.0-11.0-0.3","SS1619739724256","","","null","","","","","","<p><img src= images/blank.png width =""600"" height = ""600"" style=""position:fixed;top:50%; left:50%; transform: translate(-50%, -50%); border:5px solid black"">","","","","","","","",""
"","5388.999999995576","sequential-stimulus-presentation-old","27","215209","0.0-11.0-1.3","SS1619739724256","trial","","40","500","5888.999999995576","images/stimuli/spore_stims/simple_14_A_b.gif","images/stimuli/spore_stims/simple_01_A_a.gif","forced_short","","1","simple_dissimilar","images/stimuli/spore_stims/simple_14_A_b.gif","","","","",""
"","null","html-keyboard-response","28","216308","0.0-11.0-0.4","SS1619739724256","","","null","","","","","","<p><img src= images/blank.png width =""600"" height = ""600"" style=""position:fixed;top:50%; left:50%; transform: translate(-50%, -50%); border:5px solid black"">","","","","","","","",""
"","1701.999999997497","sequential-stimulus-presentation-old","29","218520","0.0-11.0-1.4","SS1619739724256","trial","","40","500","2201.999999997497","images/stimuli/spore_stims/simple_14_A_b.gif","images/stimuli/spore_stims/simple_01_A_a.gif","forced_short","","1","simple_dissimilar","images/stimuli/spore_stims/simple_01_A_a.gif","","","","",""
"","5072.000000000116","survey-multi-choice","30","223597","0.0-12.0","SS1619739724256","math_question","","","","","","","","","","","","{""Q0"":""6""}","[0]","6","",""
"","null","html-keyboard-response","31","224830","0.0-13.0-0.0","SS1619739724256","","","null","","","","","","<p><img src= images/blank.png width =""600"" height = ""600"" style=""position:fixed;top:50%; left:50%; transform: translate(-50%, -50%); border:5px solid black"">","","","","","","","",""
"","737.9999999975553","sequential-stimulus-presentation-old","32","240576","0.0-13.0-1.0","SS1619739724256","trial","","40","500","1237.9999999975553","images/stimuli/spore_stims/simple_13_A_b.gif","images/stimuli/spore_stims/simple_11_A_a.gif","forced_long","","2","simple_dissimilar","images/stimuli/spore_stims/simple_11_A_a.gif","","","","",""
"","null","html-keyboard-response","33","241793","0.0-13.0-0.1","SS1619739724256","","","null","","","","","","<p><img src= images/blank.png width =""600"" height = ""600"" style=""position:fixed;top:50%; left:50%; transform: translate(-50%, -50%); border:5px solid black"">","","","","","","","",""
"","1334.0000000025611","sequential-stimulus-presentation-old","34","243632","0.0-13.0-1.1","SS1619739724256","trial","","40","500","1834.0000000025611","images/stimuli/spore_stims/simple_13_A_b.gif","images/stimuli/spore_stims/simple_11_A_a.gif","forced_long","","2","simple_dissimilar","images/stimuli/spore_stims/simple_11_A_a.gif","","","","",""
"","null","html-keyboard-response","35","244802","0.0-13.0-0.2","SS1619739724256","","","null","","","","","","<p><img src= images/blank.png width =""600"" height = ""600"" style=""position:fixed;top:50%; left:50%; transform: translate(-50%, -50%); border:5px solid black"">","","","","","","","",""
"","1080.0000000017462","sequential-stimulus-presentation-old","36","246391","0.0-13.0-1.2","SS1619739724256","trial","","40","500","1580.0000000017462","images/stimuli/spore_stims/simple_13_A_b.gif","images/stimuli/spore_stims/simple_11_A_a.gif","forced_long","","2","simple_dissimilar","images/stimuli/spore_stims/simple_11_A_a.gif","","","","",""
"","null","html-keyboard-response","37","247658","0.0-13.0-0.3","SS1619739724256","","","null","","","","","","<p><img src= images/blank.png width =""600"" height = ""600"" style=""position:fixed;top:50%; left:50%; transform: translate(-50%, -50%); border:5px solid black"">","","","","","","","",""
"","3061.999999998079","sequential-stimulus-presentation-old","38","251225","0.0-13.0-1.3","SS1619739724256","trial","","40","500","3561.999999998079","images/stimuli/spore_stims/simple_13_A_b.gif","images/stimuli/spore_stims/simple_11_A_a.gif","forced_long","","2","simple_dissimilar","images/stimuli/spore_stims/simple_13_A_b.gif","","","","",""
"","null","html-keyboard-response","39","252156","0.0-13.0-0.4","SS1619739724256","","","null","","","","","","<p><img src= images/blank.png width =""600"" height = ""600"" style=""position:fixed;top:50%; left:50%; transform: translate(-50%, -50%); border:5px solid black"">","","","","","","","",""
"","739.000000001397","sequential-stimulus-presentation-old","40","253400","0.0-13.0-1.4","SS1619739724256","trial","","40","500","1239.000000001397","images/stimuli/spore_stims/simple_13_A_b.gif","images/stimuli/spore_stims/simple_11_A_a.gif","forced_long","","2","simple_dissimilar","images/stimuli/spore_stims/simple_11_A_a.gif","","","","",""
"","null","html-keyboard-response","41","254282","0.0-13.0-0.5","SS1619739724256","","","null","","","","","","<p><img src= images/blank.png width =""600"" height = ""600"" style=""position:fixed;top:50%; left:50%; transform: translate(-50%, -50%); border:5px solid black"">","","","","","","","",""
"","1292.9999999978463","sequential-stimulus-presentation-old","42","256080","0.0-13.0-1.5","SS1619739724256","trial","","40","500","1792.9999999978463","images/stimuli/spore_stims/simple_13_A_b.gif","images/stimuli/spore_stims/simple_11_A_a.gif","forced_long","","2","simple_dissimilar","images/stimuli/spore_stims/simple_11_A_a.gif","","","","",""
"","4470.99999999773","survey-multi-choice","43","260556","0.0-14.0","SS1619739724256","math_question","","","","","","","","","","","","{""Q0"":""12""}","[0]","12","",""
"","null","html-keyboard-response","44","261803","0.0-15.0-0.0","SS1619739724256","","","null","","","","","","<p><img src= images/blank.png width =""600"" height = ""600"" style=""position:fixed;top:50%; left:50%; transform: translate(-50%, -50%); border:5px solid black"">","","","","","","","",""
"","813.9999999984866","sequential-stimulus-presentation-old","45","277623","0.0-15.0-1.0","SS1619739724256","trial","","40","500","1313.9999999984866","images/stimuli/spore_stims/complex_13_A_b.gif","images/stimuli/spore_stims/complex_04_A_a.gif","forced_long","","3","complex_dissimilar","images/stimuli/spore_stims/complex_04_A_a.gif","","","","",""
"","null","html-keyboard-response","46","278621","0.0-15.0-0.1","SS1619739724256","","","null","","","","","","<p><img src= images/blank.png width =""600"" height = ""600"" style=""position:fixed;top:50%; left:50%; transform: translate(-50%, -50%); border:5px solid black"">","","","","","","","",""
"","2284.9999999962165","sequential-stimulus-presentation-old","47","281416","0.0-15.0-1.1","SS1619739724256","trial","","40","500","2784.9999999962165","images/stimuli/spore_stims/complex_13_A_b.gif","images/stimuli/spore_stims/complex_04_A_a.gif","forced_long","","3","complex_dissimilar","images/stimuli/spore_stims/complex_04_A_a.gif","","","","",""
"","null","html-keyboard-response","48","282300","0.0-15.0-0.2","SS1619739724256","","","null","","","","","","<p><img src= images/blank.png width =""600"" height = ""600"" style=""position:fixed;top:50%; left:50%; transform: translate(-50%, -50%); border:5px solid black"">","","","","","","","",""
"","5519.000000000233","sequential-stimulus-presentation-old","49","288329","0.0-15.0-1.2","SS1619739724256","trial","","40","500","6019.000000000233","images/stimuli/spore_stims/complex_13_A_b.gif","images/stimuli/spore_stims/complex_04_A_a.gif","forced_long","","3","complex_dissimilar","images/stimuli/spore_stims/complex_13_A_b.gif","","","","",""
"","null","html-keyboard-response","50","289504","0.0-15.0-0.3","SS1619739724256","","","null","","","","","","<p><img src= images/blank.png width =""600"" height = ""600"" style=""position:fixed;top:50%; left:50%; transform: translate(-50%, -50%); border:5px solid black"">","","","","","","","",""
"","3713.999999999942","sequential-stimulus-presentation-old","51","293729","0.0-15.0-1.3","SS1619739724256","trial","","40","500","4213.999999999942","images/stimuli/spore_stims/complex_13_A_b.gif","images/stimuli/spore_stims/complex_04_A_a.gif","forced_long","","3","complex_dissimilar","images/stimuli/spore_stims/complex_04_A_a.gif","","","","",""
"","null","html-keyboard-response","52","294908","0.0-15.0-0.4","SS1619739724256","","","null","","","","","","<p><img src= images/blank.png width =""600"" height = ""600"" style=""position:fixed;top:50%; left:50%; transform: translate(-50%, -50%); border:5px solid black"">","","","","","","","",""
"","3275.999999998021","sequential-stimulus-presentation-old","53","298696","0.0-15.0-1.4","SS1619739724256","trial","","40","500","3775.999999998021","images/stimuli/spore_stims/complex_13_A_b.gif","images/stimuli/spore_stims/complex_04_A_a.gif","forced_long","","3","complex_dissimilar","images/stimuli/spore_stims/complex_04_A_a.gif","","","","",""
"","null","html-keyboard-response","54","299531","0.0-15.0-0.5","SS1619739724256","","","null","","","","","","<p><img src= images/blank.png width =""600"" height = ""600"" style=""position:fixed;top:50%; left:50%; transform: translate(-50%, -50%); border:5px solid black"">","","","","","","","",""
"","1706.9999999948777","sequential-stimulus-presentation-old","55","301744","0.0-15.0-1.5","SS1619739724256","trial","","40","500","2206.9999999948777","images/stimuli/spore_stims/complex_13_A_b.gif","images/stimuli/spore_stims/complex_04_A_a.gif","forced_long","","3","complex_dissimilar","images/stimuli/spore_stims/complex_04_A_a.gif","","","","",""
"","4552.000000003318","survey-multi-choice","56","306301","0.0-16.0","SS1619739724256","math_question","","","","","","","","","","","","{""Q0"":""16""}","[0]","16","",""
"","null","html-keyboard-response","57","307609","0.0-17.0-0.0","SS1619739724256","","","null","","","","","","<p><img src= images/blank.png width =""600"" height = ""600"" style=""position:fixed;top:50%; left:50%; transform: translate(-50%, -50%); border:5px solid black"">","","","","","","","",""
"","572.0000000001164","sequential-stimulus-presentation-old","58","323192","0.0-17.0-1.0","SS1619739724256","trial","","40","500","1072.0000000001164","images/stimuli/spore_stims/simple_10_A_a.gif","images/stimuli/spore_stims/simple_01_A_b.gif","forced_long","","4","simple_dissimilar","images/stimuli/spore_stims/simple_01_A_b.gif","","","","",""
"","null","html-keyboard-response","59","324027","0.0-17.0-0.1","SS1619739724256","","","null","","","","","","<p><img src= images/blank.png width =""600"" height = ""600"" style=""position:fixed;top:50%; left:50%; transform: translate(-50%, -50%); border:5px solid black"">","","","","","","","",""
"","851.0000000023865","sequential-stimulus-presentation-old","60","325384","0.0-17.0-1.1","SS1619739724256","trial","","40","500","1351.0000000023865","images/stimuli/spore_stims/simple_10_A_a.gif","images/stimuli/spore_stims/simple_01_A_b.gif","forced_long","","4","simple_dissimilar","images/stimuli/spore_stims/simple_01_A_b.gif","","","","",""
"","null","html-keyboard-response","61","326552","0.0-17.0-0.2","SS1619739724256","","","null","","","","","","<p><img src= images/blank.png width =""600"" height = ""600"" style=""position:fixed;top:50%; left:50%; transform: translate(-50%, -50%); border:5px solid black"">","","","","","","","",""
"","1387.0000000024447","sequential-stimulus-presentation-old","62","328448","0.0-17.0-1.2","SS1619739724256","trial","","40","500","1887.0000000024447","images/stimuli/spore_stims/simple_10_A_a.gif","images/stimuli/spore_stims/simple_01_A_b.gif","forced_long","","4","simple_dissimilar","images/stimuli/spore_stims/simple_10_A_a.gif","","","","",""
"","null","html-keyboard-response","63","329268","0.0-17.0-0.3","SS1619739724256","","","null","","","","","","<p><img src= images/blank.png width =""600"" height = ""600"" style=""position:fixed;top:50%; left:50%; transform: translate(-50%, -50%); border:5px solid black"">","","","","","","","",""
"","2013.9999999955762","sequential-stimulus-presentation-old","64","331792","0.0-17.0-1.3","SS1619739724256","trial","","40","500","2513.999999995576","images/stimuli/spore_stims/simple_10_A_a.gif","images/stimuli/spore_stims/simple_01_A_b.gif","forced_long","","4","simple_dissimilar","images/stimuli/spore_stims/simple_01_A_b.gif","","","","",""
"","null","html-keyboard-response","65","332678","0.0-17.0-0.4","SS1619739724256","","","null","","","","","","<p><img src= images/blank.png width =""600"" height = ""600"" style=""position:fixed;top:50%; left:50%; transform: translate(-50%, -50%); border:5px solid black"">","","","","","","","",""
"","968.9999999973224","sequential-stimulus-presentation-old","66","334153","0.0-17.0-1.4","SS1619739724256","trial","","40","500","1468.9999999973224","images/stimuli/spore_stims/simple_10_A_a.gif","images/stimuli/spore_stims/simple_01_A_b.gif","forced_long","","4","simple_dissimilar","images/stimuli/spore_stims/simple_01_A_b.gif","","","","",""
"","null","html-keyboard-response","67","335035","0.0-17.0-0.5","SS1619739724256","","","null","","","","","","<p><img src= images/blank.png width =""600"" height = ""600"" style=""position:fixed;top:50%; left:50%; transform: translate(-50%, -50%); border:5px solid black"">","","","","","","","",""
"","3447.999999996682","sequential-stimulus-presentation-old","68","338992","0.0-17.0-1.5","SS1619739724256","trial","","40","500","3947.999999996682","images/stimuli/spore_stims/simple_10_A_a.gif","images/stimuli/spore_stims/simple_01_A_b.gif","forced_long","","4","simple_dissimilar","images/stimuli/spore_stims/simple_01_A_b.gif","","","","",""
"","3461.9999999995343","survey-multi-choice","69","342461","0.0-18.0","SS1619739724256","math_question","","","","","","","","","","","","{""Q0"":""7""}","[0]","7","",""
"","null","html-keyboard-response","70","343733","0.0-19.0-0.0","SS1619739724256","","","null","","","","","","<p><img src= images/blank.png width =""600"" height = ""600"" style=""position:fixed;top:50%; left:50%; transform: translate(-50%, -50%); border:5px solid black"">","","","","","","","",""
"","4843.000000000757","sequential-stimulus-presentation-old","71","349087","0.0-19.0-1.0","SS1619739724256","trial","","40","500","5343.000000000757","images/stimuli/spore_stims/simple_05_A_a.gif","images/stimuli/spore_stims/simple_03_A_b.gif","self_paced","","5","simple_dissimilar","images/stimuli/spore_stims/simple_03_A_b.gif","","","","",""
"","null","html-keyboard-response","72","350091","0.0-19.0-0.1","SS1619739724256","","","null","","","","","","<p><img src= images/blank.png width =""600"" height = ""600"" style=""position:fixed;top:50%; left:50%; transform: translate(-50%, -50%); border:5px solid black"">","","","","","","","",""
"","4141.999999999825","sequential-stimulus-presentation-old","73","354745","0.0-19.0-1.1","SS1619739724256","trial","","40","500","4641.999999999825","images/stimuli/spore_stims/simple_05_A_a.gif","images/stimuli/spore_stims/simple_03_A_b.gif","self_paced","","5","simple_dissimilar","images/stimuli/spore_stims/simple_05_A_a.gif","","","","",""
"","null","html-keyboard-response","74","355552","0.0-19.0-0.2","SS1619739724256","","","null","","","","","","<p><img src= images/blank.png width =""600"" height = ""600"" style=""position:fixed;top:50%; left:50%; transform: translate(-50%, -50%); border:5px solid black"">","","","","","","","",""
"","4729.9999999959255","sequential-stimulus-presentation-old","75","360792","0.0-19.0-1.2","SS1619739724256","trial","","40","500","5229.9999999959255","images/stimuli/spore_stims/simple_05_A_a.gif","images/stimuli/spore_stims/simple_03_A_b.gif","self_paced","","5","simple_dissimilar","images/stimuli/spore_stims/simple_03_A_b.gif","","","","",""
"","null","html-keyboard-response","76","361904","0.0-19.0-0.3","SS1619739724256","","","null","","","","","","<p><img src= images/blank.png width =""600"" height = ""600"" style=""position:fixed;top:50%; left:50%; transform: translate(-50%, -50%); border:5px solid black"">","","","","","","","",""
"","3896.0000000006403","sequential-stimulus-presentation-old","77","366312","0.0-19.0-1.3","SS1619739724256","trial","","40","500","4396.00000000064","images/stimuli/spore_stims/simple_05_A_a.gif","images/stimuli/spore_stims/simple_03_A_b.gif","self_paced","","5","simple_dissimilar","images/stimuli/spore_stims/simple_05_A_a.gif","","","","",""
"","null","html-keyboard-response","78","367395","0.0-19.0-0.4","SS1619739724256","","","null","","","","","","<p><img src= images/blank.png width =""600"" height = ""600"" style=""position:fixed;top:50%; left:50%; transform: translate(-50%, -50%); border:5px solid black"">","","","","","","","",""
"","390.0000000066939","sequential-stimulus-presentation-old","79","368295","0.0-19.0-1.4","SS1619739724256","trial","","40","500","890.0000000066939","images/stimuli/spore_stims/simple_05_A_a.gif","images/stimuli/spore_stims/simple_03_A_b.gif","self_paced","","5","simple_dissimilar","images/stimuli/spore_stims/simple_03_A_b.gif","","","","",""
"","4649.000000004889","survey-multi-choice","80","372948","0.0-20.0","SS1619739724256","math_question","","","","","","","","","","","","{""Q0"":""15""}","[0]","15","",""
"","null","html-keyboard-response","81","373810","0.0-21.0-0.0","SS1619739724256","","","null","","","","","","<p><img src= images/blank.png width =""600"" height = ""600"" style=""position:fixed;top:50%; left:50%; transform: translate(-50%, -50%); border:5px solid black"">","","","","","","","",""
"","6493.999999998778","sequential-stimulus-presentation-old","82","380816","0.0-21.0-1.0","SS1619739724256","trial","","40","500","6993.999999998778","images/stimuli/spore_stims/complex_12_A_a.gif","images/stimuli/spore_stims/complex_20_A_b.gif","self_paced","","6","complex_dissimilar","images/stimuli/spore_stims/complex_20_A_b.gif","","","","",""
"","null","html-keyboard-response","83","381968","0.0-21.0-0.1","SS1619739724256","","","null","","","","","","<p><img src= images/blank.png width =""600"" height = ""600"" style=""position:fixed;top:50%; left:50%; transform: translate(-50%, -50%); border:5px solid black"">","","","","","","","",""
"","6796.0000000020955","sequential-stimulus-presentation-old","84","389271","0.0-21.0-1.1","SS1619739724256","trial","","40","500","7296.0000000020955","images/stimuli/spore_stims/complex_12_A_a.gif","images/stimuli/spore_stims/complex_20_A_b.gif","self_paced","","6","complex_dissimilar","images/stimuli/spore_stims/complex_12_A_a.gif","","","","",""
"","null","html-keyboard-response","85","390528","0.0-21.0-0.2","SS1619739724256","","","null","","","","","","<p><img src= images/blank.png width =""600"" height = ""600"" style=""position:fixed;top:50%; left:50%; transform: translate(-50%, -50%); border:5px solid black"">","","","","","","","",""
"","3048.000000002503","sequential-stimulus-presentation-old","86","394089","0.0-21.0-1.2","SS1619739724256","trial","","40","500","3548.000000002503","images/stimuli/spore_stims/complex_12_A_a.gif","images/stimuli/spore_stims/complex_20_A_b.gif","self_paced","","6","complex_dissimilar","images/stimuli/spore_stims/complex_12_A_a.gif","","","","",""
"","null","html-keyboard-response","87","395357","0.0-21.0-0.3","SS1619739724256","","","null","","","","","","<p><img src= images/blank.png width =""600"" height = ""600"" style=""position:fixed;top:50%; left:50%; transform: translate(-50%, -50%); border:5px solid black"">","","","","","","","",""
"","7069.999999999709","sequential-stimulus-presentation-old","88","402935","0.0-21.0-1.3","SS1619739724256","trial","","40","500","7569.999999999709","images/stimuli/spore_stims/complex_12_A_a.gif","images/stimuli/spore_stims/complex_20_A_b.gif","self_paced","","6","complex_dissimilar","images/stimuli/spore_stims/complex_20_A_b.gif","","","","",""
"","null","html-keyboard-response","89","404100","0.0-21.0-0.4","SS1619739724256","","","null","","","","","","<p><img src= images/blank.png width =""600"" height = ""600"" style=""position:fixed;top:50%; left:50%; transform: translate(-50%, -50%); border:5px solid black"">","","","","","","","",""
"","1357.0000000036089","sequential-stimulus-presentation-old","90","405969","0.0-21.0-1.4","SS1619739724256","trial","","40","500","1857.0000000036089","images/stimuli/spore_stims/complex_12_A_a.gif","images/stimuli/spore_stims/complex_20_A_b.gif","self_paced","","6","complex_dissimilar","images/stimuli/spore_stims/complex_20_A_b.gif","","","","",""
"","3260.999999998603","survey-multi-choice","91","409236","0.0-22.0","SS1619739724256","math_question","","","","","","","","","","","","{""Q0"":""14""}","[0]","14","",""
"","null","html-keyboard-response","92","410469","0.0-23.0-0.0","SS1619739724256","","","null","","","","","","<p><img src= images/blank.png width =""600"" height = ""600"" style=""position:fixed;top:50%; left:50%; transform: translate(-50%, -50%); border:5px solid black"">","","","","","","","",""
"","1738.0000000048312","sequential-stimulus-presentation-old","93","412719","0.0-23.0-1.0","SS1619739724256","trial","","40","500","2238.0000000048312","images/stimuli/spore_stims/complex_14_A_a.gif","images/stimuli/spore_stims/complex_04_A_b.gif","forced_short","","7","complex_dissimilar","images/stimuli/spore_stims/complex_04_A_b.gif","","","","",""
"","null","html-keyboard-response","94","413866","0.0-23.0-0.1","SS1619739724256","","","null","","","","","","<p><img src= images/blank.png width =""600"" height = ""600"" style=""position:fixed;top:50%; left:50%; transform: translate(-50%, -50%); border:5px solid black"">","","","","","","","",""
"","4245.999999999185","sequential-stimulus-presentation-old","95","418623","0.0-23.0-1.1","SS1619739724256","trial","","40","500","4745.999999999185","images/stimuli/spore_stims/complex_14_A_a.gif","images/stimuli/spore_stims/complex_04_A_b.gif","forced_short","","7","complex_dissimilar","images/stimuli/spore_stims/complex_04_A_b.gif","","","","",""
"","null","html-keyboard-response","96","419507","0.0-23.0-0.2","SS1619739724256","","","null","","","","","","<p><img src= images/blank.png width =""600"" height = ""600"" style=""position:fixed;top:50%; left:50%; transform: translate(-50%, -50%); border:5px solid black"">","","","","","","","",""
"","3025.999999998021","sequential-stimulus-presentation-old","97","423048","0.0-23.0-1.2","SS1619739724256","trial","","40","500","3525.999999998021","images/stimuli/spore_stims/complex_14_A_a.gif","images/stimuli/spore_stims/complex_04_A_b.gif","forced_short","","7","complex_dissimilar","images/stimuli/spore_stims/complex_04_A_b.gif","","","","",""
"","null","html-keyboard-response","98","423899","0.0-23.0-0.3","SS1619739724256","","","null","","","","","","<p><img src= images/blank.png width =""600"" height = ""600"" style=""position:fixed;top:50%; left:50%; transform: translate(-50%, -50%); border:5px solid black"">","","","","","","","",""
"","1513.0000000062864","sequential-stimulus-presentation-old","99","425919","0.0-23.0-1.3","SS1619739724256","trial","","40","500","2013.0000000062864","images/stimuli/spore_stims/complex_14_A_a.gif","images/stimuli/spore_stims/complex_04_A_b.gif","forced_short","","7","complex_dissimilar","images/stimuli/spore_stims/complex_04_A_b.gif","","","","",""
"","null","html-keyboard-response","100","426761","0.0-23.0-0.4","SS1619739724256","","","null","","","","","","<p><img src= images/blank.png width =""600"" height = ""600"" style=""position:fixed;top:50%; left:50%; transform: translate(-50%, -50%); border:5px solid black"">","","","","","","","",""
"","3750","sequential-stimulus-presentation-old","101","431025","0.0-23.0-1.4","SS1619739724256","trial","","40","500","4250","images/stimuli/spore_stims/complex_14_A_a.gif","images/stimuli/spore_stims/complex_04_A_b.gif","forced_short","","7","complex_dissimilar","images/stimuli/spore_stims/complex_14_A_a.gif","","","","",""
"","null","html-keyboard-response","102","432286","0.0-23.0-0.5","SS1619739724256","","","null","","","","","","<p><img src= images/blank.png width =""600"" height = ""600"" style=""position:fixed;top:50%; left:50%; transform: translate(-50%, -50%); border:5px solid black"">","","","","","","","",""
"","2432.0000000006985","sequential-stimulus-presentation-old","103","435232","0.0-23.0-1.5","SS1619739724256","trial","","40","500","2932.0000000006985","images/stimuli/spore_stims/complex_14_A_a.gif","images/stimuli/spore_stims/complex_04_A_b.gif","forced_short","","7","complex_dissimilar","images/stimuli/spore_stims/complex_04_A_b.gif","","","","",""
"","3724.999999998545","survey-multi-choice","104","438965","0.0-24.0","SS1619739724256","math_question","","","","","","","","","","","","{""Q0"":""13""}","[0]","13","",""
"","null","html-keyboard-response","105","439949","0.0-25.0-0.0","SS1619739724256","","","null","","","","","","<p><img src= images/blank.png width =""600"" height = ""600"" style=""position:fixed;top:50%; left:50%; transform: translate(-50%, -50%); border:5px solid black"">","","","","","","","",""
"","1252.0000000004075","sequential-stimulus-presentation-old","106","441713","0.0-25.0-1.0","SS1619739724256","trial","","40","500","1752.0000000004075","images/stimuli/spore_stims/simple_18_A_b.gif","images/stimuli/spore_stims/simple_09_A_a.gif","forced_short","","8","simple_dissimilar","images/stimuli/spore_stims/simple_09_A_a.gif","","","","",""
"","null","html-keyboard-response","107","442607","0.0-25.0-0.1","SS1619739724256","","","null","","","","","","<p><img src= images/blank.png width =""600"" height = ""600"" style=""position:fixed;top:50%; left:50%; transform: translate(-50%, -50%); border:5px solid black"">","","","","","","","",""
"","3959.000000002561","sequential-stimulus-presentation-old","108","447080","0.0-25.0-1.1","SS1619739724256","trial","","40","500","4459.000000002561","images/stimuli/spore_stims/simple_18_A_b.gif","images/stimuli/spore_stims/simple_09_A_a.gif","forced_short","","8","simple_dissimilar","images/stimuli/spore_stims/simple_09_A_a.gif","","","","",""
"","null","html-keyboard-response","109","448170","0.0-25.0-0.2","SS1619739724256","","","null","","","","","","<p><img src= images/blank.png width =""600"" height = ""600"" style=""position:fixed;top:50%; left:50%; transform: translate(-50%, -50%); border:5px solid black"">","","","","","","","",""
"","470.00000000116415","sequential-stimulus-presentation-old","110","449152","0.0-25.0-1.2","SS1619739724256","trial","","40","500","970.0000000011642","images/stimuli/spore_stims/simple_18_A_b.gif","images/stimuli/spore_stims/simple_09_A_a.gif","forced_short","","8","simple_dissimilar","images/stimuli/spore_stims/simple_09_A_a.gif","","","","",""
"","null","html-keyboard-response","111","450452","0.0-25.0-0.3","SS1619739724256","","","null","","","","","","<p><img src= images/blank.png width =""600"" height = ""600"" style=""position:fixed;top:50%; left:50%; transform: translate(-50%, -50%); border:5px solid black"">","","","","","","","",""
"","252.00000000040745","sequential-stimulus-presentation-old","112","451215","0.0-25.0-1.3","SS1619739724256","trial","","40","500","752.0000000004075","images/stimuli/spore_stims/simple_18_A_b.gif","images/stimuli/spore_stims/simple_09_A_a.gif","forced_short","","8","simple_dissimilar","images/stimuli/spore_stims/simple_09_A_a.gif","","","","",""
"","null","html-keyboard-response","113","452259","0.0-25.0-0.4","SS1619739724256","","","null","","","","","","<p><img src= images/blank.png width =""600"" height = ""600"" style=""position:fixed;top:50%; left:50%; transform: translate(-50%, -50%); border:5px solid black"">","","","","","","","",""
"","347.0000000015716","sequential-stimulus-presentation-old","114","453112","0.0-25.0-1.4","SS1619739724256","trial","","40","500","847.0000000015716","images/stimuli/spore_stims/simple_18_A_b.gif","images/stimuli/spore_stims/simple_09_A_a.gif","forced_short","","8","simple_dissimilar","images/stimuli/spore_stims/simple_09_A_a.gif","","","","",""
"","null","html-keyboard-response","115","454269","0.0-25.0-0.5","SS1619739724256","","","null","","","","","","<p><img src= images/blank.png width =""600"" height = ""600"" style=""position:fixed;top:50%; left:50%; transform: translate(-50%, -50%); border:5px solid black"">","","","","","","","",""
"","707.0000000021537","sequential-stimulus-presentation-old","116","455487","0.0-25.0-1.5","SS1619739724256","trial","","40","500","1207.0000000021537","images/stimuli/spore_stims/simple_18_A_b.gif","images/stimuli/spore_stims/simple_09_A_a.gif","forced_short","","8","simple_dissimilar","images/stimuli/spore_stims/simple_18_A_b.gif","","","","",""
"","6086.000000002969","survey-multi-choice","117","461581","0.0-26.0","SS1619739724256","math_question","","","","","","","","","","","","{""Q0"":""13""}","[0]","13","",""
"","null","html-keyboard-response","118","462499","0.0-27.0-0.0","SS1619739724256","","","null","","","","","","<p><img src= images/blank.png width =""600"" height = ""600"" style=""position:fixed;top:50%; left:50%; transform: translate(-50%, -50%); border:5px solid black"">","","","","","","","",""
"","1250","sequential-stimulus-presentation-old","119","464256","0.0-27.0-1.0","SS1619739724256","trial","","40","500","1750","images/stimuli/spore_stims/complex_09_A_b.gif","images/stimuli/spore_stims/complex_13_A_a.gif","forced_short","","9","complex_dissimilar","images/stimuli/spore_stims/complex_13_A_a.gif","","","","",""
"","null","html-keyboard-response","120","465155","0.0-27.0-0.1","SS1619739724256","","","null","","","","","","<p><img src= images/blank.png width =""600"" height = ""600"" style=""position:fixed;top:50%; left:50%; transform: translate(-50%, -50%); border:5px solid black"">","","","","","","","",""
"","6177.999999999884","sequential-stimulus-presentation-old","121","471839","0.0-27.0-1.1","SS1619739724256","trial","","40","500","6677.999999999884","images/stimuli/spore_stims/complex_09_A_b.gif","images/stimuli/spore_stims/complex_13_A_a.gif","forced_short","","9","complex_dissimilar","images/stimuli/spore_stims/complex_13_A_a.gif","","","","",""
"","null","html-keyboard-response","122","473005","0.0-27.0-0.2","SS1619739724256","","","null","","","","","","<p><img src= images/blank.png width =""600"" height = ""600"" style=""position:fixed;top:50%; left:50%; transform: translate(-50%, -50%); border:5px solid black"">","","","","","","","",""
"","3612.0000000009895","sequential-stimulus-presentation-old","123","477130","0.0-27.0-1.2","SS1619739724256","trial","","40","500","4112.0000000009895","images/stimuli/spore_stims/complex_09_A_b.gif","images/stimuli/spore_stims/complex_13_A_a.gif","forced_short","","9","complex_dissimilar","images/stimuli/spore_stims/complex_13_A_a.gif","","","","",""
"","null","html-keyboard-response","124","478328","0.0-27.0-0.3","SS1619739724256","","","null","","","","","","<p><img src= images/blank.png width =""600"" height = ""600"" style=""position:fixed;top:50%; left:50%; transform: translate(-50%, -50%); border:5px solid black"">","","","","","","","",""
"","4302.000000003318","sequential-stimulus-presentation-old","125","483144","0.0-27.0-1.3","SS1619739724256","trial","","40","500","4802.000000003318","images/stimuli/spore_stims/complex_09_A_b.gif","images/stimuli/spore_stims/complex_13_A_a.gif","forced_short","","9","complex_dissimilar","images/stimuli/spore_stims/complex_09_A_b.gif","","","","",""
"","null","html-keyboard-response","126","483977","0.0-27.0-0.4","SS1619739724256","","","null","","","","","","<p><img src= images/blank.png width =""600"" height = ""600"" style=""position:fixed;top:50%; left:50%; transform: translate(-50%, -50%); border:5px solid black"">","","","","","","","",""
"","1596.9999999942956","sequential-stimulus-presentation-old","127","486088","0.0-27.0-1.4","SS1619739724256","trial","","40","500","2096.9999999942956","images/stimuli/spore_stims/complex_09_A_b.gif","images/stimuli/spore_stims/complex_13_A_a.gif","forced_short","","9","complex_dissimilar","images/stimuli/spore_stims/complex_13_A_a.gif","","","","",""
"","null","html-keyboard-response","128","487248","0.0-27.0-0.5","SS1619739724256","","","null","","","","","","<p><img src= images/blank.png width =""600"" height = ""600"" style=""position:fixed;top:50%; left:50%; transform: translate(-50%, -50%); border:5px solid black"">","","","","","","","",""
"","440.99999999889405","sequential-stimulus-presentation-old","129","488202","0.0-27.0-1.5","SS1619739724256","trial","","40","500","940.999999998894","images/stimuli/spore_stims/complex_09_A_b.gif","images/stimuli/spore_stims/complex_13_A_a.gif","forced_short","","9","complex_dissimilar","images/stimuli/spore_stims/complex_09_A_b.gif","","","","",""
"","3231.999999996333","survey-multi-choice","130","491443","0.0-28.0","SS1619739724256","math_question","","","","","","","","","","","","{""Q0"":""8""}","[0]","8","",""
"","null","html-keyboard-response","131","492467","0.0-29.0-0.0","SS1619739724256","","","null","","","","","","<p><img src= images/blank.png width =""600"" height = ""600"" style=""position:fixed;top:50%; left:50%; transform: translate(-50%, -50%); border:5px solid black"">","","","","","","","",""
"","5936.000000001513","sequential-stimulus-presentation-old","132","498921","0.0-29.0-1.0","SS1619739724256","trial","","40","500","6436.000000001513","images/stimuli/spore_stims/complex_17_A_b.gif","images/stimuli/spore_stims/complex_02_A_a.gif","self_paced","","10","complex_dissimilar","images/stimuli/spore_stims/complex_02_A_a.gif","","","","",""
"","null","html-keyboard-response","133","499753","0.0-29.0-0.1","SS1619739724256","","","null","","","","","","<p><img src= images/blank.png width =""600"" height = ""600"" style=""position:fixed;top:50%; left:50%; transform: translate(-50%, -50%); border:5px solid black"">","","","","","","","",""
"","3220.999999997788","sequential-stimulus-presentation-old","134","503481","0.0-29.0-1.1","SS1619739724256","trial","","40","500","3720.999999997788","images/stimuli/spore_stims/complex_17_A_b.gif","images/stimuli/spore_stims/complex_02_A_a.gif","self_paced","","10","complex_dissimilar","images/stimuli/spore_stims/complex_17_A_b.gif","","","","",""
"","null","html-keyboard-response","135","504369","0.0-29.0-0.2","SS1619739724256","","","null","","","","","","<p><img src= images/blank.png width =""600"" height = ""600"" style=""position:fixed;top:50%; left:50%; transform: translate(-50%, -50%); border:5px solid black"">","","","","","","","",""
"","1182.0000000006985","sequential-stimulus-presentation-old","136","506063","0.0-29.0-1.2","SS1619739724256","trial","","40","500","1682.0000000006985","images/stimuli/spore_stims/complex_17_A_b.gif","images/stimuli/spore_stims/complex_02_A_a.gif","self_paced","","10","complex_dissimilar","images/stimuli/spore_stims/complex_02_A_a.gif","","","","",""
"","null","html-keyboard-response","137","507333","0.0-29.0-0.3","SS1619739724256","","","null","","","","","","<p><img src= images/blank.png width =""600"" height = ""600"" style=""position:fixed;top:50%; left:50%; transform: translate(-50%, -50%); border:5px solid black"">","","","","","","","",""
"","194.99999999976717","sequential-stimulus-presentation-old","138","508039","0.0-29.0-1.3","SS1619739724256","trial","","40","500","694.9999999997672","images/stimuli/spore_stims/complex_17_A_b.gif","images/stimuli/spore_stims/complex_02_A_a.gif","self_paced","","10","complex_dissimilar","images/stimuli/spore_stims/complex_02_A_a.gif","","","","",""
"","null","html-keyboard-response","139","509079","0.0-29.0-0.4","SS1619739724256","","","null","","","","","","<p><img src= images/blank.png width =""600"" height = ""600"" style=""position:fixed;top:50%; left:50%; transform: translate(-50%, -50%); border:5px solid black"">","","","","","","","",""
"","55.00000000023283","sequential-stimulus-presentation-old","140","509641","0.0-29.0-1.4","SS1619739724256","trial","","40","500","555.0000000002328","images/stimuli/spore_stims/complex_17_A_b.gif","images/stimuli/spore_stims/complex_02_A_a.gif","self_paced","","10","complex_dissimilar","images/stimuli/spore_stims/complex_02_A_a.gif","","","","",""
"","null","html-keyboard-response","141","510485","0.0-29.0-0.5","SS1619739724256","","","null","","","","","","<p><img src= images/blank.png width =""600"" height = ""600"" style=""position:fixed;top:50%; left:50%; transform: translate(-50%, -50%); border:5px solid black"">","","","","","","","",""
"","158.0000000030268","sequential-stimulus-presentation-old","142","511153","0.0-29.0-1.5","SS1619739724256","trial","","40","500","658.0000000030268","images/stimuli/spore_stims/complex_17_A_b.gif","images/stimuli/spore_stims/complex_02_A_a.gif","self_paced","","10","complex_dissimilar","images/stimuli/spore_stims/complex_17_A_b.gif","","","","",""
"","3605.0000000032596","survey-multi-choice","143","514766","0.0-30.0","SS1619739724256","math_question","","","","","","","","","","","","{""Q0"":""5""}","[0]","5","",""
"","null","html-keyboard-response","144","515592","0.0-31.0-0.0","SS1619739724256","","","null","","","","","","<p><img src= images/blank.png width =""600"" height = ""600"" style=""position:fixed;top:50%; left:50%; transform: translate(-50%, -50%); border:5px solid black"">","","","","","","","",""
"","730.0000000031432","sequential-stimulus-presentation-old","145","516832","0.0-31.0-1.0","SS1619739724256","trial","","40","500","1230.0000000031432","images/stimuli/spore_stims/simple_09_A_b.gif","images/stimuli/spore_stims/simple_08_A_a.gif","self_paced","","11","simple_dissimilar","images/stimuli/spore_stims/simple_08_A_a.gif","","","","",""
"","null","html-keyboard-response","146","518070","0.0-31.0-0.1","SS1619739724256","","","null","","","","","","<p><img src= images/blank.png width =""600"" height = ""600"" style=""position:fixed;top:50%; left:50%; transform: translate(-50%, -50%); border:5px solid black"">","","","","","","","",""
"","353.9999999994179","sequential-stimulus-presentation-old","147","518935","0.0-31.0-1.1","SS1619739724256","trial","","40","500","853.9999999994179","images/stimuli/spore_stims/simple_09_A_b.gif","images/stimuli/spore_stims/simple_08_A_a.gif","self_paced","","11","simple_dissimilar","images/stimuli/spore_stims/simple_09_A_b.gif","","","","",""
"","null","html-keyboard-response","148","519891","0.0-31.0-0.2","SS1619739724256","","","null","","","","","","<p><img src= images/blank.png width =""600"" height = ""600"" style=""position:fixed;top:50%; left:50%; transform: translate(-50%, -50%); border:5px solid black"">","","","","","","","",""
"","413.9999999970896","sequential-stimulus-presentation-old","149","520815","0.0-31.0-1.2","SS1619739724256","trial","","40","500","913.9999999970896","images/stimuli/spore_stims/simple_09_A_b.gif","images/stimuli/spore_stims/simple_08_A_a.gif","self_paced","","11","simple_dissimilar","images/stimuli/spore_stims/simple_08_A_a.gif","","","","",""
"","null","html-keyboard-response","150","522105","0.0-31.0-0.3","SS1619739724256","","","null","","","","","","<p><img src= images/blank.png width =""600"" height = ""600"" style=""position:fixed;top:50%; left:50%; transform: translate(-50%, -50%); border:5px solid black"">","","","","","","","",""
"","175.99999999953434","sequential-stimulus-presentation-old","151","522791","0.0-31.0-1.3","SS1619739724256","trial","","40","500","675.9999999995343","images/stimuli/spore_stims/simple_09_A_b.gif","images/stimuli/spore_stims/simple_08_A_a.gif","self_paced","","11","simple_dissimilar","images/stimuli/spore_stims/simple_09_A_b.gif","","","","",""
"[{""page_index"":0,""viewing_time"":4358.000000000116}]","4359.000000003958","instructions","152","527156","0.0-32.0","SS1619739724256","instructions","","","","","","","","","","","","","","","",""
"","15004.000000000815","survey-likert","153","542172","0.0-33.0","SS1619739724256","similarity_question","","","","","","","","","","","","{""Q0"":1}","[0]","","images/stimuli/spore_stims/complex_13_A_b.gif","images/stimuli/spore_stims/complex_04_A_a.gif"
"","9125.999999996624","survey-likert","154","551317","0.0-34.0","SS1619739724256","similarity_question","","","","","","","","","","","","{""Q0"":4}","[0]","","images/stimuli/spore_stims/simple_14_A_b.gif","images/stimuli/spore_stims/simple_01_A_a.gif"
"","6167.999999997788","survey-likert","155","557501","0.0-35.0","SS1619739724256","similarity_question","","","","","","","","","","","","{""Q0"":4}","[0]","","images/stimuli/spore_stims/simple_11_A_a.gif","images/stimuli/spore_stims/simple_13_A_b.gif"
"","13959.000000002561","survey-likert","156","571476","0.0-36.0","SS1619739724256","similarity_question","","","","","","","","","","","","{""Q0"":2}","[0]","","images/stimuli/spore_stims/complex_09_A_b.gif","images/stimuli/spore_stims/complex_13_A_a.gif"
"","7729.9999999959255","survey-likert","157","579221","0.0-37.0","SS1619739724256","similarity_question","","","","","","","","","","","","{""Q0"":4}","[0]","","images/stimuli/spore_stims/simple_05_A_a.gif","images/stimuli/spore_stims/simple_03_A_b.gif"
"","9813.999999998603","survey-likert","158","589053","0.0-38.0","SS1619739724256","similarity_question","","","","","","","","","","","","{""Q0"":1}","[0]","","images/stimuli/spore_stims/complex_04_A_b.gif","images/stimuli/spore_stims/complex_14_A_a.gif"
"","10436.000000001513","survey-likert","159","599509","0.0-39.0","SS1619739724256","similarity_question","","","","","","","","","","","","{""Q0"":2}","[0]","","images/stimuli/spore_stims/simple_09_A_a.gif","images/stimuli/spore_stims/simple_18_A_b.gif"
"","2951.0000000009313","survey-likert","160","602476","0.0-40.0","SS1619739724256","similarity_question","","","","","","","","","","","","{""Q0"":4}","[0]","","images/stimuli/spore_stims/simple_01_A_b.gif","images/stimuli/spore_stims/simple_10_A_a.gif"
"","4281.9999999993015","survey-likert","161","606772","0.0-41.0","SS1619739724256","similarity_question","","","","","","","","","","","","{""Q0"":1}","[0]","","images/stimuli/spore_stims/complex_17_A_b.gif","images/stimuli/spore_stims/complex_02_A_a.gif"
"","4433.000000004424","survey-likert","162","611220","0.0-42.0","SS1619739724256","similarity_question","","","","","","","","","","","","{""Q0"":4}","[0]","","images/stimuli/spore_stims/simple_08_A_a.gif","images/stimuli/spore_stims/simple_09_A_b.gif"
"","3985.000000000582","survey-likert","163","615221","0.0-43.0","SS1619739724256","similarity_question","","","","","","","","","","","","{""Q0"":1}","[0]","","images/stimuli/spore_stims/complex_20_A_b.gif","images/stimuli/spore_stims/complex_12_A_a.gif"
"","5792.000000001281","survey-likert","164","621029","0.0-44.0","SS1619739724256","similarity_question","","","","","","","","","","","","{""Q0"":1}","[0]","","images/stimuli/spore_stims/complex_14_A_b.gif","images/stimuli/spore_stims/complex_15_A_a.gif"
"[{""page_index"":0,""viewing_time"":3783.9999999996508}]","3784.9999999961583","instructions","165","624828","0.0-45.0","SS1619739724256","instructions","","","","","","","","","","","","","","","",""
"","6054.000000003725","survey-likert","166","630892","0.0-46.0","SS1619739724256","","","","","","","","","images/stimuli/spore_stims/complex_04_A_a.gif","","","","{""Q0"":5}","[0]","","",""
"","5127.999999996973","survey-likert","167","636037","0.0-47.0","SS1619739724256","","","","","","","","","images/stimuli/spore_stims/simple_01_A_a.gif","","","","{""Q0"":1}","[0]","","",""
"","3686.999999998021","survey-likert","168","639740","0.0-48.0","SS1619739724256","","","","","","","","","images/stimuli/spore_stims/complex_20_A_b.gif","","","","{""Q0"":5}","[0]","","",""
"","2281.0000000026776","survey-likert","169","642036","0.0-49.0","SS1619739724256","","","","","","","","","images/stimuli/spore_stims/simple_01_A_b.gif","","","","{""Q0"":1}","[0]","","",""
"","4922.000000006054","survey-likert","170","646974","0.0-50.0","SS1619739724256","","","","","","","","","images/stimuli/spore_stims/complex_02_A_a.gif","","","","{""Q0"":5}","[0]","","",""
"","2320.9999999962747","survey-likert","171","649310","0.0-51.0","SS1619739724256","","","","","","","","","images/stimuli/spore_stims/complex_13_A_a.gif","","","","{""Q0"":5}","[0]","","",""
"","1920.9999999947613","survey-likert","172","651245","0.0-52.0","SS1619739724256","","","","","","","","","images/stimuli/spore_stims/simple_11_A_a.gif","","","","{""Q0"":1}","[0]","","",""
"","2055.000000000233","survey-likert","173","653317","0.0-53.0","SS1619739724256","","","","","","","","","images/stimuli/spore_stims/simple_05_A_a.gif","","","","{""Q0"":1}","[0]","","",""
"","2207.9999999987194","survey-likert","174","655540","0.0-54.0","SS1619739724256","","","","","","","","","images/stimuli/spore_stims/complex_04_A_b.gif","","","","{""Q0"":5}","[0]","","",""
"","2495.9999999993015","survey-likert","175","658053","0.0-55.0","SS1619739724256","","","","","","","","","images/stimuli/spore_stims/simple_08_A_a.gif","","","","{""Q0"":1}","[0]","","",""
"","1671.0000000020955","survey-likert","176","659740","0.0-56.0","SS1619739724256","","","","","","","","","images/stimuli/spore_stims/simple_18_A_b.gif","","","","{""Q0"":1}","[0]","","",""
"","2321.0000000034925","survey-likert","177","662076","0.0-57.0","SS1619739724256","","","","","","","","","images/stimuli/spore_stims/complex_14_A_b.gif","","","","{""Q0"":5}","[0]","","",""
"[{""page_index"":0,""viewing_time"":2864.9999999979045}]","2866.0000000017462","instructions","178","664956","0.0-58.0","SS1619739724256","instructions","","","","","","","","","","","","","","","",""
"","3170.9999999948777","demog-age","179","668141","0.0-59.0","SS1619739724256","","","","","","","","","","","","","{""age"":""35""}","","","",""
"","6300.00000000291","demog-ethnic-US","180","674453","0.0-60.0","SS1619739724256","","","","","","","","","","","","","{""ethnicity"":[""White""]}","[0]","","",""
"","5550.999999999534","demog-gender-and-education","181","680021","0.0-61.0","SS1619739724256","","","","","","","","","","","","","{""gender"":""Male"",""education"":""Master's Degree""}","[0,1]","","",""
"","39114.999999997905","survey-text","182","719158","0.0-62.0","SS1619739724256","feedback","","","","","","","","","","","","{""Q0"":""No issues, experiment was interesting, I think you used \""Spore\"" to make those creatures ;)""}","","","",""
"[{""page_index"":0,""viewing_time"":2119.0000000060536}]","2120.000000002561","instructions","183","721292","0.0-63.0","SS1619739724256","instructions","","","","","","","","","","","","","","","",""
