"view_history","rt","trial_type","trial_index","time_elapsed","internal_node_id","subject","stimulus_type","trial_stimulus","key_press","minimum_viewing_duration","trial_looking_time","block_deviant","block_background","exposure_type","stimulus","block_number","block_type","stimulus_displayed","responses","question_order","math_correct_answer","stimulus_left","stimulus_right"
"[{""page_index"":0,""viewing_time"":40293.1799999933}]","40295.44499999611","instructions","0","40299","0.0-0.0","SS1619739875957","","","","","","","","","","","","","","","","",""
"[{""page_index"":0,""viewing_time"":33909.459999995306},{""page_index"":1,""viewing_time"":6237.785000004806}]","40147.64499999001","instructions","1","82451","0.0-1.0","SS1619739875957","instructions","","","","","","","","","","","","","","","",""
"","9414.530000009108","sequential-stimulus-presentation-old","2","92373","0.0-2.0","SS1619739875957","","","40","500","9914.530000009108","null","null","self_paced","","","","","","","","",""
"","6552.799999990384","sequential-stimulus-presentation-old","3","99431","0.0-3.0","SS1619739875957","","","40","500","7052.799999990384","null","null","self_paced","","","","","","","","",""
"[{""page_index"":0,""viewing_time"":18105.99500000535}]","18106.409999993048","instructions","4","117539","0.0-4.0","SS1619739875957","instructions","","","","","","","","","","","","","","","",""
"","2247.494999988703","sequential-stimulus-presentation-old","5","134792","0.0-5.0","SS1619739875957","","","40","500","2747.494999988703","null","null","forced_long","","","","","","","","",""
"","5652.844999989611","sequential-stimulus-presentation-old","6","140951","0.0-6.0","SS1619739875957","","","40","500","6152.844999989611","null","null","forced_long","","","","","","","","",""
"[{""page_index"":0,""viewing_time"":10452.470000003814}]","10453.405000007479","instructions","7","151406","0.0-7.0","SS1619739875957","instructions","","","","","","","","","","","","","","","",""
"[{""page_index"":0,""viewing_time"":12642.69000000786},{""page_index"":1,""viewing_time"":13624.504999999772},{""page_index"":2,""viewing_time"":5643.349999998463},{""page_index"":3,""viewing_time"":1659.3599999905564},{""page_index"":4,""viewing_time"":1600.8600000059232}]","35171.32000000856","instructions","8","186579","0.0-8.0","SS1619739875957","instructions","","","","","","","","","","","","","","","",""
"","null","html-keyboard-response","9","187831","0.0-9.0-0.0","SS1619739875957","","","null","","","","","","<p><img src= images/blank.png width =""600"" height = ""600"" style=""position:fixed;top:50%; left:50%; transform: translate(-50%, -50%); border:5px solid black"">","","","","","","","",""
"","2270.1950000046054","sequential-stimulus-presentation-old","10","205120","0.0-9.0-1.0","SS1619739875957","trial","","40","500","2770.1950000046054","images/stimuli/spore_stims/simple_09_A_a.gif","images/stimuli/spore_stims/simple_05_A_b.gif","forced_long","","0","simple_dissimilar","images/stimuli/spore_stims/simple_05_A_b.gif","","","","",""
"","null","html-keyboard-response","11","206163","0.0-9.0-0.1","SS1619739875957","","","null","","","","","","<p><img src= images/blank.png width =""600"" height = ""600"" style=""position:fixed;top:50%; left:50%; transform: translate(-50%, -50%); border:5px solid black"">","","","","","","","",""
"","86208.14499999688","sequential-stimulus-presentation-old","12","292880","0.0-9.0-1.1","SS1619739875957","trial","","40","500","86708.14499999688","images/stimuli/spore_stims/simple_09_A_a.gif","images/stimuli/spore_stims/simple_05_A_b.gif","forced_long","","0","simple_dissimilar","images/stimuli/spore_stims/simple_05_A_b.gif","","","","",""
"","null","html-keyboard-response","13","294107","0.0-9.0-0.2","SS1619739875957","","","null","","","","","","<p><img src= images/blank.png width =""600"" height = ""600"" style=""position:fixed;top:50%; left:50%; transform: translate(-50%, -50%); border:5px solid black"">","","","","","","","",""
"","53429.73499999789","sequential-stimulus-presentation-old","14","348048","0.0-9.0-1.2","SS1619739875957","trial","","40","500","53929.73499999789","images/stimuli/spore_stims/simple_09_A_a.gif","images/stimuli/spore_stims/simple_05_A_b.gif","forced_long","","0","simple_dissimilar","images/stimuli/spore_stims/simple_05_A_b.gif","","","","",""
"","null","html-keyboard-response","15","348940","0.0-9.0-0.3","SS1619739875957","","","null","","","","","","<p><img src= images/blank.png width =""600"" height = ""600"" style=""position:fixed;top:50%; left:50%; transform: translate(-50%, -50%); border:5px solid black"">","","","","","","","",""
"","5623.989999992773","sequential-stimulus-presentation-old","16","355071","0.0-9.0-1.3","SS1619739875957","trial","","40","500","6123.989999992773","images/stimuli/spore_stims/simple_09_A_a.gif","images/stimuli/spore_stims/simple_05_A_b.gif","forced_long","","0","simple_dissimilar","images/stimuli/spore_stims/simple_05_A_b.gif","","","","",""
"","8543.359999996028","survey-multi-choice","17","363620","0.0-10.0","SS1619739875957","math_question","","","","","","","","","","","","{""Q0"":""5""}","[0]","5","",""
"","null","html-keyboard-response","18","364903","0.0-11.0-0.0","SS1619739875957","","","null","","","","","","<p><img src= images/blank.png width =""600"" height = ""600"" style=""position:fixed;top:50%; left:50%; transform: translate(-50%, -50%); border:5px solid black"">","","","","","","","",""
"","1574.6000000071945","sequential-stimulus-presentation-old","19","366983","0.0-11.0-1.0","SS1619739875957","trial","","40","500","2074.6000000071945","images/stimuli/spore_stims/complex_17_A_a.gif","images/stimuli/spore_stims/complex_02_A_b.gif","forced_short","","1","complex_dissimilar","images/stimuli/spore_stims/complex_02_A_b.gif","","","","",""
"","null","html-keyboard-response","20","368191","0.0-11.0-0.1","SS1619739875957","","","null","","","","","","<p><img src= images/blank.png width =""600"" height = ""600"" style=""position:fixed;top:50%; left:50%; transform: translate(-50%, -50%); border:5px solid black"">","","","","","","","",""
"","3532.1249999979045","sequential-stimulus-presentation-old","21","372230","0.0-11.0-1.1","SS1619739875957","trial","","40","500","4032.1249999979045","images/stimuli/spore_stims/complex_17_A_a.gif","images/stimuli/spore_stims/complex_02_A_b.gif","forced_short","","1","complex_dissimilar","images/stimuli/spore_stims/complex_02_A_b.gif","","","","",""
"","null","html-keyboard-response","22","373357","0.0-11.0-0.2","SS1619739875957","","","null","","","","","","<p><img src= images/blank.png width =""600"" height = ""600"" style=""position:fixed;top:50%; left:50%; transform: translate(-50%, -50%); border:5px solid black"">","","","","","","","",""
"","6231.564999994589","sequential-stimulus-presentation-old","23","380095","0.0-11.0-1.2","SS1619739875957","trial","","40","500","6731.564999994589","images/stimuli/spore_stims/complex_17_A_a.gif","images/stimuli/spore_stims/complex_02_A_b.gif","forced_short","","1","complex_dissimilar","images/stimuli/spore_stims/complex_17_A_a.gif","","","","",""
"","null","html-keyboard-response","24","381205","0.0-11.0-0.3","SS1619739875957","","","null","","","","","","<p><img src= images/blank.png width =""600"" height = ""600"" style=""position:fixed;top:50%; left:50%; transform: translate(-50%, -50%); border:5px solid black"">","","","","","","","",""
"","3321.830000000773","sequential-stimulus-presentation-old","25","385031","0.0-11.0-1.3","SS1619739875957","trial","","40","500","3821.830000000773","images/stimuli/spore_stims/complex_17_A_a.gif","images/stimuli/spore_stims/complex_02_A_b.gif","forced_short","","1","complex_dissimilar","images/stimuli/spore_stims/complex_02_A_b.gif","","","","",""
"","null","html-keyboard-response","26","386279","0.0-11.0-0.4","SS1619739875957","","","null","","","","","","<p><img src= images/blank.png width =""600"" height = ""600"" style=""position:fixed;top:50%; left:50%; transform: translate(-50%, -50%); border:5px solid black"">","","","","","","","",""
"","3526.4099999913014","sequential-stimulus-presentation-old","27","390312","0.0-11.0-1.4","SS1619739875957","trial","","40","500","4026.4099999913014","images/stimuli/spore_stims/complex_17_A_a.gif","images/stimuli/spore_stims/complex_02_A_b.gif","forced_short","","1","complex_dissimilar","images/stimuli/spore_stims/complex_17_A_a.gif","","","","",""
"","4167.525000011665","survey-multi-choice","28","394485","0.0-12.0","SS1619739875957","math_question","","","","","","","","","","","","{""Q0"":""6""}","[0]","6","",""
"","null","html-keyboard-response","29","395299","0.0-13.0-0.0","SS1619739875957","","","null","","","","","","<p><img src= images/blank.png width =""600"" height = ""600"" style=""position:fixed;top:50%; left:50%; transform: translate(-50%, -50%); border:5px solid black"">","","","","","","","",""
"","3947.630000009667","sequential-stimulus-presentation-old","30","399750","0.0-13.0-1.0","SS1619739875957","trial","","40","500","4447.630000009667","images/stimuli/spore_stims/complex_06_A_a.gif","images/stimuli/spore_stims/complex_18_A_b.gif","self_paced","","2","complex_dissimilar","images/stimuli/spore_stims/complex_18_A_b.gif","","","","",""
"","null","html-keyboard-response","31","400917","0.0-13.0-0.1","SS1619739875957","","","null","","","","","","<p><img src= images/blank.png width =""600"" height = ""600"" style=""position:fixed;top:50%; left:50%; transform: translate(-50%, -50%); border:5px solid black"">","","","","","","","",""
"","2609.1299999970943","sequential-stimulus-presentation-old","32","404031","0.0-13.0-1.1","SS1619739875957","trial","","40","500","3109.1299999970943","images/stimuli/spore_stims/complex_06_A_a.gif","images/stimuli/spore_stims/complex_18_A_b.gif","self_paced","","2","complex_dissimilar","images/stimuli/spore_stims/complex_18_A_b.gif","","","","",""
"","null","html-keyboard-response","33","405267","0.0-13.0-0.2","SS1619739875957","","","null","","","","","","<p><img src= images/blank.png width =""600"" height = ""600"" style=""position:fixed;top:50%; left:50%; transform: translate(-50%, -50%); border:5px solid black"">","","","","","","","",""
"","3130.9000000037486","sequential-stimulus-presentation-old","34","408902","0.0-13.0-1.2","SS1619739875957","trial","","40","500","3630.9000000037486","images/stimuli/spore_stims/complex_06_A_a.gif","images/stimuli/spore_stims/complex_18_A_b.gif","self_paced","","2","complex_dissimilar","images/stimuli/spore_stims/complex_18_A_b.gif","","","","",""
"","null","html-keyboard-response","35","409975","0.0-13.0-0.3","SS1619739875957","","","null","","","","","","<p><img src= images/blank.png width =""600"" height = ""600"" style=""position:fixed;top:50%; left:50%; transform: translate(-50%, -50%); border:5px solid black"">","","","","","","","",""
"","3223.9800000097603","sequential-stimulus-presentation-old","36","413703","0.0-13.0-1.3","SS1619739875957","trial","","40","500","3723.9800000097603","images/stimuli/spore_stims/complex_06_A_a.gif","images/stimuli/spore_stims/complex_18_A_b.gif","self_paced","","2","complex_dissimilar","images/stimuli/spore_stims/complex_18_A_b.gif","","","","",""
"","null","html-keyboard-response","37","414758","0.0-13.0-0.4","SS1619739875957","","","null","","","","","","<p><img src= images/blank.png width =""600"" height = ""600"" style=""position:fixed;top:50%; left:50%; transform: translate(-50%, -50%); border:5px solid black"">","","","","","","","",""
"","3854.0000000066357","sequential-stimulus-presentation-old","38","419119","0.0-13.0-1.4","SS1619739875957","trial","","40","500","4354.000000006636","images/stimuli/spore_stims/complex_06_A_a.gif","images/stimuli/spore_stims/complex_18_A_b.gif","self_paced","","2","complex_dissimilar","images/stimuli/spore_stims/complex_18_A_b.gif","","","","",""
"","null","html-keyboard-response","39","419929","0.0-13.0-0.5","SS1619739875957","","","null","","","","","","<p><img src= images/blank.png width =""600"" height = ""600"" style=""position:fixed;top:50%; left:50%; transform: translate(-50%, -50%); border:5px solid black"">","","","","","","","",""
"","3780.5550000048243","sequential-stimulus-presentation-old","40","424215","0.0-13.0-1.5","SS1619739875957","trial","","40","500","4280.555000004824","images/stimuli/spore_stims/complex_06_A_a.gif","images/stimuli/spore_stims/complex_18_A_b.gif","self_paced","","2","complex_dissimilar","images/stimuli/spore_stims/complex_18_A_b.gif","","","","",""
"","3332.68500000122","survey-multi-choice","41","427552","0.0-14.0","SS1619739875957","math_question","","","","","","","","","","","","{""Q0"":""15""}","[0]","15","",""
"","null","html-keyboard-response","42","428728","0.0-15.0-0.0","SS1619739875957","","","null","","","","","","<p><img src= images/blank.png width =""600"" height = ""600"" style=""position:fixed;top:50%; left:50%; transform: translate(-50%, -50%); border:5px solid black"">","","","","","","","",""
"","1791.0899999988033","sequential-stimulus-presentation-old","43","431023","0.0-15.0-1.0","SS1619739875957","trial","","40","500","2291.0899999988033","images/stimuli/spore_stims/simple_04_A_a.gif","images/stimuli/spore_stims/simple_09_A_b.gif","forced_short","","3","simple_dissimilar","images/stimuli/spore_stims/simple_09_A_b.gif","","","","",""
"","null","html-keyboard-response","44","432103","0.0-15.0-0.1","SS1619739875957","","","null","","","","","","<p><img src= images/blank.png width =""600"" height = ""600"" style=""position:fixed;top:50%; left:50%; transform: translate(-50%, -50%); border:5px solid black"">","","","","","","","",""
"","3975.8050000091316","sequential-stimulus-presentation-old","45","436583","0.0-15.0-1.1","SS1619739875957","trial","","40","500","4475.805000009132","images/stimuli/spore_stims/simple_04_A_a.gif","images/stimuli/spore_stims/simple_09_A_b.gif","forced_short","","3","simple_dissimilar","images/stimuli/spore_stims/simple_09_A_b.gif","","","","",""
"","null","html-keyboard-response","46","437860","0.0-15.0-0.2","SS1619739875957","","","null","","","","","","<p><img src= images/blank.png width =""600"" height = ""600"" style=""position:fixed;top:50%; left:50%; transform: translate(-50%, -50%); border:5px solid black"">","","","","","","","",""
"","2587.7699999982724","sequential-stimulus-presentation-old","47","440952","0.0-15.0-1.2","SS1619739875957","trial","","40","500","3087.7699999982724","images/stimuli/spore_stims/simple_04_A_a.gif","images/stimuli/spore_stims/simple_09_A_b.gif","forced_short","","3","simple_dissimilar","images/stimuli/spore_stims/simple_09_A_b.gif","","","","",""
"","null","html-keyboard-response","48","441759","0.0-15.0-0.3","SS1619739875957","","","null","","","","","","<p><img src= images/blank.png width =""600"" height = ""600"" style=""position:fixed;top:50%; left:50%; transform: translate(-50%, -50%); border:5px solid black"">","","","","","","","",""
"","3622.254999994766","sequential-stimulus-presentation-old","49","445887","0.0-15.0-1.3","SS1619739875957","trial","","40","500","4122.254999994766","images/stimuli/spore_stims/simple_04_A_a.gif","images/stimuli/spore_stims/simple_09_A_b.gif","forced_short","","3","simple_dissimilar","images/stimuli/spore_stims/simple_04_A_a.gif","","","","",""
"","3115.7899999961955","survey-multi-choice","50","449005","0.0-16.0","SS1619739875957","math_question","","","","","","","","","","","","{""Q0"":""9""}","[0]","9","",""
"","null","html-keyboard-response","51","450307","0.0-17.0-0.0","SS1619739875957","","","null","","","","","","<p><img src= images/blank.png width =""600"" height = ""600"" style=""position:fixed;top:50%; left:50%; transform: translate(-50%, -50%); border:5px solid black"">","","","","","","","",""
"","15750.144999998156","sequential-stimulus-presentation-old","52","481063","0.0-17.0-1.0","SS1619739875957","trial","","40","500","16250.144999998156","images/stimuli/spore_stims/complex_05_A_a.gif","images/stimuli/spore_stims/complex_10_A_b.gif","forced_long","","4","complex_dissimilar","images/stimuli/spore_stims/complex_10_A_b.gif","","","","",""
"","null","html-keyboard-response","53","482080","0.0-17.0-0.1","SS1619739875957","","","null","","","","","","<p><img src= images/blank.png width =""600"" height = ""600"" style=""position:fixed;top:50%; left:50%; transform: translate(-50%, -50%); border:5px solid black"">","","","","","","","",""
"","357.19500000413973","sequential-stimulus-presentation-old","54","482943","0.0-17.0-1.1","SS1619739875957","trial","","40","500","857.1950000041397","images/stimuli/spore_stims/complex_05_A_a.gif","images/stimuli/spore_stims/complex_10_A_b.gif","forced_long","","4","complex_dissimilar","images/stimuli/spore_stims/complex_10_A_b.gif","","","","",""
"","null","html-keyboard-response","55","483891","0.0-17.0-0.2","SS1619739875957","","","null","","","","","","<p><img src= images/blank.png width =""600"" height = ""600"" style=""position:fixed;top:50%; left:50%; transform: translate(-50%, -50%); border:5px solid black"">","","","","","","","",""
"","5122.9049999965355","sequential-stimulus-presentation-old","56","489519","0.0-17.0-1.2","SS1619739875957","trial","","40","500","5622.9049999965355","images/stimuli/spore_stims/complex_05_A_a.gif","images/stimuli/spore_stims/complex_10_A_b.gif","forced_long","","4","complex_dissimilar","images/stimuli/spore_stims/complex_10_A_b.gif","","","","",""
"","null","html-keyboard-response","57","490729","0.0-17.0-0.3","SS1619739875957","","","null","","","","","","<p><img src= images/blank.png width =""600"" height = ""600"" style=""position:fixed;top:50%; left:50%; transform: translate(-50%, -50%); border:5px solid black"">","","","","","","","",""
"","5829.894999988028","sequential-stimulus-presentation-old","58","497063","0.0-17.0-1.3","SS1619739875957","trial","","40","500","6329.894999988028","images/stimuli/spore_stims/complex_05_A_a.gif","images/stimuli/spore_stims/complex_10_A_b.gif","forced_long","","4","complex_dissimilar","images/stimuli/spore_stims/complex_05_A_a.gif","","","","",""
"","null","html-keyboard-response","59","498359","0.0-17.0-0.4","SS1619739875957","","","null","","","","","","<p><img src= images/blank.png width =""600"" height = ""600"" style=""position:fixed;top:50%; left:50%; transform: translate(-50%, -50%); border:5px solid black"">","","","","","","","",""
"","3468.1499999860534","sequential-stimulus-presentation-old","60","502335","0.0-17.0-1.4","SS1619739875957","trial","","40","500","3968.1499999860534","images/stimuli/spore_stims/complex_05_A_a.gif","images/stimuli/spore_stims/complex_10_A_b.gif","forced_long","","4","complex_dissimilar","images/stimuli/spore_stims/complex_10_A_b.gif","","","","",""
"","null","html-keyboard-response","61","503570","0.0-17.0-0.5","SS1619739875957","","","null","","","","","","<p><img src= images/blank.png width =""600"" height = ""600"" style=""position:fixed;top:50%; left:50%; transform: translate(-50%, -50%); border:5px solid black"">","","","","","","","",""
"","1267.374999995809","sequential-stimulus-presentation-old","62","505343","0.0-17.0-1.5","SS1619739875957","trial","","40","500","1767.374999995809","images/stimuli/spore_stims/complex_05_A_a.gif","images/stimuli/spore_stims/complex_10_A_b.gif","forced_long","","4","complex_dissimilar","images/stimuli/spore_stims/complex_05_A_a.gif","","","","",""
"","3309.7949999937555","survey-multi-choice","63","508655","0.0-18.0","SS1619739875957","math_question","","","","","","","","","","","","{""Q0"":""9""}","[0]","9","",""
"","null","html-keyboard-response","64","509666","0.0-19.0-0.0","SS1619739875957","","","null","","","","","","<p><img src= images/blank.png width =""600"" height = ""600"" style=""position:fixed;top:50%; left:50%; transform: translate(-50%, -50%); border:5px solid black"">","","","","","","","",""
"","1127.7850000042235","sequential-stimulus-presentation-old","65","511303","0.0-19.0-1.0","SS1619739875957","trial","","40","500","1627.7850000042235","images/stimuli/spore_stims/complex_08_A_b.gif","images/stimuli/spore_stims/complex_11_A_a.gif","forced_short","","5","complex_dissimilar","images/stimuli/spore_stims/complex_11_A_a.gif","","","","",""
"","null","html-keyboard-response","66","512147","0.0-19.0-0.1","SS1619739875957","","","null","","","","","","<p><img src= images/blank.png width =""600"" height = ""600"" style=""position:fixed;top:50%; left:50%; transform: translate(-50%, -50%); border:5px solid black"">","","","","","","","",""
"","1428.0799999978626","sequential-stimulus-presentation-old","67","514079","0.0-19.0-1.1","SS1619739875957","trial","","40","500","1928.0799999978626","images/stimuli/spore_stims/complex_08_A_b.gif","images/stimuli/spore_stims/complex_11_A_a.gif","forced_short","","5","complex_dissimilar","images/stimuli/spore_stims/complex_11_A_a.gif","","","","",""
"","null","html-keyboard-response","68","515173","0.0-19.0-0.2","SS1619739875957","","","null","","","","","","<p><img src= images/blank.png width =""600"" height = ""600"" style=""position:fixed;top:50%; left:50%; transform: translate(-50%, -50%); border:5px solid black"">","","","","","","","",""
"","4365.05500000203","sequential-stimulus-presentation-old","69","520047","0.0-19.0-1.2","SS1619739875957","trial","","40","500","4865.05500000203","images/stimuli/spore_stims/complex_08_A_b.gif","images/stimuli/spore_stims/complex_11_A_a.gif","forced_short","","5","complex_dissimilar","images/stimuli/spore_stims/complex_11_A_a.gif","","","","",""
"","null","html-keyboard-response","70","521094","0.0-19.0-0.3","SS1619739875957","","","null","","","","","","<p><img src= images/blank.png width =""600"" height = ""600"" style=""position:fixed;top:50%; left:50%; transform: translate(-50%, -50%); border:5px solid black"">","","","","","","","",""
"","2623.1450000050245","sequential-stimulus-presentation-old","71","524223","0.0-19.0-1.3","SS1619739875957","trial","","40","500","3123.1450000050245","images/stimuli/spore_stims/complex_08_A_b.gif","images/stimuli/spore_stims/complex_11_A_a.gif","forced_short","","5","complex_dissimilar","images/stimuli/spore_stims/complex_11_A_a.gif","","","","",""
"","3107.804999992368","survey-multi-choice","72","527333","0.0-20.0","SS1619739875957","math_question","","","","","","","","","","","","{""Q0"":""15""}","[0]","15","",""
"","null","html-keyboard-response","73","528143","0.0-21.0-0.0","SS1619739875957","","","null","","","","","","<p><img src= images/blank.png width =""600"" height = ""600"" style=""position:fixed;top:50%; left:50%; transform: translate(-50%, -50%); border:5px solid black"">","","","","","","","",""
"","3213.4299999888754","sequential-stimulus-presentation-old","74","531863","0.0-21.0-1.0","SS1619739875957","trial","","40","500","3713.4299999888754","images/stimuli/spore_stims/complex_13_A_a.gif","images/stimuli/spore_stims/complex_14_A_b.gif","self_paced","","6","complex_dissimilar","images/stimuli/spore_stims/complex_14_A_b.gif","","","","",""
"","null","html-keyboard-response","75","533156","0.0-21.0-0.1","SS1619739875957","","","null","","","","","","<p><img src= images/blank.png width =""600"" height = ""600"" style=""position:fixed;top:50%; left:50%; transform: translate(-50%, -50%); border:5px solid black"">","","","","","","","",""
"","859.7350000054576","sequential-stimulus-presentation-old","76","534527","0.0-21.0-1.1","SS1619739875957","trial","","40","500","1359.7350000054576","images/stimuli/spore_stims/complex_13_A_a.gif","images/stimuli/spore_stims/complex_14_A_b.gif","self_paced","","6","complex_dissimilar","images/stimuli/spore_stims/complex_14_A_b.gif","","","","",""
"","null","html-keyboard-response","77","535397","0.0-21.0-0.2","SS1619739875957","","","null","","","","","","<p><img src= images/blank.png width =""600"" height = ""600"" style=""position:fixed;top:50%; left:50%; transform: translate(-50%, -50%); border:5px solid black"">","","","","","","","",""
"","993.1150000047637","sequential-stimulus-presentation-old","78","536895","0.0-21.0-1.2","SS1619739875957","trial","","40","500","1493.1150000047637","images/stimuli/spore_stims/complex_13_A_a.gif","images/stimuli/spore_stims/complex_14_A_b.gif","self_paced","","6","complex_dissimilar","images/stimuli/spore_stims/complex_14_A_b.gif","","","","",""
"","null","html-keyboard-response","79","537906","0.0-21.0-0.3","SS1619739875957","","","null","","","","","","<p><img src= images/blank.png width =""600"" height = ""600"" style=""position:fixed;top:50%; left:50%; transform: translate(-50%, -50%); border:5px solid black"">","","","","","","","",""
"","1037.834999995539","sequential-stimulus-presentation-old","80","539463","0.0-21.0-1.3","SS1619739875957","trial","","40","500","1537.834999995539","images/stimuli/spore_stims/complex_13_A_a.gif","images/stimuli/spore_stims/complex_14_A_b.gif","self_paced","","6","complex_dissimilar","images/stimuli/spore_stims/complex_14_A_b.gif","","","","",""
"","null","html-keyboard-response","81","540625","0.0-21.0-0.4","SS1619739875957","","","null","","","","","","<p><img src= images/blank.png width =""600"" height = ""600"" style=""position:fixed;top:50%; left:50%; transform: translate(-50%, -50%); border:5px solid black"">","","","","","","","",""
"","2923.9050000032876","sequential-stimulus-presentation-old","82","544055","0.0-21.0-1.4","SS1619739875957","trial","","40","500","3423.9050000032876","images/stimuli/spore_stims/complex_13_A_a.gif","images/stimuli/spore_stims/complex_14_A_b.gif","self_paced","","6","complex_dissimilar","images/stimuli/spore_stims/complex_14_A_b.gif","","","","",""
"","null","html-keyboard-response","83","545301","0.0-21.0-0.5","SS1619739875957","","","null","","","","","","<p><img src= images/blank.png width =""600"" height = ""600"" style=""position:fixed;top:50%; left:50%; transform: translate(-50%, -50%); border:5px solid black"">","","","","","","","",""
"","1845.8649999956833","sequential-stimulus-presentation-old","84","547655","0.0-21.0-1.5","SS1619739875957","trial","","40","500","2345.8649999956833","images/stimuli/spore_stims/complex_13_A_a.gif","images/stimuli/spore_stims/complex_14_A_b.gif","self_paced","","6","complex_dissimilar","images/stimuli/spore_stims/complex_14_A_b.gif","","","","",""
"","5290.1549999951385","survey-multi-choice","85","552948","0.0-22.0","SS1619739875957","math_question","","","","","","","","","","","","{""Q0"":""6""}","[0]","6","",""
"","null","html-keyboard-response","86","553814","0.0-23.0-0.0","SS1619739875957","","","null","","","","","","<p><img src= images/blank.png width =""600"" height = ""600"" style=""position:fixed;top:50%; left:50%; transform: translate(-50%, -50%); border:5px solid black"">","","","","","","","",""
"","10555.61999999918","sequential-stimulus-presentation-old","87","579375","0.0-23.0-1.0","SS1619739875957","trial","","40","500","11055.61999999918","images/stimuli/spore_stims/simple_15_A_a.gif","images/stimuli/spore_stims/simple_03_A_b.gif","forced_long","","7","simple_dissimilar","images/stimuli/spore_stims/simple_03_A_b.gif","","","","",""
"","null","html-keyboard-response","88","580334","0.0-23.0-0.1","SS1619739875957","","","null","","","","","","<p><img src= images/blank.png width =""600"" height = ""600"" style=""position:fixed;top:50%; left:50%; transform: translate(-50%, -50%); border:5px solid black"">","","","","","","","",""
"","3433.82500000007","sequential-stimulus-presentation-old","89","584279","0.0-23.0-1.1","SS1619739875957","trial","","40","500","3933.82500000007","images/stimuli/spore_stims/simple_15_A_a.gif","images/stimuli/spore_stims/simple_03_A_b.gif","forced_long","","7","simple_dissimilar","images/stimuli/spore_stims/simple_15_A_a.gif","","","","",""
"","null","html-keyboard-response","90","585286","0.0-23.0-0.2","SS1619739875957","","","null","","","","","","<p><img src= images/blank.png width =""600"" height = ""600"" style=""position:fixed;top:50%; left:50%; transform: translate(-50%, -50%); border:5px solid black"">","","","","","","","",""
"","2150.4249999998137","sequential-stimulus-presentation-old","91","587943","0.0-23.0-1.2","SS1619739875957","trial","","40","500","2650.4249999998137","images/stimuli/spore_stims/simple_15_A_a.gif","images/stimuli/spore_stims/simple_03_A_b.gif","forced_long","","7","simple_dissimilar","images/stimuli/spore_stims/simple_03_A_b.gif","","","","",""
"","null","html-keyboard-response","92","588956","0.0-23.0-0.3","SS1619739875957","","","null","","","","","","<p><img src= images/blank.png width =""600"" height = ""600"" style=""position:fixed;top:50%; left:50%; transform: translate(-50%, -50%); border:5px solid black"">","","","","","","","",""
"","3271.4299999934155","sequential-stimulus-presentation-old","93","592736","0.0-23.0-1.3","SS1619739875957","trial","","40","500","3771.4299999934155","images/stimuli/spore_stims/simple_15_A_a.gif","images/stimuli/spore_stims/simple_03_A_b.gif","forced_long","","7","simple_dissimilar","images/stimuli/spore_stims/simple_03_A_b.gif","","","","",""
"","3161.35999999824","survey-multi-choice","94","595902","0.0-24.0","SS1619739875957","math_question","","","","","","","","","","","","{""Q0"":""14""}","[0]","14","",""
"","null","html-keyboard-response","95","597093","0.0-25.0-0.0","SS1619739875957","","","null","","","","","","<p><img src= images/blank.png width =""600"" height = ""600"" style=""position:fixed;top:50%; left:50%; transform: translate(-50%, -50%); border:5px solid black"">","","","","","","","",""
"","2907.949999993434","sequential-stimulus-presentation-old","96","600511","0.0-25.0-1.0","SS1619739875957","trial","","40","500","3407.949999993434","images/stimuli/spore_stims/simple_13_A_a.gif","images/stimuli/spore_stims/simple_17_A_b.gif","self_paced","","8","simple_dissimilar","images/stimuli/spore_stims/simple_17_A_b.gif","","","","",""
"","null","html-keyboard-response","97","601627","0.0-25.0-0.1","SS1619739875957","","","null","","","","","","<p><img src= images/blank.png width =""600"" height = ""600"" style=""position:fixed;top:50%; left:50%; transform: translate(-50%, -50%); border:5px solid black"">","","","","","","","",""
"","2857.529999993858","sequential-stimulus-presentation-old","98","604999","0.0-25.0-1.1","SS1619739875957","trial","","40","500","3357.529999993858","images/stimuli/spore_stims/simple_13_A_a.gif","images/stimuli/spore_stims/simple_17_A_b.gif","self_paced","","8","simple_dissimilar","images/stimuli/spore_stims/simple_13_A_a.gif","","","","",""
"","null","html-keyboard-response","99","606262","0.0-25.0-0.2","SS1619739875957","","","null","","","","","","<p><img src= images/blank.png width =""600"" height = ""600"" style=""position:fixed;top:50%; left:50%; transform: translate(-50%, -50%); border:5px solid black"">","","","","","","","",""
"","4065.790000007837","sequential-stimulus-presentation-old","100","610832","0.0-25.0-1.2","SS1619739875957","trial","","40","500","4565.790000007837","images/stimuli/spore_stims/simple_13_A_a.gif","images/stimuli/spore_stims/simple_17_A_b.gif","self_paced","","8","simple_dissimilar","images/stimuli/spore_stims/simple_17_A_b.gif","","","","",""
"","null","html-keyboard-response","101","611814","0.0-25.0-0.3","SS1619739875957","","","null","","","","","","<p><img src= images/blank.png width =""600"" height = ""600"" style=""position:fixed;top:50%; left:50%; transform: translate(-50%, -50%); border:5px solid black"">","","","","","","","",""
"","1136.8649999931222","sequential-stimulus-presentation-old","102","613456","0.0-25.0-1.3","SS1619739875957","trial","","40","500","1636.8649999931222","images/stimuli/spore_stims/simple_13_A_a.gif","images/stimuli/spore_stims/simple_17_A_b.gif","self_paced","","8","simple_dissimilar","images/stimuli/spore_stims/simple_17_A_b.gif","","","","",""
"","null","html-keyboard-response","103","614515","0.0-25.0-0.4","SS1619739875957","","","null","","","","","","<p><img src= images/blank.png width =""600"" height = ""600"" style=""position:fixed;top:50%; left:50%; transform: translate(-50%, -50%); border:5px solid black"">","","","","","","","",""
"","1859.5700000005309","sequential-stimulus-presentation-old","104","616880","0.0-25.0-1.4","SS1619739875957","trial","","40","500","2359.570000000531","images/stimuli/spore_stims/simple_13_A_a.gif","images/stimuli/spore_stims/simple_17_A_b.gif","self_paced","","8","simple_dissimilar","images/stimuli/spore_stims/simple_17_A_b.gif","","","","",""
"","null","html-keyboard-response","105","618147","0.0-25.0-0.5","SS1619739875957","","","null","","","","","","<p><img src= images/blank.png width =""600"" height = ""600"" style=""position:fixed;top:50%; left:50%; transform: translate(-50%, -50%); border:5px solid black"">","","","","","","","",""
"","2731.6500000015367","sequential-stimulus-presentation-old","106","621383","0.0-25.0-1.5","SS1619739875957","trial","","40","500","3231.6500000015367","images/stimuli/spore_stims/simple_13_A_a.gif","images/stimuli/spore_stims/simple_17_A_b.gif","self_paced","","8","simple_dissimilar","images/stimuli/spore_stims/simple_13_A_a.gif","","","","",""
"","3307.410000008531","survey-multi-choice","107","624694","0.0-26.0","SS1619739875957","math_question","","","","","","","","","","","","{""Q0"":""12""}","[0]","12","",""
"","null","html-keyboard-response","108","625854","0.0-27.0-0.0","SS1619739875957","","","null","","","","","","<p><img src= images/blank.png width =""600"" height = ""600"" style=""position:fixed;top:50%; left:50%; transform: translate(-50%, -50%); border:5px solid black"">","","","","","","","",""
"","2775.5400000023656","sequential-stimulus-presentation-old","109","629135","0.0-27.0-1.0","SS1619739875957","trial","","40","500","3275.5400000023656","images/stimuli/spore_stims/simple_13_A_b.gif","images/stimuli/spore_stims/simple_07_A_a.gif","self_paced","","9","simple_dissimilar","images/stimuli/spore_stims/simple_07_A_a.gif","","","","",""
"","null","html-keyboard-response","110","630116","0.0-27.0-0.1","SS1619739875957","","","null","","","","","","<p><img src= images/blank.png width =""600"" height = ""600"" style=""position:fixed;top:50%; left:50%; transform: translate(-50%, -50%); border:5px solid black"">","","","","","","","",""
"","518.2750000094529","sequential-stimulus-presentation-old","111","631143","0.0-27.0-1.1","SS1619739875957","trial","","40","500","1018.2750000094529","images/stimuli/spore_stims/simple_13_A_b.gif","images/stimuli/spore_stims/simple_07_A_a.gif","self_paced","","9","simple_dissimilar","images/stimuli/spore_stims/simple_13_A_b.gif","","","","",""
"","null","html-keyboard-response","112","632035","0.0-27.0-0.2","SS1619739875957","","","null","","","","","","<p><img src= images/blank.png width =""600"" height = ""600"" style=""position:fixed;top:50%; left:50%; transform: translate(-50%, -50%); border:5px solid black"">","","","","","","","",""
"","4277.37499999057","sequential-stimulus-presentation-old","113","636823","0.0-27.0-1.2","SS1619739875957","trial","","40","500","4777.37499999057","images/stimuli/spore_stims/simple_13_A_b.gif","images/stimuli/spore_stims/simple_07_A_a.gif","self_paced","","9","simple_dissimilar","images/stimuli/spore_stims/simple_07_A_a.gif","","","","",""
"","null","html-keyboard-response","114","638022","0.0-27.0-0.3","SS1619739875957","","","null","","","","","","<p><img src= images/blank.png width =""600"" height = ""600"" style=""position:fixed;top:50%; left:50%; transform: translate(-50%, -50%); border:5px solid black"">","","","","","","","",""
"","3399.6899999910966","sequential-stimulus-presentation-old","115","641927","0.0-27.0-1.3","SS1619739875957","trial","","40","500","3899.6899999910966","images/stimuli/spore_stims/simple_13_A_b.gif","images/stimuli/spore_stims/simple_07_A_a.gif","self_paced","","9","simple_dissimilar","images/stimuli/spore_stims/simple_07_A_a.gif","","","","",""
"","null","html-keyboard-response","116","643166","0.0-27.0-0.4","SS1619739875957","","","null","","","","","","<p><img src= images/blank.png width =""600"" height = ""600"" style=""position:fixed;top:50%; left:50%; transform: translate(-50%, -50%); border:5px solid black"">","","","","","","","",""
"","3156.955000013113","sequential-stimulus-presentation-old","117","646831","0.0-27.0-1.4","SS1619739875957","trial","","40","500","3656.955000013113","images/stimuli/spore_stims/simple_13_A_b.gif","images/stimuli/spore_stims/simple_07_A_a.gif","self_paced","","9","simple_dissimilar","images/stimuli/spore_stims/simple_07_A_a.gif","","","","",""
"","null","html-keyboard-response","118","647959","0.0-27.0-0.5","SS1619739875957","","","null","","","","","","<p><img src= images/blank.png width =""600"" height = ""600"" style=""position:fixed;top:50%; left:50%; transform: translate(-50%, -50%); border:5px solid black"">","","","","","","","",""
"","2966.2349999998696","sequential-stimulus-presentation-old","119","651431","0.0-27.0-1.5","SS1619739875957","trial","","40","500","3466.2349999998696","images/stimuli/spore_stims/simple_13_A_b.gif","images/stimuli/spore_stims/simple_07_A_a.gif","self_paced","","9","simple_dissimilar","images/stimuli/spore_stims/simple_13_A_b.gif","","","","",""
"","4283.544999998412","survey-multi-choice","120","655719","0.0-28.0","SS1619739875957","math_question","","","","","","","","","","","","{""Q0"":""10""}","[0]","10","",""
"","null","html-keyboard-response","121","656731","0.0-29.0-0.0","SS1619739875957","","","null","","","","","","<p><img src= images/blank.png width =""600"" height = ""600"" style=""position:fixed;top:50%; left:50%; transform: translate(-50%, -50%); border:5px solid black"">","","","","","","","",""
"","853.1150000053458","sequential-stimulus-presentation-old","122","672591","0.0-29.0-1.0","SS1619739875957","trial","","40","500","1353.1150000053458","images/stimuli/spore_stims/complex_19_A_b.gif","images/stimuli/spore_stims/complex_14_A_a.gif","forced_long","","10","complex_dissimilar","images/stimuli/spore_stims/complex_14_A_a.gif","","","","",""
"","null","html-keyboard-response","123","673680","0.0-29.0-0.1","SS1619739875957","","","null","","","","","","<p><img src= images/blank.png width =""600"" height = ""600"" style=""position:fixed;top:50%; left:50%; transform: translate(-50%, -50%); border:5px solid black"">","","","","","","","",""
"","3981.5399999934016","sequential-stimulus-presentation-old","124","678167","0.0-29.0-1.1","SS1619739875957","trial","","40","500","4481.539999993402","images/stimuli/spore_stims/complex_19_A_b.gif","images/stimuli/spore_stims/complex_14_A_a.gif","forced_long","","10","complex_dissimilar","images/stimuli/spore_stims/complex_19_A_b.gif","","","","",""
"","null","html-keyboard-response","125","679235","0.0-29.0-0.2","SS1619739875957","","","null","","","","","","<p><img src= images/blank.png width =""600"" height = ""600"" style=""position:fixed;top:50%; left:50%; transform: translate(-50%, -50%); border:5px solid black"">","","","","","","","",""
"","1715.0649999966845","sequential-stimulus-presentation-old","126","681455","0.0-29.0-1.2","SS1619739875957","trial","","40","500","2215.0649999966845","images/stimuli/spore_stims/complex_19_A_b.gif","images/stimuli/spore_stims/complex_14_A_a.gif","forced_long","","10","complex_dissimilar","images/stimuli/spore_stims/complex_14_A_a.gif","","","","",""
"","null","html-keyboard-response","127","682315","0.0-29.0-0.3","SS1619739875957","","","null","","","","","","<p><img src= images/blank.png width =""600"" height = ""600"" style=""position:fixed;top:50%; left:50%; transform: translate(-50%, -50%); border:5px solid black"">","","","","","","","",""
"","931.060000002617","sequential-stimulus-presentation-old","128","683760","0.0-29.0-1.3","SS1619739875957","trial","","40","500","1431.060000002617","images/stimuli/spore_stims/complex_19_A_b.gif","images/stimuli/spore_stims/complex_14_A_a.gif","forced_long","","10","complex_dissimilar","images/stimuli/spore_stims/complex_14_A_a.gif","","","","",""
"","null","html-keyboard-response","129","684751","0.0-29.0-0.4","SS1619739875957","","","null","","","","","","<p><img src= images/blank.png width =""600"" height = ""600"" style=""position:fixed;top:50%; left:50%; transform: translate(-50%, -50%); border:5px solid black"">","","","","","","","",""
"","1070.0199999992037","sequential-stimulus-presentation-old","130","686327","0.0-29.0-1.4","SS1619739875957","trial","","40","500","1570.0199999992037","images/stimuli/spore_stims/complex_19_A_b.gif","images/stimuli/spore_stims/complex_14_A_a.gif","forced_long","","10","complex_dissimilar","images/stimuli/spore_stims/complex_14_A_a.gif","","","","",""
"","null","html-keyboard-response","131","687451","0.0-29.0-0.5","SS1619739875957","","","null","","","","","","<p><img src= images/blank.png width =""600"" height = ""600"" style=""position:fixed;top:50%; left:50%; transform: translate(-50%, -50%); border:5px solid black"">","","","","","","","",""
"","1194.6049999969546","sequential-stimulus-presentation-old","132","689151","0.0-29.0-1.5","SS1619739875957","trial","","40","500","1694.6049999969546","images/stimuli/spore_stims/complex_19_A_b.gif","images/stimuli/spore_stims/complex_14_A_a.gif","forced_long","","10","complex_dissimilar","images/stimuli/spore_stims/complex_14_A_a.gif","","","","",""
"","3457.720000005793","survey-multi-choice","133","692612","0.0-30.0","SS1619739875957","math_question","","","","","","","","","","","","{""Q0"":""12""}","[0]","12","",""
"","null","html-keyboard-response","134","693897","0.0-31.0-0.0","SS1619739875957","","","null","","","","","","<p><img src= images/blank.png width =""600"" height = ""600"" style=""position:fixed;top:50%; left:50%; transform: translate(-50%, -50%); border:5px solid black"">","","","","","","","",""
"","948.6999999935506","sequential-stimulus-presentation-old","135","695351","0.0-31.0-1.0","SS1619739875957","trial","","40","500","1448.6999999935506","images/stimuli/spore_stims/simple_06_A_a.gif","images/stimuli/spore_stims/simple_11_A_b.gif","forced_short","","11","simple_dissimilar","images/stimuli/spore_stims/simple_11_A_b.gif","","","","",""
"","null","html-keyboard-response","136","696518","0.0-31.0-0.1","SS1619739875957","","","null","","","","","","<p><img src= images/blank.png width =""600"" height = ""600"" style=""position:fixed;top:50%; left:50%; transform: translate(-50%, -50%); border:5px solid black"">","","","","","","","",""
"","1320.2149999997346","sequential-stimulus-presentation-old","137","698344","0.0-31.0-1.1","SS1619739875957","trial","","40","500","1820.2149999997346","images/stimuli/spore_stims/simple_06_A_a.gif","images/stimuli/spore_stims/simple_11_A_b.gif","forced_short","","11","simple_dissimilar","images/stimuli/spore_stims/simple_06_A_a.gif","","","","",""
"","null","html-keyboard-response","138","699546","0.0-31.0-0.2","SS1619739875957","","","null","","","","","","<p><img src= images/blank.png width =""600"" height = ""600"" style=""position:fixed;top:50%; left:50%; transform: translate(-50%, -50%); border:5px solid black"">","","","","","","","",""
"","2995.630000004894","sequential-stimulus-presentation-old","139","703047","0.0-31.0-1.2","SS1619739875957","trial","","40","500","3495.630000004894","images/stimuli/spore_stims/simple_06_A_a.gif","images/stimuli/spore_stims/simple_11_A_b.gif","forced_short","","11","simple_dissimilar","images/stimuli/spore_stims/simple_11_A_b.gif","","","","",""
"","null","html-keyboard-response","140","703913","0.0-31.0-0.3","SS1619739875957","","","null","","","","","","<p><img src= images/blank.png width =""600"" height = ""600"" style=""position:fixed;top:50%; left:50%; transform: translate(-50%, -50%); border:5px solid black"">","","","","","","","",""
"","1411.6350000113016","sequential-stimulus-presentation-old","141","705831","0.0-31.0-1.3","SS1619739875957","trial","","40","500","1911.6350000113016","images/stimuli/spore_stims/simple_06_A_a.gif","images/stimuli/spore_stims/simple_11_A_b.gif","forced_short","","11","simple_dissimilar","images/stimuli/spore_stims/simple_11_A_b.gif","","","","",""
"","null","html-keyboard-response","142","706883","0.0-31.0-0.4","SS1619739875957","","","null","","","","","","<p><img src= images/blank.png width =""600"" height = ""600"" style=""position:fixed;top:50%; left:50%; transform: translate(-50%, -50%); border:5px solid black"">","","","","","","","",""
"","3123.395000002347","sequential-stimulus-presentation-old","143","710512","0.0-31.0-1.4","SS1619739875957","trial","","40","500","3623.395000002347","images/stimuli/spore_stims/simple_06_A_a.gif","images/stimuli/spore_stims/simple_11_A_b.gif","forced_short","","11","simple_dissimilar","images/stimuli/spore_stims/simple_11_A_b.gif","","","","",""
"[{""page_index"":0,""viewing_time"":7286.124999998719}]","7286.584999994375","instructions","144","717803","0.0-32.0","SS1619739875957","instructions","","","","","","","","","","","","","","","",""
"","10035.5750000017","survey-likert","145","727843","0.0-33.0","SS1619739875957","similarity_question","","","","","","","","","","","","{""Q0"":0}","[0]","","images/stimuli/spore_stims/complex_14_A_a.gif","images/stimuli/spore_stims/complex_19_A_b.gif"
"","5520.83500000299","survey-likert","146","733372","0.0-34.0","SS1619739875957","similarity_question","","","","","","","","","","","","{""Q0"":0}","[0]","","images/stimuli/spore_stims/complex_02_A_b.gif","images/stimuli/spore_stims/complex_17_A_a.gif"
"","4257.249999995111","survey-likert","147","737634","0.0-35.0","SS1619739875957","similarity_question","","","","","","","","","","","","{""Q0"":2}","[0]","","images/stimuli/spore_stims/simple_07_A_a.gif","images/stimuli/spore_stims/simple_13_A_b.gif"
"","3047.980000003008","survey-likert","148","740687","0.0-36.0","SS1619739875957","similarity_question","","","","","","","","","","","","{""Q0"":2}","[0]","","images/stimuli/spore_stims/simple_17_A_b.gif","images/stimuli/spore_stims/simple_13_A_a.gif"
"","5618.690000002971","survey-likert","149","746313","0.0-37.0","SS1619739875957","similarity_question","","","","","","","","","","","","{""Q0"":1}","[0]","","images/stimuli/spore_stims/complex_05_A_a.gif","images/stimuli/spore_stims/complex_10_A_b.gif"
"","2653.8949999958277","survey-likert","150","748973","0.0-38.0","SS1619739875957","similarity_question","","","","","","","","","","","","{""Q0"":4}","[0]","","images/stimuli/spore_stims/simple_04_A_a.gif","images/stimuli/spore_stims/simple_09_A_b.gif"
"","3071.4549999975134","survey-likert","151","752050","0.0-39.0","SS1619739875957","similarity_question","","","","","","","","","","","","{""Q0"":4}","[0]","","images/stimuli/spore_stims/simple_06_A_a.gif","images/stimuli/spore_stims/simple_11_A_b.gif"
"","6307.685000007041","survey-likert","152","758364","0.0-40.0","SS1619739875957","similarity_question","","","","","","","","","","","","{""Q0"":4}","[0]","","images/stimuli/spore_stims/complex_06_A_a.gif","images/stimuli/spore_stims/complex_18_A_b.gif"
"","6242.545000000973","survey-likert","153","764613","0.0-41.0","SS1619739875957","similarity_question","","","","","","","","","","","","{""Q0"":2}","[0]","","images/stimuli/spore_stims/complex_11_A_a.gif","images/stimuli/spore_stims/complex_08_A_b.gif"
"","2266.8899999989662","survey-likert","154","766888","0.0-42.0","SS1619739875957","similarity_question","","","","","","","","","","","","{""Q0"":5}","[0]","","images/stimuli/spore_stims/simple_15_A_a.gif","images/stimuli/spore_stims/simple_03_A_b.gif"
"","3149.955000000773","survey-likert","155","770045","0.0-43.0","SS1619739875957","similarity_question","","","","","","","","","","","","{""Q0"":4}","[0]","","images/stimuli/spore_stims/simple_09_A_a.gif","images/stimuli/spore_stims/simple_05_A_b.gif"
"","4685.989999998128","survey-likert","156","774739","0.0-44.0","SS1619739875957","similarity_question","","","","","","","","","","","","{""Q0"":1}","[0]","","images/stimuli/spore_stims/complex_14_A_b.gif","images/stimuli/spore_stims/complex_13_A_a.gif"
"[{""page_index"":0,""viewing_time"":5069.5100000011735}]","5069.960000007995","instructions","157","779813","0.0-45.0","SS1619739875957","instructions","","","","","","","","","","","","","","","",""
"","3402.029999997467","survey-likert","158","783220","0.0-46.0","SS1619739875957","","","","","","","","","images/stimuli/spore_stims/simple_15_A_a.gif","","","","{""Q0"":1}","[0]","","",""
"","2565.694999997504","survey-likert","159","785791","0.0-47.0","SS1619739875957","","","","","","","","","images/stimuli/spore_stims/simple_17_A_b.gif","","","","{""Q0"":2}","[0]","","",""
"","1980.3700000047684","survey-likert","160","787777","0.0-48.0","SS1619739875957","","","","","","","","","images/stimuli/spore_stims/simple_13_A_b.gif","","","","{""Q0"":1}","[0]","","",""
"","3127.3650000075577","survey-likert","161","790909","0.0-49.0","SS1619739875957","","","","","","","","","images/stimuli/spore_stims/complex_14_A_b.gif","","","","{""Q0"":4}","[0]","","",""
"","2455.7150000036927","survey-likert","162","793369","0.0-50.0","SS1619739875957","","","","","","","","","images/stimuli/spore_stims/simple_09_A_b.gif","","","","{""Q0"":1}","[0]","","",""
"","2453.0850000010105","survey-likert","163","795829","0.0-51.0","SS1619739875957","","","","","","","","","images/stimuli/spore_stims/simple_09_A_a.gif","","","","{""Q0"":1}","[0]","","",""
"","3173.3249999961117","survey-likert","164","799009","0.0-52.0","SS1619739875957","","","","","","","","","images/stimuli/spore_stims/complex_08_A_b.gif","","","","{""Q0"":4}","[0]","","",""
"","2181.2749999953667","survey-likert","165","801195","0.0-53.0","SS1619739875957","","","","","","","","","images/stimuli/spore_stims/complex_05_A_a.gif","","","","{""Q0"":4}","[0]","","",""
"","3439.670000007027","survey-likert","166","804642","0.0-54.0","SS1619739875957","","","","","","","","","images/stimuli/spore_stims/complex_02_A_b.gif","","","","{""Q0"":4}","[0]","","",""
"","3148.060000006808","survey-likert","167","807795","0.0-55.0","SS1619739875957","","","","","","","","","images/stimuli/spore_stims/simple_06_A_a.gif","","","","{""Q0"":0}","[0]","","",""
"","2495.5400000035297","survey-likert","168","810295","0.0-56.0","SS1619739875957","","","","","","","","","images/stimuli/spore_stims/complex_19_A_b.gif","","","","{""Q0"":5}","[0]","","",""
"","2548.8749999931315","survey-likert","169","812851","0.0-57.0","SS1619739875957","","","","","","","","","images/stimuli/spore_stims/complex_18_A_b.gif","","","","{""Q0"":5}","[0]","","",""
"[{""page_index"":0,""viewing_time"":1814.924999998766}]","1815.2800000098068","instructions","170","814670","0.0-58.0","SS1619739875957","instructions","","","","","","","","","","","","","","","",""
"","3394.684999992023","demog-age","171","818074","0.0-59.0","SS1619739875957","","","","","","","","","","","","","{""age"":""20""}","","","",""
"","6090.670000005048","demog-ethnic-US","172","824172","0.0-60.0","SS1619739875957","","","","","","","","","","","","","{""ethnicity"":[""White""]}","[0]","","",""
"","6425.394999998389","demog-gender-and-education","173","830604","0.0-61.0","SS1619739875957","","","","","","","","","","","","","{""gender"":""Male"",""education"":""Associate Degree/Technical certification""}","[0,1]","","",""
"","44220.040000000154","survey-text","174","874833","0.0-62.0","SS1619739875957","feedback","","","","","","","","","","","","{""Q0"":""Not at all,  i was a bit confused with the instructions at first but atfer that nothing wrong.""}","","","",""
"[{""page_index"":0,""viewing_time"":1302.5000000052387}]","1303.329999995185","instructions","175","876141","0.0-63.0","SS1619739875957","instructions","","","","","","","","","","","","","","","",""
