"view_history","rt","trial_type","trial_index","time_elapsed","internal_node_id","subject","stimulus_type","trial_stimulus","key_press","minimum_viewing_duration","trial_looking_time","block_deviant","block_background","exposure_type","stimulus","block_number","block_type","stimulus_displayed","responses","question_order","math_correct_answer","stimulus_left","stimulus_right"
"[{""page_index"":0,""viewing_time"":44936.54999998398}]","44937.18999996781","instructions","0","44940","0.0-0.0","SS1619739950567","","","","","","","","","","","","","","","","",""
"[{""page_index"":0,""viewing_time"":15582.47499994468},{""page_index"":1,""viewing_time"":5070.794999948703}]","20653.689999948256","instructions","1","67603","0.0-1.0","SS1619739950567","instructions","","","","","","","","","","","","","","","",""
"","5844.630000065081","sequential-stimulus-presentation-old","2","73955","0.0-2.0","SS1619739950567","","","40","500","6344.630000065081","null","null","self_paced","","","","","","","","",""
"","2599.4250000221655","sequential-stimulus-presentation-old","3","77069","0.0-3.0","SS1619739950567","","","40","500","3099.4250000221655","null","null","self_paced","","","","","","","","",""
"[{""page_index"":0,""viewing_time"":15617.555000004359}]","15618.350000004284","instructions","4","92690","0.0-4.0","SS1619739950567","instructions","","","","","","","","","","","","","","","",""
"","828.6899999948218","sequential-stimulus-presentation-old","5","108530","0.0-5.0","SS1619739950567","","","40","500","1328.6899999948218","null","null","forced_long","","","","","","","","",""
"","2426.420000032522","sequential-stimulus-presentation-old","6","111470","0.0-6.0","SS1619739950567","","","40","500","2926.420000032522","null","null","forced_long","","","","","","","","",""
"[{""page_index"":0,""viewing_time"":3032.7600000891834}]","3033.280000090599","instructions","7","114507","0.0-7.0","SS1619739950567","instructions","","","","","","","","","","","","","","","",""
"[{""page_index"":0,""viewing_time"":13455.58000006713},{""page_index"":1,""viewing_time"":11403.144999989308},{""page_index"":2,""viewing_time"":5172.674999921583},{""page_index"":3,""viewing_time"":1795.810000039637},{""page_index"":4,""viewing_time"":1622.0899999607354}]","33450.07999998052","instructions","8","147960","0.0-8.0","SS1619739950567","instructions","","","","","","","","","","","","","","","",""
"","null","html-keyboard-response","9","148940","0.0-9.0-0.0","SS1619739950567","","","null","","","","","","<p><img src= images/blank.png width =""600"" height = ""600"" style=""position:fixed;top:50%; left:50%; transform: translate(-50%, -50%); border:5px solid black"">","","","","","","","",""
"","901.3900000136346","sequential-stimulus-presentation-old","10","164849","0.0-9.0-1.0","SS1619739950567","trial","","40","500","1401.3900000136346","images/stimuli/spore_stims/complex_10_A_a.gif","images/stimuli/spore_stims/complex_16_A_b.gif","forced_long","","0","complex_dissimilar","images/stimuli/spore_stims/complex_16_A_b.gif","","","","",""
"","null","html-keyboard-response","11","165668","0.0-9.0-0.1","SS1619739950567","","","null","","","","","","<p><img src= images/blank.png width =""600"" height = ""600"" style=""position:fixed;top:50%; left:50%; transform: translate(-50%, -50%); border:5px solid black"">","","","","","","","",""
"","3583.0950000090525","sequential-stimulus-presentation-old","12","169762","0.0-9.0-1.1","SS1619739950567","trial","","40","500","4083.0950000090525","images/stimuli/spore_stims/complex_10_A_a.gif","images/stimuli/spore_stims/complex_16_A_b.gif","forced_long","","0","complex_dissimilar","images/stimuli/spore_stims/complex_16_A_b.gif","","","","",""
"","null","html-keyboard-response","13","170816","0.0-9.0-0.2","SS1619739950567","","","null","","","","","","<p><img src= images/blank.png width =""600"" height = ""600"" style=""position:fixed;top:50%; left:50%; transform: translate(-50%, -50%); border:5px solid black"">","","","","","","","",""
"","5767.3199999844655","sequential-stimulus-presentation-old","14","177090","0.0-9.0-1.2","SS1619739950567","trial","","40","500","6267.3199999844655","images/stimuli/spore_stims/complex_10_A_a.gif","images/stimuli/spore_stims/complex_16_A_b.gif","forced_long","","0","complex_dissimilar","images/stimuli/spore_stims/complex_16_A_b.gif","","","","",""
"","null","html-keyboard-response","15","177952","0.0-9.0-0.3","SS1619739950567","","","null","","","","","","<p><img src= images/blank.png width =""600"" height = ""600"" style=""position:fixed;top:50%; left:50%; transform: translate(-50%, -50%); border:5px solid black"">","","","","","","","",""
"","6589.819999993779","sequential-stimulus-presentation-old","16","185059","0.0-9.0-1.3","SS1619739950567","trial","","40","500","7089.819999993779","images/stimuli/spore_stims/complex_10_A_a.gif","images/stimuli/spore_stims/complex_16_A_b.gif","forced_long","","0","complex_dissimilar","images/stimuli/spore_stims/complex_16_A_b.gif","","","","",""
"","5953.93000007607","survey-multi-choice","17","191019","0.0-10.0","SS1619739950567","math_question","","","","","","","","","","","","{""Q0"":""9""}","[0]","9","",""
"","null","html-keyboard-response","18","192166","0.0-11.0-0.0","SS1619739950567","","","null","","","","","","<p><img src= images/blank.png width =""600"" height = ""600"" style=""position:fixed;top:50%; left:50%; transform: translate(-50%, -50%); border:5px solid black"">","","","","","","","",""
"","3215.4200000222772","sequential-stimulus-presentation-old","19","195891","0.0-11.0-1.0","SS1619739950567","trial","","40","500","3715.4200000222772","images/stimuli/spore_stims/complex_05_A_a.gif","images/stimuli/spore_stims/complex_06_A_b.gif","self_paced","","1","complex_dissimilar","images/stimuli/spore_stims/complex_06_A_b.gif","","","","",""
"","null","html-keyboard-response","20","196960","0.0-11.0-0.1","SS1619739950567","","","null","","","","","","<p><img src= images/blank.png width =""600"" height = ""600"" style=""position:fixed;top:50%; left:50%; transform: translate(-50%, -50%); border:5px solid black"">","","","","","","","",""
"","3247.444999986328","sequential-stimulus-presentation-old","21","200737","0.0-11.0-1.1","SS1619739950567","trial","","40","500","3747.444999986328","images/stimuli/spore_stims/complex_05_A_a.gif","images/stimuli/spore_stims/complex_06_A_b.gif","self_paced","","1","complex_dissimilar","images/stimuli/spore_stims/complex_06_A_b.gif","","","","",""
"","null","html-keyboard-response","22","202047","0.0-11.0-0.2","SS1619739950567","","","null","","","","","","<p><img src= images/blank.png width =""600"" height = ""600"" style=""position:fixed;top:50%; left:50%; transform: translate(-50%, -50%); border:5px solid black"">","","","","","","","",""
"","3634.7100000130013","sequential-stimulus-presentation-old","23","206189","0.0-11.0-1.2","SS1619739950567","trial","","40","500","4134.710000013001","images/stimuli/spore_stims/complex_05_A_a.gif","images/stimuli/spore_stims/complex_06_A_b.gif","self_paced","","1","complex_dissimilar","images/stimuli/spore_stims/complex_05_A_a.gif","","","","",""
"","null","html-keyboard-response","24","207011","0.0-11.0-0.3","SS1619739950567","","","null","","","","","","<p><img src= images/blank.png width =""600"" height = ""600"" style=""position:fixed;top:50%; left:50%; transform: translate(-50%, -50%); border:5px solid black"">","","","","","","","",""
"","2786.269999924116","sequential-stimulus-presentation-old","25","210311","0.0-11.0-1.3","SS1619739950567","trial","","40","500","3286.269999924116","images/stimuli/spore_stims/complex_05_A_a.gif","images/stimuli/spore_stims/complex_06_A_b.gif","self_paced","","1","complex_dissimilar","images/stimuli/spore_stims/complex_05_A_a.gif","","","","",""
"","null","html-keyboard-response","26","211517","0.0-11.0-0.4","SS1619739950567","","","null","","","","","","<p><img src= images/blank.png width =""600"" height = ""600"" style=""position:fixed;top:50%; left:50%; transform: translate(-50%, -50%); border:5px solid black"">","","","","","","","",""
"","3963.609999977052","sequential-stimulus-presentation-old","27","215988","0.0-11.0-1.4","SS1619739950567","trial","","40","500","4463.609999977052","images/stimuli/spore_stims/complex_05_A_a.gif","images/stimuli/spore_stims/complex_06_A_b.gif","self_paced","","1","complex_dissimilar","images/stimuli/spore_stims/complex_06_A_b.gif","","","","",""
"","null","html-keyboard-response","28","217079","0.0-11.0-0.5","SS1619739950567","","","null","","","","","","<p><img src= images/blank.png width =""600"" height = ""600"" style=""position:fixed;top:50%; left:50%; transform: translate(-50%, -50%); border:5px solid black"">","","","","","","","",""
"","610.9400000423193","sequential-stimulus-presentation-old","29","218204","0.0-11.0-1.5","SS1619739950567","trial","","40","500","1110.9400000423193","images/stimuli/spore_stims/complex_05_A_a.gif","images/stimuli/spore_stims/complex_06_A_b.gif","self_paced","","1","complex_dissimilar","images/stimuli/spore_stims/complex_06_A_b.gif","","","","",""
"","4365.2449999935925","survey-multi-choice","30","222574","0.0-12.0","SS1619739950567","math_question","","","","","","","","","","","","{""Q0"":""16""}","[0]","16","",""
"","null","html-keyboard-response","31","223747","0.0-13.0-0.0","SS1619739950567","","","null","","","","","","<p><img src= images/blank.png width =""600"" height = ""600"" style=""position:fixed;top:50%; left:50%; transform: translate(-50%, -50%); border:5px solid black"">","","","","","","","",""
"","1257.785000023432","sequential-stimulus-presentation-old","32","240040","0.0-13.0-1.0","SS1619739950567","trial","","40","500","1757.785000023432","images/stimuli/spore_stims/simple_12_A_a.gif","images/stimuli/spore_stims/simple_07_A_b.gif","forced_long","","2","simple_dissimilar","images/stimuli/spore_stims/simple_07_A_b.gif","","","","",""
"","null","html-keyboard-response","33","240942","0.0-13.0-0.1","SS1619739950567","","","null","","","","","","<p><img src= images/blank.png width =""600"" height = ""600"" style=""position:fixed;top:50%; left:50%; transform: translate(-50%, -50%); border:5px solid black"">","","","","","","","",""
"","3586.145000066608","sequential-stimulus-presentation-old","34","245041","0.0-13.0-1.1","SS1619739950567","trial","","40","500","4086.145000066608","images/stimuli/spore_stims/simple_12_A_a.gif","images/stimuli/spore_stims/simple_07_A_b.gif","forced_long","","2","simple_dissimilar","images/stimuli/spore_stims/simple_07_A_b.gif","","","","",""
"","null","html-keyboard-response","35","245905","0.0-13.0-0.2","SS1619739950567","","","null","","","","","","<p><img src= images/blank.png width =""600"" height = ""600"" style=""position:fixed;top:50%; left:50%; transform: translate(-50%, -50%); border:5px solid black"">","","","","","","","",""
"","3091.995000024326","sequential-stimulus-presentation-old","36","249511","0.0-13.0-1.2","SS1619739950567","trial","","40","500","3591.995000024326","images/stimuli/spore_stims/simple_12_A_a.gif","images/stimuli/spore_stims/simple_07_A_b.gif","forced_long","","2","simple_dissimilar","images/stimuli/spore_stims/simple_07_A_b.gif","","","","",""
"","null","html-keyboard-response","37","250711","0.0-13.0-0.3","SS1619739950567","","","null","","","","","","<p><img src= images/blank.png width =""600"" height = ""600"" style=""position:fixed;top:50%; left:50%; transform: translate(-50%, -50%); border:5px solid black"">","","","","","","","",""
"","2456.304999999702","sequential-stimulus-presentation-old","38","253682","0.0-13.0-1.3","SS1619739950567","trial","","40","500","2956.304999999702","images/stimuli/spore_stims/simple_12_A_a.gif","images/stimuli/spore_stims/simple_07_A_b.gif","forced_long","","2","simple_dissimilar","images/stimuli/spore_stims/simple_12_A_a.gif","","","","",""
"","null","html-keyboard-response","39","254834","0.0-13.0-0.4","SS1619739950567","","","null","","","","","","<p><img src= images/blank.png width =""600"" height = ""600"" style=""position:fixed;top:50%; left:50%; transform: translate(-50%, -50%); border:5px solid black"">","","","","","","","",""
"","2330.169999971986","sequential-stimulus-presentation-old","40","257679","0.0-13.0-1.4","SS1619739950567","trial","","40","500","2830.169999971986","images/stimuli/spore_stims/simple_12_A_a.gif","images/stimuli/spore_stims/simple_07_A_b.gif","forced_long","","2","simple_dissimilar","images/stimuli/spore_stims/simple_07_A_b.gif","","","","",""
"","null","html-keyboard-response","41","258516","0.0-13.0-0.5","SS1619739950567","","","null","","","","","","<p><img src= images/blank.png width =""600"" height = ""600"" style=""position:fixed;top:50%; left:50%; transform: translate(-50%, -50%); border:5px solid black"">","","","","","","","",""
"","2479.285000008531","sequential-stimulus-presentation-old","42","261510","0.0-13.0-1.5","SS1619739950567","trial","","40","500","2979.285000008531","images/stimuli/spore_stims/simple_12_A_a.gif","images/stimuli/spore_stims/simple_07_A_b.gif","forced_long","","2","simple_dissimilar","images/stimuli/spore_stims/simple_12_A_a.gif","","","","",""
"","2701.310000033118","survey-multi-choice","43","264216","0.0-14.0","SS1619739950567","math_question","","","","","","","","","","","","{""Q0"":""10""}","[0]","10","",""
"","null","html-keyboard-response","44","265448","0.0-15.0-0.0","SS1619739950567","","","null","","","","","","<p><img src= images/blank.png width =""600"" height = ""600"" style=""position:fixed;top:50%; left:50%; transform: translate(-50%, -50%); border:5px solid black"">","","","","","","","",""
"","1495.5100000370294","sequential-stimulus-presentation-old","45","267459","0.0-15.0-1.0","SS1619739950567","trial","","40","500","1995.5100000370294","images/stimuli/spore_stims/simple_02_A_b.gif","images/stimuli/spore_stims/simple_06_A_a.gif","forced_short","","3","simple_dissimilar","images/stimuli/spore_stims/simple_06_A_a.gif","","","","",""
"","null","html-keyboard-response","46","268385","0.0-15.0-0.1","SS1619739950567","","","null","","","","","","<p><img src= images/blank.png width =""600"" height = ""600"" style=""position:fixed;top:50%; left:50%; transform: translate(-50%, -50%); border:5px solid black"">","","","","","","","",""
"","2900.1449999632314","sequential-stimulus-presentation-old","47","271803","0.0-15.0-1.1","SS1619739950567","trial","","40","500","3400.1449999632314","images/stimuli/spore_stims/simple_02_A_b.gif","images/stimuli/spore_stims/simple_06_A_a.gif","forced_short","","3","simple_dissimilar","images/stimuli/spore_stims/simple_06_A_a.gif","","","","",""
"","null","html-keyboard-response","48","272717","0.0-15.0-0.2","SS1619739950567","","","null","","","","","","<p><img src= images/blank.png width =""600"" height = ""600"" style=""position:fixed;top:50%; left:50%; transform: translate(-50%, -50%); border:5px solid black"">","","","","","","","",""
"","3163.3249999722466","sequential-stimulus-presentation-old","49","276403","0.0-15.0-1.2","SS1619739950567","trial","","40","500","3663.3249999722466","images/stimuli/spore_stims/simple_02_A_b.gif","images/stimuli/spore_stims/simple_06_A_a.gif","forced_short","","3","simple_dissimilar","images/stimuli/spore_stims/simple_06_A_a.gif","","","","",""
"","null","html-keyboard-response","50","277595","0.0-15.0-0.3","SS1619739950567","","","null","","","","","","<p><img src= images/blank.png width =""600"" height = ""600"" style=""position:fixed;top:50%; left:50%; transform: translate(-50%, -50%); border:5px solid black"">","","","","","","","",""
"","1392.8750000195578","sequential-stimulus-presentation-old","51","279495","0.0-15.0-1.3","SS1619739950567","trial","","40","500","1892.8750000195578","images/stimuli/spore_stims/simple_02_A_b.gif","images/stimuli/spore_stims/simple_06_A_a.gif","forced_short","","3","simple_dissimilar","images/stimuli/spore_stims/simple_06_A_a.gif","","","","",""
"","null","html-keyboard-response","52","280772","0.0-15.0-0.4","SS1619739950567","","","null","","","","","","<p><img src= images/blank.png width =""600"" height = ""600"" style=""position:fixed;top:50%; left:50%; transform: translate(-50%, -50%); border:5px solid black"">","","","","","","","",""
"","1034.6849999623373","sequential-stimulus-presentation-old","53","282314","0.0-15.0-1.4","SS1619739950567","trial","","40","500","1534.6849999623373","images/stimuli/spore_stims/simple_02_A_b.gif","images/stimuli/spore_stims/simple_06_A_a.gif","forced_short","","3","simple_dissimilar","images/stimuli/spore_stims/simple_06_A_a.gif","","","","",""
"","null","html-keyboard-response","54","283385","0.0-15.0-0.5","SS1619739950567","","","null","","","","","","<p><img src= images/blank.png width =""600"" height = ""600"" style=""position:fixed;top:50%; left:50%; transform: translate(-50%, -50%); border:5px solid black"">","","","","","","","",""
"","1070.2949999831617","sequential-stimulus-presentation-old","55","284970","0.0-15.0-1.5","SS1619739950567","trial","","40","500","1570.2949999831617","images/stimuli/spore_stims/simple_02_A_b.gif","images/stimuli/spore_stims/simple_06_A_a.gif","forced_short","","3","simple_dissimilar","images/stimuli/spore_stims/simple_06_A_a.gif","","","","",""
"","15041.70000005979","survey-multi-choice","56","300015","0.0-16.0","SS1619739950567","math_question","","","","","","","","","","","","{""Q0"":""17""}","[0]","17","",""
"","null","html-keyboard-response","57","300998","0.0-17.0-0.0","SS1619739950567","","","null","","","","","","<p><img src= images/blank.png width =""600"" height = ""600"" style=""position:fixed;top:50%; left:50%; transform: translate(-50%, -50%); border:5px solid black"">","","","","","","","",""
"","1075.2850000280887","sequential-stimulus-presentation-old","58","302587","0.0-17.0-1.0","SS1619739950567","trial","","40","500","1575.2850000280887","images/stimuli/spore_stims/complex_06_A_a.gif","images/stimuli/spore_stims/complex_14_A_b.gif","forced_short","","4","complex_dissimilar","images/stimuli/spore_stims/complex_14_A_b.gif","","","","",""
"","null","html-keyboard-response","59","303692","0.0-17.0-0.1","SS1619739950567","","","null","","","","","","<p><img src= images/blank.png width =""600"" height = ""600"" style=""position:fixed;top:50%; left:50%; transform: translate(-50%, -50%); border:5px solid black"">","","","","","","","",""
"","2855.8549999725074","sequential-stimulus-presentation-old","60","307054","0.0-17.0-1.1","SS1619739950567","trial","","40","500","3355.8549999725074","images/stimuli/spore_stims/complex_06_A_a.gif","images/stimuli/spore_stims/complex_14_A_b.gif","forced_short","","4","complex_dissimilar","images/stimuli/spore_stims/complex_14_A_b.gif","","","","",""
"","null","html-keyboard-response","61","308261","0.0-17.0-0.2","SS1619739950567","","","null","","","","","","<p><img src= images/blank.png width =""600"" height = ""600"" style=""position:fixed;top:50%; left:50%; transform: translate(-50%, -50%); border:5px solid black"">","","","","","","","",""
"","877.4250000715256","sequential-stimulus-presentation-old","62","309656","0.0-17.0-1.2","SS1619739950567","trial","","40","500","1377.4250000715256","images/stimuli/spore_stims/complex_06_A_a.gif","images/stimuli/spore_stims/complex_14_A_b.gif","forced_short","","4","complex_dissimilar","images/stimuli/spore_stims/complex_14_A_b.gif","","","","",""
"","null","html-keyboard-response","63","310535","0.0-17.0-0.3","SS1619739950567","","","null","","","","","","<p><img src= images/blank.png width =""600"" height = ""600"" style=""position:fixed;top:50%; left:50%; transform: translate(-50%, -50%); border:5px solid black"">","","","","","","","",""
"","1200.2649999922141","sequential-stimulus-presentation-old","64","312255","0.0-17.0-1.3","SS1619739950567","trial","","40","500","1700.2649999922141","images/stimuli/spore_stims/complex_06_A_a.gif","images/stimuli/spore_stims/complex_14_A_b.gif","forced_short","","4","complex_dissimilar","images/stimuli/spore_stims/complex_14_A_b.gif","","","","",""
"","null","html-keyboard-response","65","313463","0.0-17.0-0.4","SS1619739950567","","","null","","","","","","<p><img src= images/blank.png width =""600"" height = ""600"" style=""position:fixed;top:50%; left:50%; transform: translate(-50%, -50%); border:5px solid black"">","","","","","","","",""
"","782.5799999991432","sequential-stimulus-presentation-old","66","314759","0.0-17.0-1.4","SS1619739950567","trial","","40","500","1282.5799999991432","images/stimuli/spore_stims/complex_06_A_a.gif","images/stimuli/spore_stims/complex_14_A_b.gif","forced_short","","4","complex_dissimilar","images/stimuli/spore_stims/complex_14_A_b.gif","","","","",""
"","3641.330000013113","survey-multi-choice","67","318405","0.0-18.0","SS1619739950567","math_question","","","","","","","","","","","","{""Q0"":""5""}","[0]","5","",""
"","null","html-keyboard-response","68","319287","0.0-19.0-0.0","SS1619739950567","","","null","","","","","","<p><img src= images/blank.png width =""600"" height = ""600"" style=""position:fixed;top:50%; left:50%; transform: translate(-50%, -50%); border:5px solid black"">","","","","","","","",""
"","1745.1550000114366","sequential-stimulus-presentation-old","69","336049","0.0-19.0-1.0","SS1619739950567","trial","","40","500","2245.1550000114366","images/stimuli/spore_stims/complex_08_A_a.gif","images/stimuli/spore_stims/complex_13_A_b.gif","forced_long","","5","complex_dissimilar","images/stimuli/spore_stims/complex_13_A_b.gif","","","","",""
"","null","html-keyboard-response","70","337237","0.0-19.0-0.1","SS1619739950567","","","null","","","","","","<p><img src= images/blank.png width =""600"" height = ""600"" style=""position:fixed;top:50%; left:50%; transform: translate(-50%, -50%); border:5px solid black"">","","","","","","","",""
"","6993.179999990389","sequential-stimulus-presentation-old","71","344745","0.0-19.0-1.1","SS1619739950567","trial","","40","500","7493.179999990389","images/stimuli/spore_stims/complex_08_A_a.gif","images/stimuli/spore_stims/complex_13_A_b.gif","forced_long","","5","complex_dissimilar","images/stimuli/spore_stims/complex_13_A_b.gif","","","","",""
"","null","html-keyboard-response","72","345834","0.0-19.0-0.2","SS1619739950567","","","null","","","","","","<p><img src= images/blank.png width =""600"" height = ""600"" style=""position:fixed;top:50%; left:50%; transform: translate(-50%, -50%); border:5px solid black"">","","","","","","","",""
"","1121.129999984987","sequential-stimulus-presentation-old","73","347463","0.0-19.0-1.2","SS1619739950567","trial","","40","500","1621.129999984987","images/stimuli/spore_stims/complex_08_A_a.gif","images/stimuli/spore_stims/complex_13_A_b.gif","forced_long","","5","complex_dissimilar","images/stimuli/spore_stims/complex_13_A_b.gif","","","","",""
"","null","html-keyboard-response","74","348512","0.0-19.0-0.3","SS1619739950567","","","null","","","","","","<p><img src= images/blank.png width =""600"" height = ""600"" style=""position:fixed;top:50%; left:50%; transform: translate(-50%, -50%); border:5px solid black"">","","","","","","","",""
"","2706.860000034794","sequential-stimulus-presentation-old","75","351730","0.0-19.0-1.3","SS1619739950567","trial","","40","500","3206.860000034794","images/stimuli/spore_stims/complex_08_A_a.gif","images/stimuli/spore_stims/complex_13_A_b.gif","forced_long","","5","complex_dissimilar","images/stimuli/spore_stims/complex_08_A_a.gif","","","","",""
"","null","html-keyboard-response","76","352869","0.0-19.0-0.4","SS1619739950567","","","null","","","","","","<p><img src= images/blank.png width =""600"" height = ""600"" style=""position:fixed;top:50%; left:50%; transform: translate(-50%, -50%); border:5px solid black"">","","","","","","","",""
"","811.4749999949709","sequential-stimulus-presentation-old","77","354196","0.0-19.0-1.4","SS1619739950567","trial","","40","500","1311.4749999949709","images/stimuli/spore_stims/complex_08_A_a.gif","images/stimuli/spore_stims/complex_13_A_b.gif","forced_long","","5","complex_dissimilar","images/stimuli/spore_stims/complex_08_A_a.gif","","","","",""
"","2395.5400000559166","survey-multi-choice","78","356598","0.0-20.0","SS1619739950567","math_question","","","","","","","","","","","","{""Q0"":""14""}","[0]","14","",""
"","null","html-keyboard-response","79","357536","0.0-21.0-0.0","SS1619739950567","","","null","","","","","","<p><img src= images/blank.png width =""600"" height = ""600"" style=""position:fixed;top:50%; left:50%; transform: translate(-50%, -50%); border:5px solid black"">","","","","","","","",""
"","1376.7649999354035","sequential-stimulus-presentation-old","80","359423","0.0-21.0-1.0","SS1619739950567","trial","","40","500","1876.7649999354035","images/stimuli/spore_stims/simple_09_A_b.gif","images/stimuli/spore_stims/simple_05_A_a.gif","self_paced","","6","simple_dissimilar","images/stimuli/spore_stims/simple_05_A_a.gif","","","","",""
"","null","html-keyboard-response","81","360618","0.0-21.0-0.1","SS1619739950567","","","null","","","","","","<p><img src= images/blank.png width =""600"" height = ""600"" style=""position:fixed;top:50%; left:50%; transform: translate(-50%, -50%); border:5px solid black"">","","","","","","","",""
"","1219.0499999560416","sequential-stimulus-presentation-old","82","362347","0.0-21.0-1.1","SS1619739950567","trial","","40","500","1719.0499999560416","images/stimuli/spore_stims/simple_09_A_b.gif","images/stimuli/spore_stims/simple_05_A_a.gif","self_paced","","6","simple_dissimilar","images/stimuli/spore_stims/simple_05_A_a.gif","","","","",""
"","null","html-keyboard-response","83","363230","0.0-21.0-0.2","SS1619739950567","","","null","","","","","","<p><img src= images/blank.png width =""600"" height = ""600"" style=""position:fixed;top:50%; left:50%; transform: translate(-50%, -50%); border:5px solid black"">","","","","","","","",""
"","756.3800000352785","sequential-stimulus-presentation-old","84","364495","0.0-21.0-1.2","SS1619739950567","trial","","40","500","1256.3800000352785","images/stimuli/spore_stims/simple_09_A_b.gif","images/stimuli/spore_stims/simple_05_A_a.gif","self_paced","","6","simple_dissimilar","images/stimuli/spore_stims/simple_05_A_a.gif","","","","",""
"","null","html-keyboard-response","85","365487","0.0-21.0-0.3","SS1619739950567","","","null","","","","","","<p><img src= images/blank.png width =""600"" height = ""600"" style=""position:fixed;top:50%; left:50%; transform: translate(-50%, -50%); border:5px solid black"">","","","","","","","",""
"","998.4450000338256","sequential-stimulus-presentation-old","86","367001","0.0-21.0-1.3","SS1619739950567","trial","","40","500","1498.4450000338256","images/stimuli/spore_stims/simple_09_A_b.gif","images/stimuli/spore_stims/simple_05_A_a.gif","self_paced","","6","simple_dissimilar","images/stimuli/spore_stims/simple_05_A_a.gif","","","","",""
"","null","html-keyboard-response","87","368299","0.0-21.0-0.4","SS1619739950567","","","null","","","","","","<p><img src= images/blank.png width =""600"" height = ""600"" style=""position:fixed;top:50%; left:50%; transform: translate(-50%, -50%); border:5px solid black"">","","","","","","","",""
"","582.4199999915436","sequential-stimulus-presentation-old","88","369391","0.0-21.0-1.4","SS1619739950567","trial","","40","500","1082.4199999915436","images/stimuli/spore_stims/simple_09_A_b.gif","images/stimuli/spore_stims/simple_05_A_a.gif","self_paced","","6","simple_dissimilar","images/stimuli/spore_stims/simple_05_A_a.gif","","","","",""
"","null","html-keyboard-response","89","370231","0.0-21.0-0.5","SS1619739950567","","","null","","","","","","<p><img src= images/blank.png width =""600"" height = ""600"" style=""position:fixed;top:50%; left:50%; transform: translate(-50%, -50%); border:5px solid black"">","","","","","","","",""
"","1386.5500000538304","sequential-stimulus-presentation-old","90","372127","0.0-21.0-1.5","SS1619739950567","trial","","40","500","1886.5500000538304","images/stimuli/spore_stims/simple_09_A_b.gif","images/stimuli/spore_stims/simple_05_A_a.gif","self_paced","","6","simple_dissimilar","images/stimuli/spore_stims/simple_09_A_b.gif","","","","",""
"","5032.8800000716","survey-multi-choice","91","377165","0.0-22.0","SS1619739950567","math_question","","","","","","","","","","","","{""Q0"":""10""}","[0]","10","",""
"","null","html-keyboard-response","92","378167","0.0-23.0-0.0","SS1619739950567","","","null","","","","","","<p><img src= images/blank.png width =""600"" height = ""600"" style=""position:fixed;top:50%; left:50%; transform: translate(-50%, -50%); border:5px solid black"">","","","","","","","",""
"","4811.439999961294","sequential-stimulus-presentation-old","93","383495","0.0-23.0-1.0","SS1619739950567","trial","","40","500","5311.439999961294","images/stimuli/spore_stims/complex_14_A_a.gif","images/stimuli/spore_stims/complex_12_A_b.gif","forced_short","","7","complex_dissimilar","images/stimuli/spore_stims/complex_12_A_b.gif","","","","",""
"","null","html-keyboard-response","94","384708","0.0-23.0-0.1","SS1619739950567","","","null","","","","","","<p><img src= images/blank.png width =""600"" height = ""600"" style=""position:fixed;top:50%; left:50%; transform: translate(-50%, -50%); border:5px solid black"">","","","","","","","",""
"","1862.1949999360368","sequential-stimulus-presentation-old","95","387083","0.0-23.0-1.1","SS1619739950567","trial","","40","500","2362.1949999360368","images/stimuli/spore_stims/complex_14_A_a.gif","images/stimuli/spore_stims/complex_12_A_b.gif","forced_short","","7","complex_dissimilar","images/stimuli/spore_stims/complex_12_A_b.gif","","","","",""
"","null","html-keyboard-response","96","388135","0.0-23.0-0.2","SS1619739950567","","","null","","","","","","<p><img src= images/blank.png width =""600"" height = ""600"" style=""position:fixed;top:50%; left:50%; transform: translate(-50%, -50%); border:5px solid black"">","","","","","","","",""
"","1413.4600000688806","sequential-stimulus-presentation-old","97","390057","0.0-23.0-1.2","SS1619739950567","trial","","40","500","1913.4600000688806","images/stimuli/spore_stims/complex_14_A_a.gif","images/stimuli/spore_stims/complex_12_A_b.gif","forced_short","","7","complex_dissimilar","images/stimuli/spore_stims/complex_12_A_b.gif","","","","",""
"","null","html-keyboard-response","98","391054","0.0-23.0-0.3","SS1619739950567","","","null","","","","","","<p><img src= images/blank.png width =""600"" height = ""600"" style=""position:fixed;top:50%; left:50%; transform: translate(-50%, -50%); border:5px solid black"">","","","","","","","",""
"","836.490000016056","sequential-stimulus-presentation-old","99","392405","0.0-23.0-1.3","SS1619739950567","trial","","40","500","1336.490000016056","images/stimuli/spore_stims/complex_14_A_a.gif","images/stimuli/spore_stims/complex_12_A_b.gif","forced_short","","7","complex_dissimilar","images/stimuli/spore_stims/complex_12_A_b.gif","","","","",""
"","4903.4499999834225","survey-multi-choice","100","397315","0.0-24.0","SS1619739950567","math_question","","","","","","","","","","","","{""Q0"":""10""}","[0]","10","",""
"","null","html-keyboard-response","101","398285","0.0-25.0-0.0","SS1619739950567","","","null","","","","","","<p><img src= images/blank.png width =""600"" height = ""600"" style=""position:fixed;top:50%; left:50%; transform: translate(-50%, -50%); border:5px solid black"">","","","","","","","",""
"","563.4850000496954","sequential-stimulus-presentation-old","102","399361","0.0-25.0-1.0","SS1619739950567","trial","","40","500","1063.4850000496954","images/stimuli/spore_stims/simple_16_A_a.gif","images/stimuli/spore_stims/simple_01_A_b.gif","forced_short","","8","simple_dissimilar","images/stimuli/spore_stims/simple_01_A_b.gif","","","","",""
"","null","html-keyboard-response","103","400648","0.0-25.0-0.1","SS1619739950567","","","null","","","","","","<p><img src= images/blank.png width =""600"" height = ""600"" style=""position:fixed;top:50%; left:50%; transform: translate(-50%, -50%); border:5px solid black"">","","","","","","","",""
"","588.9400000451133","sequential-stimulus-presentation-old","104","401767","0.0-25.0-1.1","SS1619739950567","trial","","40","500","1088.9400000451133","images/stimuli/spore_stims/simple_16_A_a.gif","images/stimuli/spore_stims/simple_01_A_b.gif","forced_short","","8","simple_dissimilar","images/stimuli/spore_stims/simple_01_A_b.gif","","","","",""
"","null","html-keyboard-response","105","402632","0.0-25.0-0.2","SS1619739950567","","","null","","","","","","<p><img src= images/blank.png width =""600"" height = ""600"" style=""position:fixed;top:50%; left:50%; transform: translate(-50%, -50%); border:5px solid black"">","","","","","","","",""
"","1148.630000068806","sequential-stimulus-presentation-old","106","404288","0.0-25.0-1.2","SS1619739950567","trial","","40","500","1648.630000068806","images/stimuli/spore_stims/simple_16_A_a.gif","images/stimuli/spore_stims/simple_01_A_b.gif","forced_short","","8","simple_dissimilar","images/stimuli/spore_stims/simple_01_A_b.gif","","","","",""
"","null","html-keyboard-response","107","405345","0.0-25.0-0.3","SS1619739950567","","","null","","","","","","<p><img src= images/blank.png width =""600"" height = ""600"" style=""position:fixed;top:50%; left:50%; transform: translate(-50%, -50%); border:5px solid black"">","","","","","","","",""
"","603.084999951534","sequential-stimulus-presentation-old","108","406467","0.0-25.0-1.3","SS1619739950567","trial","","40","500","1103.084999951534","images/stimuli/spore_stims/simple_16_A_a.gif","images/stimuli/spore_stims/simple_01_A_b.gif","forced_short","","8","simple_dissimilar","images/stimuli/spore_stims/simple_01_A_b.gif","","","","",""
"","null","html-keyboard-response","109","407590","0.0-25.0-0.4","SS1619739950567","","","null","","","","","","<p><img src= images/blank.png width =""600"" height = ""600"" style=""position:fixed;top:50%; left:50%; transform: translate(-50%, -50%); border:5px solid black"">","","","","","","","",""
"","774.8150000115857","sequential-stimulus-presentation-old","110","408877","0.0-25.0-1.4","SS1619739950567","trial","","40","500","1274.8150000115857","images/stimuli/spore_stims/simple_16_A_a.gif","images/stimuli/spore_stims/simple_01_A_b.gif","forced_short","","8","simple_dissimilar","images/stimuli/spore_stims/simple_01_A_b.gif","","","","",""
"","4531.775000039488","survey-multi-choice","111","413415","0.0-26.0","SS1619739950567","math_question","","","","","","","","","","","","{""Q0"":""9""}","[0]","9","",""
"","null","html-keyboard-response","112","414401","0.0-27.0-0.0","SS1619739950567","","","null","","","","","","<p><img src= images/blank.png width =""600"" height = ""600"" style=""position:fixed;top:50%; left:50%; transform: translate(-50%, -50%); border:5px solid black"">","","","","","","","",""
"","530.7350000366569","sequential-stimulus-presentation-old","113","415441","0.0-27.0-1.0","SS1619739950567","trial","","40","500","1030.7350000366569","images/stimuli/spore_stims/complex_01_A_b.gif","images/stimuli/spore_stims/complex_13_A_a.gif","self_paced","","9","complex_dissimilar","images/stimuli/spore_stims/complex_13_A_a.gif","","","","",""
"","null","html-keyboard-response","114","416654","0.0-27.0-0.1","SS1619739950567","","","null","","","","","","<p><img src= images/blank.png width =""600"" height = ""600"" style=""position:fixed;top:50%; left:50%; transform: translate(-50%, -50%); border:5px solid black"">","","","","","","","",""
"","1352.9350000899285","sequential-stimulus-presentation-old","115","418520","0.0-27.0-1.1","SS1619739950567","trial","","40","500","1852.9350000899285","images/stimuli/spore_stims/complex_01_A_b.gif","images/stimuli/spore_stims/complex_13_A_a.gif","self_paced","","9","complex_dissimilar","images/stimuli/spore_stims/complex_13_A_a.gif","","","","",""
"","null","html-keyboard-response","116","419786","0.0-27.0-0.2","SS1619739950567","","","null","","","","","","<p><img src= images/blank.png width =""600"" height = ""600"" style=""position:fixed;top:50%; left:50%; transform: translate(-50%, -50%); border:5px solid black"">","","","","","","","",""
"","1604.1700000641868","sequential-stimulus-presentation-old","117","421919","0.0-27.0-1.2","SS1619739950567","trial","","40","500","2104.1700000641868","images/stimuli/spore_stims/complex_01_A_b.gif","images/stimuli/spore_stims/complex_13_A_a.gif","self_paced","","9","complex_dissimilar","images/stimuli/spore_stims/complex_01_A_b.gif","","","","",""
"","null","html-keyboard-response","118","423061","0.0-27.0-0.3","SS1619739950567","","","null","","","","","","<p><img src= images/blank.png width =""600"" height = ""600"" style=""position:fixed;top:50%; left:50%; transform: translate(-50%, -50%); border:5px solid black"">","","","","","","","",""
"","382.9149999655783","sequential-stimulus-presentation-old","119","423957","0.0-27.0-1.3","SS1619739950567","trial","","40","500","882.9149999655783","images/stimuli/spore_stims/complex_01_A_b.gif","images/stimuli/spore_stims/complex_13_A_a.gif","self_paced","","9","complex_dissimilar","images/stimuli/spore_stims/complex_13_A_a.gif","","","","",""
"","null","html-keyboard-response","120","425182","0.0-27.0-0.4","SS1619739950567","","","null","","","","","","<p><img src= images/blank.png width =""600"" height = ""600"" style=""position:fixed;top:50%; left:50%; transform: translate(-50%, -50%); border:5px solid black"">","","","","","","","",""
"","1621.735000051558","sequential-stimulus-presentation-old","121","427317","0.0-27.0-1.4","SS1619739950567","trial","","40","500","2121.735000051558","images/stimuli/spore_stims/complex_01_A_b.gif","images/stimuli/spore_stims/complex_13_A_a.gif","self_paced","","9","complex_dissimilar","images/stimuli/spore_stims/complex_01_A_b.gif","","","","",""
"","null","html-keyboard-response","122","428373","0.0-27.0-0.5","SS1619739950567","","","null","","","","","","<p><img src= images/blank.png width =""600"" height = ""600"" style=""position:fixed;top:50%; left:50%; transform: translate(-50%, -50%); border:5px solid black"">","","","","","","","",""
"","2304.1550000198185","sequential-stimulus-presentation-old","123","431204","0.0-27.0-1.5","SS1619739950567","trial","","40","500","2804.1550000198185","images/stimuli/spore_stims/complex_01_A_b.gif","images/stimuli/spore_stims/complex_13_A_a.gif","self_paced","","9","complex_dissimilar","images/stimuli/spore_stims/complex_13_A_a.gif","","","","",""
"","3916.4050000254065","survey-multi-choice","124","435126","0.0-28.0","SS1619739950567","math_question","","","","","","","","","","","","{""Q0"":""12""}","[0]","12","",""
"","null","html-keyboard-response","125","436329","0.0-29.0-0.0","SS1619739950567","","","null","","","","","","<p><img src= images/blank.png width =""600"" height = ""600"" style=""position:fixed;top:50%; left:50%; transform: translate(-50%, -50%); border:5px solid black"">","","","","","","","",""
"","1842.1300000045449","sequential-stimulus-presentation-old","126","438680","0.0-29.0-1.0","SS1619739950567","trial","","40","500","2342.130000004545","images/stimuli/spore_stims/simple_08_A_a.gif","images/stimuli/spore_stims/simple_14_A_b.gif","self_paced","","10","simple_dissimilar","images/stimuli/spore_stims/simple_14_A_b.gif","","","","",""
"","null","html-keyboard-response","127","439709","0.0-29.0-0.1","SS1619739950567","","","null","","","","","","<p><img src= images/blank.png width =""600"" height = ""600"" style=""position:fixed;top:50%; left:50%; transform: translate(-50%, -50%); border:5px solid black"">","","","","","","","",""
"","76.92000002134591","sequential-stimulus-presentation-old","128","440295","0.0-29.0-1.1","SS1619739950567","trial","","40","500","576.9200000213459","images/stimuli/spore_stims/simple_08_A_a.gif","images/stimuli/spore_stims/simple_14_A_b.gif","self_paced","","10","simple_dissimilar","images/stimuli/spore_stims/simple_14_A_b.gif","","","","",""
"","null","html-keyboard-response","129","441139","0.0-29.0-0.2","SS1619739950567","","","null","","","","","","<p><img src= images/blank.png width =""600"" height = ""600"" style=""position:fixed;top:50%; left:50%; transform: translate(-50%, -50%); border:5px solid black"">","","","","","","","",""
"","6229.829999967478","sequential-stimulus-presentation-old","130","447877","0.0-29.0-1.2","SS1619739950567","trial","","40","500","6729.829999967478","images/stimuli/spore_stims/simple_08_A_a.gif","images/stimuli/spore_stims/simple_14_A_b.gif","self_paced","","10","simple_dissimilar","images/stimuli/spore_stims/simple_14_A_b.gif","","","","",""
"","null","html-keyboard-response","131","448745","0.0-29.0-0.3","SS1619739950567","","","null","","","","","","<p><img src= images/blank.png width =""600"" height = ""600"" style=""position:fixed;top:50%; left:50%; transform: translate(-50%, -50%); border:5px solid black"">","","","","","","","",""
"","624.3949999334291","sequential-stimulus-presentation-old","132","449877","0.0-29.0-1.3","SS1619739950567","trial","","40","500","1124.394999933429","images/stimuli/spore_stims/simple_08_A_a.gif","images/stimuli/spore_stims/simple_14_A_b.gif","self_paced","","10","simple_dissimilar","images/stimuli/spore_stims/simple_14_A_b.gif","","","","",""
"","2524.3400000035763","survey-multi-choice","133","452409","0.0-30.0","SS1619739950567","math_question","","","","","","","","","","","","{""Q0"":""2""}","[0]","2","",""
"","null","html-keyboard-response","134","453634","0.0-31.0-0.0","SS1619739950567","","","null","","","","","","<p><img src= images/blank.png width =""600"" height = ""600"" style=""position:fixed;top:50%; left:50%; transform: translate(-50%, -50%); border:5px solid black"">","","","","","","","",""
"","1294.3799999775365","sequential-stimulus-presentation-old","135","469945","0.0-31.0-1.0","SS1619739950567","trial","","40","500","1794.3799999775365","images/stimuli/spore_stims/simple_09_A_a.gif","images/stimuli/spore_stims/simple_19_A_b.gif","forced_long","","11","simple_dissimilar","images/stimuli/spore_stims/simple_19_A_b.gif","","","","",""
"","null","html-keyboard-response","136","471153","0.0-31.0-0.1","SS1619739950567","","","null","","","","","","<p><img src= images/blank.png width =""600"" height = ""600"" style=""position:fixed;top:50%; left:50%; transform: translate(-50%, -50%); border:5px solid black"">","","","","","","","",""
"","7410.340000060387","sequential-stimulus-presentation-old","137","479073","0.0-31.0-1.1","SS1619739950567","trial","","40","500","7910.340000060387","images/stimuli/spore_stims/simple_09_A_a.gif","images/stimuli/spore_stims/simple_19_A_b.gif","forced_long","","11","simple_dissimilar","images/stimuli/spore_stims/simple_09_A_a.gif","","","","",""
"","null","html-keyboard-response","138","480108","0.0-31.0-0.2","SS1619739950567","","","null","","","","","","<p><img src= images/blank.png width =""600"" height = ""600"" style=""position:fixed;top:50%; left:50%; transform: translate(-50%, -50%); border:5px solid black"">","","","","","","","",""
"","1313.3300000336021","sequential-stimulus-presentation-old","139","481930","0.0-31.0-1.2","SS1619739950567","trial","","40","500","1813.3300000336021","images/stimuli/spore_stims/simple_09_A_a.gif","images/stimuli/spore_stims/simple_19_A_b.gif","forced_long","","11","simple_dissimilar","images/stimuli/spore_stims/simple_09_A_a.gif","","","","",""
"","null","html-keyboard-response","140","483219","0.0-31.0-0.3","SS1619739950567","","","null","","","","","","<p><img src= images/blank.png width =""600"" height = ""600"" style=""position:fixed;top:50%; left:50%; transform: translate(-50%, -50%); border:5px solid black"">","","","","","","","",""
"","1226.8700000131503","sequential-stimulus-presentation-old","141","484963","0.0-31.0-1.3","SS1619739950567","trial","","40","500","1726.8700000131503","images/stimuli/spore_stims/simple_09_A_a.gif","images/stimuli/spore_stims/simple_19_A_b.gif","forced_long","","11","simple_dissimilar","images/stimuli/spore_stims/simple_19_A_b.gif","","","","",""
"[{""page_index"":0,""viewing_time"":4447.464999975637}]","4447.914999909699","instructions","142","489417","0.0-32.0","SS1619739950567","instructions","","","","","","","","","","","","","","","",""
"","10544.60999998264","survey-likert","143","499972","0.0-33.0","SS1619739950567","similarity_question","","","","","","","","","","","","{""Q0"":4}","[0]","","images/stimuli/spore_stims/simple_09_A_a.gif","images/stimuli/spore_stims/simple_19_A_b.gif"
"","5511.315000010654","survey-likert","144","505493","0.0-34.0","SS1619739950567","similarity_question","","","","","","","","","","","","{""Q0"":6}","[0]","","images/stimuli/spore_stims/simple_06_A_a.gif","images/stimuli/spore_stims/simple_02_A_b.gif"
"","14821.009999956004","survey-likert","145","520325","0.0-35.0","SS1619739950567","similarity_question","","","","","","","","","","","","{""Q0"":2}","[0]","","images/stimuli/spore_stims/complex_12_A_b.gif","images/stimuli/spore_stims/complex_14_A_a.gif"
"","14925.625000032596","survey-likert","146","535262","0.0-36.0","SS1619739950567","similarity_question","","","","","","","","","","","","{""Q0"":3}","[0]","","images/stimuli/spore_stims/complex_01_A_b.gif","images/stimuli/spore_stims/complex_13_A_a.gif"
"","3753.7550000706688","survey-likert","147","539025","0.0-37.0","SS1619739950567","similarity_question","","","","","","","","","","","","{""Q0"":4}","[0]","","images/stimuli/spore_stims/simple_16_A_a.gif","images/stimuli/spore_stims/simple_01_A_b.gif"
"","5124.680000008084","survey-likert","148","544161","0.0-38.0","SS1619739950567","similarity_question","","","","","","","","","","","","{""Q0"":4}","[0]","","images/stimuli/spore_stims/simple_12_A_a.gif","images/stimuli/spore_stims/simple_07_A_b.gif"
"","4122.970000025816","survey-likert","149","548297","0.0-39.0","SS1619739950567","similarity_question","","","","","","","","","","","","{""Q0"":5}","[0]","","images/stimuli/spore_stims/simple_14_A_b.gif","images/stimuli/spore_stims/simple_08_A_a.gif"
"","3906.195000046864","survey-likert","150","552213","0.0-40.0","SS1619739950567","similarity_question","","","","","","","","","","","","{""Q0"":5}","[0]","","images/stimuli/spore_stims/simple_05_A_a.gif","images/stimuli/spore_stims/simple_09_A_b.gif"
"","9104.114999994636","survey-likert","151","561327","0.0-41.0","SS1619739950567","similarity_question","","","","","","","","","","","","{""Q0"":3}","[0]","","images/stimuli/spore_stims/complex_10_A_a.gif","images/stimuli/spore_stims/complex_16_A_b.gif"
"","4722.744999919087","survey-likert","152","566060","0.0-42.0","SS1619739950567","similarity_question","","","","","","","","","","","","{""Q0"":2}","[0]","","images/stimuli/spore_stims/complex_08_A_a.gif","images/stimuli/spore_stims/complex_13_A_b.gif"
"","5863.880000077188","survey-likert","153","571936","0.0-43.0","SS1619739950567","similarity_question","","","","","","","","","","","","{""Q0"":2}","[0]","","images/stimuli/spore_stims/complex_06_A_b.gif","images/stimuli/spore_stims/complex_05_A_a.gif"
"","5420.795000041835","survey-likert","154","577367","0.0-44.0","SS1619739950567","similarity_question","","","","","","","","","","","","{""Q0"":4}","[0]","","images/stimuli/spore_stims/complex_14_A_b.gif","images/stimuli/spore_stims/complex_06_A_a.gif"
"[{""page_index"":0,""viewing_time"":3625.209999969229}]","3625.8499999530613","instructions","155","581001","0.0-45.0","SS1619739950567","instructions","","","","","","","","","","","","","","","",""
"","6402.4549999739975","survey-likert","156","587413","0.0-46.0","SS1619739950567","","","","","","","","","images/stimuli/spore_stims/complex_01_A_b.gif","","","","{""Q0"":2}","[0]","","",""
"","6500.439999974333","survey-likert","157","593924","0.0-47.0","SS1619739950567","","","","","","","","","images/stimuli/spore_stims/simple_14_A_b.gif","","","","{""Q0"":3}","[0]","","",""
"","1895.1250000391155","survey-likert","158","595830","0.0-48.0","SS1619739950567","","","","","","","","","images/stimuli/spore_stims/simple_16_A_a.gif","","","","{""Q0"":3}","[0]","","",""
"","9750.78499992378","survey-likert","159","605590","0.0-49.0","SS1619739950567","","","","","","","","","images/stimuli/spore_stims/complex_13_A_b.gif","","","","{""Q0"":3}","[0]","","",""
"","2485.2350000292063","survey-likert","160","608085","0.0-50.0","SS1619739950567","","","","","","","","","images/stimuli/spore_stims/simple_12_A_a.gif","","","","{""Q0"":3}","[0]","","",""
"","2640.030000009574","survey-likert","161","610734","0.0-51.0","SS1619739950567","","","","","","","","","images/stimuli/spore_stims/complex_14_A_a.gif","","","","{""Q0"":4}","[0]","","",""
"","8088.804999948479","survey-likert","162","618833","0.0-52.0","SS1619739950567","","","","","","","","","images/stimuli/spore_stims/complex_16_A_b.gif","","","","{""Q0"":3}","[0]","","",""
"","4643.834999995306","survey-likert","163","623486","0.0-53.0","SS1619739950567","","","","","","","","","images/stimuli/spore_stims/complex_06_A_b.gif","","","","{""Q0"":4}","[0]","","",""
"","2801.439999951981","survey-likert","164","626297","0.0-54.0","SS1619739950567","","","","","","","","","images/stimuli/spore_stims/simple_09_A_a.gif","","","","{""Q0"":3}","[0]","","",""
"","3052.1949999965727","survey-likert","165","629360","0.0-55.0","SS1619739950567","","","","","","","","","images/stimuli/spore_stims/simple_02_A_b.gif","","","","{""Q0"":3}","[0]","","",""
"","4434.465000056662","survey-likert","166","633810","0.0-56.0","SS1619739950567","","","","","","","","","images/stimuli/spore_stims/simple_09_A_b.gif","","","","{""Q0"":3}","[0]","","",""
"","8126.384999952279","survey-likert","167","641947","0.0-57.0","SS1619739950567","","","","","","","","","images/stimuli/spore_stims/complex_14_A_b.gif","","","","{""Q0"":4}","[0]","","",""
"[{""page_index"":0,""viewing_time"":2291.605000034906}]","2292.020000051707","instructions","168","644248","0.0-58.0","SS1619739950567","instructions","","","","","","","","","","","","","","","",""
"","5543.739999993704","demog-age","169","649804","0.0-59.0","SS1619739950567","","","","","","","","","","","","","{""age"":""21""}","","","",""
"","8675.870000035502","demog-ethnic-US","170","658495","0.0-60.0","SS1619739950567","","","","","","","","","","","","","{""ethnicity"":[""White""]}","[0]","","",""
"","7350.929999956861","demog-gender-and-education","171","665856","0.0-61.0","SS1619739950567","","","","","","","","","","","","","{""gender"":""Female"",""education"":""Bachelor's Degree""}","[0,1]","","",""
"","21241.249999962747","survey-text","172","687113","0.0-62.0","SS1619739950567","feedback","","","","","","","","","","","","{""Q0"":""No""}","","","",""
"[{""page_index"":0,""viewing_time"":1161.204999894835}]","1161.7499999701977","instructions","173","688283","0.0-63.0","SS1619739950567","instructions","","","","","","","","","","","","","","","",""
