"view_history","rt","trial_type","trial_index","time_elapsed","internal_node_id","subject","stimulus_type","trial_stimulus","key_press","minimum_viewing_duration","trial_looking_time","block_deviant","block_background","exposure_type","stimulus","block_number","block_type","stimulus_displayed","responses","question_order","math_correct_answer","stimulus_left","stimulus_right"
"[{""page_index"":0,""viewing_time"":13138.200000017881}]","13139.200000017881","instructions","0","13140","0.0-0.0","SS1619739824111","","","","","","","","","","","","","","","","",""
"[{""page_index"":0,""viewing_time"":13019.299999982119},{""page_index"":1,""viewing_time"":4858}]","17877.59999999404","instructions","1","33021","0.0-1.0","SS1619739824111","instructions","","","","","","","","","","","","","","","",""
"","5772.299999982119","sequential-stimulus-presentation-old","2","39298","0.0-2.0","SS1619739824111","","","40","500","6272.299999982119","null","null","self_paced","","","","","","","","",""
"","3137.199999988079","sequential-stimulus-presentation-old","3","42937","0.0-3.0","SS1619739824111","","","40","500","3637.199999988079","null","null","self_paced","","","","","","","","",""
"[{""page_index"":0,""viewing_time"":1179.1000000238419}]","1179.2000000178814","instructions","4","44117","0.0-4.0","SS1619739824111","instructions","","","","","","","","","","","","","","","",""
"","625","sequential-stimulus-presentation-old","5","59744","0.0-5.0","SS1619739824111","","","40","500","1125","null","null","forced_long","","","","","","","","",""
"","692.9000000059605","sequential-stimulus-presentation-old","6","60948","0.0-6.0","SS1619739824111","","","40","500","1192.9000000059605","null","null","forced_long","","","","","","","","",""
"[{""page_index"":0,""viewing_time"":7252.0999999940395}]","7252.4000000059605","instructions","7","68201","0.0-7.0","SS1619739824111","instructions","","","","","","","","","","","","","","","",""
"[{""page_index"":0,""viewing_time"":10032.59999999404},{""page_index"":1,""viewing_time"":10214},{""page_index"":2,""viewing_time"":6524.299999982119},{""page_index"":3,""viewing_time"":1739.800000011921},{""page_index"":4,""viewing_time"":984}]","29495","instructions","8","97697","0.0-8.0","SS1619739824111","instructions","","","","","","","","","","","","","","","",""
"","null","html-keyboard-response","9","98586","0.0-9.0-0.0","SS1619739824111","","","null","","","","","","<p><img src= images/blank.png width =""600"" height = ""600"" style=""position:fixed;top:50%; left:50%; transform: translate(-50%, -50%); border:5px solid black"">","","","","","","","",""
"","8039.5999999940395","sequential-stimulus-presentation-old","10","107130","0.0-9.0-1.0","SS1619739824111","trial","","40","500","8539.59999999404","images/stimuli/spore_stims/simple_04_A_b.gif","images/stimuli/spore_stims/simple_06_A_a.gif","self_paced","","0","simple_dissimilar","images/stimuli/spore_stims/simple_06_A_a.gif","","","","",""
"","null","html-keyboard-response","11","108199","0.0-9.0-0.1","SS1619739824111","","","null","","","","","","<p><img src= images/blank.png width =""600"" height = ""600"" style=""position:fixed;top:50%; left:50%; transform: translate(-50%, -50%); border:5px solid black"">","","","","","","","",""
"","15678.699999988079","sequential-stimulus-presentation-old","12","124380","0.0-9.0-1.1","SS1619739824111","trial","","40","500","16178.699999988079","images/stimuli/spore_stims/simple_04_A_b.gif","images/stimuli/spore_stims/simple_06_A_a.gif","self_paced","","0","simple_dissimilar","images/stimuli/spore_stims/simple_06_A_a.gif","","","","",""
"","null","html-keyboard-response","13","125378","0.0-9.0-0.2","SS1619739824111","","","null","","","","","","<p><img src= images/blank.png width =""600"" height = ""600"" style=""position:fixed;top:50%; left:50%; transform: translate(-50%, -50%); border:5px solid black"">","","","","","","","",""
"","3733.0999999940395","sequential-stimulus-presentation-old","14","129614","0.0-9.0-1.2","SS1619739824111","trial","","40","500","4233.0999999940395","images/stimuli/spore_stims/simple_04_A_b.gif","images/stimuli/spore_stims/simple_06_A_a.gif","self_paced","","0","simple_dissimilar","images/stimuli/spore_stims/simple_06_A_a.gif","","","","",""
"","null","html-keyboard-response","15","130876","0.0-9.0-0.3","SS1619739824111","","","null","","","","","","<p><img src= images/blank.png width =""600"" height = ""600"" style=""position:fixed;top:50%; left:50%; transform: translate(-50%, -50%); border:5px solid black"">","","","","","","","",""
"","5561.300000011921","sequential-stimulus-presentation-old","16","136940","0.0-9.0-1.3","SS1619739824111","trial","","40","500","6061.300000011921","images/stimuli/spore_stims/simple_04_A_b.gif","images/stimuli/spore_stims/simple_06_A_a.gif","self_paced","","0","simple_dissimilar","images/stimuli/spore_stims/simple_04_A_b.gif","","","","",""
"","4926.800000011921","survey-multi-choice","17","141870","0.0-10.0","SS1619739824111","math_question","","","","","","","","","","","","{""Q0"":""7""}","[0]","7","",""
"","null","html-keyboard-response","18","142749","0.0-11.0-0.0","SS1619739824111","","","null","","","","","","<p><img src= images/blank.png width =""600"" height = ""600"" style=""position:fixed;top:50%; left:50%; transform: translate(-50%, -50%); border:5px solid black"">","","","","","","","",""
"","3806.800000011921","sequential-stimulus-presentation-old","19","147059","0.0-11.0-1.0","SS1619739824111","trial","","40","500","4306.800000011921","images/stimuli/spore_stims/complex_07_A_a.gif","images/stimuli/spore_stims/complex_01_A_b.gif","self_paced","","1","complex_dissimilar","images/stimuli/spore_stims/complex_01_A_b.gif","","","","",""
"","null","html-keyboard-response","20","148042","0.0-11.0-0.1","SS1619739824111","","","null","","","","","","<p><img src= images/blank.png width =""600"" height = ""600"" style=""position:fixed;top:50%; left:50%; transform: translate(-50%, -50%); border:5px solid black"">","","","","","","","",""
"","2987.0999999940395","sequential-stimulus-presentation-old","21","151532","0.0-11.0-1.1","SS1619739824111","trial","","40","500","3487.0999999940395","images/stimuli/spore_stims/complex_07_A_a.gif","images/stimuli/spore_stims/complex_01_A_b.gif","self_paced","","1","complex_dissimilar","images/stimuli/spore_stims/complex_01_A_b.gif","","","","",""
"","null","html-keyboard-response","22","152364","0.0-11.0-0.2","SS1619739824111","","","null","","","","","","<p><img src= images/blank.png width =""600"" height = ""600"" style=""position:fixed;top:50%; left:50%; transform: translate(-50%, -50%); border:5px solid black"">","","","","","","","",""
"","5128.799999982119","sequential-stimulus-presentation-old","23","157995","0.0-11.0-1.2","SS1619739824111","trial","","40","500","5628.799999982119","images/stimuli/spore_stims/complex_07_A_a.gif","images/stimuli/spore_stims/complex_01_A_b.gif","self_paced","","1","complex_dissimilar","images/stimuli/spore_stims/complex_07_A_a.gif","","","","",""
"","null","html-keyboard-response","24","158943","0.0-11.0-0.3","SS1619739824111","","","null","","","","","","<p><img src= images/blank.png width =""600"" height = ""600"" style=""position:fixed;top:50%; left:50%; transform: translate(-50%, -50%); border:5px solid black"">","","","","","","","",""
"","4791.200000017881","sequential-stimulus-presentation-old","25","164238","0.0-11.0-1.3","SS1619739824111","trial","","40","500","5291.200000017881","images/stimuli/spore_stims/complex_07_A_a.gif","images/stimuli/spore_stims/complex_01_A_b.gif","self_paced","","1","complex_dissimilar","images/stimuli/spore_stims/complex_07_A_a.gif","","","","",""
"","null","html-keyboard-response","26","165222","0.0-11.0-0.4","SS1619739824111","","","null","","","","","","<p><img src= images/blank.png width =""600"" height = ""600"" style=""position:fixed;top:50%; left:50%; transform: translate(-50%, -50%); border:5px solid black"">","","","","","","","",""
"","3929.899999976158","sequential-stimulus-presentation-old","27","169654","0.0-11.0-1.4","SS1619739824111","trial","","40","500","4429.899999976158","images/stimuli/spore_stims/complex_07_A_a.gif","images/stimuli/spore_stims/complex_01_A_b.gif","self_paced","","1","complex_dissimilar","images/stimuli/spore_stims/complex_01_A_b.gif","","","","",""
"","3443.9000000059605","survey-multi-choice","28","173099","0.0-12.0","SS1619739824111","math_question","","","","","","","","","","","","{""Q0"":""16""}","[0]","16","",""
"","null","html-keyboard-response","29","174013","0.0-13.0-0.0","SS1619739824111","","","null","","","","","","<p><img src= images/blank.png width =""600"" height = ""600"" style=""position:fixed;top:50%; left:50%; transform: translate(-50%, -50%); border:5px solid black"">","","","","","","","",""
"","9285.5","sequential-stimulus-presentation-old","30","198301","0.0-13.0-1.0","SS1619739824111","trial","","40","500","9785.5","images/stimuli/spore_stims/complex_09_A_a.gif","images/stimuli/spore_stims/complex_06_A_b.gif","forced_long","","2","complex_dissimilar","images/stimuli/spore_stims/complex_06_A_b.gif","","","","",""
"","null","html-keyboard-response","31","199498","0.0-13.0-0.1","SS1619739824111","","","null","","","","","","<p><img src= images/blank.png width =""600"" height = ""600"" style=""position:fixed;top:50%; left:50%; transform: translate(-50%, -50%); border:5px solid black"">","","","","","","","",""
"","2393.5999999940395","sequential-stimulus-presentation-old","32","202396","0.0-13.0-1.1","SS1619739824111","trial","","40","500","2893.5999999940395","images/stimuli/spore_stims/complex_09_A_a.gif","images/stimuli/spore_stims/complex_06_A_b.gif","forced_long","","2","complex_dissimilar","images/stimuli/spore_stims/complex_06_A_b.gif","","","","",""
"","null","html-keyboard-response","33","203642","0.0-13.0-0.2","SS1619739824111","","","null","","","","","","<p><img src= images/blank.png width =""600"" height = ""600"" style=""position:fixed;top:50%; left:50%; transform: translate(-50%, -50%); border:5px solid black"">","","","","","","","",""
"","1832.5","sequential-stimulus-presentation-old","34","205979","0.0-13.0-1.2","SS1619739824111","trial","","40","500","2332.5","images/stimuli/spore_stims/complex_09_A_a.gif","images/stimuli/spore_stims/complex_06_A_b.gif","forced_long","","2","complex_dissimilar","images/stimuli/spore_stims/complex_06_A_b.gif","","","","",""
"","null","html-keyboard-response","35","207028","0.0-13.0-0.3","SS1619739824111","","","null","","","","","","<p><img src= images/blank.png width =""600"" height = ""600"" style=""position:fixed;top:50%; left:50%; transform: translate(-50%, -50%); border:5px solid black"">","","","","","","","",""
"","1851.5999999940395","sequential-stimulus-presentation-old","36","209382","0.0-13.0-1.3","SS1619739824111","trial","","40","500","2351.5999999940395","images/stimuli/spore_stims/complex_09_A_a.gif","images/stimuli/spore_stims/complex_06_A_b.gif","forced_long","","2","complex_dissimilar","images/stimuli/spore_stims/complex_09_A_a.gif","","","","",""
"","null","html-keyboard-response","37","210631","0.0-13.0-0.4","SS1619739824111","","","null","","","","","","<p><img src= images/blank.png width =""600"" height = ""600"" style=""position:fixed;top:50%; left:50%; transform: translate(-50%, -50%); border:5px solid black"">","","","","","","","",""
"","1838.0999999940395","sequential-stimulus-presentation-old","38","212973","0.0-13.0-1.4","SS1619739824111","trial","","40","500","2338.0999999940395","images/stimuli/spore_stims/complex_09_A_a.gif","images/stimuli/spore_stims/complex_06_A_b.gif","forced_long","","2","complex_dissimilar","images/stimuli/spore_stims/complex_06_A_b.gif","","","","",""
"","null","html-keyboard-response","39","214000","0.0-13.0-0.5","SS1619739824111","","","null","","","","","","<p><img src= images/blank.png width =""600"" height = ""600"" style=""position:fixed;top:50%; left:50%; transform: translate(-50%, -50%); border:5px solid black"">","","","","","","","",""
"","1688.800000011921","sequential-stimulus-presentation-old","40","216191","0.0-13.0-1.5","SS1619739824111","trial","","40","500","2188.800000011921","images/stimuli/spore_stims/complex_09_A_a.gif","images/stimuli/spore_stims/complex_06_A_b.gif","forced_long","","2","complex_dissimilar","images/stimuli/spore_stims/complex_06_A_b.gif","","","","",""
"","3255.100000023842","survey-multi-choice","41","219448","0.0-14.0","SS1619739824111","math_question","","","","","","","","","","","","{""Q0"":""13""}","[0]","13","",""
"","null","html-keyboard-response","42","220577","0.0-15.0-0.0","SS1619739824111","","","null","","","","","","<p><img src= images/blank.png width =""600"" height = ""600"" style=""position:fixed;top:50%; left:50%; transform: translate(-50%, -50%); border:5px solid black"">","","","","","","","",""
"","30368.29999998212","sequential-stimulus-presentation-old","43","251449","0.0-15.0-1.0","SS1619739824111","trial","","40","500","30868.29999998212","images/stimuli/spore_stims/simple_15_A_a.gif","images/stimuli/spore_stims/simple_08_A_b.gif","forced_short","","3","simple_dissimilar","images/stimuli/spore_stims/simple_08_A_b.gif","","","","",""
"","null","html-keyboard-response","44","252578","0.0-15.0-0.1","SS1619739824111","","","null","","","","","","<p><img src= images/blank.png width =""600"" height = ""600"" style=""position:fixed;top:50%; left:50%; transform: translate(-50%, -50%); border:5px solid black"">","","","","","","","",""
"","1890.9000000059605","sequential-stimulus-presentation-old","45","254972","0.0-15.0-1.1","SS1619739824111","trial","","40","500","2390.9000000059605","images/stimuli/spore_stims/simple_15_A_a.gif","images/stimuli/spore_stims/simple_08_A_b.gif","forced_short","","3","simple_dissimilar","images/stimuli/spore_stims/simple_08_A_b.gif","","","","",""
"","null","html-keyboard-response","46","256270","0.0-15.0-0.2","SS1619739824111","","","null","","","","","","<p><img src= images/blank.png width =""600"" height = ""600"" style=""position:fixed;top:50%; left:50%; transform: translate(-50%, -50%); border:5px solid black"">","","","","","","","",""
"","627.1000000238419","sequential-stimulus-presentation-old","47","257400","0.0-15.0-1.2","SS1619739824111","trial","","40","500","1127.1000000238419","images/stimuli/spore_stims/simple_15_A_a.gif","images/stimuli/spore_stims/simple_08_A_b.gif","forced_short","","3","simple_dissimilar","images/stimuli/spore_stims/simple_15_A_a.gif","","","","",""
"","null","html-keyboard-response","48","258560","0.0-15.0-0.3","SS1619739824111","","","null","","","","","","<p><img src= images/blank.png width =""600"" height = ""600"" style=""position:fixed;top:50%; left:50%; transform: translate(-50%, -50%); border:5px solid black"">","","","","","","","",""
"","2715.7999999821186","sequential-stimulus-presentation-old","49","261781","0.0-15.0-1.3","SS1619739824111","trial","","40","500","3215.7999999821186","images/stimuli/spore_stims/simple_15_A_a.gif","images/stimuli/spore_stims/simple_08_A_b.gif","forced_short","","3","simple_dissimilar","images/stimuli/spore_stims/simple_08_A_b.gif","","","","",""
"","23113","survey-multi-choice","50","284895","0.0-16.0","SS1619739824111","math_question","","","","","","","","","","","","{""Q0"":""2""}","[0]","2","",""
"","null","html-keyboard-response","51","285787","0.0-17.0-0.0","SS1619739824111","","","null","","","","","","<p><img src= images/blank.png width =""600"" height = ""600"" style=""position:fixed;top:50%; left:50%; transform: translate(-50%, -50%); border:5px solid black"">","","","","","","","",""
"","17504.29999998212","sequential-stimulus-presentation-old","52","318295","0.0-17.0-1.0","SS1619739824111","trial","","40","500","18004.29999998212","images/stimuli/spore_stims/simple_16_A_b.gif","images/stimuli/spore_stims/simple_19_A_a.gif","forced_long","","4","simple_dissimilar","images/stimuli/spore_stims/simple_19_A_a.gif","","","","",""
"","null","html-keyboard-response","53","319143","0.0-17.0-0.1","SS1619739824111","","","null","","","","","","<p><img src= images/blank.png width =""600"" height = ""600"" style=""position:fixed;top:50%; left:50%; transform: translate(-50%, -50%); border:5px solid black"">","","","","","","","",""
"","1534.5","sequential-stimulus-presentation-old","54","321181","0.0-17.0-1.1","SS1619739824111","trial","","40","500","2034.5","images/stimuli/spore_stims/simple_16_A_b.gif","images/stimuli/spore_stims/simple_19_A_a.gif","forced_long","","4","simple_dissimilar","images/stimuli/spore_stims/simple_16_A_b.gif","","","","",""
"","null","html-keyboard-response","55","322170","0.0-17.0-0.2","SS1619739824111","","","null","","","","","","<p><img src= images/blank.png width =""600"" height = ""600"" style=""position:fixed;top:50%; left:50%; transform: translate(-50%, -50%); border:5px solid black"">","","","","","","","",""
"","1710.699999988079","sequential-stimulus-presentation-old","56","324384","0.0-17.0-1.2","SS1619739824111","trial","","40","500","2210.699999988079","images/stimuli/spore_stims/simple_16_A_b.gif","images/stimuli/spore_stims/simple_19_A_a.gif","forced_long","","4","simple_dissimilar","images/stimuli/spore_stims/simple_16_A_b.gif","","","","",""
"","null","html-keyboard-response","57","325655","0.0-17.0-0.3","SS1619739824111","","","null","","","","","","<p><img src= images/blank.png width =""600"" height = ""600"" style=""position:fixed;top:50%; left:50%; transform: translate(-50%, -50%); border:5px solid black"">","","","","","","","",""
"","1647.5","sequential-stimulus-presentation-old","58","327806","0.0-17.0-1.3","SS1619739824111","trial","","40","500","2147.5","images/stimuli/spore_stims/simple_16_A_b.gif","images/stimuli/spore_stims/simple_19_A_a.gif","forced_long","","4","simple_dissimilar","images/stimuli/spore_stims/simple_19_A_a.gif","","","","",""
"","null","html-keyboard-response","59","328764","0.0-17.0-0.4","SS1619739824111","","","null","","","","","","<p><img src= images/blank.png width =""600"" height = ""600"" style=""position:fixed;top:50%; left:50%; transform: translate(-50%, -50%); border:5px solid black"">","","","","","","","",""
"","1549.8999999761581","sequential-stimulus-presentation-old","60","330817","0.0-17.0-1.4","SS1619739824111","trial","","40","500","2049.899999976158","images/stimuli/spore_stims/simple_16_A_b.gif","images/stimuli/spore_stims/simple_19_A_a.gif","forced_long","","4","simple_dissimilar","images/stimuli/spore_stims/simple_19_A_a.gif","","","","",""
"","2655.9000000059605","survey-multi-choice","61","333475","0.0-18.0","SS1619739824111","math_question","","","","","","","","","","","","{""Q0"":""10""}","[0]","10","",""
"","null","html-keyboard-response","62","334515","0.0-19.0-0.0","SS1619739824111","","","null","","","","","","<p><img src= images/blank.png width =""600"" height = ""600"" style=""position:fixed;top:50%; left:50%; transform: translate(-50%, -50%); border:5px solid black"">","","","","","","","",""
"","1082","sequential-stimulus-presentation-old","63","336100","0.0-19.0-1.0","SS1619739824111","trial","","40","500","1582","images/stimuli/spore_stims/complex_02_A_a.gif","images/stimuli/spore_stims/complex_20_A_b.gif","forced_short","","5","complex_dissimilar","images/stimuli/spore_stims/complex_20_A_b.gif","","","","",""
"","null","html-keyboard-response","64","337205","0.0-19.0-0.1","SS1619739824111","","","null","","","","","","<p><img src= images/blank.png width =""600"" height = ""600"" style=""position:fixed;top:50%; left:50%; transform: translate(-50%, -50%); border:5px solid black"">","","","","","","","",""
"","626.0999999940395","sequential-stimulus-presentation-old","65","338334","0.0-19.0-1.1","SS1619739824111","trial","","40","500","1126.0999999940395","images/stimuli/spore_stims/complex_02_A_a.gif","images/stimuli/spore_stims/complex_20_A_b.gif","forced_short","","5","complex_dissimilar","images/stimuli/spore_stims/complex_20_A_b.gif","","","","",""
"","null","html-keyboard-response","66","339170","0.0-19.0-0.2","SS1619739824111","","","null","","","","","","<p><img src= images/blank.png width =""600"" height = ""600"" style=""position:fixed;top:50%; left:50%; transform: translate(-50%, -50%); border:5px solid black"">","","","","","","","",""
"","944.8999999761581","sequential-stimulus-presentation-old","67","340617","0.0-19.0-1.2","SS1619739824111","trial","","40","500","1444.8999999761581","images/stimuli/spore_stims/complex_02_A_a.gif","images/stimuli/spore_stims/complex_20_A_b.gif","forced_short","","5","complex_dissimilar","images/stimuli/spore_stims/complex_20_A_b.gif","","","","",""
"","null","html-keyboard-response","68","341621","0.0-19.0-0.3","SS1619739824111","","","null","","","","","","<p><img src= images/blank.png width =""600"" height = ""600"" style=""position:fixed;top:50%; left:50%; transform: translate(-50%, -50%); border:5px solid black"">","","","","","","","",""
"","639.0999999940395","sequential-stimulus-presentation-old","69","342762","0.0-19.0-1.3","SS1619739824111","trial","","40","500","1139.0999999940395","images/stimuli/spore_stims/complex_02_A_a.gif","images/stimuli/spore_stims/complex_20_A_b.gif","forced_short","","5","complex_dissimilar","images/stimuli/spore_stims/complex_20_A_b.gif","","","","",""
"","null","html-keyboard-response","70","344021","0.0-19.0-0.4","SS1619739824111","","","null","","","","","","<p><img src= images/blank.png width =""600"" height = ""600"" style=""position:fixed;top:50%; left:50%; transform: translate(-50%, -50%); border:5px solid black"">","","","","","","","",""
"","2030.5999999940395","sequential-stimulus-presentation-old","71","346555","0.0-19.0-1.4","SS1619739824111","trial","","40","500","2530.5999999940395","images/stimuli/spore_stims/complex_02_A_a.gif","images/stimuli/spore_stims/complex_20_A_b.gif","forced_short","","5","complex_dissimilar","images/stimuli/spore_stims/complex_02_A_a.gif","","","","",""
"","2443.0999999940395","survey-multi-choice","72","348999","0.0-20.0","SS1619739824111","math_question","","","","","","","","","","","","{""Q0"":""10""}","[0]","10","",""
"","null","html-keyboard-response","73","350016","0.0-21.0-0.0","SS1619739824111","","","null","","","","","","<p><img src= images/blank.png width =""600"" height = ""600"" style=""position:fixed;top:50%; left:50%; transform: translate(-50%, -50%); border:5px solid black"">","","","","","","","",""
"","1920.199999988079","sequential-stimulus-presentation-old","74","352441","0.0-21.0-1.0","SS1619739824111","trial","","40","500","2420.199999988079","images/stimuli/spore_stims/complex_09_A_b.gif","images/stimuli/spore_stims/complex_05_A_a.gif","self_paced","","6","complex_dissimilar","images/stimuli/spore_stims/complex_05_A_a.gif","","","","",""
"","null","html-keyboard-response","75","353465","0.0-21.0-0.1","SS1619739824111","","","null","","","","","","<p><img src= images/blank.png width =""600"" height = ""600"" style=""position:fixed;top:50%; left:50%; transform: translate(-50%, -50%); border:5px solid black"">","","","","","","","",""
"","1195.300000011921","sequential-stimulus-presentation-old","76","355166","0.0-21.0-1.1","SS1619739824111","trial","","40","500","1695.300000011921","images/stimuli/spore_stims/complex_09_A_b.gif","images/stimuli/spore_stims/complex_05_A_a.gif","self_paced","","6","complex_dissimilar","images/stimuli/spore_stims/complex_05_A_a.gif","","","","",""
"","null","html-keyboard-response","77","356171","0.0-21.0-0.2","SS1619739824111","","","null","","","","","","<p><img src= images/blank.png width =""600"" height = ""600"" style=""position:fixed;top:50%; left:50%; transform: translate(-50%, -50%); border:5px solid black"">","","","","","","","",""
"","1186.3999999761581","sequential-stimulus-presentation-old","78","357860","0.0-21.0-1.2","SS1619739824111","trial","","40","500","1686.3999999761581","images/stimuli/spore_stims/complex_09_A_b.gif","images/stimuli/spore_stims/complex_05_A_a.gif","self_paced","","6","complex_dissimilar","images/stimuli/spore_stims/complex_05_A_a.gif","","","","",""
"","null","html-keyboard-response","79","358980","0.0-21.0-0.3","SS1619739824111","","","null","","","","","","<p><img src= images/blank.png width =""600"" height = ""600"" style=""position:fixed;top:50%; left:50%; transform: translate(-50%, -50%); border:5px solid black"">","","","","","","","",""
"","1198.300000011921","sequential-stimulus-presentation-old","80","360682","0.0-21.0-1.3","SS1619739824111","trial","","40","500","1698.300000011921","images/stimuli/spore_stims/complex_09_A_b.gif","images/stimuli/spore_stims/complex_05_A_a.gif","self_paced","","6","complex_dissimilar","images/stimuli/spore_stims/complex_05_A_a.gif","","","","",""
"","2683.699999988079","survey-multi-choice","81","363367","0.0-22.0","SS1619739824111","math_question","","","","","","","","","","","","{""Q0"":""10""}","[0]","10","",""
"","null","html-keyboard-response","82","364221","0.0-23.0-0.0","SS1619739824111","","","null","","","","","","<p><img src= images/blank.png width =""600"" height = ""600"" style=""position:fixed;top:50%; left:50%; transform: translate(-50%, -50%); border:5px solid black"">","","","","","","","",""
"","5381.800000011921","sequential-stimulus-presentation-old","83","370107","0.0-23.0-1.0","SS1619739824111","trial","","40","500","5881.800000011921","images/stimuli/spore_stims/simple_20_A_b.gif","images/stimuli/spore_stims/simple_10_A_a.gif","forced_short","","7","simple_dissimilar","images/stimuli/spore_stims/simple_10_A_a.gif","","","","",""
"","null","html-keyboard-response","84","371099","0.0-23.0-0.1","SS1619739824111","","","null","","","","","","<p><img src= images/blank.png width =""600"" height = ""600"" style=""position:fixed;top:50%; left:50%; transform: translate(-50%, -50%); border:5px solid black"">","","","","","","","",""
"","1580.5999999940395","sequential-stimulus-presentation-old","85","373184","0.0-23.0-1.1","SS1619739824111","trial","","40","500","2080.5999999940395","images/stimuli/spore_stims/simple_20_A_b.gif","images/stimuli/spore_stims/simple_10_A_a.gif","forced_short","","7","simple_dissimilar","images/stimuli/spore_stims/simple_20_A_b.gif","","","","",""
"","null","html-keyboard-response","86","374277","0.0-23.0-0.2","SS1619739824111","","","null","","","","","","<p><img src= images/blank.png width =""600"" height = ""600"" style=""position:fixed;top:50%; left:50%; transform: translate(-50%, -50%); border:5px solid black"">","","","","","","","",""
"","1470.300000011921","sequential-stimulus-presentation-old","87","376250","0.0-23.0-1.2","SS1619739824111","trial","","40","500","1970.300000011921","images/stimuli/spore_stims/simple_20_A_b.gif","images/stimuli/spore_stims/simple_10_A_a.gif","forced_short","","7","simple_dissimilar","images/stimuli/spore_stims/simple_10_A_a.gif","","","","",""
"","null","html-keyboard-response","88","377217","0.0-23.0-0.3","SS1619739824111","","","null","","","","","","<p><img src= images/blank.png width =""600"" height = ""600"" style=""position:fixed;top:50%; left:50%; transform: translate(-50%, -50%); border:5px solid black"">","","","","","","","",""
"","1228.5","sequential-stimulus-presentation-old","89","378950","0.0-23.0-1.3","SS1619739824111","trial","","40","500","1728.5","images/stimuli/spore_stims/simple_20_A_b.gif","images/stimuli/spore_stims/simple_10_A_a.gif","forced_short","","7","simple_dissimilar","images/stimuli/spore_stims/simple_10_A_a.gif","","","","",""
"","null","html-keyboard-response","90","380064","0.0-23.0-0.4","SS1619739824111","","","null","","","","","","<p><img src= images/blank.png width =""600"" height = ""600"" style=""position:fixed;top:50%; left:50%; transform: translate(-50%, -50%); border:5px solid black"">","","","","","","","",""
"","1189","sequential-stimulus-presentation-old","91","381756","0.0-23.0-1.4","SS1619739824111","trial","","40","500","1689","images/stimuli/spore_stims/simple_20_A_b.gif","images/stimuli/spore_stims/simple_10_A_a.gif","forced_short","","7","simple_dissimilar","images/stimuli/spore_stims/simple_20_A_b.gif","","","","",""
"","2797.800000011921","survey-multi-choice","92","384556","0.0-24.0","SS1619739824111","math_question","","","","","","","","","","","","{""Q0"":""5""}","[0]","5","",""
"","null","html-keyboard-response","93","385590","0.0-25.0-0.0","SS1619739824111","","","null","","","","","","<p><img src= images/blank.png width =""600"" height = ""600"" style=""position:fixed;top:50%; left:50%; transform: translate(-50%, -50%); border:5px solid black"">","","","","","","","",""
"","9640","sequential-stimulus-presentation-old","94","410234","0.0-25.0-1.0","SS1619739824111","trial","","40","500","10140","images/stimuli/spore_stims/simple_13_A_b.gif","images/stimuli/spore_stims/simple_20_A_a.gif","forced_long","","8","simple_dissimilar","images/stimuli/spore_stims/simple_20_A_a.gif","","","","",""
"","null","html-keyboard-response","95","411093","0.0-25.0-0.1","SS1619739824111","","","null","","","","","","<p><img src= images/blank.png width =""600"" height = ""600"" style=""position:fixed;top:50%; left:50%; transform: translate(-50%, -50%); border:5px solid black"">","","","","","","","",""
"","1736.9000000059605","sequential-stimulus-presentation-old","96","413334","0.0-25.0-1.1","SS1619739824111","trial","","40","500","2236.9000000059605","images/stimuli/spore_stims/simple_13_A_b.gif","images/stimuli/spore_stims/simple_20_A_a.gif","forced_long","","8","simple_dissimilar","images/stimuli/spore_stims/simple_13_A_b.gif","","","","",""
"","null","html-keyboard-response","97","414289","0.0-25.0-0.2","SS1619739824111","","","null","","","","","","<p><img src= images/blank.png width =""600"" height = ""600"" style=""position:fixed;top:50%; left:50%; transform: translate(-50%, -50%); border:5px solid black"">","","","","","","","",""
"","1888.0999999940395","sequential-stimulus-presentation-old","98","416680","0.0-25.0-1.2","SS1619739824111","trial","","40","500","2388.0999999940395","images/stimuli/spore_stims/simple_13_A_b.gif","images/stimuli/spore_stims/simple_20_A_a.gif","forced_long","","8","simple_dissimilar","images/stimuli/spore_stims/simple_20_A_a.gif","","","","",""
"","null","html-keyboard-response","99","417746","0.0-25.0-0.3","SS1619739824111","","","null","","","","","","<p><img src= images/blank.png width =""600"" height = ""600"" style=""position:fixed;top:50%; left:50%; transform: translate(-50%, -50%); border:5px solid black"">","","","","","","","",""
"","1113.699999988079","sequential-stimulus-presentation-old","100","419362","0.0-25.0-1.3","SS1619739824111","trial","","40","500","1613.699999988079","images/stimuli/spore_stims/simple_13_A_b.gif","images/stimuli/spore_stims/simple_20_A_a.gif","forced_long","","8","simple_dissimilar","images/stimuli/spore_stims/simple_13_A_b.gif","","","","",""
"","null","html-keyboard-response","101","420276","0.0-25.0-0.4","SS1619739824111","","","null","","","","","","<p><img src= images/blank.png width =""600"" height = ""600"" style=""position:fixed;top:50%; left:50%; transform: translate(-50%, -50%); border:5px solid black"">","","","","","","","",""
"","895.8999999761581","sequential-stimulus-presentation-old","102","421676","0.0-25.0-1.4","SS1619739824111","trial","","40","500","1395.8999999761581","images/stimuli/spore_stims/simple_13_A_b.gif","images/stimuli/spore_stims/simple_20_A_a.gif","forced_long","","8","simple_dissimilar","images/stimuli/spore_stims/simple_20_A_a.gif","","","","",""
"","2919.5","survey-multi-choice","103","424598","0.0-26.0","SS1619739824111","math_question","","","","","","","","","","","","{""Q0"":""16""}","[0]","16","",""
"","null","html-keyboard-response","104","425742","0.0-27.0-0.0","SS1619739824111","","","null","","","","","","<p><img src= images/blank.png width =""600"" height = ""600"" style=""position:fixed;top:50%; left:50%; transform: translate(-50%, -50%); border:5px solid black"">","","","","","","","",""
"","566.8000000119209","sequential-stimulus-presentation-old","105","426813","0.0-27.0-1.0","SS1619739824111","trial","","40","500","1066.800000011921","images/stimuli/spore_stims/complex_13_A_a.gif","images/stimuli/spore_stims/complex_08_A_b.gif","forced_short","","9","complex_dissimilar","images/stimuli/spore_stims/complex_08_A_b.gif","","","","",""
"","null","html-keyboard-response","106","428054","0.0-27.0-0.1","SS1619739824111","","","null","","","","","","<p><img src= images/blank.png width =""600"" height = ""600"" style=""position:fixed;top:50%; left:50%; transform: translate(-50%, -50%); border:5px solid black"">","","","","","","","",""
"","495.59999999403954","sequential-stimulus-presentation-old","107","429052","0.0-27.0-1.1","SS1619739824111","trial","","40","500","995.5999999940395","images/stimuli/spore_stims/complex_13_A_a.gif","images/stimuli/spore_stims/complex_08_A_b.gif","forced_short","","9","complex_dissimilar","images/stimuli/spore_stims/complex_08_A_b.gif","","","","",""
"","null","html-keyboard-response","108","430059","0.0-27.0-0.2","SS1619739824111","","","null","","","","","","<p><img src= images/blank.png width =""600"" height = ""600"" style=""position:fixed;top:50%; left:50%; transform: translate(-50%, -50%); border:5px solid black"">","","","","","","","",""
"","1840.5","sequential-stimulus-presentation-old","109","432404","0.0-27.0-1.2","SS1619739824111","trial","","40","500","2340.5","images/stimuli/spore_stims/complex_13_A_a.gif","images/stimuli/spore_stims/complex_08_A_b.gif","forced_short","","9","complex_dissimilar","images/stimuli/spore_stims/complex_13_A_a.gif","","","","",""
"","null","html-keyboard-response","110","433527","0.0-27.0-0.3","SS1619739824111","","","null","","","","","","<p><img src= images/blank.png width =""600"" height = ""600"" style=""position:fixed;top:50%; left:50%; transform: translate(-50%, -50%); border:5px solid black"">","","","","","","","",""
"","386.30000001192093","sequential-stimulus-presentation-old","111","434417","0.0-27.0-1.3","SS1619739824111","trial","","40","500","886.3000000119209","images/stimuli/spore_stims/complex_13_A_a.gif","images/stimuli/spore_stims/complex_08_A_b.gif","forced_short","","9","complex_dissimilar","images/stimuli/spore_stims/complex_08_A_b.gif","","","","",""
"","null","html-keyboard-response","112","435520","0.0-27.0-0.4","SS1619739824111","","","null","","","","","","<p><img src= images/blank.png width =""600"" height = ""600"" style=""position:fixed;top:50%; left:50%; transform: translate(-50%, -50%); border:5px solid black"">","","","","","","","",""
"","302.7999999821186","sequential-stimulus-presentation-old","113","436326","0.0-27.0-1.4","SS1619739824111","trial","","40","500","802.7999999821186","images/stimuli/spore_stims/complex_13_A_a.gif","images/stimuli/spore_stims/complex_08_A_b.gif","forced_short","","9","complex_dissimilar","images/stimuli/spore_stims/complex_08_A_b.gif","","","","",""
"","3405.5999999940395","survey-multi-choice","114","439734","0.0-28.0","SS1619739824111","math_question","","","","","","","","","","","","{""Q0"":""11""}","[0]","11","",""
"","null","html-keyboard-response","115","440790","0.0-29.0-0.0","SS1619739824111","","","null","","","","","","<p><img src= images/blank.png width =""600"" height = ""600"" style=""position:fixed;top:50%; left:50%; transform: translate(-50%, -50%); border:5px solid black"">","","","","","","","",""
"","1177","sequential-stimulus-presentation-old","116","442471","0.0-29.0-1.0","SS1619739824111","trial","","40","500","1677","images/stimuli/spore_stims/simple_18_A_b.gif","images/stimuli/spore_stims/simple_08_A_a.gif","self_paced","","10","simple_dissimilar","images/stimuli/spore_stims/simple_08_A_a.gif","","","","",""
"","null","html-keyboard-response","117","443331","0.0-29.0-0.1","SS1619739824111","","","null","","","","","","<p><img src= images/blank.png width =""600"" height = ""600"" style=""position:fixed;top:50%; left:50%; transform: translate(-50%, -50%); border:5px solid black"">","","","","","","","",""
"","12536.300000011921","sequential-stimulus-presentation-old","118","456371","0.0-29.0-1.1","SS1619739824111","trial","","40","500","13036.300000011921","images/stimuli/spore_stims/simple_18_A_b.gif","images/stimuli/spore_stims/simple_08_A_a.gif","self_paced","","10","simple_dissimilar","images/stimuli/spore_stims/simple_08_A_a.gif","","","","",""
"","null","html-keyboard-response","119","457542","0.0-29.0-0.2","SS1619739824111","","","null","","","","","","<p><img src= images/blank.png width =""600"" height = ""600"" style=""position:fixed;top:50%; left:50%; transform: translate(-50%, -50%); border:5px solid black"">","","","","","","","",""
"","919.0999999940395","sequential-stimulus-presentation-old","120","458965","0.0-29.0-1.2","SS1619739824111","trial","","40","500","1419.0999999940395","images/stimuli/spore_stims/simple_18_A_b.gif","images/stimuli/spore_stims/simple_08_A_a.gif","self_paced","","10","simple_dissimilar","images/stimuli/spore_stims/simple_08_A_a.gif","","","","",""
"","null","html-keyboard-response","121","459870","0.0-29.0-0.3","SS1619739824111","","","null","","","","","","<p><img src= images/blank.png width =""600"" height = ""600"" style=""position:fixed;top:50%; left:50%; transform: translate(-50%, -50%); border:5px solid black"">","","","","","","","",""
"","1474.7999999821186","sequential-stimulus-presentation-old","122","461849","0.0-29.0-1.3","SS1619739824111","trial","","40","500","1974.7999999821186","images/stimuli/spore_stims/simple_18_A_b.gif","images/stimuli/spore_stims/simple_08_A_a.gif","self_paced","","10","simple_dissimilar","images/stimuli/spore_stims/simple_18_A_b.gif","","","","",""
"","null","html-keyboard-response","123","463042","0.0-29.0-0.4","SS1619739824111","","","null","","","","","","<p><img src= images/blank.png width =""600"" height = ""600"" style=""position:fixed;top:50%; left:50%; transform: translate(-50%, -50%); border:5px solid black"">","","","","","","","",""
"","486.2000000178814","sequential-stimulus-presentation-old","124","464032","0.0-29.0-1.4","SS1619739824111","trial","","40","500","986.2000000178814","images/stimuli/spore_stims/simple_18_A_b.gif","images/stimuli/spore_stims/simple_08_A_a.gif","self_paced","","10","simple_dissimilar","images/stimuli/spore_stims/simple_18_A_b.gif","","","","",""
"","3182.9000000059605","survey-multi-choice","125","467218","0.0-30.0","SS1619739824111","math_question","","","","","","","","","","","","{""Q0"":""9""}","[0]","9","",""
"","null","html-keyboard-response","126","468075","0.0-31.0-0.0","SS1619739824111","","","null","","","","","","<p><img src= images/blank.png width =""600"" height = ""600"" style=""position:fixed;top:50%; left:50%; transform: translate(-50%, -50%); border:5px solid black"">","","","","","","","",""
"","8345.799999982119","sequential-stimulus-presentation-old","127","491441","0.0-31.0-1.0","SS1619739824111","trial","","40","500","8845.799999982119","images/stimuli/spore_stims/complex_18_A_a.gif","images/stimuli/spore_stims/complex_07_A_b.gif","forced_long","","11","complex_dissimilar","images/stimuli/spore_stims/complex_07_A_b.gif","","","","",""
"","null","html-keyboard-response","128","492681","0.0-31.0-0.1","SS1619739824111","","","null","","","","","","<p><img src= images/blank.png width =""600"" height = ""600"" style=""position:fixed;top:50%; left:50%; transform: translate(-50%, -50%); border:5px solid black"">","","","","","","","",""
"","1281.0999999940395","sequential-stimulus-presentation-old","129","494467","0.0-31.0-1.1","SS1619739824111","trial","","40","500","1781.0999999940395","images/stimuli/spore_stims/complex_18_A_a.gif","images/stimuli/spore_stims/complex_07_A_b.gif","forced_long","","11","complex_dissimilar","images/stimuli/spore_stims/complex_18_A_a.gif","","","","",""
"","null","html-keyboard-response","130","495724","0.0-31.0-0.2","SS1619739824111","","","null","","","","","","<p><img src= images/blank.png width =""600"" height = ""600"" style=""position:fixed;top:50%; left:50%; transform: translate(-50%, -50%); border:5px solid black"">","","","","","","","",""
"","2465.300000011921","sequential-stimulus-presentation-old","131","498692","0.0-31.0-1.2","SS1619739824111","trial","","40","500","2965.300000011921","images/stimuli/spore_stims/complex_18_A_a.gif","images/stimuli/spore_stims/complex_07_A_b.gif","forced_long","","11","complex_dissimilar","images/stimuli/spore_stims/complex_07_A_b.gif","","","","",""
"","null","html-keyboard-response","132","499674","0.0-31.0-0.3","SS1619739824111","","","null","","","","","","<p><img src= images/blank.png width =""600"" height = ""600"" style=""position:fixed;top:50%; left:50%; transform: translate(-50%, -50%); border:5px solid black"">","","","","","","","",""
"","648.0999999940395","sequential-stimulus-presentation-old","133","500827","0.0-31.0-1.3","SS1619739824111","trial","","40","500","1148.0999999940395","images/stimuli/spore_stims/complex_18_A_a.gif","images/stimuli/spore_stims/complex_07_A_b.gif","forced_long","","11","complex_dissimilar","images/stimuli/spore_stims/complex_07_A_b.gif","","","","",""
"","null","html-keyboard-response","134","501765","0.0-31.0-0.4","SS1619739824111","","","null","","","","","","<p><img src= images/blank.png width =""600"" height = ""600"" style=""position:fixed;top:50%; left:50%; transform: translate(-50%, -50%); border:5px solid black"">","","","","","","","",""
"","473.40000000596046","sequential-stimulus-presentation-old","135","502742","0.0-31.0-1.4","SS1619739824111","trial","","40","500","973.4000000059605","images/stimuli/spore_stims/complex_18_A_a.gif","images/stimuli/spore_stims/complex_07_A_b.gif","forced_long","","11","complex_dissimilar","images/stimuli/spore_stims/complex_07_A_b.gif","","","","",""
"[{""page_index"":0,""viewing_time"":3351.5}]","3351.7999999821186","instructions","136","506096","0.0-32.0","SS1619739824111","instructions","","","","","","","","","","","","","","","",""
"","4780.9000000059605","survey-likert","137","510880","0.0-33.0","SS1619739824111","similarity_question","","","","","","","","","","","","{""Q0"":2}","[0]","","images/stimuli/spore_stims/complex_09_A_a.gif","images/stimuli/spore_stims/complex_06_A_b.gif"
"","5718.399999976158","survey-likert","138","516602","0.0-34.0","SS1619739824111","similarity_question","","","","","","","","","","","","{""Q0"":1}","[0]","","images/stimuli/spore_stims/complex_07_A_b.gif","images/stimuli/spore_stims/complex_18_A_a.gif"
"","3708.4000000059605","survey-likert","139","520314","0.0-35.0","SS1619739824111","similarity_question","","","","","","","","","","","","{""Q0"":5}","[0]","","images/stimuli/spore_stims/simple_18_A_b.gif","images/stimuli/spore_stims/simple_08_A_a.gif"
"","5392.600000023842","survey-likert","140","525710","0.0-36.0","SS1619739824111","similarity_question","","","","","","","","","","","","{""Q0"":2}","[0]","","images/stimuli/spore_stims/complex_07_A_a.gif","images/stimuli/spore_stims/complex_01_A_b.gif"
"","2607.699999988079","survey-likert","141","528322","0.0-37.0","SS1619739824111","similarity_question","","","","","","","","","","","","{""Q0"":5}","[0]","","images/stimuli/spore_stims/simple_04_A_b.gif","images/stimuli/spore_stims/simple_06_A_a.gif"
"","1960.5","survey-likert","142","530286","0.0-38.0","SS1619739824111","similarity_question","","","","","","","","","","","","{""Q0"":5}","[0]","","images/stimuli/spore_stims/simple_08_A_b.gif","images/stimuli/spore_stims/simple_15_A_a.gif"
"","3949.9000000059605","survey-likert","143","534240","0.0-39.0","SS1619739824111","similarity_question","","","","","","","","","","","","{""Q0"":2}","[0]","","images/stimuli/spore_stims/complex_05_A_a.gif","images/stimuli/spore_stims/complex_09_A_b.gif"
"","2877.4000000059605","survey-likert","144","537122","0.0-40.0","SS1619739824111","similarity_question","","","","","","","","","","","","{""Q0"":1}","[0]","","images/stimuli/spore_stims/complex_02_A_a.gif","images/stimuli/spore_stims/complex_20_A_b.gif"
"","2410","survey-likert","145","539536","0.0-41.0","SS1619739824111","similarity_question","","","","","","","","","","","","{""Q0"":4}","[0]","","images/stimuli/spore_stims/simple_19_A_a.gif","images/stimuli/spore_stims/simple_16_A_b.gif"
"","2185.800000011921","survey-likert","146","541726","0.0-42.0","SS1619739824111","similarity_question","","","","","","","","","","","","{""Q0"":5}","[0]","","images/stimuli/spore_stims/simple_13_A_b.gif","images/stimuli/spore_stims/simple_20_A_a.gif"
"","3569","survey-likert","147","545298","0.0-43.0","SS1619739824111","similarity_question","","","","","","","","","","","","{""Q0"":4}","[0]","","images/stimuli/spore_stims/complex_13_A_a.gif","images/stimuli/spore_stims/complex_08_A_b.gif"
"","2558.300000011921","survey-likert","148","547860","0.0-44.0","SS1619739824111","similarity_question","","","","","","","","","","","","{""Q0"":5}","[0]","","images/stimuli/spore_stims/simple_10_A_a.gif","images/stimuli/spore_stims/simple_20_A_b.gif"
"[{""page_index"":0,""viewing_time"":4322.799999982119}]","4323.199999988079","instructions","149","552186","0.0-45.0","SS1619739824111","instructions","","","","","","","","","","","","","","","",""
"","2549","survey-likert","150","554738","0.0-46.0","SS1619739824111","","","","","","","","","images/stimuli/spore_stims/complex_07_A_a.gif","","","","{""Q0"":5}","[0]","","",""
"","1811.9000000059605","survey-likert","151","556554","0.0-47.0","SS1619739824111","","","","","","","","","images/stimuli/spore_stims/simple_04_A_b.gif","","","","{""Q0"":0}","[0]","","",""
"","3192.0999999940395","survey-likert","152","559749","0.0-48.0","SS1619739824111","","","","","","","","","images/stimuli/spore_stims/complex_08_A_b.gif","","","","{""Q0"":5}","[0]","","",""
"","2090.2999999821186","survey-likert","153","561844","0.0-49.0","SS1619739824111","","","","","","","","","images/stimuli/spore_stims/complex_06_A_b.gif","","","","{""Q0"":4}","[0]","","",""
"","2677.9000000059605","survey-likert","154","564525","0.0-50.0","SS1619739824111","","","","","","","","","images/stimuli/spore_stims/simple_18_A_b.gif","","","","{""Q0"":1}","[0]","","",""
"","2924.0999999940395","survey-likert","155","567453","0.0-51.0","SS1619739824111","","","","","","","","","images/stimuli/spore_stims/simple_13_A_b.gif","","","","{""Q0"":0}","[0]","","",""
"","1880.7999999821186","survey-likert","156","569338","0.0-52.0","SS1619739824111","","","","","","","","","images/stimuli/spore_stims/simple_15_A_a.gif","","","","{""Q0"":0}","[0]","","",""
"","1787.9000000059605","survey-likert","157","571129","0.0-53.0","SS1619739824111","","","","","","","","","images/stimuli/spore_stims/simple_16_A_b.gif","","","","{""Q0"":1}","[0]","","",""
"","2970.300000011921","survey-likert","158","574104","0.0-54.0","SS1619739824111","","","","","","","","","images/stimuli/spore_stims/complex_05_A_a.gif","","","","{""Q0"":6}","[0]","","",""
"","2058.2000000178814","survey-likert","159","576165","0.0-55.0","SS1619739824111","","","","","","","","","images/stimuli/spore_stims/complex_20_A_b.gif","","","","{""Q0"":6}","[0]","","",""
"","2862.199999988079","survey-likert","160","579032","0.0-56.0","SS1619739824111","","","","","","","","","images/stimuli/spore_stims/complex_07_A_b.gif","","","","{""Q0"":6}","[0]","","",""
"","1856.9000000059605","survey-likert","161","580893","0.0-57.0","SS1619739824111","","","","","","","","","images/stimuli/spore_stims/simple_10_A_a.gif","","","","{""Q0"":1}","[0]","","",""
"[{""page_index"":0,""viewing_time"":1804.5}]","1805.0999999940395","instructions","162","582701","0.0-58.0","SS1619739824111","instructions","","","","","","","","","","","","","","","",""
"","2627.4000000059605","demog-age","163","585334","0.0-59.0","SS1619739824111","","","","","","","","","","","","","{""age"":""23""}","","","",""
"","2540.899999976158","demog-ethnic-US","164","587884","0.0-60.0","SS1619739824111","","","","","","","","","","","","","{""ethnicity"":[""White""]}","[0]","","",""
"","4639.4000000059605","demog-gender-and-education","165","592528","0.0-61.0","SS1619739824111","","","","","","","","","","","","","{""gender"":""Male"",""education"":""Bachelor's Degree""}","[0,1]","","",""
"","7932.9000000059605","survey-text","166","600465","0.0-62.0","SS1619739824111","feedback","","","","","","","","","","","","{""Q0"":""no""}","","","",""
"[{""page_index"":0,""viewing_time"":1424.199999988079}]","1424.5999999940395","instructions","167","601893","0.0-63.0","SS1619739824111","instructions","","","","","","","","","","","","","","","",""
