"view_history","rt","trial_type","trial_index","time_elapsed","internal_node_id","subject","stimulus_type","trial_stimulus","key_press","minimum_viewing_duration","trial_looking_time","block_deviant","block_background","exposure_type","stimulus","block_number","block_type","stimulus_displayed","responses","question_order","math_correct_answer","stimulus_left","stimulus_right"
"[{""page_index"":0,""viewing_time"":2203.865000003134}]","2204.150000005029","instructions","0","2205","0.0-0.0","SS1619740082049","","","","","","","","","","","","","","","","",""
"[{""page_index"":0,""viewing_time"":14846.715000006952},{""page_index"":1,""viewing_time"":11543.974999993225}]","26391.004999997676","instructions","1","30605","0.0-1.0","SS1619740082049","instructions","","","","","","","","","","","","","","","",""
"","10267.949999994016","sequential-stimulus-presentation-old","2","41376","0.0-2.0","SS1619740082049","","","40","500","10767.949999994016","null","null","self_paced","","","","","","","","",""
"","6448.084999996354","sequential-stimulus-presentation-old","3","48338","0.0-3.0","SS1619740082049","","","40","500","6948.084999996354","null","null","self_paced","","","","","","","","",""
"[{""page_index"":0,""viewing_time"":20951.874999998836}]","20952.28500000667","instructions","4","69292","0.0-4.0","SS1619740082049","instructions","","","","","","","","","","","","","","","",""
"","6101.735000003828","sequential-stimulus-presentation-old","5","90411","0.0-5.0","SS1619740082049","","","40","500","6601.735000003828","null","null","forced_long","","","","","","","","",""
"","4677.834999994957","sequential-stimulus-presentation-old","6","95603","0.0-6.0","SS1619740082049","","","40","500","5177.834999994957","null","null","forced_long","","","","","","","","",""
"[{""page_index"":0,""viewing_time"":2961.104999994859}]","2961.4799999981187","instructions","7","98565","0.0-7.0","SS1619740082049","instructions","","","","","","","","","","","","","","","",""
"[{""page_index"":0,""viewing_time"":6124.8799999884795},{""page_index"":1,""viewing_time"":10340.795000010985},{""page_index"":2,""viewing_time"":5193.039999998291},{""page_index"":3,""viewing_time"":1664.955000000191},{""page_index"":4,""viewing_time"":1355.9499999973923}]","24679.959999994026","instructions","8","123246","0.0-8.0","SS1619740082049","instructions","","","","","","","","","","","","","","","",""
"","null","html-keyboard-response","9","124275","0.0-9.0-0.0","SS1619740082049","","","null","","","","","","<p><img src= images/blank.png width =""600"" height = ""600"" style=""position:fixed;top:50%; left:50%; transform: translate(-50%, -50%); border:5px solid black"">","","","","","","","",""
"","22804.639999987558","sequential-stimulus-presentation-old","10","147585","0.0-9.0-1.0","SS1619740082049","trial","","40","500","23304.639999987558","images/stimuli/spore_stims/complex_01_A_a.gif","images/stimuli/spore_stims/complex_05_A_b.gif","self_paced","","0","complex_dissimilar","images/stimuli/spore_stims/complex_05_A_b.gif","","","","",""
"","null","html-keyboard-response","11","148846","0.0-9.0-0.1","SS1619740082049","","","null","","","","","","<p><img src= images/blank.png width =""600"" height = ""600"" style=""position:fixed;top:50%; left:50%; transform: translate(-50%, -50%); border:5px solid black"">","","","","","","","",""
"","7174.150000006193","sequential-stimulus-presentation-old","12","156522","0.0-9.0-1.1","SS1619740082049","trial","","40","500","7674.150000006193","images/stimuli/spore_stims/complex_01_A_a.gif","images/stimuli/spore_stims/complex_05_A_b.gif","self_paced","","0","complex_dissimilar","images/stimuli/spore_stims/complex_05_A_b.gif","","","","",""
"","null","html-keyboard-response","13","157364","0.0-9.0-0.2","SS1619740082049","","","null","","","","","","<p><img src= images/blank.png width =""600"" height = ""600"" style=""position:fixed;top:50%; left:50%; transform: translate(-50%, -50%); border:5px solid black"">","","","","","","","",""
"","5884.39500000095","sequential-stimulus-presentation-old","14","163752","0.0-9.0-1.2","SS1619740082049","trial","","40","500","6384.39500000095","images/stimuli/spore_stims/complex_01_A_a.gif","images/stimuli/spore_stims/complex_05_A_b.gif","self_paced","","0","complex_dissimilar","images/stimuli/spore_stims/complex_05_A_b.gif","","","","",""
"","null","html-keyboard-response","15","164578","0.0-9.0-0.3","SS1619740082049","","","null","","","","","","<p><img src= images/blank.png width =""600"" height = ""600"" style=""position:fixed;top:50%; left:50%; transform: translate(-50%, -50%); border:5px solid black"">","","","","","","","",""
"","3911.229999997886","sequential-stimulus-presentation-old","16","168992","0.0-9.0-1.3","SS1619740082049","trial","","40","500","4411.229999997886","images/stimuli/spore_stims/complex_01_A_a.gif","images/stimuli/spore_stims/complex_05_A_b.gif","self_paced","","0","complex_dissimilar","images/stimuli/spore_stims/complex_01_A_a.gif","","","","",""
"","null","html-keyboard-response","17","169877","0.0-9.0-0.4","SS1619740082049","","","null","","","","","","<p><img src= images/blank.png width =""600"" height = ""600"" style=""position:fixed;top:50%; left:50%; transform: translate(-50%, -50%); border:5px solid black"">","","","","","","","",""
"","3536.4649999974063","sequential-stimulus-presentation-old","18","173929","0.0-9.0-1.4","SS1619740082049","trial","","40","500","4036.4649999974063","images/stimuli/spore_stims/complex_01_A_a.gif","images/stimuli/spore_stims/complex_05_A_b.gif","self_paced","","0","complex_dissimilar","images/stimuli/spore_stims/complex_05_A_b.gif","","","","",""
"","null","html-keyboard-response","19","174871","0.0-9.0-0.5","SS1619740082049","","","null","","","","","","<p><img src= images/blank.png width =""600"" height = ""600"" style=""position:fixed;top:50%; left:50%; transform: translate(-50%, -50%); border:5px solid black"">","","","","","","","",""
"","3349.774999995134","sequential-stimulus-presentation-old","20","178725","0.0-9.0-1.5","SS1619740082049","trial","","40","500","3849.774999995134","images/stimuli/spore_stims/complex_01_A_a.gif","images/stimuli/spore_stims/complex_05_A_b.gif","self_paced","","0","complex_dissimilar","images/stimuli/spore_stims/complex_01_A_a.gif","","","","",""
"","4104.890000002342","survey-multi-choice","21","182833","0.0-10.0","SS1619740082049","math_question","","","","","","","","","","","","{""Q0"":""10""}","[0]","10","",""
"","null","html-keyboard-response","22","183965","0.0-11.0-0.0","SS1619740082049","","","null","","","","","","<p><img src= images/blank.png width =""600"" height = ""600"" style=""position:fixed;top:50%; left:50%; transform: translate(-50%, -50%); border:5px solid black"">","","","","","","","",""
"","1360.7349999947473","sequential-stimulus-presentation-old","23","200335","0.0-11.0-1.0","SS1619740082049","trial","","40","500","1860.7349999947473","images/stimuli/spore_stims/simple_18_A_a.gif","images/stimuli/spore_stims/simple_06_A_b.gif","forced_long","","1","simple_dissimilar","images/stimuli/spore_stims/simple_06_A_b.gif","","","","",""
"","null","html-keyboard-response","24","201534","0.0-11.0-0.1","SS1619740082049","","","null","","","","","","<p><img src= images/blank.png width =""600"" height = ""600"" style=""position:fixed;top:50%; left:50%; transform: translate(-50%, -50%); border:5px solid black"">","","","","","","","",""
"","3094.619999988936","sequential-stimulus-presentation-old","25","205136","0.0-11.0-1.1","SS1619740082049","trial","","40","500","3594.619999988936","images/stimuli/spore_stims/simple_18_A_a.gif","images/stimuli/spore_stims/simple_06_A_b.gif","forced_long","","1","simple_dissimilar","images/stimuli/spore_stims/simple_18_A_a.gif","","","","",""
"","null","html-keyboard-response","26","206261","0.0-11.0-0.2","SS1619740082049","","","null","","","","","","<p><img src= images/blank.png width =""600"" height = ""600"" style=""position:fixed;top:50%; left:50%; transform: translate(-50%, -50%); border:5px solid black"">","","","","","","","",""
"","3104.684999998426","sequential-stimulus-presentation-old","27","209879","0.0-11.0-1.2","SS1619740082049","trial","","40","500","3604.684999998426","images/stimuli/spore_stims/simple_18_A_a.gif","images/stimuli/spore_stims/simple_06_A_b.gif","forced_long","","1","simple_dissimilar","images/stimuli/spore_stims/simple_06_A_b.gif","","","","",""
"","null","html-keyboard-response","28","210884","0.0-11.0-0.3","SS1619740082049","","","null","","","","","","<p><img src= images/blank.png width =""600"" height = ""600"" style=""position:fixed;top:50%; left:50%; transform: translate(-50%, -50%); border:5px solid black"">","","","","","","","",""
"","2057.0949999964796","sequential-stimulus-presentation-old","29","213443","0.0-11.0-1.3","SS1619740082049","trial","","40","500","2557.0949999964796","images/stimuli/spore_stims/simple_18_A_a.gif","images/stimuli/spore_stims/simple_06_A_b.gif","forced_long","","1","simple_dissimilar","images/stimuli/spore_stims/simple_06_A_b.gif","","","","",""
"","4332.715000011376","survey-multi-choice","30","217778","0.0-12.0","SS1619740082049","math_question","","","","","","","","","","","","{""Q0"":""16""}","[0]","16","",""
"","null","html-keyboard-response","31","218769","0.0-13.0-0.0","SS1619740082049","","","null","","","","","","<p><img src= images/blank.png width =""600"" height = ""600"" style=""position:fixed;top:50%; left:50%; transform: translate(-50%, -50%); border:5px solid black"">","","","","","","","",""
"","2012.0749999914551","sequential-stimulus-presentation-old","32","221287","0.0-13.0-1.0","SS1619740082049","trial","","40","500","2512.074999991455","images/stimuli/spore_stims/complex_17_A_a.gif","images/stimuli/spore_stims/complex_10_A_b.gif","forced_short","","2","complex_dissimilar","images/stimuli/spore_stims/complex_10_A_b.gif","","","","",""
"","null","html-keyboard-response","33","222265","0.0-13.0-0.1","SS1619740082049","","","null","","","","","","<p><img src= images/blank.png width =""600"" height = ""600"" style=""position:fixed;top:50%; left:50%; transform: translate(-50%, -50%); border:5px solid black"">","","","","","","","",""
"","3157.7200000028824","sequential-stimulus-presentation-old","34","225932","0.0-13.0-1.1","SS1619740082049","trial","","40","500","3657.7200000028824","images/stimuli/spore_stims/complex_17_A_a.gif","images/stimuli/spore_stims/complex_10_A_b.gif","forced_short","","2","complex_dissimilar","images/stimuli/spore_stims/complex_10_A_b.gif","","","","",""
"","null","html-keyboard-response","35","227155","0.0-13.0-0.2","SS1619740082049","","","null","","","","","","<p><img src= images/blank.png width =""600"" height = ""600"" style=""position:fixed;top:50%; left:50%; transform: translate(-50%, -50%); border:5px solid black"">","","","","","","","",""
"","4018.2000000058906","sequential-stimulus-presentation-old","36","231678","0.0-13.0-1.2","SS1619740082049","trial","","40","500","4518.200000005891","images/stimuli/spore_stims/complex_17_A_a.gif","images/stimuli/spore_stims/complex_10_A_b.gif","forced_short","","2","complex_dissimilar","images/stimuli/spore_stims/complex_10_A_b.gif","","","","",""
"","null","html-keyboard-response","37","232667","0.0-13.0-0.3","SS1619740082049","","","null","","","","","","<p><img src= images/blank.png width =""600"" height = ""600"" style=""position:fixed;top:50%; left:50%; transform: translate(-50%, -50%); border:5px solid black"">","","","","","","","",""
"","3039.5900000003166","sequential-stimulus-presentation-old","38","236215","0.0-13.0-1.3","SS1619740082049","trial","","40","500","3539.5900000003166","images/stimuli/spore_stims/complex_17_A_a.gif","images/stimuli/spore_stims/complex_10_A_b.gif","forced_short","","2","complex_dissimilar","images/stimuli/spore_stims/complex_17_A_a.gif","","","","",""
"","null","html-keyboard-response","39","237034","0.0-13.0-0.4","SS1619740082049","","","null","","","","","","<p><img src= images/blank.png width =""600"" height = ""600"" style=""position:fixed;top:50%; left:50%; transform: translate(-50%, -50%); border:5px solid black"">","","","","","","","",""
"","3164.8650000133784","sequential-stimulus-presentation-old","40","240709","0.0-13.0-1.4","SS1619740082049","trial","","40","500","3664.8650000133784","images/stimuli/spore_stims/complex_17_A_a.gif","images/stimuli/spore_stims/complex_10_A_b.gif","forced_short","","2","complex_dissimilar","images/stimuli/spore_stims/complex_10_A_b.gif","","","","",""
"","null","html-keyboard-response","41","241626","0.0-13.0-0.5","SS1619740082049","","","null","","","","","","<p><img src= images/blank.png width =""600"" height = ""600"" style=""position:fixed;top:50%; left:50%; transform: translate(-50%, -50%); border:5px solid black"">","","","","","","","",""
"","3183.6550000007264","sequential-stimulus-presentation-old","42","245327","0.0-13.0-1.5","SS1619740082049","trial","","40","500","3683.6550000007264","images/stimuli/spore_stims/complex_17_A_a.gif","images/stimuli/spore_stims/complex_10_A_b.gif","forced_short","","2","complex_dissimilar","images/stimuli/spore_stims/complex_17_A_a.gif","","","","",""
"","3568.6600000044564","survey-multi-choice","43","248897","0.0-14.0","SS1619740082049","math_question","","","","","","","","","","","","{""Q0"":""10""}","[0]","10","",""
"","null","html-keyboard-response","44","250162","0.0-15.0-0.0","SS1619740082049","","","null","","","","","","<p><img src= images/blank.png width =""600"" height = ""600"" style=""position:fixed;top:50%; left:50%; transform: translate(-50%, -50%); border:5px solid black"">","","","","","","","",""
"","8473.485000009532","sequential-stimulus-presentation-old","45","273650","0.0-15.0-1.0","SS1619740082049","trial","","40","500","8973.485000009532","images/stimuli/spore_stims/complex_04_A_a.gif","images/stimuli/spore_stims/complex_15_A_b.gif","forced_long","","3","complex_dissimilar","images/stimuli/spore_stims/complex_15_A_b.gif","","","","",""
"","null","html-keyboard-response","46","274839","0.0-15.0-0.1","SS1619740082049","","","null","","","","","","<p><img src= images/blank.png width =""600"" height = ""600"" style=""position:fixed;top:50%; left:50%; transform: translate(-50%, -50%); border:5px solid black"">","","","","","","","",""
"","1847.0850000012433","sequential-stimulus-presentation-old","47","277189","0.0-15.0-1.1","SS1619740082049","trial","","40","500","2347.0850000012433","images/stimuli/spore_stims/complex_04_A_a.gif","images/stimuli/spore_stims/complex_15_A_b.gif","forced_long","","3","complex_dissimilar","images/stimuli/spore_stims/complex_15_A_b.gif","","","","",""
"","null","html-keyboard-response","48","278061","0.0-15.0-0.2","SS1619740082049","","","null","","","","","","<p><img src= images/blank.png width =""600"" height = ""600"" style=""position:fixed;top:50%; left:50%; transform: translate(-50%, -50%); border:5px solid black"">","","","","","","","",""
"","1429.3249999900581","sequential-stimulus-presentation-old","49","280003","0.0-15.0-1.2","SS1619740082049","trial","","40","500","1929.3249999900581","images/stimuli/spore_stims/complex_04_A_a.gif","images/stimuli/spore_stims/complex_15_A_b.gif","forced_long","","3","complex_dissimilar","images/stimuli/spore_stims/complex_15_A_b.gif","","","","",""
"","null","html-keyboard-response","50","281158","0.0-15.0-0.3","SS1619740082049","","","null","","","","","","<p><img src= images/blank.png width =""600"" height = ""600"" style=""position:fixed;top:50%; left:50%; transform: translate(-50%, -50%); border:5px solid black"">","","","","","","","",""
"","1294.6950000041397","sequential-stimulus-presentation-old","51","282955","0.0-15.0-1.3","SS1619740082049","trial","","40","500","1794.6950000041397","images/stimuli/spore_stims/complex_04_A_a.gif","images/stimuli/spore_stims/complex_15_A_b.gif","forced_long","","3","complex_dissimilar","images/stimuli/spore_stims/complex_04_A_a.gif","","","","",""
"","3342.2200000059092","survey-multi-choice","52","286299","0.0-16.0","SS1619740082049","math_question","","","","","","","","","","","","{""Q0"":""16""}","[0]","16","",""
"","null","html-keyboard-response","53","287533","0.0-17.0-0.0","SS1619740082049","","","null","","","","","","<p><img src= images/blank.png width =""600"" height = ""600"" style=""position:fixed;top:50%; left:50%; transform: translate(-50%, -50%); border:5px solid black"">","","","","","","","",""
"","3186.230000006617","sequential-stimulus-presentation-old","54","291223","0.0-17.0-1.0","SS1619740082049","trial","","40","500","3686.230000006617","images/stimuli/spore_stims/complex_11_A_b.gif","images/stimuli/spore_stims/complex_05_A_a.gif","self_paced","","4","complex_dissimilar","images/stimuli/spore_stims/complex_05_A_a.gif","","","","",""
"","null","html-keyboard-response","55","292299","0.0-17.0-0.1","SS1619740082049","","","null","","","","","","<p><img src= images/blank.png width =""600"" height = ""600"" style=""position:fixed;top:50%; left:50%; transform: translate(-50%, -50%); border:5px solid black"">","","","","","","","",""
"","1456.080000003567","sequential-stimulus-presentation-old","56","294258","0.0-17.0-1.1","SS1619740082049","trial","","40","500","1956.080000003567","images/stimuli/spore_stims/complex_11_A_b.gif","images/stimuli/spore_stims/complex_05_A_a.gif","self_paced","","4","complex_dissimilar","images/stimuli/spore_stims/complex_05_A_a.gif","","","","",""
"","null","html-keyboard-response","57","295280","0.0-17.0-0.2","SS1619740082049","","","null","","","","","","<p><img src= images/blank.png width =""600"" height = ""600"" style=""position:fixed;top:50%; left:50%; transform: translate(-50%, -50%); border:5px solid black"">","","","","","","","",""
"","2606.8250000098487","sequential-stimulus-presentation-old","58","298401","0.0-17.0-1.2","SS1619740082049","trial","","40","500","3106.8250000098487","images/stimuli/spore_stims/complex_11_A_b.gif","images/stimuli/spore_stims/complex_05_A_a.gif","self_paced","","4","complex_dissimilar","images/stimuli/spore_stims/complex_11_A_b.gif","","","","",""
"","null","html-keyboard-response","59","299425","0.0-17.0-0.3","SS1619740082049","","","null","","","","","","<p><img src= images/blank.png width =""600"" height = ""600"" style=""position:fixed;top:50%; left:50%; transform: translate(-50%, -50%); border:5px solid black"">","","","","","","","",""
"","1427.3949999915203","sequential-stimulus-presentation-old","60","301356","0.0-17.0-1.3","SS1619740082049","trial","","40","500","1927.3949999915203","images/stimuli/spore_stims/complex_11_A_b.gif","images/stimuli/spore_stims/complex_05_A_a.gif","self_paced","","4","complex_dissimilar","images/stimuli/spore_stims/complex_05_A_a.gif","","","","",""
"","null","html-keyboard-response","61","302292","0.0-17.0-0.4","SS1619740082049","","","null","","","","","","<p><img src= images/blank.png width =""600"" height = ""600"" style=""position:fixed;top:50%; left:50%; transform: translate(-50%, -50%); border:5px solid black"">","","","","","","","",""
"","1671.409999995376","sequential-stimulus-presentation-old","62","304466","0.0-17.0-1.4","SS1619740082049","trial","","40","500","2171.409999995376","images/stimuli/spore_stims/complex_11_A_b.gif","images/stimuli/spore_stims/complex_05_A_a.gif","self_paced","","4","complex_dissimilar","images/stimuli/spore_stims/complex_05_A_a.gif","","","","",""
"","null","html-keyboard-response","63","305469","0.0-17.0-0.5","SS1619740082049","","","null","","","","","","<p><img src= images/blank.png width =""600"" height = ""600"" style=""position:fixed;top:50%; left:50%; transform: translate(-50%, -50%); border:5px solid black"">","","","","","","","",""
"","688.1450000073528","sequential-stimulus-presentation-old","64","306660","0.0-17.0-1.5","SS1619740082049","trial","","40","500","1188.1450000073528","images/stimuli/spore_stims/complex_11_A_b.gif","images/stimuli/spore_stims/complex_05_A_a.gif","self_paced","","4","complex_dissimilar","images/stimuli/spore_stims/complex_11_A_b.gif","","","","",""
"","2830.0550000130897","survey-multi-choice","65","309481","0.0-18.0","SS1619740082049","math_question","","","","","","","","","","","","{""Q0"":""9""}","[0]","9","",""
"","null","html-keyboard-response","66","310743","0.0-19.0-0.0","SS1619740082049","","","null","","","","","","<p><img src= images/blank.png width =""600"" height = ""600"" style=""position:fixed;top:50%; left:50%; transform: translate(-50%, -50%); border:5px solid black"">","","","","","","","",""
"","414.25499999604654","sequential-stimulus-presentation-old","67","311663","0.0-19.0-1.0","SS1619740082049","trial","","40","500","914.2549999960465","images/stimuli/spore_stims/simple_15_A_b.gif","images/stimuli/spore_stims/simple_06_A_a.gif","self_paced","","5","simple_dissimilar","images/stimuli/spore_stims/simple_06_A_a.gif","","","","",""
"","null","html-keyboard-response","68","312844","0.0-19.0-0.1","SS1619740082049","","","null","","","","","","<p><img src= images/blank.png width =""600"" height = ""600"" style=""position:fixed;top:50%; left:50%; transform: translate(-50%, -50%); border:5px solid black"">","","","","","","","",""
"","1108.6899999936577","sequential-stimulus-presentation-old","69","314458","0.0-19.0-1.1","SS1619740082049","trial","","40","500","1608.6899999936577","images/stimuli/spore_stims/simple_15_A_b.gif","images/stimuli/spore_stims/simple_06_A_a.gif","self_paced","","5","simple_dissimilar","images/stimuli/spore_stims/simple_15_A_b.gif","","","","",""
"","null","html-keyboard-response","70","315285","0.0-19.0-0.2","SS1619740082049","","","null","","","","","","<p><img src= images/blank.png width =""600"" height = ""600"" style=""position:fixed;top:50%; left:50%; transform: translate(-50%, -50%); border:5px solid black"">","","","","","","","",""
"","859.2349999962607","sequential-stimulus-presentation-old","71","316656","0.0-19.0-1.2","SS1619740082049","trial","","40","500","1359.2349999962607","images/stimuli/spore_stims/simple_15_A_b.gif","images/stimuli/spore_stims/simple_06_A_a.gif","self_paced","","5","simple_dissimilar","images/stimuli/spore_stims/simple_06_A_a.gif","","","","",""
"","null","html-keyboard-response","72","317691","0.0-19.0-0.3","SS1619740082049","","","null","","","","","","<p><img src= images/blank.png width =""600"" height = ""600"" style=""position:fixed;top:50%; left:50%; transform: translate(-50%, -50%); border:5px solid black"">","","","","","","","",""
"","427.945000003092","sequential-stimulus-presentation-old","73","318622","0.0-19.0-1.3","SS1619740082049","trial","","40","500","927.945000003092","images/stimuli/spore_stims/simple_15_A_b.gif","images/stimuli/spore_stims/simple_06_A_a.gif","self_paced","","5","simple_dissimilar","images/stimuli/spore_stims/simple_06_A_a.gif","","","","",""
"","null","html-keyboard-response","74","319898","0.0-19.0-0.4","SS1619740082049","","","null","","","","","","<p><img src= images/blank.png width =""600"" height = ""600"" style=""position:fixed;top:50%; left:50%; transform: translate(-50%, -50%); border:5px solid black"">","","","","","","","",""
"","528.1899999972666","sequential-stimulus-presentation-old","75","320942","0.0-19.0-1.4","SS1619740082049","trial","","40","500","1028.1899999972666","images/stimuli/spore_stims/simple_15_A_b.gif","images/stimuli/spore_stims/simple_06_A_a.gif","self_paced","","5","simple_dissimilar","images/stimuli/spore_stims/simple_06_A_a.gif","","","","",""
"","null","html-keyboard-response","76","321878","0.0-19.0-0.5","SS1619740082049","","","null","","","","","","<p><img src= images/blank.png width =""600"" height = ""600"" style=""position:fixed;top:50%; left:50%; transform: translate(-50%, -50%); border:5px solid black"">","","","","","","","",""
"","843.7600000033854","sequential-stimulus-presentation-old","77","323240","0.0-19.0-1.5","SS1619740082049","trial","","40","500","1343.7600000033854","images/stimuli/spore_stims/simple_15_A_b.gif","images/stimuli/spore_stims/simple_06_A_a.gif","self_paced","","5","simple_dissimilar","images/stimuli/spore_stims/simple_06_A_a.gif","","","","",""
"","4401.4400000014575","survey-multi-choice","78","327643","0.0-20.0","SS1619740082049","math_question","","","","","","","","","","","","{""Q0"":""12""}","[0]","12","",""
"","null","html-keyboard-response","79","328946","0.0-21.0-0.0","SS1619740082049","","","null","","","","","","<p><img src= images/blank.png width =""600"" height = ""600"" style=""position:fixed;top:50%; left:50%; transform: translate(-50%, -50%); border:5px solid black"">","","","","","","","",""
"","445.8149999991292","sequential-stimulus-presentation-old","80","344395","0.0-21.0-1.0","SS1619740082049","trial","","40","500","945.8149999991292","images/stimuli/spore_stims/simple_12_A_a.gif","images/stimuli/spore_stims/simple_03_A_b.gif","forced_long","","6","simple_dissimilar","images/stimuli/spore_stims/simple_03_A_b.gif","","","","",""
"","null","html-keyboard-response","81","345293","0.0-21.0-0.1","SS1619740082049","","","null","","","","","","<p><img src= images/blank.png width =""600"" height = ""600"" style=""position:fixed;top:50%; left:50%; transform: translate(-50%, -50%); border:5px solid black"">","","","","","","","",""
"","163.24499998881947","sequential-stimulus-presentation-old","82","345964","0.0-21.0-1.1","SS1619740082049","trial","","40","500","663.2449999888195","images/stimuli/spore_stims/simple_12_A_a.gif","images/stimuli/spore_stims/simple_03_A_b.gif","forced_long","","6","simple_dissimilar","images/stimuli/spore_stims/simple_03_A_b.gif","","","","",""
"","null","html-keyboard-response","83","346772","0.0-21.0-0.2","SS1619740082049","","","null","","","","","","<p><img src= images/blank.png width =""600"" height = ""600"" style=""position:fixed;top:50%; left:50%; transform: translate(-50%, -50%); border:5px solid black"">","","","","","","","",""
"","852.4649999890244","sequential-stimulus-presentation-old","84","348136","0.0-21.0-1.2","SS1619740082049","trial","","40","500","1352.4649999890244","images/stimuli/spore_stims/simple_12_A_a.gif","images/stimuli/spore_stims/simple_03_A_b.gif","forced_long","","6","simple_dissimilar","images/stimuli/spore_stims/simple_03_A_b.gif","","","","",""
"","null","html-keyboard-response","85","349308","0.0-21.0-0.3","SS1619740082049","","","null","","","","","","<p><img src= images/blank.png width =""600"" height = ""600"" style=""position:fixed;top:50%; left:50%; transform: translate(-50%, -50%); border:5px solid black"">","","","","","","","",""
"","794.450000001234","sequential-stimulus-presentation-old","86","350609","0.0-21.0-1.3","SS1619740082049","trial","","40","500","1294.450000001234","images/stimuli/spore_stims/simple_12_A_a.gif","images/stimuli/spore_stims/simple_03_A_b.gif","forced_long","","6","simple_dissimilar","images/stimuli/spore_stims/simple_03_A_b.gif","","","","",""
"","null","html-keyboard-response","87","351535","0.0-21.0-0.4","SS1619740082049","","","null","","","","","","<p><img src= images/blank.png width =""600"" height = ""600"" style=""position:fixed;top:50%; left:50%; transform: translate(-50%, -50%); border:5px solid black"">","","","","","","","",""
"","582.2150000021793","sequential-stimulus-presentation-old","88","352632","0.0-21.0-1.4","SS1619740082049","trial","","40","500","1082.2150000021793","images/stimuli/spore_stims/simple_12_A_a.gif","images/stimuli/spore_stims/simple_03_A_b.gif","forced_long","","6","simple_dissimilar","images/stimuli/spore_stims/simple_03_A_b.gif","","","","",""
"","35276.38000001025","survey-multi-choice","89","387923","0.0-22.0","SS1619740082049","math_question","","","","","","","","","","","","{""Q0"":""9""}","[0]","9","",""
"","null","html-keyboard-response","90","389098","0.0-23.0-0.0","SS1619740082049","","","null","","","","","","<p><img src= images/blank.png width =""600"" height = ""600"" style=""position:fixed;top:50%; left:50%; transform: translate(-50%, -50%); border:5px solid black"">","","","","","","","",""
"","2600.829999995767","sequential-stimulus-presentation-old","91","406702","0.0-23.0-1.0","SS1619740082049","trial","","40","500","3100.829999995767","images/stimuli/spore_stims/complex_09_A_b.gif","images/stimuli/spore_stims/complex_11_A_a.gif","forced_long","","7","complex_dissimilar","images/stimuli/spore_stims/complex_11_A_a.gif","","","","",""
"","null","html-keyboard-response","92","407575","0.0-23.0-0.1","SS1619740082049","","","null","","","","","","<p><img src= images/blank.png width =""600"" height = ""600"" style=""position:fixed;top:50%; left:50%; transform: translate(-50%, -50%); border:5px solid black"">","","","","","","","",""
"","4831.405000004452","sequential-stimulus-presentation-old","93","412924","0.0-23.0-1.1","SS1619740082049","trial","","40","500","5331.405000004452","images/stimuli/spore_stims/complex_09_A_b.gif","images/stimuli/spore_stims/complex_11_A_a.gif","forced_long","","7","complex_dissimilar","images/stimuli/spore_stims/complex_11_A_a.gif","","","","",""
"","null","html-keyboard-response","94","414215","0.0-23.0-0.2","SS1619740082049","","","null","","","","","","<p><img src= images/blank.png width =""600"" height = ""600"" style=""position:fixed;top:50%; left:50%; transform: translate(-50%, -50%); border:5px solid black"">","","","","","","","",""
"","2178.314999997383","sequential-stimulus-presentation-old","95","416906","0.0-23.0-1.2","SS1619740082049","trial","","40","500","2678.314999997383","images/stimuli/spore_stims/complex_09_A_b.gif","images/stimuli/spore_stims/complex_11_A_a.gif","forced_long","","7","complex_dissimilar","images/stimuli/spore_stims/complex_11_A_a.gif","","","","",""
"","null","html-keyboard-response","96","417962","0.0-23.0-0.3","SS1619740082049","","","null","","","","","","<p><img src= images/blank.png width =""600"" height = ""600"" style=""position:fixed;top:50%; left:50%; transform: translate(-50%, -50%); border:5px solid black"">","","","","","","","",""
"","1844.875000009779","sequential-stimulus-presentation-old","97","420311","0.0-23.0-1.3","SS1619740082049","trial","","40","500","2344.875000009779","images/stimuli/spore_stims/complex_09_A_b.gif","images/stimuli/spore_stims/complex_11_A_a.gif","forced_long","","7","complex_dissimilar","images/stimuli/spore_stims/complex_11_A_a.gif","","","","",""
"","null","html-keyboard-response","98","421506","0.0-23.0-0.4","SS1619740082049","","","null","","","","","","<p><img src= images/blank.png width =""600"" height = ""600"" style=""position:fixed;top:50%; left:50%; transform: translate(-50%, -50%); border:5px solid black"">","","","","","","","",""
"","1499.374999999418","sequential-stimulus-presentation-old","99","423514","0.0-23.0-1.4","SS1619740082049","trial","","40","500","1999.374999999418","images/stimuli/spore_stims/complex_09_A_b.gif","images/stimuli/spore_stims/complex_11_A_a.gif","forced_long","","7","complex_dissimilar","images/stimuli/spore_stims/complex_11_A_a.gif","","","","",""
"","null","html-keyboard-response","100","424514","0.0-23.0-0.5","SS1619740082049","","","null","","","","","","<p><img src= images/blank.png width =""600"" height = ""600"" style=""position:fixed;top:50%; left:50%; transform: translate(-50%, -50%); border:5px solid black"">","","","","","","","",""
"","686.1800000042422","sequential-stimulus-presentation-old","101","425711","0.0-23.0-1.5","SS1619740082049","trial","","40","500","1186.1800000042422","images/stimuli/spore_stims/complex_09_A_b.gif","images/stimuli/spore_stims/complex_11_A_a.gif","forced_long","","7","complex_dissimilar","images/stimuli/spore_stims/complex_11_A_a.gif","","","","",""
"","2739.099999991595","survey-multi-choice","102","428452","0.0-24.0","SS1619740082049","math_question","","","","","","","","","","","","{""Q0"":""6""}","[0]","6","",""
"","null","html-keyboard-response","103","429429","0.0-25.0-0.0","SS1619740082049","","","null","","","","","","<p><img src= images/blank.png width =""600"" height = ""600"" style=""position:fixed;top:50%; left:50%; transform: translate(-50%, -50%); border:5px solid black"">","","","","","","","",""
"","19125.27499999851","sequential-stimulus-presentation-old","104","449046","0.0-25.0-1.0","SS1619740082049","trial","","40","500","19625.27499999851","images/stimuli/spore_stims/simple_12_A_b.gif","images/stimuli/spore_stims/simple_19_A_a.gif","self_paced","","8","simple_dissimilar","images/stimuli/spore_stims/simple_19_A_a.gif","","","","",""
"","null","html-keyboard-response","105","449920","0.0-25.0-0.1","SS1619740082049","","","null","","","","","","<p><img src= images/blank.png width =""600"" height = ""600"" style=""position:fixed;top:50%; left:50%; transform: translate(-50%, -50%); border:5px solid black"">","","","","","","","",""
"","598.294999988866","sequential-stimulus-presentation-old","106","451031","0.0-25.0-1.1","SS1619740082049","trial","","40","500","1098.294999988866","images/stimuli/spore_stims/simple_12_A_b.gif","images/stimuli/spore_stims/simple_19_A_a.gif","self_paced","","8","simple_dissimilar","images/stimuli/spore_stims/simple_19_A_a.gif","","","","",""
"","null","html-keyboard-response","107","452246","0.0-25.0-0.2","SS1619740082049","","","null","","","","","","<p><img src= images/blank.png width =""600"" height = ""600"" style=""position:fixed;top:50%; left:50%; transform: translate(-50%, -50%); border:5px solid black"">","","","","","","","",""
"","37.57499999483116","sequential-stimulus-presentation-old","108","452788","0.0-25.0-1.2","SS1619740082049","trial","","40","500","537.5749999948312","images/stimuli/spore_stims/simple_12_A_b.gif","images/stimuli/spore_stims/simple_19_A_a.gif","self_paced","","8","simple_dissimilar","images/stimuli/spore_stims/simple_19_A_a.gif","","","","",""
"","null","html-keyboard-response","109","453871","0.0-25.0-0.3","SS1619740082049","","","null","","","","","","<p><img src= images/blank.png width =""600"" height = ""600"" style=""position:fixed;top:50%; left:50%; transform: translate(-50%, -50%); border:5px solid black"">","","","","","","","",""
"","119.06499999167863","sequential-stimulus-presentation-old","110","454493","0.0-25.0-1.3","SS1619740082049","trial","","40","500","619.0649999916786","images/stimuli/spore_stims/simple_12_A_b.gif","images/stimuli/spore_stims/simple_19_A_a.gif","self_paced","","8","simple_dissimilar","images/stimuli/spore_stims/simple_19_A_a.gif","","","","",""
"","null","html-keyboard-response","111","455680","0.0-25.0-0.4","SS1619740082049","","","null","","","","","","<p><img src= images/blank.png width =""600"" height = ""600"" style=""position:fixed;top:50%; left:50%; transform: translate(-50%, -50%); border:5px solid black"">","","","","","","","",""
"","47.66500000550877","sequential-stimulus-presentation-old","112","456231","0.0-25.0-1.4","SS1619740082049","trial","","40","500","547.6650000055088","images/stimuli/spore_stims/simple_12_A_b.gif","images/stimuli/spore_stims/simple_19_A_a.gif","self_paced","","8","simple_dissimilar","images/stimuli/spore_stims/simple_19_A_a.gif","","","","",""
"","3093.104999992647","survey-multi-choice","113","459327","0.0-26.0","SS1619740082049","math_question","","","","","","","","","","","","{""Q0"":""16""}","[0]","16","",""
"","null","html-keyboard-response","114","460141","0.0-27.0-0.0","SS1619740082049","","","null","","","","","","<p><img src= images/blank.png width =""600"" height = ""600"" style=""position:fixed;top:50%; left:50%; transform: translate(-50%, -50%); border:5px solid black"">","","","","","","","",""
"","7305.99500000244","sequential-stimulus-presentation-old","115","467955","0.0-27.0-1.0","SS1619740082049","trial","","40","500","7805.99500000244","images/stimuli/spore_stims/simple_20_A_a.gif","images/stimuli/spore_stims/simple_10_A_b.gif","forced_short","","9","simple_dissimilar","images/stimuli/spore_stims/simple_10_A_b.gif","","","","",""
"","null","html-keyboard-response","116","469190","0.0-27.0-0.1","SS1619740082049","","","null","","","","","","<p><img src= images/blank.png width =""600"" height = ""600"" style=""position:fixed;top:50%; left:50%; transform: translate(-50%, -50%); border:5px solid black"">","","","","","","","",""
"","1254.0449999942211","sequential-stimulus-presentation-old","117","470952","0.0-27.0-1.1","SS1619740082049","trial","","40","500","1754.0449999942211","images/stimuli/spore_stims/simple_20_A_a.gif","images/stimuli/spore_stims/simple_10_A_b.gif","forced_short","","9","simple_dissimilar","images/stimuli/spore_stims/simple_10_A_b.gif","","","","",""
"","null","html-keyboard-response","118","471959","0.0-27.0-0.2","SS1619740082049","","","null","","","","","","<p><img src= images/blank.png width =""600"" height = ""600"" style=""position:fixed;top:50%; left:50%; transform: translate(-50%, -50%); border:5px solid black"">","","","","","","","",""
"","606.644999992568","sequential-stimulus-presentation-old","119","473076","0.0-27.0-1.2","SS1619740082049","trial","","40","500","1106.644999992568","images/stimuli/spore_stims/simple_20_A_a.gif","images/stimuli/spore_stims/simple_10_A_b.gif","forced_short","","9","simple_dissimilar","images/stimuli/spore_stims/simple_20_A_a.gif","","","","",""
"","null","html-keyboard-response","120","473999","0.0-27.0-0.3","SS1619740082049","","","null","","","","","","<p><img src= images/blank.png width =""600"" height = ""600"" style=""position:fixed;top:50%; left:50%; transform: translate(-50%, -50%); border:5px solid black"">","","","","","","","",""
"","1154.3099999980768","sequential-stimulus-presentation-old","121","475656","0.0-27.0-1.3","SS1619740082049","trial","","40","500","1654.3099999980768","images/stimuli/spore_stims/simple_20_A_a.gif","images/stimuli/spore_stims/simple_10_A_b.gif","forced_short","","9","simple_dissimilar","images/stimuli/spore_stims/simple_10_A_b.gif","","","","",""
"","null","html-keyboard-response","122","476566","0.0-27.0-0.4","SS1619740082049","","","null","","","","","","<p><img src= images/blank.png width =""600"" height = ""600"" style=""position:fixed;top:50%; left:50%; transform: translate(-50%, -50%); border:5px solid black"">","","","","","","","",""
"","688.8750000071013","sequential-stimulus-presentation-old","123","477759","0.0-27.0-1.4","SS1619740082049","trial","","40","500","1188.8750000071013","images/stimuli/spore_stims/simple_20_A_a.gif","images/stimuli/spore_stims/simple_10_A_b.gif","forced_short","","9","simple_dissimilar","images/stimuli/spore_stims/simple_10_A_b.gif","","","","",""
"","null","html-keyboard-response","124","478652","0.0-27.0-0.5","SS1619740082049","","","null","","","","","","<p><img src= images/blank.png width =""600"" height = ""600"" style=""position:fixed;top:50%; left:50%; transform: translate(-50%, -50%); border:5px solid black"">","","","","","","","",""
"","667.6699999952689","sequential-stimulus-presentation-old","125","479832","0.0-27.0-1.5","SS1619740082049","trial","","40","500","1167.6699999952689","images/stimuli/spore_stims/simple_20_A_a.gif","images/stimuli/spore_stims/simple_10_A_b.gif","forced_short","","9","simple_dissimilar","images/stimuli/spore_stims/simple_20_A_a.gif","","","","",""
"","3484.4000000011874","survey-multi-choice","126","483319","0.0-28.0","SS1619740082049","math_question","","","","","","","","","","","","{""Q0"":""12""}","[0]","12","",""
"","null","html-keyboard-response","127","484432","0.0-29.0-0.0","SS1619740082049","","","null","","","","","","<p><img src= images/blank.png width =""600"" height = ""600"" style=""position:fixed;top:50%; left:50%; transform: translate(-50%, -50%); border:5px solid black"">","","","","","","","",""
"","7616.090000010445","sequential-stimulus-presentation-old","128","492558","0.0-29.0-1.0","SS1619740082049","trial","","40","500","8116.090000010445","images/stimuli/spore_stims/complex_13_A_b.gif","images/stimuli/spore_stims/complex_19_A_a.gif","forced_short","","10","complex_dissimilar","images/stimuli/spore_stims/complex_19_A_a.gif","","","","",""
"","null","html-keyboard-response","129","493780","0.0-29.0-0.1","SS1619740082049","","","null","","","","","","<p><img src= images/blank.png width =""600"" height = ""600"" style=""position:fixed;top:50%; left:50%; transform: translate(-50%, -50%); border:5px solid black"">","","","","","","","",""
"","1454.2450000008103","sequential-stimulus-presentation-old","130","495740","0.0-29.0-1.1","SS1619740082049","trial","","40","500","1954.2450000008103","images/stimuli/spore_stims/complex_13_A_b.gif","images/stimuli/spore_stims/complex_19_A_a.gif","forced_short","","10","complex_dissimilar","images/stimuli/spore_stims/complex_13_A_b.gif","","","","",""
"","null","html-keyboard-response","131","496667","0.0-29.0-0.2","SS1619740082049","","","null","","","","","","<p><img src= images/blank.png width =""600"" height = ""600"" style=""position:fixed;top:50%; left:50%; transform: translate(-50%, -50%); border:5px solid black"">","","","","","","","",""
"","408.20499999972526","sequential-stimulus-presentation-old","132","497578","0.0-29.0-1.2","SS1619740082049","trial","","40","500","908.2049999997253","images/stimuli/spore_stims/complex_13_A_b.gif","images/stimuli/spore_stims/complex_19_A_a.gif","forced_short","","10","complex_dissimilar","images/stimuli/spore_stims/complex_13_A_b.gif","","","","",""
"","null","html-keyboard-response","133","498851","0.0-29.0-0.3","SS1619740082049","","","null","","","","","","<p><img src= images/blank.png width =""600"" height = ""600"" style=""position:fixed;top:50%; left:50%; transform: translate(-50%, -50%); border:5px solid black"">","","","","","","","",""
"","392.87499999045394","sequential-stimulus-presentation-old","134","499760","0.0-29.0-1.3","SS1619740082049","trial","","40","500","892.874999990454","images/stimuli/spore_stims/complex_13_A_b.gif","images/stimuli/spore_stims/complex_19_A_a.gif","forced_short","","10","complex_dissimilar","images/stimuli/spore_stims/complex_19_A_a.gif","","","","",""
"","28438.674999997602","survey-multi-choice","135","528213","0.0-30.0","SS1619740082049","math_question","","","","","","","","","","","","{""Q0"":""13""}","[0]","13","",""
"","null","html-keyboard-response","136","529233","0.0-31.0-0.0","SS1619740082049","","","null","","","","","","<p><img src= images/blank.png width =""600"" height = ""600"" style=""position:fixed;top:50%; left:50%; transform: translate(-50%, -50%); border:5px solid black"">","","","","","","","",""
"","2413.2150000077672","sequential-stimulus-presentation-old","137","532151","0.0-31.0-1.0","SS1619740082049","trial","","40","500","2913.2150000077672","images/stimuli/spore_stims/simple_17_A_a.gif","images/stimuli/spore_stims/simple_19_A_b.gif","forced_short","","11","simple_dissimilar","images/stimuli/spore_stims/simple_19_A_b.gif","","","","",""
"","null","html-keyboard-response","138","533168","0.0-31.0-0.1","SS1619740082049","","","null","","","","","","<p><img src= images/blank.png width =""600"" height = ""600"" style=""position:fixed;top:50%; left:50%; transform: translate(-50%, -50%); border:5px solid black"">","","","","","","","",""
"","556.1049999960233","sequential-stimulus-presentation-old","139","534237","0.0-31.0-1.1","SS1619740082049","trial","","40","500","1056.1049999960233","images/stimuli/spore_stims/simple_17_A_a.gif","images/stimuli/spore_stims/simple_19_A_b.gif","forced_short","","11","simple_dissimilar","images/stimuli/spore_stims/simple_19_A_b.gif","","","","",""
"","null","html-keyboard-response","140","535271","0.0-31.0-0.2","SS1619740082049","","","null","","","","","","<p><img src= images/blank.png width =""600"" height = ""600"" style=""position:fixed;top:50%; left:50%; transform: translate(-50%, -50%); border:5px solid black"">","","","","","","","",""
"","318.184999996447","sequential-stimulus-presentation-old","141","536099","0.0-31.0-1.2","SS1619740082049","trial","","40","500","818.184999996447","images/stimuli/spore_stims/simple_17_A_a.gif","images/stimuli/spore_stims/simple_19_A_b.gif","forced_short","","11","simple_dissimilar","images/stimuli/spore_stims/simple_17_A_a.gif","","","","",""
"","null","html-keyboard-response","142","537169","0.0-31.0-0.3","SS1619740082049","","","null","","","","","","<p><img src= images/blank.png width =""600"" height = ""600"" style=""position:fixed;top:50%; left:50%; transform: translate(-50%, -50%); border:5px solid black"">","","","","","","","",""
"","339.4549999939045","sequential-stimulus-presentation-old","143","538018","0.0-31.0-1.3","SS1619740082049","trial","","40","500","839.4549999939045","images/stimuli/spore_stims/simple_17_A_a.gif","images/stimuli/spore_stims/simple_19_A_b.gif","forced_short","","11","simple_dissimilar","images/stimuli/spore_stims/simple_17_A_a.gif","","","","",""
"","null","html-keyboard-response","144","539305","0.0-31.0-0.4","SS1619740082049","","","null","","","","","","<p><img src= images/blank.png width =""600"" height = ""600"" style=""position:fixed;top:50%; left:50%; transform: translate(-50%, -50%); border:5px solid black"">","","","","","","","",""
"","120.2049999992596","sequential-stimulus-presentation-old","145","539935","0.0-31.0-1.4","SS1619740082049","trial","","40","500","620.2049999992596","images/stimuli/spore_stims/simple_17_A_a.gif","images/stimuli/spore_stims/simple_19_A_b.gif","forced_short","","11","simple_dissimilar","images/stimuli/spore_stims/simple_19_A_b.gif","","","","",""
"[{""page_index"":0,""viewing_time"":6600.739999994403}]","6601.060000000871","instructions","146","546538","0.0-32.0","SS1619740082049","instructions","","","","","","","","","","","","","","","",""
"","12498.735000001034","survey-likert","147","559040","0.0-33.0","SS1619740082049","similarity_question","","","","","","","","","","","","{""Q0"":2}","[0]","","images/stimuli/spore_stims/complex_10_A_b.gif","images/stimuli/spore_stims/complex_17_A_a.gif"
"","5347.73999999743","survey-likert","148","564396","0.0-34.0","SS1619740082049","similarity_question","","","","","","","","","","","","{""Q0"":1}","[0]","","images/stimuli/spore_stims/complex_05_A_b.gif","images/stimuli/spore_stims/complex_01_A_a.gif"
"","5916.485000008834","survey-likert","149","570321","0.0-35.0","SS1619740082049","similarity_question","","","","","","","","","","","","{""Q0"":1}","[0]","","images/stimuli/spore_stims/complex_11_A_a.gif","images/stimuli/spore_stims/complex_09_A_b.gif"
"","4742.780000000494","survey-likert","150","575072","0.0-36.0","SS1619740082049","similarity_question","","","","","","","","","","","","{""Q0"":5}","[0]","","images/stimuli/spore_stims/simple_19_A_b.gif","images/stimuli/spore_stims/simple_17_A_a.gif"
"","2630.329999999958","survey-likert","151","577710","0.0-37.0","SS1619740082049","similarity_question","","","","","","","","","","","","{""Q0"":4}","[0]","","images/stimuli/spore_stims/simple_18_A_a.gif","images/stimuli/spore_stims/simple_06_A_b.gif"
"","3140.7000000035623","survey-likert","152","580858","0.0-38.0","SS1619740082049","similarity_question","","","","","","","","","","","","{""Q0"":5}","[0]","","images/stimuli/spore_stims/simple_12_A_a.gif","images/stimuli/spore_stims/simple_03_A_b.gif"
"","2712.5749999977415","survey-likert","153","583579","0.0-39.0","SS1619740082049","similarity_question","","","","","","","","","","","","{""Q0"":5}","[0]","","images/stimuli/spore_stims/simple_20_A_a.gif","images/stimuli/spore_stims/simple_10_A_b.gif"
"","5558.119999986957","survey-likert","154","589145","0.0-40.0","SS1619740082049","similarity_question","","","","","","","","","","","","{""Q0"":3}","[0]","","images/stimuli/spore_stims/complex_13_A_b.gif","images/stimuli/spore_stims/complex_19_A_a.gif"
"","2061.325000002398","survey-likert","155","591215","0.0-41.0","SS1619740082049","similarity_question","","","","","","","","","","","","{""Q0"":4}","[0]","","images/stimuli/spore_stims/simple_19_A_a.gif","images/stimuli/spore_stims/simple_12_A_b.gif"
"","2336.7699999944307","survey-likert","156","593560","0.0-42.0","SS1619740082049","similarity_question","","","","","","","","","","","","{""Q0"":4}","[0]","","images/stimuli/spore_stims/complex_04_A_a.gif","images/stimuli/spore_stims/complex_15_A_b.gif"
"","2998.7549999932526","survey-likert","157","596567","0.0-43.0","SS1619740082049","similarity_question","","","","","","","","","","","","{""Q0"":2}","[0]","","images/stimuli/spore_stims/complex_11_A_b.gif","images/stimuli/spore_stims/complex_05_A_a.gif"
"","4680.594999997993","survey-likert","158","601256","0.0-44.0","SS1619740082049","similarity_question","","","","","","","","","","","","{""Q0"":5}","[0]","","images/stimuli/spore_stims/simple_15_A_b.gif","images/stimuli/spore_stims/simple_06_A_a.gif"
"[{""page_index"":0,""viewing_time"":4960.334999996121}]","4960.709999999381","instructions","159","606224","0.0-45.0","SS1619740082049","instructions","","","","","","","","","","","","","","","",""
"","7615.5650000000605","survey-likert","160","613843","0.0-46.0","SS1619740082049","","","","","","","","","images/stimuli/spore_stims/simple_03_A_b.gif","","","","{""Q0"":0}","[0]","","",""
"","3830.4300000017975","survey-likert","161","617682","0.0-47.0","SS1619740082049","","","","","","","","","images/stimuli/spore_stims/complex_05_A_a.gif","","","","{""Q0"":4}","[0]","","",""
"","2260.244999997667","survey-likert","162","619950","0.0-48.0","SS1619740082049","","","","","","","","","images/stimuli/spore_stims/complex_17_A_a.gif","","","","{""Q0"":5}","[0]","","",""
"","2298.8600000098813","survey-likert","163","622257","0.0-49.0","SS1619740082049","","","","","","","","","images/stimuli/spore_stims/simple_12_A_b.gif","","","","{""Q0"":0}","[0]","","",""
"","3237.9000000073574","survey-likert","164","625503","0.0-50.0","SS1619740082049","","","","","","","","","images/stimuli/spore_stims/complex_04_A_a.gif","","","","{""Q0"":5}","[0]","","",""
"","1972.170000008191","survey-likert","165","627483","0.0-51.0","SS1619740082049","","","","","","","","","images/stimuli/spore_stims/simple_20_A_a.gif","","","","{""Q0"":0}","[0]","","",""
"","1892.8549999982351","survey-likert","166","629385","0.0-52.0","SS1619740082049","","","","","","","","","images/stimuli/spore_stims/simple_17_A_a.gif","","","","{""Q0"":0}","[0]","","",""
"","2930.5549999990035","survey-likert","167","632323","0.0-53.0","SS1619740082049","","","","","","","","","images/stimuli/spore_stims/complex_11_A_a.gif","","","","{""Q0"":4}","[0]","","",""
"","1727.6750000019092","survey-likert","168","634059","0.0-54.0","SS1619740082049","","","","","","","","","images/stimuli/spore_stims/complex_13_A_b.gif","","","","{""Q0"":5}","[0]","","",""
"","2264.4000000000233","survey-likert","169","636332","0.0-55.0","SS1619740082049","","","","","","","","","images/stimuli/spore_stims/simple_06_A_b.gif","","","","{""Q0"":0}","[0]","","",""
"","2105.165000000852","survey-likert","170","638446","0.0-56.0","SS1619740082049","","","","","","","","","images/stimuli/spore_stims/simple_06_A_a.gif","","","","{""Q0"":0}","[0]","","",""
"","3058.9400000026217","survey-likert","171","641513","0.0-57.0","SS1619740082049","","","","","","","","","images/stimuli/spore_stims/complex_01_A_a.gif","","","","{""Q0"":4}","[0]","","",""
"[{""page_index"":0,""viewing_time"":1494.8200000071665}]","1495.1200000068638","instructions","172","643016","0.0-58.0","SS1619740082049","instructions","","","","","","","","","","","","","","","",""
"","5068.075000002864","demog-age","173","648089","0.0-59.0","SS1619740082049","","","","","","","","","","","","","{""age"":""19""}","","","",""
"","8942.590000006021","demog-ethnic-US","174","657037","0.0-60.0","SS1619740082049","","","","","","","","","","","","","{""ethnicity"":[""White""]}","[0]","","",""
"","8920.499999992899","demog-gender-and-education","175","665966","0.0-61.0","SS1619740082049","","","","","","","","","","","","","{""gender"":""Male"",""education"":""High school diploma""}","[0,1]","","",""
"","15918.390000006184","survey-text","176","681894","0.0-62.0","SS1619740082049","feedback","","","","","","","","","","","","{""Q0"":""NO""}","","","",""
"[{""page_index"":0,""viewing_time"":2318.4699999983422}]","2318.7349999934668","instructions","177","684216","0.0-63.0","SS1619740082049","instructions","","","","","","","","","","","","","","","",""
