"view_history","rt","trial_type","trial_index","time_elapsed","internal_node_id","subject","stimulus_type","trial_stimulus","key_press","minimum_viewing_duration","trial_looking_time","block_deviant","block_background","exposure_type","stimulus","block_number","block_type","stimulus_displayed","responses","question_order","math_correct_answer","stimulus_left","stimulus_right"
"[{""page_index"":0,""viewing_time"":22342.109999997774}]","22342.834999988554","instructions","0","22344","0.0-0.0","SS1619739807636","","","","","","","","","","","","","","","","",""
"[{""page_index"":0,""viewing_time"":60624.305000004824},{""page_index"":1,""viewing_time"":8816.224999987753}]","69440.80499999109","instructions","1","93787","0.0-1.0","SS1619739807636","instructions","","","","","","","","","","","","","","","",""
"","60311.845000018366","sequential-stimulus-presentation-old","2","154604","0.0-2.0","SS1619739807636","","","40","500","60811.845000018366","null","null","self_paced","","","","","","","","",""
"","9410.870000021532","sequential-stimulus-presentation-old","3","164517","0.0-3.0","SS1619739807636","","","40","500","9910.870000021532","null","null","self_paced","","","","","","","","",""
"[{""page_index"":0,""viewing_time"":80827.55999997607}]","80827.85499998135","instructions","4","245346","0.0-4.0","SS1619739807636","instructions","","","","","","","","","","","","","","","",""
"","1335.9850000124425","sequential-stimulus-presentation-old","5","261684","0.0-5.0","SS1619739807636","","","40","500","1835.9850000124425","null","null","forced_long","","","","","","","","",""
"","8984.224999992875","sequential-stimulus-presentation-old","6","271171","0.0-6.0","SS1619739807636","","","40","500","9484.224999992875","null","null","forced_long","","","","","","","","",""
"[{""page_index"":0,""viewing_time"":32515.039999998407}]","32515.364999999292","instructions","7","303688","0.0-7.0","SS1619739807636","instructions","","","","","","","","","","","","","","","",""
"[{""page_index"":0,""viewing_time"":9542.520000017248},{""page_index"":1,""viewing_time"":18510.144999978365},{""page_index"":2,""viewing_time"":9480.160000006435},{""page_index"":3,""viewing_time"":2223.985000018729},{""page_index"":4,""viewing_time"":1451.5399999800138}]","41208.605000021635","instructions","8","344897","0.0-8.0","SS1619739807636","instructions","","","","","","","","","","","","","","","",""
"","null","html-keyboard-response","9","345922","0.0-9.0-0.0","SS1619739807636","","","null","","","","","","<p><img src= images/blank.png width =""600"" height = ""600"" style=""position:fixed;top:50%; left:50%; transform: translate(-50%, -50%); border:5px solid black"">","","","","","","","",""
"","1148.4349999809638","sequential-stimulus-presentation-old","10","362074","0.0-9.0-1.0","SS1619739807636","trial","","40","500","1648.4349999809638","images/stimuli/spore_stims/simple_10_A_a.gif","images/stimuli/spore_stims/simple_01_A_b.gif","forced_long","","0","simple_dissimilar","images/stimuli/spore_stims/simple_01_A_b.gif","","","","",""
"","null","html-keyboard-response","11","363180","0.0-9.0-0.1","SS1619739807636","","","null","","","","","","<p><img src= images/blank.png width =""600"" height = ""600"" style=""position:fixed;top:50%; left:50%; transform: translate(-50%, -50%); border:5px solid black"">","","","","","","","",""
"","57430.87999999989","sequential-stimulus-presentation-old","12","421115","0.0-9.0-1.1","SS1619739807636","trial","","40","500","57930.87999999989","images/stimuli/spore_stims/simple_10_A_a.gif","images/stimuli/spore_stims/simple_01_A_b.gif","forced_long","","0","simple_dissimilar","images/stimuli/spore_stims/simple_01_A_b.gif","","","","",""
"","null","html-keyboard-response","13","422401","0.0-9.0-0.2","SS1619739807636","","","null","","","","","","<p><img src= images/blank.png width =""600"" height = ""600"" style=""position:fixed;top:50%; left:50%; transform: translate(-50%, -50%); border:5px solid black"">","","","","","","","",""
"","73502.80499999644","sequential-stimulus-presentation-old","14","496408","0.0-9.0-1.2","SS1619739807636","trial","","40","500","74002.80499999644","images/stimuli/spore_stims/simple_10_A_a.gif","images/stimuli/spore_stims/simple_01_A_b.gif","forced_long","","0","simple_dissimilar","images/stimuli/spore_stims/simple_10_A_a.gif","","","","",""
"","null","html-keyboard-response","15","497518","0.0-9.0-0.3","SS1619739807636","","","null","","","","","","<p><img src= images/blank.png width =""600"" height = ""600"" style=""position:fixed;top:50%; left:50%; transform: translate(-50%, -50%); border:5px solid black"">","","","","","","","",""
"","51640.775000007125","sequential-stimulus-presentation-old","16","549662","0.0-9.0-1.3","SS1619739807636","trial","","40","500","52140.775000007125","images/stimuli/spore_stims/simple_10_A_a.gif","images/stimuli/spore_stims/simple_01_A_b.gif","forced_long","","0","simple_dissimilar","images/stimuli/spore_stims/simple_01_A_b.gif","","","","",""
"","null","html-keyboard-response","17","550578","0.0-9.0-0.4","SS1619739807636","","","null","","","","","","<p><img src= images/blank.png width =""600"" height = ""600"" style=""position:fixed;top:50%; left:50%; transform: translate(-50%, -50%); border:5px solid black"">","","","","","","","",""
"","25979.800000000978","sequential-stimulus-presentation-old","18","577063","0.0-9.0-1.4","SS1619739807636","trial","","40","500","26479.800000000978","images/stimuli/spore_stims/simple_10_A_a.gif","images/stimuli/spore_stims/simple_01_A_b.gif","forced_long","","0","simple_dissimilar","images/stimuli/spore_stims/simple_01_A_b.gif","","","","",""
"","null","html-keyboard-response","19","578358","0.0-9.0-0.5","SS1619739807636","","","null","","","","","","<p><img src= images/blank.png width =""600"" height = ""600"" style=""position:fixed;top:50%; left:50%; transform: translate(-50%, -50%); border:5px solid black"">","","","","","","","",""
"","15656.755000003614","sequential-stimulus-presentation-old","20","594518","0.0-9.0-1.5","SS1619739807636","trial","","40","500","16156.755000003614","images/stimuli/spore_stims/simple_10_A_a.gif","images/stimuli/spore_stims/simple_01_A_b.gif","forced_long","","0","simple_dissimilar","images/stimuli/spore_stims/simple_10_A_a.gif","","","","",""
"","9761.150000005728","survey-multi-choice","21","604282","0.0-10.0","SS1619739807636","math_question","","","","","","","","","","","","{""Q0"":""5""}","[0]","5","",""
"","null","html-keyboard-response","22","605132","0.0-11.0-0.0","SS1619739807636","","","null","","","","","","<p><img src= images/blank.png width =""600"" height = ""600"" style=""position:fixed;top:50%; left:50%; transform: translate(-50%, -50%); border:5px solid black"">","","","","","","","",""
"","25849.124999978812","sequential-stimulus-presentation-old","23","631485","0.0-11.0-1.0","SS1619739807636","trial","","40","500","26349.124999978812","images/stimuli/spore_stims/simple_02_A_a.gif","images/stimuli/spore_stims/simple_10_A_b.gif","self_paced","","1","simple_dissimilar","images/stimuli/spore_stims/simple_10_A_b.gif","","","","",""
"","null","html-keyboard-response","24","632725","0.0-11.0-0.1","SS1619739807636","","","null","","","","","","<p><img src= images/blank.png width =""600"" height = ""600"" style=""position:fixed;top:50%; left:50%; transform: translate(-50%, -50%); border:5px solid black"">","","","","","","","",""
"","13051.559999992605","sequential-stimulus-presentation-old","25","646280","0.0-11.0-1.1","SS1619739807636","trial","","40","500","13551.559999992605","images/stimuli/spore_stims/simple_02_A_a.gif","images/stimuli/spore_stims/simple_10_A_b.gif","self_paced","","1","simple_dissimilar","images/stimuli/spore_stims/simple_10_A_b.gif","","","","",""
"","null","html-keyboard-response","26","647404","0.0-11.0-0.2","SS1619739807636","","","null","","","","","","<p><img src= images/blank.png width =""600"" height = ""600"" style=""position:fixed;top:50%; left:50%; transform: translate(-50%, -50%); border:5px solid black"">","","","","","","","",""
"","21808.33500000881","sequential-stimulus-presentation-old","27","669716","0.0-11.0-1.2","SS1619739807636","trial","","40","500","22308.33500000881","images/stimuli/spore_stims/simple_02_A_a.gif","images/stimuli/spore_stims/simple_10_A_b.gif","self_paced","","1","simple_dissimilar","images/stimuli/spore_stims/simple_10_A_b.gif","","","","",""
"","null","html-keyboard-response","28","670997","0.0-11.0-0.3","SS1619739807636","","","null","","","","","","<p><img src= images/blank.png width =""600"" height = ""600"" style=""position:fixed;top:50%; left:50%; transform: translate(-50%, -50%); border:5px solid black"">","","","","","","","",""
"","25322.320000006584","sequential-stimulus-presentation-old","29","696824","0.0-11.0-1.3","SS1619739807636","trial","","40","500","25822.320000006584","images/stimuli/spore_stims/simple_02_A_a.gif","images/stimuli/spore_stims/simple_10_A_b.gif","self_paced","","1","simple_dissimilar","images/stimuli/spore_stims/simple_10_A_b.gif","","","","",""
"","3421.2399999960326","survey-multi-choice","30","700246","0.0-12.0","SS1619739807636","math_question","","","","","","","","","","","","{""Q0"":""9""}","[0]","9","",""
"","null","html-keyboard-response","31","701065","0.0-13.0-0.0","SS1619739807636","","","null","","","","","","<p><img src= images/blank.png width =""600"" height = ""600"" style=""position:fixed;top:50%; left:50%; transform: translate(-50%, -50%); border:5px solid black"">","","","","","","","",""
"","1846.785000001546","sequential-stimulus-presentation-old","32","703415","0.0-13.0-1.0","SS1619739807636","trial","","40","500","2346.785000001546","images/stimuli/spore_stims/complex_07_A_a.gif","images/stimuli/spore_stims/complex_05_A_b.gif","forced_short","","2","complex_dissimilar","images/stimuli/spore_stims/complex_05_A_b.gif","","","","",""
"","null","html-keyboard-response","33","704564","0.0-13.0-0.1","SS1619739807636","","","null","","","","","","<p><img src= images/blank.png width =""600"" height = ""600"" style=""position:fixed;top:50%; left:50%; transform: translate(-50%, -50%); border:5px solid black"">","","","","","","","",""
"","12251.305000012508","sequential-stimulus-presentation-old","34","717319","0.0-13.0-1.1","SS1619739807636","trial","","40","500","12751.305000012508","images/stimuli/spore_stims/complex_07_A_a.gif","images/stimuli/spore_stims/complex_05_A_b.gif","forced_short","","2","complex_dissimilar","images/stimuli/spore_stims/complex_05_A_b.gif","","","","",""
"","null","html-keyboard-response","35","718284","0.0-13.0-0.2","SS1619739807636","","","null","","","","","","<p><img src= images/blank.png width =""600"" height = ""600"" style=""position:fixed;top:50%; left:50%; transform: translate(-50%, -50%); border:5px solid black"">","","","","","","","",""
"","11327.395000000251","sequential-stimulus-presentation-old","36","730116","0.0-13.0-1.2","SS1619739807636","trial","","40","500","11827.395000000251","images/stimuli/spore_stims/complex_07_A_a.gif","images/stimuli/spore_stims/complex_05_A_b.gif","forced_short","","2","complex_dissimilar","images/stimuli/spore_stims/complex_07_A_a.gif","","","","",""
"","null","html-keyboard-response","37","731255","0.0-13.0-0.3","SS1619739807636","","","null","","","","","","<p><img src= images/blank.png width =""600"" height = ""600"" style=""position:fixed;top:50%; left:50%; transform: translate(-50%, -50%); border:5px solid black"">","","","","","","","",""
"","13124.849999992875","sequential-stimulus-presentation-old","38","744883","0.0-13.0-1.3","SS1619739807636","trial","","40","500","13624.849999992875","images/stimuli/spore_stims/complex_07_A_a.gif","images/stimuli/spore_stims/complex_05_A_b.gif","forced_short","","2","complex_dissimilar","images/stimuli/spore_stims/complex_05_A_b.gif","","","","",""
"","2985.1550000021234","survey-multi-choice","39","747870","0.0-14.0","SS1619739807636","math_question","","","","","","","","","","","","{""Q0"":""5""}","[0]","5","",""
"","null","html-keyboard-response","40","748867","0.0-15.0-0.0","SS1619739807636","","","null","","","","","","<p><img src= images/blank.png width =""600"" height = ""600"" style=""position:fixed;top:50%; left:50%; transform: translate(-50%, -50%); border:5px solid black"">","","","","","","","",""
"","8815.535000001546","sequential-stimulus-presentation-old","41","758186","0.0-15.0-1.0","SS1619739807636","trial","","40","500","9315.535000001546","images/stimuli/spore_stims/complex_11_A_b.gif","images/stimuli/spore_stims/complex_05_A_a.gif","self_paced","","3","complex_dissimilar","images/stimuli/spore_stims/complex_05_A_a.gif","","","","",""
"","null","html-keyboard-response","42","759305","0.0-15.0-0.1","SS1619739807636","","","null","","","","","","<p><img src= images/blank.png width =""600"" height = ""600"" style=""position:fixed;top:50%; left:50%; transform: translate(-50%, -50%); border:5px solid black"">","","","","","","","",""
"","8556.145000009565","sequential-stimulus-presentation-old","43","768366","0.0-15.0-1.1","SS1619739807636","trial","","40","500","9056.145000009565","images/stimuli/spore_stims/complex_11_A_b.gif","images/stimuli/spore_stims/complex_05_A_a.gif","self_paced","","3","complex_dissimilar","images/stimuli/spore_stims/complex_11_A_b.gif","","","","",""
"","null","html-keyboard-response","44","769312","0.0-15.0-0.2","SS1619739807636","","","null","","","","","","<p><img src= images/blank.png width =""600"" height = ""600"" style=""position:fixed;top:50%; left:50%; transform: translate(-50%, -50%); border:5px solid black"">","","","","","","","",""
"","9467.99999999348","sequential-stimulus-presentation-old","45","779284","0.0-15.0-1.2","SS1619739807636","trial","","40","500","9967.99999999348","images/stimuli/spore_stims/complex_11_A_b.gif","images/stimuli/spore_stims/complex_05_A_a.gif","self_paced","","3","complex_dissimilar","images/stimuli/spore_stims/complex_05_A_a.gif","","","","",""
"","null","html-keyboard-response","46","780112","0.0-15.0-0.3","SS1619739807636","","","null","","","","","","<p><img src= images/blank.png width =""600"" height = ""600"" style=""position:fixed;top:50%; left:50%; transform: translate(-50%, -50%); border:5px solid black"">","","","","","","","",""
"","5607.445000001462","sequential-stimulus-presentation-old","47","786223","0.0-15.0-1.3","SS1619739807636","trial","","40","500","6107.445000001462","images/stimuli/spore_stims/complex_11_A_b.gif","images/stimuli/spore_stims/complex_05_A_a.gif","self_paced","","3","complex_dissimilar","images/stimuli/spore_stims/complex_05_A_a.gif","","","","",""
"","null","html-keyboard-response","48","787255","0.0-15.0-0.4","SS1619739807636","","","null","","","","","","<p><img src= images/blank.png width =""600"" height = ""600"" style=""position:fixed;top:50%; left:50%; transform: translate(-50%, -50%); border:5px solid black"">","","","","","","","",""
"","9119.78999999701","sequential-stimulus-presentation-old","49","796890","0.0-15.0-1.4","SS1619739807636","trial","","40","500","9619.78999999701","images/stimuli/spore_stims/complex_11_A_b.gif","images/stimuli/spore_stims/complex_05_A_a.gif","self_paced","","3","complex_dissimilar","images/stimuli/spore_stims/complex_11_A_b.gif","","","","",""
"","3219.3050000059884","survey-multi-choice","50","800112","0.0-16.0","SS1619739807636","math_question","","","","","","","","","","","","{""Q0"":""6""}","[0]","6","",""
"","null","html-keyboard-response","51","801197","0.0-17.0-0.0","SS1619739807636","","","null","","","","","","<p><img src= images/blank.png width =""600"" height = ""600"" style=""position:fixed;top:50%; left:50%; transform: translate(-50%, -50%); border:5px solid black"">","","","","","","","",""
"","1251.2299999943934","sequential-stimulus-presentation-old","52","817453","0.0-17.0-1.0","SS1619739807636","trial","","40","500","1751.2299999943934","images/stimuli/spore_stims/simple_12_A_b.gif","images/stimuli/spore_stims/simple_17_A_a.gif","forced_long","","4","simple_dissimilar","images/stimuli/spore_stims/simple_17_A_a.gif","","","","",""
"","null","html-keyboard-response","53","818478","0.0-17.0-0.1","SS1619739807636","","","null","","","","","","<p><img src= images/blank.png width =""600"" height = ""600"" style=""position:fixed;top:50%; left:50%; transform: translate(-50%, -50%); border:5px solid black"">","","","","","","","",""
"","11346.305000013672","sequential-stimulus-presentation-old","54","830328","0.0-17.0-1.1","SS1619739807636","trial","","40","500","11846.305000013672","images/stimuli/spore_stims/simple_12_A_b.gif","images/stimuli/spore_stims/simple_17_A_a.gif","forced_long","","4","simple_dissimilar","images/stimuli/spore_stims/simple_12_A_b.gif","","","","",""
"","null","html-keyboard-response","55","831516","0.0-17.0-0.2","SS1619739807636","","","null","","","","","","<p><img src= images/blank.png width =""600"" height = ""600"" style=""position:fixed;top:50%; left:50%; transform: translate(-50%, -50%); border:5px solid black"">","","","","","","","",""
"","26644.4349999947","sequential-stimulus-presentation-old","56","858663","0.0-17.0-1.2","SS1619739807636","trial","","40","500","27144.4349999947","images/stimuli/spore_stims/simple_12_A_b.gif","images/stimuli/spore_stims/simple_17_A_a.gif","forced_long","","4","simple_dissimilar","images/stimuli/spore_stims/simple_17_A_a.gif","","","","",""
"","null","html-keyboard-response","57","859536","0.0-17.0-0.3","SS1619739807636","","","null","","","","","","<p><img src= images/blank.png width =""600"" height = ""600"" style=""position:fixed;top:50%; left:50%; transform: translate(-50%, -50%); border:5px solid black"">","","","","","","","",""
"","8681.554999988293","sequential-stimulus-presentation-old","58","868722","0.0-17.0-1.3","SS1619739807636","trial","","40","500","9181.554999988293","images/stimuli/spore_stims/simple_12_A_b.gif","images/stimuli/spore_stims/simple_17_A_a.gif","forced_long","","4","simple_dissimilar","images/stimuli/spore_stims/simple_17_A_a.gif","","","","",""
"","null","html-keyboard-response","59","869797","0.0-17.0-0.4","SS1619739807636","","","null","","","","","","<p><img src= images/blank.png width =""600"" height = ""600"" style=""position:fixed;top:50%; left:50%; transform: translate(-50%, -50%); border:5px solid black"">","","","","","","","",""
"","13894.109999993816","sequential-stimulus-presentation-old","60","884195","0.0-17.0-1.4","SS1619739807636","trial","","40","500","14394.109999993816","images/stimuli/spore_stims/simple_12_A_b.gif","images/stimuli/spore_stims/simple_17_A_a.gif","forced_long","","4","simple_dissimilar","images/stimuli/spore_stims/simple_17_A_a.gif","","","","",""
"","3556.8700000003446","survey-multi-choice","61","887754","0.0-18.0","SS1619739807636","math_question","","","","","","","","","","","","{""Q0"":""14""}","[0]","14","",""
"","null","html-keyboard-response","62","888711","0.0-19.0-0.0","SS1619739807636","","","null","","","","","","<p><img src= images/blank.png width =""600"" height = ""600"" style=""position:fixed;top:50%; left:50%; transform: translate(-50%, -50%); border:5px solid black"">","","","","","","","",""
"","9454.259999998612","sequential-stimulus-presentation-old","63","898669","0.0-19.0-1.0","SS1619739807636","trial","","40","500","9954.259999998612","images/stimuli/spore_stims/complex_17_A_a.gif","images/stimuli/spore_stims/complex_03_A_b.gif","self_paced","","5","complex_dissimilar","images/stimuli/spore_stims/complex_03_A_b.gif","","","","",""
"","null","html-keyboard-response","64","899827","0.0-19.0-0.1","SS1619739807636","","","null","","","","","","<p><img src= images/blank.png width =""600"" height = ""600"" style=""position:fixed;top:50%; left:50%; transform: translate(-50%, -50%); border:5px solid black"">","","","","","","","",""
"","15826.38000001316","sequential-stimulus-presentation-old","65","916157","0.0-19.0-1.1","SS1619739807636","trial","","40","500","16326.38000001316","images/stimuli/spore_stims/complex_17_A_a.gif","images/stimuli/spore_stims/complex_03_A_b.gif","self_paced","","5","complex_dissimilar","images/stimuli/spore_stims/complex_03_A_b.gif","","","","",""
"","null","html-keyboard-response","66","917284","0.0-19.0-0.2","SS1619739807636","","","null","","","","","","<p><img src= images/blank.png width =""600"" height = ""600"" style=""position:fixed;top:50%; left:50%; transform: translate(-50%, -50%); border:5px solid black"">","","","","","","","",""
"","12391.949999990175","sequential-stimulus-presentation-old","67","930181","0.0-19.0-1.2","SS1619739807636","trial","","40","500","12891.949999990175","images/stimuli/spore_stims/complex_17_A_a.gif","images/stimuli/spore_stims/complex_03_A_b.gif","self_paced","","5","complex_dissimilar","images/stimuli/spore_stims/complex_03_A_b.gif","","","","",""
"","null","html-keyboard-response","68","931004","0.0-19.0-0.3","SS1619739807636","","","null","","","","","","<p><img src= images/blank.png width =""600"" height = ""600"" style=""position:fixed;top:50%; left:50%; transform: translate(-50%, -50%); border:5px solid black"">","","","","","","","",""
"","14972.799999988638","sequential-stimulus-presentation-old","69","946481","0.0-19.0-1.3","SS1619739807636","trial","","40","500","15472.799999988638","images/stimuli/spore_stims/complex_17_A_a.gif","images/stimuli/spore_stims/complex_03_A_b.gif","self_paced","","5","complex_dissimilar","images/stimuli/spore_stims/complex_03_A_b.gif","","","","",""
"","null","html-keyboard-response","70","947509","0.0-19.0-0.4","SS1619739807636","","","null","","","","","","<p><img src= images/blank.png width =""600"" height = ""600"" style=""position:fixed;top:50%; left:50%; transform: translate(-50%, -50%); border:5px solid black"">","","","","","","","",""
"","11325.660000002244","sequential-stimulus-presentation-old","71","959340","0.0-19.0-1.4","SS1619739807636","trial","","40","500","11825.660000002244","images/stimuli/spore_stims/complex_17_A_a.gif","images/stimuli/spore_stims/complex_03_A_b.gif","self_paced","","5","complex_dissimilar","images/stimuli/spore_stims/complex_03_A_b.gif","","","","",""
"","4690.594999992754","survey-multi-choice","72","964033","0.0-20.0","SS1619739807636","math_question","","","","","","","","","","","","{""Q0"":""7""}","[0]","7","",""
"","null","html-keyboard-response","73","964899","0.0-21.0-0.0","SS1619739807636","","","null","","","","","","<p><img src= images/blank.png width =""600"" height = ""600"" style=""position:fixed;top:50%; left:50%; transform: translate(-50%, -50%); border:5px solid black"">","","","","","","","",""
"","1270.4499999817926","sequential-stimulus-presentation-old","74","981173","0.0-21.0-1.0","SS1619739807636","trial","","40","500","1770.4499999817926","images/stimuli/spore_stims/complex_11_A_a.gif","images/stimuli/spore_stims/complex_15_A_b.gif","forced_long","","6","complex_dissimilar","images/stimuli/spore_stims/complex_15_A_b.gif","","","","",""
"","null","html-keyboard-response","75","982048","0.0-21.0-0.1","SS1619739807636","","","null","","","","","","<p><img src= images/blank.png width =""600"" height = ""600"" style=""position:fixed;top:50%; left:50%; transform: translate(-50%, -50%); border:5px solid black"">","","","","","","","",""
"","9633.059999992838","sequential-stimulus-presentation-old","76","992186","0.0-21.0-1.1","SS1619739807636","trial","","40","500","10133.059999992838","images/stimuli/spore_stims/complex_11_A_a.gif","images/stimuli/spore_stims/complex_15_A_b.gif","forced_long","","6","complex_dissimilar","images/stimuli/spore_stims/complex_15_A_b.gif","","","","",""
"","null","html-keyboard-response","77","993078","0.0-21.0-0.2","SS1619739807636","","","null","","","","","","<p><img src= images/blank.png width =""600"" height = ""600"" style=""position:fixed;top:50%; left:50%; transform: translate(-50%, -50%); border:5px solid black"">","","","","","","","",""
"","10614.299999986542","sequential-stimulus-presentation-old","78","1004197","0.0-21.0-1.2","SS1619739807636","trial","","40","500","11114.299999986542","images/stimuli/spore_stims/complex_11_A_a.gif","images/stimuli/spore_stims/complex_15_A_b.gif","forced_long","","6","complex_dissimilar","images/stimuli/spore_stims/complex_11_A_a.gif","","","","",""
"","null","html-keyboard-response","79","1005436","0.0-21.0-0.3","SS1619739807636","","","null","","","","","","<p><img src= images/blank.png width =""600"" height = ""600"" style=""position:fixed;top:50%; left:50%; transform: translate(-50%, -50%); border:5px solid black"">","","","","","","","",""
"","14212.89500000421","sequential-stimulus-presentation-old","80","1020152","0.0-21.0-1.3","SS1619739807636","trial","","40","500","14712.89500000421","images/stimuli/spore_stims/complex_11_A_a.gif","images/stimuli/spore_stims/complex_15_A_b.gif","forced_long","","6","complex_dissimilar","images/stimuli/spore_stims/complex_15_A_b.gif","","","","",""
"","null","html-keyboard-response","81","1020996","0.0-21.0-0.4","SS1619739807636","","","null","","","","","","<p><img src= images/blank.png width =""600"" height = ""600"" style=""position:fixed;top:50%; left:50%; transform: translate(-50%, -50%); border:5px solid black"">","","","","","","","",""
"","8686.399999976857","sequential-stimulus-presentation-old","82","1030186","0.0-21.0-1.4","SS1619739807636","trial","","40","500","9186.399999976857","images/stimuli/spore_stims/complex_11_A_a.gif","images/stimuli/spore_stims/complex_15_A_b.gif","forced_long","","6","complex_dissimilar","images/stimuli/spore_stims/complex_15_A_b.gif","","","","",""
"","3622.865000012098","survey-multi-choice","83","1033810","0.0-22.0","SS1619739807636","math_question","","","","","","","","","","","","{""Q0"":""10""}","[0]","10","",""
"","null","html-keyboard-response","84","1034700","0.0-23.0-0.0","SS1619739807636","","","null","","","","","","<p><img src= images/blank.png width =""600"" height = ""600"" style=""position:fixed;top:50%; left:50%; transform: translate(-50%, -50%); border:5px solid black"">","","","","","","","",""
"","3789.7400000074413","sequential-stimulus-presentation-old","85","1038994","0.0-23.0-1.0","SS1619739807636","trial","","40","500","4289.740000007441","images/stimuli/spore_stims/simple_04_A_a.gif","images/stimuli/spore_stims/simple_03_A_b.gif","forced_short","","7","simple_dissimilar","images/stimuli/spore_stims/simple_03_A_b.gif","","","","",""
"","null","html-keyboard-response","86","1040241","0.0-23.0-0.1","SS1619739807636","","","null","","","","","","<p><img src= images/blank.png width =""600"" height = ""600"" style=""position:fixed;top:50%; left:50%; transform: translate(-50%, -50%); border:5px solid black"">","","","","","","","",""
"","12401.68999999878","sequential-stimulus-presentation-old","87","1053147","0.0-23.0-1.1","SS1619739807636","trial","","40","500","12901.68999999878","images/stimuli/spore_stims/simple_04_A_a.gif","images/stimuli/spore_stims/simple_03_A_b.gif","forced_short","","7","simple_dissimilar","images/stimuli/spore_stims/simple_04_A_a.gif","","","","",""
"","null","html-keyboard-response","88","1054173","0.0-23.0-0.2","SS1619739807636","","","null","","","","","","<p><img src= images/blank.png width =""600"" height = ""600"" style=""position:fixed;top:50%; left:50%; transform: translate(-50%, -50%); border:5px solid black"">","","","","","","","",""
"","11690.300000016578","sequential-stimulus-presentation-old","89","1066367","0.0-23.0-1.2","SS1619739807636","trial","","40","500","12190.300000016578","images/stimuli/spore_stims/simple_04_A_a.gif","images/stimuli/spore_stims/simple_03_A_b.gif","forced_short","","7","simple_dissimilar","images/stimuli/spore_stims/simple_03_A_b.gif","","","","",""
"","null","html-keyboard-response","90","1067200","0.0-23.0-0.3","SS1619739807636","","","null","","","","","","<p><img src= images/blank.png width =""600"" height = ""600"" style=""position:fixed;top:50%; left:50%; transform: translate(-50%, -50%); border:5px solid black"">","","","","","","","",""
"","16879.320000007283","sequential-stimulus-presentation-old","91","1084583","0.0-23.0-1.3","SS1619739807636","trial","","40","500","17379.320000007283","images/stimuli/spore_stims/simple_04_A_a.gif","images/stimuli/spore_stims/simple_03_A_b.gif","forced_short","","7","simple_dissimilar","images/stimuli/spore_stims/simple_04_A_a.gif","","","","",""
"","null","html-keyboard-response","92","1085826","0.0-23.0-0.4","SS1619739807636","","","null","","","","","","<p><img src= images/blank.png width =""600"" height = ""600"" style=""position:fixed;top:50%; left:50%; transform: translate(-50%, -50%); border:5px solid black"">","","","","","","","",""
"","21187.44500001776","sequential-stimulus-presentation-old","93","1107518","0.0-23.0-1.4","SS1619739807636","trial","","40","500","21687.44500001776","images/stimuli/spore_stims/simple_04_A_a.gif","images/stimuli/spore_stims/simple_03_A_b.gif","forced_short","","7","simple_dissimilar","images/stimuli/spore_stims/simple_03_A_b.gif","","","","",""
"","null","html-keyboard-response","94","1108615","0.0-23.0-0.5","SS1619739807636","","","null","","","","","","<p><img src= images/blank.png width =""600"" height = ""600"" style=""position:fixed;top:50%; left:50%; transform: translate(-50%, -50%); border:5px solid black"">","","","","","","","",""
"","8716.40999999363","sequential-stimulus-presentation-old","95","1117844","0.0-23.0-1.5","SS1619739807636","trial","","40","500","9216.40999999363","images/stimuli/spore_stims/simple_04_A_a.gif","images/stimuli/spore_stims/simple_03_A_b.gif","forced_short","","7","simple_dissimilar","images/stimuli/spore_stims/simple_03_A_b.gif","","","","",""
"","17707.969999988563","survey-multi-choice","96","1135555","0.0-24.0","SS1619739807636","math_question","","","","","","","","","","","","{""Q0"":""17""}","[0]","17","",""
"","null","html-keyboard-response","97","1136852","0.0-25.0-0.0","SS1619739807636","","","null","","","","","","<p><img src= images/blank.png width =""600"" height = ""600"" style=""position:fixed;top:50%; left:50%; transform: translate(-50%, -50%); border:5px solid black"">","","","","","","","",""
"","18037.06499998225","sequential-stimulus-presentation-old","98","1155393","0.0-25.0-1.0","SS1619739807636","trial","","40","500","18537.06499998225","images/stimuli/spore_stims/complex_20_A_b.gif","images/stimuli/spore_stims/complex_01_A_a.gif","forced_short","","8","complex_dissimilar","images/stimuli/spore_stims/complex_01_A_a.gif","","","","",""
"","null","html-keyboard-response","99","1156427","0.0-25.0-0.1","SS1619739807636","","","null","","","","","","<p><img src= images/blank.png width =""600"" height = ""600"" style=""position:fixed;top:50%; left:50%; transform: translate(-50%, -50%); border:5px solid black"">","","","","","","","",""
"","28917.354999983218","sequential-stimulus-presentation-old","100","1185848","0.0-25.0-1.1","SS1619739807636","trial","","40","500","29417.354999983218","images/stimuli/spore_stims/complex_20_A_b.gif","images/stimuli/spore_stims/complex_01_A_a.gif","forced_short","","8","complex_dissimilar","images/stimuli/spore_stims/complex_20_A_b.gif","","","","",""
"","null","html-keyboard-response","101","1187121","0.0-25.0-0.2","SS1619739807636","","","null","","","","","","<p><img src= images/blank.png width =""600"" height = ""600"" style=""position:fixed;top:50%; left:50%; transform: translate(-50%, -50%); border:5px solid black"">","","","","","","","",""
"","10888.875000004191","sequential-stimulus-presentation-old","102","1198514","0.0-25.0-1.2","SS1619739807636","trial","","40","500","11388.875000004191","images/stimuli/spore_stims/complex_20_A_b.gif","images/stimuli/spore_stims/complex_01_A_a.gif","forced_short","","8","complex_dissimilar","images/stimuli/spore_stims/complex_01_A_a.gif","","","","",""
"","null","html-keyboard-response","103","1199618","0.0-25.0-0.3","SS1619739807636","","","null","","","","","","<p><img src= images/blank.png width =""600"" height = ""600"" style=""position:fixed;top:50%; left:50%; transform: translate(-50%, -50%); border:5px solid black"">","","","","","","","",""
"","11515.379999997094","sequential-stimulus-presentation-old","104","1211637","0.0-25.0-1.3","SS1619739807636","trial","","40","500","12015.379999997094","images/stimuli/spore_stims/complex_20_A_b.gif","images/stimuli/spore_stims/complex_01_A_a.gif","forced_short","","8","complex_dissimilar","images/stimuli/spore_stims/complex_01_A_a.gif","","","","",""
"","null","html-keyboard-response","105","1212510","0.0-25.0-0.4","SS1619739807636","","","null","","","","","","<p><img src= images/blank.png width =""600"" height = ""600"" style=""position:fixed;top:50%; left:50%; transform: translate(-50%, -50%); border:5px solid black"">","","","","","","","",""
"","11118.125000008149","sequential-stimulus-presentation-old","106","1224133","0.0-25.0-1.4","SS1619739807636","trial","","40","500","11618.125000008149","images/stimuli/spore_stims/complex_20_A_b.gif","images/stimuli/spore_stims/complex_01_A_a.gif","forced_short","","8","complex_dissimilar","images/stimuli/spore_stims/complex_01_A_a.gif","","","","",""
"","2979.460000002291","survey-multi-choice","107","1227115","0.0-26.0","SS1619739807636","math_question","","","","","","","","","","","","{""Q0"":""3""}","[0]","3","",""
"","null","html-keyboard-response","108","1228263","0.0-27.0-0.0","SS1619739807636","","","null","","","","","","<p><img src= images/blank.png width =""600"" height = ""600"" style=""position:fixed;top:50%; left:50%; transform: translate(-50%, -50%); border:5px solid black"">","","","","","","","",""
"","3668.6399999889545","sequential-stimulus-presentation-old","109","1232436","0.0-27.0-1.0","SS1619739807636","trial","","40","500","4168.6399999889545","images/stimuli/spore_stims/simple_06_A_b.gif","images/stimuli/spore_stims/simple_14_A_a.gif","forced_short","","9","simple_dissimilar","images/stimuli/spore_stims/simple_14_A_a.gif","","","","",""
"","null","html-keyboard-response","110","1233362","0.0-27.0-0.1","SS1619739807636","","","null","","","","","","<p><img src= images/blank.png width =""600"" height = ""600"" style=""position:fixed;top:50%; left:50%; transform: translate(-50%, -50%); border:5px solid black"">","","","","","","","",""
"","9280.035000003409","sequential-stimulus-presentation-old","111","1243146","0.0-27.0-1.1","SS1619739807636","trial","","40","500","9780.035000003409","images/stimuli/spore_stims/simple_06_A_b.gif","images/stimuli/spore_stims/simple_14_A_a.gif","forced_short","","9","simple_dissimilar","images/stimuli/spore_stims/simple_14_A_a.gif","","","","",""
"","null","html-keyboard-response","112","1243981","0.0-27.0-0.2","SS1619739807636","","","null","","","","","","<p><img src= images/blank.png width =""600"" height = ""600"" style=""position:fixed;top:50%; left:50%; transform: translate(-50%, -50%); border:5px solid black"">","","","","","","","",""
"","11221.240000013495","sequential-stimulus-presentation-old","113","1255706","0.0-27.0-1.2","SS1619739807636","trial","","40","500","11721.240000013495","images/stimuli/spore_stims/simple_06_A_b.gif","images/stimuli/spore_stims/simple_14_A_a.gif","forced_short","","9","simple_dissimilar","images/stimuli/spore_stims/simple_14_A_a.gif","","","","",""
"","null","html-keyboard-response","114","1256516","0.0-27.0-0.3","SS1619739807636","","","null","","","","","","<p><img src= images/blank.png width =""600"" height = ""600"" style=""position:fixed;top:50%; left:50%; transform: translate(-50%, -50%); border:5px solid black"">","","","","","","","",""
"","11684.789999999339","sequential-stimulus-presentation-old","115","1268705","0.0-27.0-1.3","SS1619739807636","trial","","40","500","12184.789999999339","images/stimuli/spore_stims/simple_06_A_b.gif","images/stimuli/spore_stims/simple_14_A_a.gif","forced_short","","9","simple_dissimilar","images/stimuli/spore_stims/simple_06_A_b.gif","","","","",""
"","null","html-keyboard-response","116","1269745","0.0-27.0-0.4","SS1619739807636","","","null","","","","","","<p><img src= images/blank.png width =""600"" height = ""600"" style=""position:fixed;top:50%; left:50%; transform: translate(-50%, -50%); border:5px solid black"">","","","","","","","",""
"","10943.805000017164","sequential-stimulus-presentation-old","117","1281195","0.0-27.0-1.4","SS1619739807636","trial","","40","500","11443.805000017164","images/stimuli/spore_stims/simple_06_A_b.gif","images/stimuli/spore_stims/simple_14_A_a.gif","forced_short","","9","simple_dissimilar","images/stimuli/spore_stims/simple_14_A_a.gif","","","","",""
"","null","html-keyboard-response","118","1282340","0.0-27.0-0.5","SS1619739807636","","","null","","","","","","<p><img src= images/blank.png width =""600"" height = ""600"" style=""position:fixed;top:50%; left:50%; transform: translate(-50%, -50%); border:5px solid black"">","","","","","","","",""
"","13794.049999996787","sequential-stimulus-presentation-old","119","1296639","0.0-27.0-1.5","SS1619739807636","trial","","40","500","14294.049999996787","images/stimuli/spore_stims/simple_06_A_b.gif","images/stimuli/spore_stims/simple_14_A_a.gif","forced_short","","9","simple_dissimilar","images/stimuli/spore_stims/simple_06_A_b.gif","","","","",""
"","5673.345000017434","survey-multi-choice","120","1302314","0.0-28.0","SS1619739807636","math_question","","","","","","","","","","","","{""Q0"":""12""}","[0]","12","",""
"","null","html-keyboard-response","121","1303393","0.0-29.0-0.0","SS1619739807636","","","null","","","","","","<p><img src= images/blank.png width =""600"" height = ""600"" style=""position:fixed;top:50%; left:50%; transform: translate(-50%, -50%); border:5px solid black"">","","","","","","","",""
"","633.8300000061281","sequential-stimulus-presentation-old","122","1319030","0.0-29.0-1.0","SS1619739807636","trial","","40","500","1133.830000006128","images/stimuli/spore_stims/complex_07_A_b.gif","images/stimuli/spore_stims/complex_08_A_a.gif","forced_long","","10","complex_dissimilar","images/stimuli/spore_stims/complex_08_A_a.gif","","","","",""
"","null","html-keyboard-response","123","1320285","0.0-29.0-0.1","SS1619739807636","","","null","","","","","","<p><img src= images/blank.png width =""600"" height = ""600"" style=""position:fixed;top:50%; left:50%; transform: translate(-50%, -50%); border:5px solid black"">","","","","","","","",""
"","13613.810000009835","sequential-stimulus-presentation-old","124","1334404","0.0-29.0-1.1","SS1619739807636","trial","","40","500","14113.810000009835","images/stimuli/spore_stims/complex_07_A_b.gif","images/stimuli/spore_stims/complex_08_A_a.gif","forced_long","","10","complex_dissimilar","images/stimuli/spore_stims/complex_08_A_a.gif","","","","",""
"","null","html-keyboard-response","125","1335618","0.0-29.0-0.2","SS1619739807636","","","null","","","","","","<p><img src= images/blank.png width =""600"" height = ""600"" style=""position:fixed;top:50%; left:50%; transform: translate(-50%, -50%); border:5px solid black"">","","","","","","","",""
"","11839.594999997644","sequential-stimulus-presentation-old","126","1347962","0.0-29.0-1.2","SS1619739807636","trial","","40","500","12339.594999997644","images/stimuli/spore_stims/complex_07_A_b.gif","images/stimuli/spore_stims/complex_08_A_a.gif","forced_long","","10","complex_dissimilar","images/stimuli/spore_stims/complex_07_A_b.gif","","","","",""
"","null","html-keyboard-response","127","1349055","0.0-29.0-0.3","SS1619739807636","","","null","","","","","","<p><img src= images/blank.png width =""600"" height = ""600"" style=""position:fixed;top:50%; left:50%; transform: translate(-50%, -50%); border:5px solid black"">","","","","","","","",""
"","18452.424999995856","sequential-stimulus-presentation-old","128","1368012","0.0-29.0-1.3","SS1619739807636","trial","","40","500","18952.424999995856","images/stimuli/spore_stims/complex_07_A_b.gif","images/stimuli/spore_stims/complex_08_A_a.gif","forced_long","","10","complex_dissimilar","images/stimuli/spore_stims/complex_07_A_b.gif","","","","",""
"","11730.049999983748","survey-multi-choice","129","1379745","0.0-30.0","SS1619739807636","math_question","","","","","","","","","","","","{""Q0"":""17""}","[0]","17","",""
"","null","html-keyboard-response","130","1380607","0.0-31.0-0.0","SS1619739807636","","","null","","","","","","<p><img src= images/blank.png width =""600"" height = ""600"" style=""position:fixed;top:50%; left:50%; transform: translate(-50%, -50%); border:5px solid black"">","","","","","","","",""
"","27821.735000004992","sequential-stimulus-presentation-old","131","1408934","0.0-31.0-1.0","SS1619739807636","trial","","40","500","28321.735000004992","images/stimuli/spore_stims/simple_07_A_a.gif","images/stimuli/spore_stims/simple_20_A_b.gif","self_paced","","11","simple_dissimilar","images/stimuli/spore_stims/simple_20_A_b.gif","","","","",""
"","null","html-keyboard-response","132","1410074","0.0-31.0-0.1","SS1619739807636","","","null","","","","","","<p><img src= images/blank.png width =""600"" height = ""600"" style=""position:fixed;top:50%; left:50%; transform: translate(-50%, -50%); border:5px solid black"">","","","","","","","",""
"","11010.375000012573","sequential-stimulus-presentation-old","133","1421589","0.0-31.0-1.1","SS1619739807636","trial","","40","500","11510.375000012573","images/stimuli/spore_stims/simple_07_A_a.gif","images/stimuli/spore_stims/simple_20_A_b.gif","self_paced","","11","simple_dissimilar","images/stimuli/spore_stims/simple_07_A_a.gif","","","","",""
"","null","html-keyboard-response","134","1422550","0.0-31.0-0.2","SS1619739807636","","","null","","","","","","<p><img src= images/blank.png width =""600"" height = ""600"" style=""position:fixed;top:50%; left:50%; transform: translate(-50%, -50%); border:5px solid black"">","","","","","","","",""
"","13217.399999994086","sequential-stimulus-presentation-old","135","1436273","0.0-31.0-1.2","SS1619739807636","trial","","40","500","13717.399999994086","images/stimuli/spore_stims/simple_07_A_a.gif","images/stimuli/spore_stims/simple_20_A_b.gif","self_paced","","11","simple_dissimilar","images/stimuli/spore_stims/simple_20_A_b.gif","","","","",""
"","null","html-keyboard-response","136","1437425","0.0-31.0-0.3","SS1619739807636","","","null","","","","","","<p><img src= images/blank.png width =""600"" height = ""600"" style=""position:fixed;top:50%; left:50%; transform: translate(-50%, -50%); border:5px solid black"">","","","","","","","",""
"","17244.210000004387","sequential-stimulus-presentation-old","137","1455173","0.0-31.0-1.3","SS1619739807636","trial","","40","500","17744.210000004387","images/stimuli/spore_stims/simple_07_A_a.gif","images/stimuli/spore_stims/simple_20_A_b.gif","self_paced","","11","simple_dissimilar","images/stimuli/spore_stims/simple_07_A_a.gif","","","","",""
"[{""page_index"":0,""viewing_time"":10647.345000004862}]","10647.614999994403","instructions","138","1465823","0.0-32.0","SS1619739807636","instructions","","","","","","","","","","","","","","","",""
"","16589.074999996228","survey-likert","139","1482415","0.0-33.0","SS1619739807636","similarity_question","","","","","","","","","","","","{""Q0"":4}","[0]","","images/stimuli/spore_stims/simple_17_A_a.gif","images/stimuli/spore_stims/simple_12_A_b.gif"
"","3332.384999986971","survey-likert","140","1485755","0.0-34.0","SS1619739807636","similarity_question","","","","","","","","","","","","{""Q0"":3}","[0]","","images/stimuli/spore_stims/simple_20_A_b.gif","images/stimuli/spore_stims/simple_07_A_a.gif"
"","2321.2249999924097","survey-likert","141","1488083","0.0-35.0","SS1619739807636","similarity_question","","","","","","","","","","","","{""Q0"":5}","[0]","","images/stimuli/spore_stims/simple_14_A_a.gif","images/stimuli/spore_stims/simple_06_A_b.gif"
"","3418.420000001788","survey-likert","142","1491509","0.0-36.0","SS1619739807636","similarity_question","","","","","","","","","","","","{""Q0"":4}","[0]","","images/stimuli/spore_stims/complex_11_A_b.gif","images/stimuli/spore_stims/complex_05_A_a.gif"
"","2736.929999984568","survey-likert","143","1494253","0.0-37.0","SS1619739807636","similarity_question","","","","","","","","","","","","{""Q0"":3}","[0]","","images/stimuli/spore_stims/complex_05_A_b.gif","images/stimuli/spore_stims/complex_07_A_a.gif"
"","2036.6950000170618","survey-likert","144","1496297","0.0-38.0","SS1619739807636","similarity_question","","","","","","","","","","","","{""Q0"":4}","[0]","","images/stimuli/spore_stims/simple_01_A_b.gif","images/stimuli/spore_stims/simple_10_A_a.gif"
"","4237.3100000259","survey-likert","145","1500541","0.0-39.0","SS1619739807636","similarity_question","","","","","","","","","","","","{""Q0"":5}","[0]","","images/stimuli/spore_stims/complex_20_A_b.gif","images/stimuli/spore_stims/complex_01_A_a.gif"
"","7334.989999973914","survey-likert","146","1507883","0.0-40.0","SS1619739807636","similarity_question","","","","","","","","","","","","{""Q0"":4}","[0]","","images/stimuli/spore_stims/simple_02_A_a.gif","images/stimuli/spore_stims/simple_10_A_b.gif"
"","4613.104999996722","survey-likert","147","1512503","0.0-41.0","SS1619739807636","similarity_question","","","","","","","","","","","","{""Q0"":4}","[0]","","images/stimuli/spore_stims/complex_08_A_a.gif","images/stimuli/spore_stims/complex_07_A_b.gif"
"","3028.8600000203587","survey-likert","148","1515539","0.0-42.0","SS1619739807636","similarity_question","","","","","","","","","","","","{""Q0"":5}","[0]","","images/stimuli/spore_stims/complex_17_A_a.gif","images/stimuli/spore_stims/complex_03_A_b.gif"
"","5438.930000003893","survey-likert","149","1520985","0.0-43.0","SS1619739807636","similarity_question","","","","","","","","","","","","{""Q0"":5}","[0]","","images/stimuli/spore_stims/simple_04_A_a.gif","images/stimuli/spore_stims/simple_03_A_b.gif"
"","2665.9600000130013","survey-likert","150","1523659","0.0-44.0","SS1619739807636","similarity_question","","","","","","","","","","","","{""Q0"":4}","[0]","","images/stimuli/spore_stims/complex_15_A_b.gif","images/stimuli/spore_stims/complex_11_A_a.gif"
"[{""page_index"":0,""viewing_time"":4373.655000003055}]","4373.820000007981","instructions","151","1528039","0.0-45.0","SS1619739807636","instructions","","","","","","","","","","","","","","","",""
"","3456.590000016149","survey-likert","152","1531499","0.0-46.0","SS1619739807636","","","","","","","","","images/stimuli/spore_stims/simple_07_A_a.gif","","","","{""Q0"":2}","[0]","","",""
"","3839.254999998957","survey-likert","153","1535346","0.0-47.0","SS1619739807636","","","","","","","","","images/stimuli/spore_stims/complex_03_A_b.gif","","","","{""Q0"":5}","[0]","","",""
"","3504.6000000147615","survey-likert","154","1538857","0.0-48.0","SS1619739807636","","","","","","","","","images/stimuli/spore_stims/complex_07_A_b.gif","","","","{""Q0"":5}","[0]","","",""
"","2170.429999998305","survey-likert","155","1541035","0.0-49.0","SS1619739807636","","","","","","","","","images/stimuli/spore_stims/simple_01_A_b.gif","","","","{""Q0"":1}","[0]","","",""
"","8245.800000004238","survey-likert","156","1549289","0.0-50.0","SS1619739807636","","","","","","","","","images/stimuli/spore_stims/simple_02_A_a.gif","","","","{""Q0"":2}","[0]","","",""
"","11632.569999987027","survey-likert","157","1560929","0.0-51.0","SS1619739807636","","","","","","","","","images/stimuli/spore_stims/complex_20_A_b.gif","","","","{""Q0"":6}","[0]","","",""
"","1793.7699999893084","survey-likert","158","1562731","0.0-52.0","SS1619739807636","","","","","","","","","images/stimuli/spore_stims/complex_11_A_b.gif","","","","{""Q0"":5}","[0]","","",""
"","4643.060000002151","survey-likert","159","1567381","0.0-53.0","SS1619739807636","","","","","","","","","images/stimuli/spore_stims/simple_06_A_b.gif","","","","{""Q0"":1}","[0]","","",""
"","2592.384999996284","survey-likert","160","1569981","0.0-54.0","SS1619739807636","","","","","","","","","images/stimuli/spore_stims/complex_15_A_b.gif","","","","{""Q0"":5}","[0]","","",""
"","2592.6200000103563","survey-likert","161","1572581","0.0-55.0","SS1619739807636","","","","","","","","","images/stimuli/spore_stims/simple_17_A_a.gif","","","","{""Q0"":2}","[0]","","",""
"","4304.024999990361","survey-likert","162","1576893","0.0-56.0","SS1619739807636","","","","","","","","","images/stimuli/spore_stims/complex_07_A_a.gif","","","","{""Q0"":5}","[0]","","",""
"","2006.9399999920279","survey-likert","163","1578907","0.0-57.0","SS1619739807636","","","","","","","","","images/stimuli/spore_stims/simple_04_A_a.gif","","","","{""Q0"":1}","[0]","","",""
"[{""page_index"":0,""viewing_time"":2189.119999995455}]","2189.3249999848194","instructions","164","1581103","0.0-58.0","SS1619739807636","instructions","","","","","","","","","","","","","","","",""
"","2459.884999989299","demog-age","165","1583570","0.0-59.0","SS1619739807636","","","","","","","","","","","","","{""age"":""22""}","","","",""
"","6726.945000002161","demog-ethnic-US","166","1590305","0.0-60.0","SS1619739807636","","","","","","","","","","","","","{""ethnicity"":[""White""]}","[0]","","",""
"","6376.455000019632","demog-gender-and-education","167","1596689","0.0-61.0","SS1619739807636","","","","","","","","","","","","","{""gender"":""Male"",""education"":""Bachelor's Degree""}","[0,1]","","",""
"","7042.699999990873","survey-text","168","1603741","0.0-62.0","SS1619739807636","feedback","","","","","","","","","","","","{""Q0"":""Nothing.""}","","","",""
"[{""page_index"":0,""viewing_time"":2251.329999999143}]","2251.524999999674","instructions","169","1605997","0.0-63.0","SS1619739807636","instructions","","","","","","","","","","","","","","","",""
