"view_history","rt","trial_type","trial_index","time_elapsed","internal_node_id","subject","stimulus_type","trial_stimulus","key_press","minimum_viewing_duration","trial_looking_time","block_deviant","block_background","exposure_type","stimulus","block_number","block_type","stimulus_displayed","responses","question_order","math_correct_answer","stimulus_left","stimulus_right"
"[{""page_index"":0,""viewing_time"":11881.925000052433}]","11882.790000003297","instructions","0","11884","0.0-0.0","SS1619739969517","","","","","","","","","","","","","","","","",""
"[{""page_index"":0,""viewing_time"":18523.475000052713},{""page_index"":1,""viewing_time"":8352.194999984931}]","26876.085000054445","instructions","1","40765","0.0-1.0","SS1619739969517","instructions","","","","","","","","","","","","","","","",""
"","8451.705000014044","sequential-stimulus-presentation-old","2","49721","0.0-2.0","SS1619739969517","","","40","500","8951.705000014044","null","null","self_paced","","","","","","","","",""
"","2561.2250000122003","sequential-stimulus-presentation-old","3","52784","0.0-3.0","SS1619739969517","","","40","500","3061.2250000122003","null","null","self_paced","","","","","","","","",""
"[{""page_index"":0,""viewing_time"":14532.445000018924}]","14532.800000044517","instructions","4","67317","0.0-4.0","SS1619739969517","instructions","","","","","","","","","","","","","","","",""
"","802.0699999760836","sequential-stimulus-presentation-old","5","83125","0.0-5.0","SS1619739969517","","","40","500","1302.0699999760836","null","null","forced_long","","","","","","","","",""
"","1993.2949999929406","sequential-stimulus-presentation-old","6","85621","0.0-6.0","SS1619739969517","","","40","500","2493.2949999929406","null","null","forced_long","","","","","","","","",""
"[{""page_index"":0,""viewing_time"":6989.174999995157}]","6989.464999991469","instructions","7","92611","0.0-7.0","SS1619739969517","instructions","","","","","","","","","","","","","","","",""
"[{""page_index"":0,""viewing_time"":7834.745000000112},{""page_index"":1,""viewing_time"":8709.350000019185},{""page_index"":2,""viewing_time"":5169.039999949746},{""page_index"":3,""viewing_time"":1289.9300000281073},{""page_index"":4,""viewing_time"":1983.345000015106}]","24986.74999998184","instructions","8","117598","0.0-8.0","SS1619739969517","instructions","","","","","","","","","","","","","","","",""
"","null","html-keyboard-response","9","118862","0.0-9.0-0.0","SS1619739969517","","","null","","","","","","<p><img src= images/blank.png width =""600"" height = ""600"" style=""position:fixed;top:50%; left:50%; transform: translate(-50%, -50%); border:5px solid black"">","","","","","","","",""
"","11592.615000030492","sequential-stimulus-presentation-old","10","130959","0.0-9.0-1.0","SS1619739969517","trial","","40","500","12092.615000030492","images/stimuli/spore_stims/simple_10_A_a.gif","images/stimuli/spore_stims/simple_02_A_b.gif","self_paced","","0","simple_dissimilar","images/stimuli/spore_stims/simple_02_A_b.gif","","","","",""
"","null","html-keyboard-response","11","131779","0.0-9.0-0.1","SS1619739969517","","","null","","","","","","<p><img src= images/blank.png width =""600"" height = ""600"" style=""position:fixed;top:50%; left:50%; transform: translate(-50%, -50%); border:5px solid black"">","","","","","","","",""
"","3807.6250000158325","sequential-stimulus-presentation-old","12","136090","0.0-9.0-1.1","SS1619739969517","trial","","40","500","4307.6250000158325","images/stimuli/spore_stims/simple_10_A_a.gif","images/stimuli/spore_stims/simple_02_A_b.gif","self_paced","","0","simple_dissimilar","images/stimuli/spore_stims/simple_02_A_b.gif","","","","",""
"","null","html-keyboard-response","13","137157","0.0-9.0-0.2","SS1619739969517","","","null","","","","","","<p><img src= images/blank.png width =""600"" height = ""600"" style=""position:fixed;top:50%; left:50%; transform: translate(-50%, -50%); border:5px solid black"">","","","","","","","",""
"","3576.679999998305","sequential-stimulus-presentation-old","14","141237","0.0-9.0-1.2","SS1619739969517","trial","","40","500","4076.679999998305","images/stimuli/spore_stims/simple_10_A_a.gif","images/stimuli/spore_stims/simple_02_A_b.gif","self_paced","","0","simple_dissimilar","images/stimuli/spore_stims/simple_02_A_b.gif","","","","",""
"","null","html-keyboard-response","15","142534","0.0-9.0-0.3","SS1619739969517","","","null","","","","","","<p><img src= images/blank.png width =""600"" height = ""600"" style=""position:fixed;top:50%; left:50%; transform: translate(-50%, -50%); border:5px solid black"">","","","","","","","",""
"","5665.37000000244","sequential-stimulus-presentation-old","16","148703","0.0-9.0-1.3","SS1619739969517","trial","","40","500","6165.37000000244","images/stimuli/spore_stims/simple_10_A_a.gif","images/stimuli/spore_stims/simple_02_A_b.gif","self_paced","","0","simple_dissimilar","images/stimuli/spore_stims/simple_02_A_b.gif","","","","",""
"","3518.569999956526","survey-multi-choice","17","152226","0.0-10.0","SS1619739969517","math_question","","","","","","","","","","","","{""Q0"":""14""}","[0]","14","",""
"","null","html-keyboard-response","18","153170","0.0-11.0-0.0","SS1619739969517","","","null","","","","","","<p><img src= images/blank.png width =""600"" height = ""600"" style=""position:fixed;top:50%; left:50%; transform: translate(-50%, -50%); border:5px solid black"">","","","","","","","",""
"","5052.254999987781","sequential-stimulus-presentation-old","19","158728","0.0-11.0-1.0","SS1619739969517","trial","","40","500","5552.254999987781","images/stimuli/spore_stims/complex_07_A_a.gif","images/stimuli/spore_stims/complex_14_A_b.gif","self_paced","","1","complex_dissimilar","images/stimuli/spore_stims/complex_14_A_b.gif","","","","",""
"","null","html-keyboard-response","20","159571","0.0-11.0-0.1","SS1619739969517","","","null","","","","","","<p><img src= images/blank.png width =""600"" height = ""600"" style=""position:fixed;top:50%; left:50%; transform: translate(-50%, -50%); border:5px solid black"">","","","","","","","",""
"","5780.389999970794","sequential-stimulus-presentation-old","21","165856","0.0-11.0-1.1","SS1619739969517","trial","","40","500","6280.389999970794","images/stimuli/spore_stims/complex_07_A_a.gif","images/stimuli/spore_stims/complex_14_A_b.gif","self_paced","","1","complex_dissimilar","images/stimuli/spore_stims/complex_07_A_a.gif","","","","",""
"","null","html-keyboard-response","22","167116","0.0-11.0-0.2","SS1619739969517","","","null","","","","","","<p><img src= images/blank.png width =""600"" height = ""600"" style=""position:fixed;top:50%; left:50%; transform: translate(-50%, -50%); border:5px solid black"">","","","","","","","",""
"","5000.7949999999255","sequential-stimulus-presentation-old","23","172622","0.0-11.0-1.2","SS1619739969517","trial","","40","500","5500.7949999999255","images/stimuli/spore_stims/complex_07_A_a.gif","images/stimuli/spore_stims/complex_14_A_b.gif","self_paced","","1","complex_dissimilar","images/stimuli/spore_stims/complex_14_A_b.gif","","","","",""
"","null","html-keyboard-response","24","173532","0.0-11.0-0.3","SS1619739969517","","","null","","","","","","<p><img src= images/blank.png width =""600"" height = ""600"" style=""position:fixed;top:50%; left:50%; transform: translate(-50%, -50%); border:5px solid black"">","","","","","","","",""
"","5075.240000034682","sequential-stimulus-presentation-old","25","179116","0.0-11.0-1.3","SS1619739969517","trial","","40","500","5575.240000034682","images/stimuli/spore_stims/complex_07_A_a.gif","images/stimuli/spore_stims/complex_14_A_b.gif","self_paced","","1","complex_dissimilar","images/stimuli/spore_stims/complex_07_A_a.gif","","","","",""
"","6324.509999947622","survey-multi-choice","26","185442","0.0-12.0","SS1619739969517","math_question","","","","","","","","","","","","{""Q0"":""14""}","[0]","14","",""
"","null","html-keyboard-response","27","186561","0.0-13.0-0.0","SS1619739969517","","","null","","","","","","<p><img src= images/blank.png width =""600"" height = ""600"" style=""position:fixed;top:50%; left:50%; transform: translate(-50%, -50%); border:5px solid black"">","","","","","","","",""
"","1119.5049999514595","sequential-stimulus-presentation-old","28","202684","0.0-13.0-1.0","SS1619739969517","trial","","40","500","1619.5049999514595","images/stimuli/spore_stims/simple_07_A_b.gif","images/stimuli/spore_stims/simple_02_A_a.gif","forced_long","","2","simple_dissimilar","images/stimuli/spore_stims/simple_02_A_a.gif","","","","",""
"","null","html-keyboard-response","29","203508","0.0-13.0-0.1","SS1619739969517","","","null","","","","","","<p><img src= images/blank.png width =""600"" height = ""600"" style=""position:fixed;top:50%; left:50%; transform: translate(-50%, -50%); border:5px solid black"">","","","","","","","",""
"","8779.945000016596","sequential-stimulus-presentation-old","30","212792","0.0-13.0-1.1","SS1619739969517","trial","","40","500","9279.945000016596","images/stimuli/spore_stims/simple_07_A_b.gif","images/stimuli/spore_stims/simple_02_A_a.gif","forced_long","","2","simple_dissimilar","images/stimuli/spore_stims/simple_07_A_b.gif","","","","",""
"","null","html-keyboard-response","31","213995","0.0-13.0-0.2","SS1619739969517","","","null","","","","","","<p><img src= images/blank.png width =""600"" height = ""600"" style=""position:fixed;top:50%; left:50%; transform: translate(-50%, -50%); border:5px solid black"">","","","","","","","",""
"","2271.1700000218116","sequential-stimulus-presentation-old","32","216770","0.0-13.0-1.2","SS1619739969517","trial","","40","500","2771.1700000218116","images/stimuli/spore_stims/simple_07_A_b.gif","images/stimuli/spore_stims/simple_02_A_a.gif","forced_long","","2","simple_dissimilar","images/stimuli/spore_stims/simple_02_A_a.gif","","","","",""
"","null","html-keyboard-response","33","217762","0.0-13.0-0.3","SS1619739969517","","","null","","","","","","<p><img src= images/blank.png width =""600"" height = ""600"" style=""position:fixed;top:50%; left:50%; transform: translate(-50%, -50%); border:5px solid black"">","","","","","","","",""
"","6469.99999997206","sequential-stimulus-presentation-old","34","224736","0.0-13.0-1.3","SS1619739969517","trial","","40","500","6969.99999997206","images/stimuli/spore_stims/simple_07_A_b.gif","images/stimuli/spore_stims/simple_02_A_a.gif","forced_long","","2","simple_dissimilar","images/stimuli/spore_stims/simple_02_A_a.gif","","","","",""
"","null","html-keyboard-response","35","225875","0.0-13.0-0.4","SS1619739969517","","","null","","","","","","<p><img src= images/blank.png width =""600"" height = ""600"" style=""position:fixed;top:50%; left:50%; transform: translate(-50%, -50%); border:5px solid black"">","","","","","","","",""
"","2505.0349999801256","sequential-stimulus-presentation-old","36","228884","0.0-13.0-1.4","SS1619739969517","trial","","40","500","3005.0349999801256","images/stimuli/spore_stims/simple_07_A_b.gif","images/stimuli/spore_stims/simple_02_A_a.gif","forced_long","","2","simple_dissimilar","images/stimuli/spore_stims/simple_02_A_a.gif","","","","",""
"","null","html-keyboard-response","37","230151","0.0-13.0-0.5","SS1619739969517","","","null","","","","","","<p><img src= images/blank.png width =""600"" height = ""600"" style=""position:fixed;top:50%; left:50%; transform: translate(-50%, -50%); border:5px solid black"">","","","","","","","",""
"","5525.025000039022","sequential-stimulus-presentation-old","38","236180","0.0-13.0-1.5","SS1619739969517","trial","","40","500","6025.025000039022","images/stimuli/spore_stims/simple_07_A_b.gif","images/stimuli/spore_stims/simple_02_A_a.gif","forced_long","","2","simple_dissimilar","images/stimuli/spore_stims/simple_02_A_a.gif","","","","",""
"","4046.0949999978766","survey-multi-choice","39","240227","0.0-14.0","SS1619739969517","math_question","","","","","","","","","","","","{""Q0"":""7""}","[0]","7","",""
"","null","html-keyboard-response","40","241059","0.0-15.0-0.0","SS1619739969517","","","null","","","","","","<p><img src= images/blank.png width =""600"" height = ""600"" style=""position:fixed;top:50%; left:50%; transform: translate(-50%, -50%); border:5px solid black"">","","","","","","","",""
"","777.7399999904446","sequential-stimulus-presentation-old","41","256839","0.0-15.0-1.0","SS1619739969517","trial","","40","500","1277.7399999904446","images/stimuli/spore_stims/complex_16_A_b.gif","images/stimuli/spore_stims/complex_19_A_a.gif","forced_long","","3","complex_dissimilar","images/stimuli/spore_stims/complex_19_A_a.gif","","","","",""
"","null","html-keyboard-response","42","257650","0.0-15.0-0.1","SS1619739969517","","","null","","","","","","<p><img src= images/blank.png width =""600"" height = ""600"" style=""position:fixed;top:50%; left:50%; transform: translate(-50%, -50%); border:5px solid black"">","","","","","","","",""
"","5199.320000014268","sequential-stimulus-presentation-old","43","263353","0.0-15.0-1.1","SS1619739969517","trial","","40","500","5699.320000014268","images/stimuli/spore_stims/complex_16_A_b.gif","images/stimuli/spore_stims/complex_19_A_a.gif","forced_long","","3","complex_dissimilar","images/stimuli/spore_stims/complex_19_A_a.gif","","","","",""
"","null","html-keyboard-response","44","264177","0.0-15.0-0.2","SS1619739969517","","","null","","","","","","<p><img src= images/blank.png width =""600"" height = ""600"" style=""position:fixed;top:50%; left:50%; transform: translate(-50%, -50%); border:5px solid black"">","","","","","","","",""
"","7990.894999995362","sequential-stimulus-presentation-old","45","272672","0.0-15.0-1.2","SS1619739969517","trial","","40","500","8490.894999995362","images/stimuli/spore_stims/complex_16_A_b.gif","images/stimuli/spore_stims/complex_19_A_a.gif","forced_long","","3","complex_dissimilar","images/stimuli/spore_stims/complex_16_A_b.gif","","","","",""
"","null","html-keyboard-response","46","273477","0.0-15.0-0.3","SS1619739969517","","","null","","","","","","<p><img src= images/blank.png width =""600"" height = ""600"" style=""position:fixed;top:50%; left:50%; transform: translate(-50%, -50%); border:5px solid black"">","","","","","","","",""
"","4184.850000019651","sequential-stimulus-presentation-old","47","278165","0.0-15.0-1.3","SS1619739969517","trial","","40","500","4684.850000019651","images/stimuli/spore_stims/complex_16_A_b.gif","images/stimuli/spore_stims/complex_19_A_a.gif","forced_long","","3","complex_dissimilar","images/stimuli/spore_stims/complex_19_A_a.gif","","","","",""
"","null","html-keyboard-response","48","279285","0.0-15.0-0.4","SS1619739969517","","","null","","","","","","<p><img src= images/blank.png width =""600"" height = ""600"" style=""position:fixed;top:50%; left:50%; transform: translate(-50%, -50%); border:5px solid black"">","","","","","","","",""
"","2700.23499999661","sequential-stimulus-presentation-old","49","282490","0.0-15.0-1.4","SS1619739969517","trial","","40","500","3200.23499999661","images/stimuli/spore_stims/complex_16_A_b.gif","images/stimuli/spore_stims/complex_19_A_a.gif","forced_long","","3","complex_dissimilar","images/stimuli/spore_stims/complex_19_A_a.gif","","","","",""
"","null","html-keyboard-response","50","283641","0.0-15.0-0.5","SS1619739969517","","","null","","","","","","<p><img src= images/blank.png width =""600"" height = ""600"" style=""position:fixed;top:50%; left:50%; transform: translate(-50%, -50%); border:5px solid black"">","","","","","","","",""
"","5950.7750000339","sequential-stimulus-presentation-old","51","290096","0.0-15.0-1.5","SS1619739969517","trial","","40","500","6450.7750000339","images/stimuli/spore_stims/complex_16_A_b.gif","images/stimuli/spore_stims/complex_19_A_a.gif","forced_long","","3","complex_dissimilar","images/stimuli/spore_stims/complex_16_A_b.gif","","","","",""
"","3189.6249999990687","survey-multi-choice","52","293288","0.0-16.0","SS1619739969517","math_question","","","","","","","","","","","","{""Q0"":""4""}","[0]","4","",""
"","null","html-keyboard-response","53","294422","0.0-17.0-0.0","SS1619739969517","","","null","","","","","","<p><img src= images/blank.png width =""600"" height = ""600"" style=""position:fixed;top:50%; left:50%; transform: translate(-50%, -50%); border:5px solid black"">","","","","","","","",""
"","910.024999990128","sequential-stimulus-presentation-old","54","310339","0.0-17.0-1.0","SS1619739969517","trial","","40","500","1410.024999990128","images/stimuli/spore_stims/complex_14_A_a.gif","images/stimuli/spore_stims/complex_11_A_b.gif","forced_long","","4","complex_dissimilar","images/stimuli/spore_stims/complex_11_A_b.gif","","","","",""
"","null","html-keyboard-response","55","311440","0.0-17.0-0.1","SS1619739969517","","","null","","","","","","<p><img src= images/blank.png width =""600"" height = ""600"" style=""position:fixed;top:50%; left:50%; transform: translate(-50%, -50%); border:5px solid black"">","","","","","","","",""
"","4854.945000028238","sequential-stimulus-presentation-old","56","316799","0.0-17.0-1.1","SS1619739969517","trial","","40","500","5354.945000028238","images/stimuli/spore_stims/complex_14_A_a.gif","images/stimuli/spore_stims/complex_11_A_b.gif","forced_long","","4","complex_dissimilar","images/stimuli/spore_stims/complex_14_A_a.gif","","","","",""
"","null","html-keyboard-response","57","317889","0.0-17.0-0.2","SS1619739969517","","","null","","","","","","<p><img src= images/blank.png width =""600"" height = ""600"" style=""position:fixed;top:50%; left:50%; transform: translate(-50%, -50%); border:5px solid black"">","","","","","","","",""
"","5417.495000001509","sequential-stimulus-presentation-old","58","323814","0.0-17.0-1.2","SS1619739969517","trial","","40","500","5917.495000001509","images/stimuli/spore_stims/complex_14_A_a.gif","images/stimuli/spore_stims/complex_11_A_b.gif","forced_long","","4","complex_dissimilar","images/stimuli/spore_stims/complex_14_A_a.gif","","","","",""
"","null","html-keyboard-response","59","325016","0.0-17.0-0.3","SS1619739969517","","","null","","","","","","<p><img src= images/blank.png width =""600"" height = ""600"" style=""position:fixed;top:50%; left:50%; transform: translate(-50%, -50%); border:5px solid black"">","","","","","","","",""
"","5866.600000008475","sequential-stimulus-presentation-old","60","331390","0.0-17.0-1.3","SS1619739969517","trial","","40","500","6366.600000008475","images/stimuli/spore_stims/complex_14_A_a.gif","images/stimuli/spore_stims/complex_11_A_b.gif","forced_long","","4","complex_dissimilar","images/stimuli/spore_stims/complex_11_A_b.gif","","","","",""
"","null","html-keyboard-response","61","332208","0.0-17.0-0.4","SS1619739969517","","","null","","","","","","<p><img src= images/blank.png width =""600"" height = ""600"" style=""position:fixed;top:50%; left:50%; transform: translate(-50%, -50%); border:5px solid black"">","","","","","","","",""
"","3543.165000039153","sequential-stimulus-presentation-old","62","336255","0.0-17.0-1.4","SS1619739969517","trial","","40","500","4043.165000039153","images/stimuli/spore_stims/complex_14_A_a.gif","images/stimuli/spore_stims/complex_11_A_b.gif","forced_long","","4","complex_dissimilar","images/stimuli/spore_stims/complex_11_A_b.gif","","","","",""
"","3386.465000046883","survey-multi-choice","63","339644","0.0-18.0","SS1619739969517","math_question","","","","","","","","","","","","{""Q0"":""11""}","[0]","11","",""
"","null","html-keyboard-response","64","340752","0.0-19.0-0.0","SS1619739969517","","","null","","","","","","<p><img src= images/blank.png width =""600"" height = ""600"" style=""position:fixed;top:50%; left:50%; transform: translate(-50%, -50%); border:5px solid black"">","","","","","","","",""
"","5598.36499998346","sequential-stimulus-presentation-old","65","346855","0.0-19.0-1.0","SS1619739969517","trial","","40","500","6098.36499998346","images/stimuli/spore_stims/complex_10_A_b.gif","images/stimuli/spore_stims/complex_09_A_a.gif","self_paced","","5","complex_dissimilar","images/stimuli/spore_stims/complex_09_A_a.gif","","","","",""
"","null","html-keyboard-response","66","347939","0.0-19.0-0.1","SS1619739969517","","","null","","","","","","<p><img src= images/blank.png width =""600"" height = ""600"" style=""position:fixed;top:50%; left:50%; transform: translate(-50%, -50%); border:5px solid black"">","","","","","","","",""
"","1218.894999998156","sequential-stimulus-presentation-old","67","349662","0.0-19.0-1.1","SS1619739969517","trial","","40","500","1718.894999998156","images/stimuli/spore_stims/complex_10_A_b.gif","images/stimuli/spore_stims/complex_09_A_a.gif","self_paced","","5","complex_dissimilar","images/stimuli/spore_stims/complex_09_A_a.gif","","","","",""
"","null","html-keyboard-response","68","350668","0.0-19.0-0.2","SS1619739969517","","","null","","","","","","<p><img src= images/blank.png width =""600"" height = ""600"" style=""position:fixed;top:50%; left:50%; transform: translate(-50%, -50%); border:5px solid black"">","","","","","","","",""
"","1047.069999971427","sequential-stimulus-presentation-old","69","352223","0.0-19.0-1.2","SS1619739969517","trial","","40","500","1547.069999971427","images/stimuli/spore_stims/complex_10_A_b.gif","images/stimuli/spore_stims/complex_09_A_a.gif","self_paced","","5","complex_dissimilar","images/stimuli/spore_stims/complex_09_A_a.gif","","","","",""
"","null","html-keyboard-response","70","353215","0.0-19.0-0.3","SS1619739969517","","","null","","","","","","<p><img src= images/blank.png width =""600"" height = ""600"" style=""position:fixed;top:50%; left:50%; transform: translate(-50%, -50%); border:5px solid black"">","","","","","","","",""
"","863.3950000512414","sequential-stimulus-presentation-old","71","354583","0.0-19.0-1.3","SS1619739969517","trial","","40","500","1363.3950000512414","images/stimuli/spore_stims/complex_10_A_b.gif","images/stimuli/spore_stims/complex_09_A_a.gif","self_paced","","5","complex_dissimilar","images/stimuli/spore_stims/complex_09_A_a.gif","","","","",""
"","null","html-keyboard-response","72","355543","0.0-19.0-0.4","SS1619739969517","","","null","","","","","","<p><img src= images/blank.png width =""600"" height = ""600"" style=""position:fixed;top:50%; left:50%; transform: translate(-50%, -50%); border:5px solid black"">","","","","","","","",""
"","3378.5299999872223","sequential-stimulus-presentation-old","73","359426","0.0-19.0-1.4","SS1619739969517","trial","","40","500","3878.5299999872223","images/stimuli/spore_stims/complex_10_A_b.gif","images/stimuli/spore_stims/complex_09_A_a.gif","self_paced","","5","complex_dissimilar","images/stimuli/spore_stims/complex_09_A_a.gif","","","","",""
"","2808.184999972582","survey-multi-choice","74","362236","0.0-20.0","SS1619739969517","math_question","","","","","","","","","","","","{""Q0"":""8""}","[0]","8","",""
"","null","html-keyboard-response","75","363202","0.0-21.0-0.0","SS1619739969517","","","null","","","","","","<p><img src= images/blank.png width =""600"" height = ""600"" style=""position:fixed;top:50%; left:50%; transform: translate(-50%, -50%); border:5px solid black"">","","","","","","","",""
"","1839.2049999674782","sequential-stimulus-presentation-old","76","365546","0.0-21.0-1.0","SS1619739969517","trial","","40","500","2339.204999967478","images/stimuli/spore_stims/simple_16_A_b.gif","images/stimuli/spore_stims/simple_15_A_a.gif","forced_short","","6","simple_dissimilar","images/stimuli/spore_stims/simple_15_A_a.gif","","","","",""
"","null","html-keyboard-response","77","366440","0.0-21.0-0.1","SS1619739969517","","","null","","","","","","<p><img src= images/blank.png width =""600"" height = ""600"" style=""position:fixed;top:50%; left:50%; transform: translate(-50%, -50%); border:5px solid black"">","","","","","","","",""
"","2005.7399999932386","sequential-stimulus-presentation-old","78","368950","0.0-21.0-1.1","SS1619739969517","trial","","40","500","2505.7399999932386","images/stimuli/spore_stims/simple_16_A_b.gif","images/stimuli/spore_stims/simple_15_A_a.gif","forced_short","","6","simple_dissimilar","images/stimuli/spore_stims/simple_16_A_b.gif","","","","",""
"","null","html-keyboard-response","79","369826","0.0-21.0-0.2","SS1619739969517","","","null","","","","","","<p><img src= images/blank.png width =""600"" height = ""600"" style=""position:fixed;top:50%; left:50%; transform: translate(-50%, -50%); border:5px solid black"">","","","","","","","",""
"","1573.0200000107288","sequential-stimulus-presentation-old","80","371902","0.0-21.0-1.2","SS1619739969517","trial","","40","500","2073.020000010729","images/stimuli/spore_stims/simple_16_A_b.gif","images/stimuli/spore_stims/simple_15_A_a.gif","forced_short","","6","simple_dissimilar","images/stimuli/spore_stims/simple_15_A_a.gif","","","","",""
"","null","html-keyboard-response","81","373094","0.0-21.0-0.3","SS1619739969517","","","null","","","","","","<p><img src= images/blank.png width =""600"" height = ""600"" style=""position:fixed;top:50%; left:50%; transform: translate(-50%, -50%); border:5px solid black"">","","","","","","","",""
"","967.2699999646284","sequential-stimulus-presentation-old","82","374565","0.0-21.0-1.3","SS1619739969517","trial","","40","500","1467.2699999646284","images/stimuli/spore_stims/simple_16_A_b.gif","images/stimuli/spore_stims/simple_15_A_a.gif","forced_short","","6","simple_dissimilar","images/stimuli/spore_stims/simple_15_A_a.gif","","","","",""
"","null","html-keyboard-response","83","375679","0.0-21.0-0.4","SS1619739969517","","","null","","","","","","<p><img src= images/blank.png width =""600"" height = ""600"" style=""position:fixed;top:50%; left:50%; transform: translate(-50%, -50%); border:5px solid black"">","","","","","","","",""
"","727.7149999863468","sequential-stimulus-presentation-old","84","376910","0.0-21.0-1.4","SS1619739969517","trial","","40","500","1227.7149999863468","images/stimuli/spore_stims/simple_16_A_b.gif","images/stimuli/spore_stims/simple_15_A_a.gif","forced_short","","6","simple_dissimilar","images/stimuli/spore_stims/simple_16_A_b.gif","","","","",""
"","null","html-keyboard-response","85","377831","0.0-21.0-0.5","SS1619739969517","","","null","","","","","","<p><img src= images/blank.png width =""600"" height = ""600"" style=""position:fixed;top:50%; left:50%; transform: translate(-50%, -50%); border:5px solid black"">","","","","","","","",""
"","1365.845000022091","sequential-stimulus-presentation-old","86","379701","0.0-21.0-1.5","SS1619739969517","trial","","40","500","1865.845000022091","images/stimuli/spore_stims/simple_16_A_b.gif","images/stimuli/spore_stims/simple_15_A_a.gif","forced_short","","6","simple_dissimilar","images/stimuli/spore_stims/simple_15_A_a.gif","","","","",""
"","2956.5350000048056","survey-multi-choice","87","382660","0.0-22.0","SS1619739969517","math_question","","","","","","","","","","","","{""Q0"":""12""}","[0]","12","",""
"","null","html-keyboard-response","88","383699","0.0-23.0-0.0","SS1619739969517","","","null","","","","","","<p><img src= images/blank.png width =""600"" height = ""600"" style=""position:fixed;top:50%; left:50%; transform: translate(-50%, -50%); border:5px solid black"">","","","","","","","",""
"","1522.0749999862164","sequential-stimulus-presentation-old","89","385726","0.0-23.0-1.0","SS1619739969517","trial","","40","500","2022.0749999862164","images/stimuli/spore_stims/complex_09_A_b.gif","images/stimuli/spore_stims/complex_02_A_a.gif","forced_short","","7","complex_dissimilar","images/stimuli/spore_stims/complex_02_A_a.gif","","","","",""
"","null","html-keyboard-response","90","386723","0.0-23.0-0.1","SS1619739969517","","","null","","","","","","<p><img src= images/blank.png width =""600"" height = ""600"" style=""position:fixed;top:50%; left:50%; transform: translate(-50%, -50%); border:5px solid black"">","","","","","","","",""
"","2966.580000007525","sequential-stimulus-presentation-old","91","390196","0.0-23.0-1.1","SS1619739969517","trial","","40","500","3466.580000007525","images/stimuli/spore_stims/complex_09_A_b.gif","images/stimuli/spore_stims/complex_02_A_a.gif","forced_short","","7","complex_dissimilar","images/stimuli/spore_stims/complex_09_A_b.gif","","","","",""
"","null","html-keyboard-response","92","391274","0.0-23.0-0.2","SS1619739969517","","","null","","","","","","<p><img src= images/blank.png width =""600"" height = ""600"" style=""position:fixed;top:50%; left:50%; transform: translate(-50%, -50%); border:5px solid black"">","","","","","","","",""
"","3245.150000031572","sequential-stimulus-presentation-old","93","395025","0.0-23.0-1.2","SS1619739969517","trial","","40","500","3745.150000031572","images/stimuli/spore_stims/complex_09_A_b.gif","images/stimuli/spore_stims/complex_02_A_a.gif","forced_short","","7","complex_dissimilar","images/stimuli/spore_stims/complex_02_A_a.gif","","","","",""
"","null","html-keyboard-response","94","395874","0.0-23.0-0.3","SS1619739969517","","","null","","","","","","<p><img src= images/blank.png width =""600"" height = ""600"" style=""position:fixed;top:50%; left:50%; transform: translate(-50%, -50%); border:5px solid black"">","","","","","","","",""
"","3070.2649999875575","sequential-stimulus-presentation-old","95","399452","0.0-23.0-1.3","SS1619739969517","trial","","40","500","3570.2649999875575","images/stimuli/spore_stims/complex_09_A_b.gif","images/stimuli/spore_stims/complex_02_A_a.gif","forced_short","","7","complex_dissimilar","images/stimuli/spore_stims/complex_02_A_a.gif","","","","",""
"","null","html-keyboard-response","96","400465","0.0-23.0-0.4","SS1619739969517","","","null","","","","","","<p><img src= images/blank.png width =""600"" height = ""600"" style=""position:fixed;top:50%; left:50%; transform: translate(-50%, -50%); border:5px solid black"">","","","","","","","",""
"","2052.9299999470823","sequential-stimulus-presentation-old","97","403027","0.0-23.0-1.4","SS1619739969517","trial","","40","500","2552.9299999470823","images/stimuli/spore_stims/complex_09_A_b.gif","images/stimuli/spore_stims/complex_02_A_a.gif","forced_short","","7","complex_dissimilar","images/stimuli/spore_stims/complex_09_A_b.gif","","","","",""
"","2656.169999972917","survey-multi-choice","98","405686","0.0-24.0","SS1619739969517","math_question","","","","","","","","","","","","{""Q0"":""5""}","[0]","5","",""
"","null","html-keyboard-response","99","406678","0.0-25.0-0.0","SS1619739969517","","","null","","","","","","<p><img src= images/blank.png width =""600"" height = ""600"" style=""position:fixed;top:50%; left:50%; transform: translate(-50%, -50%); border:5px solid black"">","","","","","","","",""
"","1066.339999961201","sequential-stimulus-presentation-old","100","408251","0.0-25.0-1.0","SS1619739969517","trial","","40","500","1566.339999961201","images/stimuli/spore_stims/simple_09_A_b.gif","images/stimuli/spore_stims/simple_20_A_a.gif","forced_short","","8","simple_dissimilar","images/stimuli/spore_stims/simple_20_A_a.gif","","","","",""
"","null","html-keyboard-response","101","409170","0.0-25.0-0.1","SS1619739969517","","","null","","","","","","<p><img src= images/blank.png width =""600"" height = ""600"" style=""position:fixed;top:50%; left:50%; transform: translate(-50%, -50%); border:5px solid black"">","","","","","","","",""
"","1855.31000001356","sequential-stimulus-presentation-old","102","411529","0.0-25.0-1.1","SS1619739969517","trial","","40","500","2355.31000001356","images/stimuli/spore_stims/simple_09_A_b.gif","images/stimuli/spore_stims/simple_20_A_a.gif","forced_short","","8","simple_dissimilar","images/stimuli/spore_stims/simple_09_A_b.gif","","","","",""
"","null","html-keyboard-response","103","412369","0.0-25.0-0.2","SS1619739969517","","","null","","","","","","<p><img src= images/blank.png width =""600"" height = ""600"" style=""position:fixed;top:50%; left:50%; transform: translate(-50%, -50%); border:5px solid black"">","","","","","","","",""
"","1343.3749999967404","sequential-stimulus-presentation-old","104","414216","0.0-25.0-1.2","SS1619739969517","trial","","40","500","1843.3749999967404","images/stimuli/spore_stims/simple_09_A_b.gif","images/stimuli/spore_stims/simple_20_A_a.gif","forced_short","","8","simple_dissimilar","images/stimuli/spore_stims/simple_09_A_b.gif","","","","",""
"","null","html-keyboard-response","105","415470","0.0-25.0-0.3","SS1619739969517","","","null","","","","","","<p><img src= images/blank.png width =""600"" height = ""600"" style=""position:fixed;top:50%; left:50%; transform: translate(-50%, -50%); border:5px solid black"">","","","","","","","",""
"","1476.0549999773502","sequential-stimulus-presentation-old","106","417449","0.0-25.0-1.3","SS1619739969517","trial","","40","500","1976.0549999773502","images/stimuli/spore_stims/simple_09_A_b.gif","images/stimuli/spore_stims/simple_20_A_a.gif","forced_short","","8","simple_dissimilar","images/stimuli/spore_stims/simple_20_A_a.gif","","","","",""
"","3392.0149999903515","survey-multi-choice","107","420844","0.0-26.0","SS1619739969517","math_question","","","","","","","","","","","","{""Q0"":""14""}","[0]","14","",""
"","null","html-keyboard-response","108","422009","0.0-27.0-0.0","SS1619739969517","","","null","","","","","","<p><img src= images/blank.png width =""600"" height = ""600"" style=""position:fixed;top:50%; left:50%; transform: translate(-50%, -50%); border:5px solid black"">","","","","","","","",""
"","1341.3699999800883","sequential-stimulus-presentation-old","109","438355","0.0-27.0-1.0","SS1619739969517","trial","","40","500","1841.3699999800883","images/stimuli/spore_stims/simple_14_A_a.gif","images/stimuli/spore_stims/simple_17_A_b.gif","forced_long","","9","simple_dissimilar","images/stimuli/spore_stims/simple_17_A_b.gif","","","","",""
"","null","html-keyboard-response","110","439418","0.0-27.0-0.1","SS1619739969517","","","null","","","","","","<p><img src= images/blank.png width =""600"" height = ""600"" style=""position:fixed;top:50%; left:50%; transform: translate(-50%, -50%); border:5px solid black"">","","","","","","","",""
"","289.77999999187887","sequential-stimulus-presentation-old","111","440212","0.0-27.0-1.1","SS1619739969517","trial","","40","500","789.7799999918789","images/stimuli/spore_stims/simple_14_A_a.gif","images/stimuli/spore_stims/simple_17_A_b.gif","forced_long","","9","simple_dissimilar","images/stimuli/spore_stims/simple_14_A_a.gif","","","","",""
"","null","html-keyboard-response","112","441397","0.0-27.0-0.2","SS1619739969517","","","null","","","","","","<p><img src= images/blank.png width =""600"" height = ""600"" style=""position:fixed;top:50%; left:50%; transform: translate(-50%, -50%); border:5px solid black"">","","","","","","","",""
"","103.03499997826293","sequential-stimulus-presentation-old","113","442003","0.0-27.0-1.2","SS1619739969517","trial","","40","500","603.0349999782629","images/stimuli/spore_stims/simple_14_A_a.gif","images/stimuli/spore_stims/simple_17_A_b.gif","forced_long","","9","simple_dissimilar","images/stimuli/spore_stims/simple_17_A_b.gif","","","","",""
"","null","html-keyboard-response","114","443121","0.0-27.0-0.3","SS1619739969517","","","null","","","","","","<p><img src= images/blank.png width =""600"" height = ""600"" style=""position:fixed;top:50%; left:50%; transform: translate(-50%, -50%); border:5px solid black"">","","","","","","","",""
"","4654.165000014473","sequential-stimulus-presentation-old","115","448280","0.0-27.0-1.3","SS1619739969517","trial","","40","500","5154.165000014473","images/stimuli/spore_stims/simple_14_A_a.gif","images/stimuli/spore_stims/simple_17_A_b.gif","forced_long","","9","simple_dissimilar","images/stimuli/spore_stims/simple_17_A_b.gif","","","","",""
"","null","html-keyboard-response","116","449406","0.0-27.0-0.4","SS1619739969517","","","null","","","","","","<p><img src= images/blank.png width =""600"" height = ""600"" style=""position:fixed;top:50%; left:50%; transform: translate(-50%, -50%); border:5px solid black"">","","","","","","","",""
"","487.0799999916926","sequential-stimulus-presentation-old","117","450400","0.0-27.0-1.4","SS1619739969517","trial","","40","500","987.0799999916926","images/stimuli/spore_stims/simple_14_A_a.gif","images/stimuli/spore_stims/simple_17_A_b.gif","forced_long","","9","simple_dissimilar","images/stimuli/spore_stims/simple_17_A_b.gif","","","","",""
"","null","html-keyboard-response","118","451484","0.0-27.0-0.5","SS1619739969517","","","null","","","","","","<p><img src= images/blank.png width =""600"" height = ""600"" style=""position:fixed;top:50%; left:50%; transform: translate(-50%, -50%); border:5px solid black"">","","","","","","","",""
"","1.7999999690800905","sequential-stimulus-presentation-old","119","451992","0.0-27.0-1.5","SS1619739969517","trial","","40","500","501.7999999690801","images/stimuli/spore_stims/simple_14_A_a.gif","images/stimuli/spore_stims/simple_17_A_b.gif","forced_long","","9","simple_dissimilar","images/stimuli/spore_stims/simple_14_A_a.gif","","","","",""
"","2988.840000005439","survey-multi-choice","120","454985","0.0-28.0","SS1619739969517","math_question","","","","","","","","","","","","{""Q0"":""9""}","[0]","9","",""
"","null","html-keyboard-response","121","456272","0.0-29.0-0.0","SS1619739969517","","","null","","","","","","<p><img src= images/blank.png width =""600"" height = ""600"" style=""position:fixed;top:50%; left:50%; transform: translate(-50%, -50%); border:5px solid black"">","","","","","","","",""
"","837.8650000086054","sequential-stimulus-presentation-old","122","457615","0.0-29.0-1.0","SS1619739969517","trial","","40","500","1337.8650000086054","images/stimuli/spore_stims/complex_08_A_b.gif","images/stimuli/spore_stims/complex_10_A_a.gif","forced_short","","10","complex_dissimilar","images/stimuli/spore_stims/complex_10_A_a.gif","","","","",""
"","null","html-keyboard-response","123","458736","0.0-29.0-0.1","SS1619739969517","","","null","","","","","","<p><img src= images/blank.png width =""600"" height = ""600"" style=""position:fixed;top:50%; left:50%; transform: translate(-50%, -50%); border:5px solid black"">","","","","","","","",""
"","3575.1499999896623","sequential-stimulus-presentation-old","124","462819","0.0-29.0-1.1","SS1619739969517","trial","","40","500","4075.1499999896623","images/stimuli/spore_stims/complex_08_A_b.gif","images/stimuli/spore_stims/complex_10_A_a.gif","forced_short","","10","complex_dissimilar","images/stimuli/spore_stims/complex_10_A_a.gif","","","","",""
"","null","html-keyboard-response","125","463915","0.0-29.0-0.2","SS1619739969517","","","null","","","","","","<p><img src= images/blank.png width =""600"" height = ""600"" style=""position:fixed;top:50%; left:50%; transform: translate(-50%, -50%); border:5px solid black"">","","","","","","","",""
"","1559.0099999681115","sequential-stimulus-presentation-old","126","465979","0.0-29.0-1.2","SS1619739969517","trial","","40","500","2059.0099999681115","images/stimuli/spore_stims/complex_08_A_b.gif","images/stimuli/spore_stims/complex_10_A_a.gif","forced_short","","10","complex_dissimilar","images/stimuli/spore_stims/complex_08_A_b.gif","","","","",""
"","null","html-keyboard-response","127","467040","0.0-29.0-0.3","SS1619739969517","","","null","","","","","","<p><img src= images/blank.png width =""600"" height = ""600"" style=""position:fixed;top:50%; left:50%; transform: translate(-50%, -50%); border:5px solid black"">","","","","","","","",""
"","753.4450000384822","sequential-stimulus-presentation-old","128","468298","0.0-29.0-1.3","SS1619739969517","trial","","40","500","1253.4450000384822","images/stimuli/spore_stims/complex_08_A_b.gif","images/stimuli/spore_stims/complex_10_A_a.gif","forced_short","","10","complex_dissimilar","images/stimuli/spore_stims/complex_10_A_a.gif","","","","",""
"","null","html-keyboard-response","129","469496","0.0-29.0-0.4","SS1619739969517","","","null","","","","","","<p><img src= images/blank.png width =""600"" height = ""600"" style=""position:fixed;top:50%; left:50%; transform: translate(-50%, -50%); border:5px solid black"">","","","","","","","",""
"","538.1850000121631","sequential-stimulus-presentation-old","130","470539","0.0-29.0-1.4","SS1619739969517","trial","","40","500","1038.185000012163","images/stimuli/spore_stims/complex_08_A_b.gif","images/stimuli/spore_stims/complex_10_A_a.gif","forced_short","","10","complex_dissimilar","images/stimuli/spore_stims/complex_10_A_a.gif","","","","",""
"","2766.5649999980815","survey-multi-choice","131","473309","0.0-30.0","SS1619739969517","math_question","","","","","","","","","","","","{""Q0"":""7""}","[0]","7","",""
"","null","html-keyboard-response","132","474376","0.0-31.0-0.0","SS1619739969517","","","null","","","","","","<p><img src= images/blank.png width =""600"" height = ""600"" style=""position:fixed;top:50%; left:50%; transform: translate(-50%, -50%); border:5px solid black"">","","","","","","","",""
"","2997.9700000258163","sequential-stimulus-presentation-old","133","477878","0.0-31.0-1.0","SS1619739969517","trial","","40","500","3497.9700000258163","images/stimuli/spore_stims/simple_01_A_b.gif","images/stimuli/spore_stims/simple_06_A_a.gif","self_paced","","11","simple_dissimilar","images/stimuli/spore_stims/simple_06_A_a.gif","","","","",""
"","null","html-keyboard-response","134","478869","0.0-31.0-0.1","SS1619739969517","","","null","","","","","","<p><img src= images/blank.png width =""600"" height = ""600"" style=""position:fixed;top:50%; left:50%; transform: translate(-50%, -50%); border:5px solid black"">","","","","","","","",""
"","1151.4200000092387","sequential-stimulus-presentation-old","135","480527","0.0-31.0-1.1","SS1619739969517","trial","","40","500","1651.4200000092387","images/stimuli/spore_stims/simple_01_A_b.gif","images/stimuli/spore_stims/simple_06_A_a.gif","self_paced","","11","simple_dissimilar","images/stimuli/spore_stims/simple_06_A_a.gif","","","","",""
"","null","html-keyboard-response","136","481573","0.0-31.0-0.2","SS1619739969517","","","null","","","","","","<p><img src= images/blank.png width =""600"" height = ""600"" style=""position:fixed;top:50%; left:50%; transform: translate(-50%, -50%); border:5px solid black"">","","","","","","","",""
"","22.2150000045076","sequential-stimulus-presentation-old","137","482102","0.0-31.0-1.2","SS1619739969517","trial","","40","500","522.2150000045076","images/stimuli/spore_stims/simple_01_A_b.gif","images/stimuli/spore_stims/simple_06_A_a.gif","self_paced","","11","simple_dissimilar","images/stimuli/spore_stims/simple_06_A_a.gif","","","","",""
"","null","html-keyboard-response","138","483299","0.0-31.0-0.3","SS1619739969517","","","null","","","","","","<p><img src= images/blank.png width =""600"" height = ""600"" style=""position:fixed;top:50%; left:50%; transform: translate(-50%, -50%); border:5px solid black"">","","","","","","","",""
"","4750.414999958593","sequential-stimulus-presentation-old","139","488553","0.0-31.0-1.3","SS1619739969517","trial","","40","500","5250.414999958593","images/stimuli/spore_stims/simple_01_A_b.gif","images/stimuli/spore_stims/simple_06_A_a.gif","self_paced","","11","simple_dissimilar","images/stimuli/spore_stims/simple_06_A_a.gif","","","","",""
"","null","html-keyboard-response","140","489539","0.0-31.0-0.4","SS1619739969517","","","null","","","","","","<p><img src= images/blank.png width =""600"" height = ""600"" style=""position:fixed;top:50%; left:50%; transform: translate(-50%, -50%); border:5px solid black"">","","","","","","","",""
"","1923.9050000323914","sequential-stimulus-presentation-old","141","491970","0.0-31.0-1.4","SS1619739969517","trial","","40","500","2423.9050000323914","images/stimuli/spore_stims/simple_01_A_b.gif","images/stimuli/spore_stims/simple_06_A_a.gif","self_paced","","11","simple_dissimilar","images/stimuli/spore_stims/simple_01_A_b.gif","","","","",""
"[{""page_index"":0,""viewing_time"":4255.3249999764375}]","4255.834999959916","instructions","142","496229","0.0-32.0","SS1619739969517","instructions","","","","","","","","","","","","","","","",""
"","9810.95999997342","survey-likert","143","506044","0.0-33.0","SS1619739969517","similarity_question","","","","","","","","","","","","{""Q0"":4}","[0]","","images/stimuli/spore_stims/complex_11_A_b.gif","images/stimuli/spore_stims/complex_14_A_a.gif"
"","9100.434999971185","survey-likert","144","515148","0.0-34.0","SS1619739969517","similarity_question","","","","","","","","","","","","{""Q0"":4}","[0]","","images/stimuli/spore_stims/simple_16_A_b.gif","images/stimuli/spore_stims/simple_15_A_a.gif"
"","7286.909999966156","survey-likert","145","522439","0.0-35.0","SS1619739969517","similarity_question","","","","","","","","","","","","{""Q0"":4}","[0]","","images/stimuli/spore_stims/simple_02_A_b.gif","images/stimuli/spore_stims/simple_10_A_a.gif"
"","4225.7749999989755","survey-likert","146","526669","0.0-36.0","SS1619739969517","similarity_question","","","","","","","","","","","","{""Q0"":5}","[0]","","images/stimuli/spore_stims/simple_01_A_b.gif","images/stimuli/spore_stims/simple_06_A_a.gif"
"","10209.4550000038","survey-likert","147","536882","0.0-37.0","SS1619739969517","similarity_question","","","","","","","","","","","","{""Q0"":4}","[0]","","images/stimuli/spore_stims/complex_16_A_b.gif","images/stimuli/spore_stims/complex_19_A_a.gif"
"","6401.710000005551","survey-likert","148","543287","0.0-38.0","SS1619739969517","similarity_question","","","","","","","","","","","","{""Q0"":5}","[0]","","images/stimuli/spore_stims/complex_09_A_a.gif","images/stimuli/spore_stims/complex_10_A_b.gif"
"","6609.72499998752","survey-likert","149","549901","0.0-39.0","SS1619739969517","similarity_question","","","","","","","","","","","","{""Q0"":4}","[0]","","images/stimuli/spore_stims/simple_17_A_b.gif","images/stimuli/spore_stims/simple_14_A_a.gif"
"","6934.05999999959","survey-likert","150","556839","0.0-40.0","SS1619739969517","similarity_question","","","","","","","","","","","","{""Q0"":5}","[0]","","images/stimuli/spore_stims/complex_08_A_b.gif","images/stimuli/spore_stims/complex_10_A_a.gif"
"","7423.94999996759","survey-likert","151","564267","0.0-41.0","SS1619739969517","similarity_question","","","","","","","","","","","","{""Q0"":4}","[0]","","images/stimuli/spore_stims/complex_09_A_b.gif","images/stimuli/spore_stims/complex_02_A_a.gif"
"","4847.949999966659","survey-likert","152","569119","0.0-42.0","SS1619739969517","similarity_question","","","","","","","","","","","","{""Q0"":4}","[0]","","images/stimuli/spore_stims/simple_02_A_a.gif","images/stimuli/spore_stims/simple_07_A_b.gif"
"","2480.4449999937788","survey-likert","153","571603","0.0-43.0","SS1619739969517","similarity_question","","","","","","","","","","","","{""Q0"":4}","[0]","","images/stimuli/spore_stims/simple_20_A_a.gif","images/stimuli/spore_stims/simple_09_A_b.gif"
"","11542.584999988321","survey-likert","154","583149","0.0-44.0","SS1619739969517","similarity_question","","","","","","","","","","","","{""Q0"":4}","[0]","","images/stimuli/spore_stims/complex_14_A_b.gif","images/stimuli/spore_stims/complex_07_A_a.gif"
"[{""page_index"":0,""viewing_time"":4186.265000025742}]","4186.605000053532","instructions","155","587340","0.0-45.0","SS1619739969517","instructions","","","","","","","","","","","","","","","",""
"","3619.829999981448","survey-likert","156","590964","0.0-46.0","SS1619739969517","","","","","","","","","images/stimuli/spore_stims/complex_16_A_b.gif","","","","{""Q0"":4}","[0]","","",""
"","2946.4000000152737","survey-likert","157","593915","0.0-47.0","SS1619739969517","","","","","","","","","images/stimuli/spore_stims/simple_20_A_a.gif","","","","{""Q0"":1}","[0]","","",""
"","2802.1350000053644","survey-likert","158","596724","0.0-48.0","SS1619739969517","","","","","","","","","images/stimuli/spore_stims/simple_15_A_a.gif","","","","{""Q0"":0}","[0]","","",""
"","2681.7600000067614","survey-likert","159","599410","0.0-49.0","SS1619739969517","","","","","","","","","images/stimuli/spore_stims/complex_08_A_b.gif","","","","{""Q0"":4}","[0]","","",""
"","2474.515000008978","survey-likert","160","601887","0.0-50.0","SS1619739969517","","","","","","","","","images/stimuli/spore_stims/complex_02_A_a.gif","","","","{""Q0"":4}","[0]","","",""
"","2209.1549999895506","survey-likert","161","604101","0.0-51.0","SS1619739969517","","","","","","","","","images/stimuli/spore_stims/complex_11_A_b.gif","","","","{""Q0"":4}","[0]","","",""
"","3641.8699999921955","survey-likert","162","607748","0.0-52.0","SS1619739969517","","","","","","","","","images/stimuli/spore_stims/simple_14_A_a.gif","","","","{""Q0"":1}","[0]","","",""
"","3775.0299999606796","survey-likert","163","611527","0.0-53.0","SS1619739969517","","","","","","","","","images/stimuli/spore_stims/simple_02_A_b.gif","","","","{""Q0"":0}","[0]","","",""
"","2569.7849999996834","survey-likert","164","614100","0.0-54.0","SS1619739969517","","","","","","","","","images/stimuli/spore_stims/simple_07_A_b.gif","","","","{""Q0"":1}","[0]","","",""
"","2970.1099999947473","survey-likert","165","617075","0.0-55.0","SS1619739969517","","","","","","","","","images/stimuli/spore_stims/simple_01_A_b.gif","","","","{""Q0"":1}","[0]","","",""
"","2319.8800000245683","survey-likert","166","619399","0.0-56.0","SS1619739969517","","","","","","","","","images/stimuli/spore_stims/complex_07_A_a.gif","","","","{""Q0"":4}","[0]","","",""
"","2393.7049999949522","survey-likert","167","621797","0.0-57.0","SS1619739969517","","","","","","","","","images/stimuli/spore_stims/complex_10_A_b.gif","","","","{""Q0"":4}","[0]","","",""
"[{""page_index"":0,""viewing_time"":1710.625000006985}]","1710.9800000325777","instructions","168","623511","0.0-58.0","SS1619739969517","instructions","","","","","","","","","","","","","","","",""
"","2962.6099999877624","demog-age","169","626478","0.0-59.0","SS1619739969517","","","","","","","","","","","","","{""age"":""40""}","","","",""
"","4139.954999962356","demog-ethnic-US","170","630625","0.0-60.0","SS1619739969517","","","","","","","","","","","","","{""ethnicity"":[""White""]}","[0]","","",""
"","6547.770000004675","demog-gender-and-education","171","637178","0.0-61.0","SS1619739969517","","","","","","","","","","","","","{""gender"":""Female"",""education"":""Bachelor's Degree""}","[0,1]","","",""
"","5593.920000013895","survey-text","172","642777","0.0-62.0","SS1619739969517","feedback","","","","","","","","","","","","{""Q0"":""no""}","","","",""
"[{""page_index"":0,""viewing_time"":1284.4000000040978}]","1284.7249999758787","instructions","173","644065","0.0-63.0","SS1619739969517","instructions","","","","","","","","","","","","","","","",""
