"view_history","rt","trial_type","trial_index","time_elapsed","internal_node_id","subject","stimulus_type","trial_stimulus","key_press","minimum_viewing_duration","trial_looking_time","block_deviant","block_background","exposure_type","stimulus","block_number","block_type","stimulus_displayed","responses","question_order","math_correct_answer","stimulus_left","stimulus_right"
"[{""page_index"":0,""viewing_time"":8875.210000000152}]","8875.594999999521","instructions","0","8876","0.0-0.0","SS1619739987589","","","","","","","","","","","","","","","","",""
"[{""page_index"":0,""viewing_time"":54857.71999999998},{""page_index"":1,""viewing_time"":6346.690000000293}]","61204.56500000001","instructions","1","72083","0.0-1.0","SS1619739987589","instructions","","","","","","","","","","","","","","","",""
"","11354.19499999989","sequential-stimulus-presentation-old","2","83938","0.0-2.0","SS1619739987589","","","40","500","11854.19499999989","null","null","self_paced","","","","","","","","",""
"","8560.70499999987","sequential-stimulus-presentation-old","3","93000","0.0-3.0","SS1619739987589","","","40","500","9060.70499999987","null","null","self_paced","","","","","","","","",""
"[{""page_index"":0,""viewing_time"":23232.335000000603}]","23232.4950000002","instructions","4","116233","0.0-4.0","SS1619739987589","instructions","","","","","","","","","","","","","","","",""
"","861.2250000005588","sequential-stimulus-presentation-old","5","132096","0.0-5.0","SS1619739987589","","","40","500","1361.2250000005588","null","null","forced_long","","","","","","","","",""
"","1939.609999999433","sequential-stimulus-presentation-old","6","134538","0.0-6.0","SS1619739987589","","","40","500","2439.609999999433","null","null","forced_long","","","","","","","","",""
"[{""page_index"":0,""viewing_time"":3657.2850000002363}]","3657.390000000305","instructions","7","138196","0.0-7.0","SS1619739987589","instructions","","","","","","","","","","","","","","","",""
"[{""page_index"":0,""viewing_time"":11102.334999999584},{""page_index"":1,""viewing_time"":16328.639999999723},{""page_index"":2,""viewing_time"":13446.965000000113},{""page_index"":3,""viewing_time"":2477.015000000363},{""page_index"":4,""viewing_time"":1537.0300000004354}]","44892.100000000035","instructions","8","183088","0.0-8.0","SS1619739987589","instructions","","","","","","","","","","","","","","","",""
"","null","html-keyboard-response","9","184277","0.0-9.0-0.0","SS1619739987589","","","null","","","","","","<p><img src= images/blank.png width =""600"" height = ""600"" style=""position:fixed;top:50%; left:50%; transform: translate(-50%, -50%); border:5px solid black"">","","","","","","","",""
"","6880.36999999985","sequential-stimulus-presentation-old","10","191661","0.0-9.0-1.0","SS1619739987589","trial","","40","500","7380.36999999985","images/stimuli/spore_stims/complex_20_A_a.gif","images/stimuli/spore_stims/complex_19_A_b.gif","self_paced","","0","complex_dissimilar","images/stimuli/spore_stims/complex_19_A_b.gif","","","","",""
"","null","html-keyboard-response","11","192655","0.0-9.0-0.1","SS1619739987589","","","null","","","","","","<p><img src= images/blank.png width =""600"" height = ""600"" style=""position:fixed;top:50%; left:50%; transform: translate(-50%, -50%); border:5px solid black"">","","","","","","","",""
"","3141.560000000027","sequential-stimulus-presentation-old","12","196299","0.0-9.0-1.1","SS1619739987589","trial","","40","500","3641.560000000027","images/stimuli/spore_stims/complex_20_A_a.gif","images/stimuli/spore_stims/complex_19_A_b.gif","self_paced","","0","complex_dissimilar","images/stimuli/spore_stims/complex_19_A_b.gif","","","","",""
"","null","html-keyboard-response","13","197318","0.0-9.0-0.2","SS1619739987589","","","null","","","","","","<p><img src= images/blank.png width =""600"" height = ""600"" style=""position:fixed;top:50%; left:50%; transform: translate(-50%, -50%); border:5px solid black"">","","","","","","","",""
"","2051.86500000034","sequential-stimulus-presentation-old","14","199872","0.0-9.0-1.2","SS1619739987589","trial","","40","500","2551.86500000034","images/stimuli/spore_stims/complex_20_A_a.gif","images/stimuli/spore_stims/complex_19_A_b.gif","self_paced","","0","complex_dissimilar","images/stimuli/spore_stims/complex_19_A_b.gif","","","","",""
"","null","html-keyboard-response","15","201080","0.0-9.0-0.3","SS1619739987589","","","null","","","","","","<p><img src= images/blank.png width =""600"" height = ""600"" style=""position:fixed;top:50%; left:50%; transform: translate(-50%, -50%); border:5px solid black"">","","","","","","","",""
"","1172.484999999142","sequential-stimulus-presentation-old","16","202754","0.0-9.0-1.3","SS1619739987589","trial","","40","500","1672.484999999142","images/stimuli/spore_stims/complex_20_A_a.gif","images/stimuli/spore_stims/complex_19_A_b.gif","self_paced","","0","complex_dissimilar","images/stimuli/spore_stims/complex_19_A_b.gif","","","","",""
"","null","html-keyboard-response","17","203852","0.0-9.0-0.4","SS1619739987589","","","null","","","","","","<p><img src= images/blank.png width =""600"" height = ""600"" style=""position:fixed;top:50%; left:50%; transform: translate(-50%, -50%); border:5px solid black"">","","","","","","","",""
"","874.7400000002235","sequential-stimulus-presentation-old","18","205229","0.0-9.0-1.4","SS1619739987589","trial","","40","500","1374.7400000002235","images/stimuli/spore_stims/complex_20_A_a.gif","images/stimuli/spore_stims/complex_19_A_b.gif","self_paced","","0","complex_dissimilar","images/stimuli/spore_stims/complex_19_A_b.gif","","","","",""
"","3902.105000000127","survey-multi-choice","19","209132","0.0-10.0","SS1619739987589","math_question","","","","","","","","","","","","{""Q0"":""10""}","[0]","10","",""
"","null","html-keyboard-response","20","210003","0.0-11.0-0.0","SS1619739987589","","","null","","","","","","<p><img src= images/blank.png width =""600"" height = ""600"" style=""position:fixed;top:50%; left:50%; transform: translate(-50%, -50%); border:5px solid black"">","","","","","","","",""
"","641.7300000003015","sequential-stimulus-presentation-old","21","225647","0.0-11.0-1.0","SS1619739987589","trial","","40","500","1141.7300000003015","images/stimuli/spore_stims/simple_09_A_b.gif","images/stimuli/spore_stims/simple_13_A_a.gif","forced_long","","1","simple_dissimilar","images/stimuli/spore_stims/simple_13_A_a.gif","","","","",""
"","null","html-keyboard-response","22","226815","0.0-11.0-0.1","SS1619739987589","","","null","","","","","","<p><img src= images/blank.png width =""600"" height = ""600"" style=""position:fixed;top:50%; left:50%; transform: translate(-50%, -50%); border:5px solid black"">","","","","","","","",""
"","1837.7149999996473","sequential-stimulus-presentation-old","23","229155","0.0-11.0-1.1","SS1619739987589","trial","","40","500","2337.7149999996473","images/stimuli/spore_stims/simple_09_A_b.gif","images/stimuli/spore_stims/simple_13_A_a.gif","forced_long","","1","simple_dissimilar","images/stimuli/spore_stims/simple_13_A_a.gif","","","","",""
"","null","html-keyboard-response","24","230110","0.0-11.0-0.2","SS1619739987589","","","null","","","","","","<p><img src= images/blank.png width =""600"" height = ""600"" style=""position:fixed;top:50%; left:50%; transform: translate(-50%, -50%); border:5px solid black"">","","","","","","","",""
"","1493.599999999802","sequential-stimulus-presentation-old","25","232105","0.0-11.0-1.2","SS1619739987589","trial","","40","500","1993.599999999802","images/stimuli/spore_stims/simple_09_A_b.gif","images/stimuli/spore_stims/simple_13_A_a.gif","forced_long","","1","simple_dissimilar","images/stimuli/spore_stims/simple_13_A_a.gif","","","","",""
"","null","html-keyboard-response","26","233357","0.0-11.0-0.3","SS1619739987589","","","null","","","","","","<p><img src= images/blank.png width =""600"" height = ""600"" style=""position:fixed;top:50%; left:50%; transform: translate(-50%, -50%); border:5px solid black"">","","","","","","","",""
"","431.04500000024564","sequential-stimulus-presentation-old","27","234290","0.0-11.0-1.3","SS1619739987589","trial","","40","500","931.0450000002456","images/stimuli/spore_stims/simple_09_A_b.gif","images/stimuli/spore_stims/simple_13_A_a.gif","forced_long","","1","simple_dissimilar","images/stimuli/spore_stims/simple_13_A_a.gif","","","","",""
"","null","html-keyboard-response","28","235296","0.0-11.0-0.4","SS1619739987589","","","null","","","","","","<p><img src= images/blank.png width =""600"" height = ""600"" style=""position:fixed;top:50%; left:50%; transform: translate(-50%, -50%); border:5px solid black"">","","","","","","","",""
"","173.4050000004645","sequential-stimulus-presentation-old","29","235972","0.0-11.0-1.4","SS1619739987589","trial","","40","500","673.4050000004645","images/stimuli/spore_stims/simple_09_A_b.gif","images/stimuli/spore_stims/simple_13_A_a.gif","forced_long","","1","simple_dissimilar","images/stimuli/spore_stims/simple_13_A_a.gif","","","","",""
"","3235.319999999774","survey-multi-choice","30","239207","0.0-12.0","SS1619739987589","math_question","","","","","","","","","","","","{""Q0"":""7""}","[0]","7","",""
"","null","html-keyboard-response","31","240497","0.0-13.0-0.0","SS1619739987589","","","null","","","","","","<p><img src= images/blank.png width =""600"" height = ""600"" style=""position:fixed;top:50%; left:50%; transform: translate(-50%, -50%); border:5px solid black"">","","","","","","","",""
"","447.5650000004098","sequential-stimulus-presentation-old","32","255947","0.0-13.0-1.0","SS1619739987589","trial","","40","500","947.5650000004098","images/stimuli/spore_stims/simple_20_A_b.gif","images/stimuli/spore_stims/simple_10_A_a.gif","forced_long","","2","simple_dissimilar","images/stimuli/spore_stims/simple_10_A_a.gif","","","","",""
"","null","html-keyboard-response","33","256810","0.0-13.0-0.1","SS1619739987589","","","null","","","","","","<p><img src= images/blank.png width =""600"" height = ""600"" style=""position:fixed;top:50%; left:50%; transform: translate(-50%, -50%); border:5px solid black"">","","","","","","","",""
"","1272.25499999983","sequential-stimulus-presentation-old","34","258585","0.0-13.0-1.1","SS1619739987589","trial","","40","500","1772.25499999983","images/stimuli/spore_stims/simple_20_A_b.gif","images/stimuli/spore_stims/simple_10_A_a.gif","forced_long","","2","simple_dissimilar","images/stimuli/spore_stims/simple_10_A_a.gif","","","","",""
"","null","html-keyboard-response","35","259698","0.0-13.0-0.2","SS1619739987589","","","null","","","","","","<p><img src= images/blank.png width =""600"" height = ""600"" style=""position:fixed;top:50%; left:50%; transform: translate(-50%, -50%); border:5px solid black"">","","","","","","","",""
"","88.44500000035623","sequential-stimulus-presentation-old","36","260288","0.0-13.0-1.2","SS1619739987589","trial","","40","500","588.4450000003562","images/stimuli/spore_stims/simple_20_A_b.gif","images/stimuli/spore_stims/simple_10_A_a.gif","forced_long","","2","simple_dissimilar","images/stimuli/spore_stims/simple_10_A_a.gif","","","","",""
"","null","html-keyboard-response","37","261440","0.0-13.0-0.3","SS1619739987589","","","null","","","","","","<p><img src= images/blank.png width =""600"" height = ""600"" style=""position:fixed;top:50%; left:50%; transform: translate(-50%, -50%); border:5px solid black"">","","","","","","","",""
"","1813.2550000000629","sequential-stimulus-presentation-old","38","263754","0.0-13.0-1.3","SS1619739987589","trial","","40","500","2313.255000000063","images/stimuli/spore_stims/simple_20_A_b.gif","images/stimuli/spore_stims/simple_10_A_a.gif","forced_long","","2","simple_dissimilar","images/stimuli/spore_stims/simple_10_A_a.gif","","","","",""
"","null","html-keyboard-response","39","264645","0.0-13.0-0.4","SS1619739987589","","","null","","","","","","<p><img src= images/blank.png width =""600"" height = ""600"" style=""position:fixed;top:50%; left:50%; transform: translate(-50%, -50%); border:5px solid black"">","","","","","","","",""
"","20.130000000819564","sequential-stimulus-presentation-old","40","265167","0.0-13.0-1.4","SS1619739987589","trial","","40","500","520.1300000008196","images/stimuli/spore_stims/simple_20_A_b.gif","images/stimuli/spore_stims/simple_10_A_a.gif","forced_long","","2","simple_dissimilar","images/stimuli/spore_stims/simple_10_A_a.gif","","","","",""
"","null","html-keyboard-response","41","266237","0.0-13.0-0.5","SS1619739987589","","","null","","","","","","<p><img src= images/blank.png width =""600"" height = ""600"" style=""position:fixed;top:50%; left:50%; transform: translate(-50%, -50%); border:5px solid black"">","","","","","","","",""
"","2321.005000000703","sequential-stimulus-presentation-old","42","269061","0.0-13.0-1.5","SS1619739987589","trial","","40","500","2821.005000000703","images/stimuli/spore_stims/simple_20_A_b.gif","images/stimuli/spore_stims/simple_10_A_a.gif","forced_long","","2","simple_dissimilar","images/stimuli/spore_stims/simple_10_A_a.gif","","","","",""
"","2838.240000000049","survey-multi-choice","43","271900","0.0-14.0","SS1619739987589","math_question","","","","","","","","","","","","{""Q0"":""12""}","[0]","12","",""
"","null","html-keyboard-response","44","272768","0.0-15.0-0.0","SS1619739987589","","","null","","","","","","<p><img src= images/blank.png width =""600"" height = ""600"" style=""position:fixed;top:50%; left:50%; transform: translate(-50%, -50%); border:5px solid black"">","","","","","","","",""
"","1536.2950000007986","sequential-stimulus-presentation-old","45","274807","0.0-15.0-1.0","SS1619739987589","trial","","40","500","2036.2950000007986","images/stimuli/spore_stims/complex_16_A_b.gif","images/stimuli/spore_stims/complex_05_A_a.gif","forced_short","","3","complex_dissimilar","images/stimuli/spore_stims/complex_05_A_a.gif","","","","",""
"","null","html-keyboard-response","46","275790","0.0-15.0-0.1","SS1619739987589","","","null","","","","","","<p><img src= images/blank.png width =""600"" height = ""600"" style=""position:fixed;top:50%; left:50%; transform: translate(-50%, -50%); border:5px solid black"">","","","","","","","",""
"","1882.7850000006729","sequential-stimulus-presentation-old","47","278174","0.0-15.0-1.1","SS1619739987589","trial","","40","500","2382.785000000673","images/stimuli/spore_stims/complex_16_A_b.gif","images/stimuli/spore_stims/complex_05_A_a.gif","forced_short","","3","complex_dissimilar","images/stimuli/spore_stims/complex_05_A_a.gif","","","","",""
"","null","html-keyboard-response","48","279031","0.0-15.0-0.2","SS1619739987589","","","null","","","","","","<p><img src= images/blank.png width =""600"" height = ""600"" style=""position:fixed;top:50%; left:50%; transform: translate(-50%, -50%); border:5px solid black"">","","","","","","","",""
"","2869.445000000298","sequential-stimulus-presentation-old","49","282402","0.0-15.0-1.2","SS1619739987589","trial","","40","500","3369.445000000298","images/stimuli/spore_stims/complex_16_A_b.gif","images/stimuli/spore_stims/complex_05_A_a.gif","forced_short","","3","complex_dissimilar","images/stimuli/spore_stims/complex_05_A_a.gif","","","","",""
"","null","html-keyboard-response","50","283233","0.0-15.0-0.3","SS1619739987589","","","null","","","","","","<p><img src= images/blank.png width =""600"" height = ""600"" style=""position:fixed;top:50%; left:50%; transform: translate(-50%, -50%); border:5px solid black"">","","","","","","","",""
"","1317.425000000163","sequential-stimulus-presentation-old","51","285052","0.0-15.0-1.3","SS1619739987589","trial","","40","500","1817.425000000163","images/stimuli/spore_stims/complex_16_A_b.gif","images/stimuli/spore_stims/complex_05_A_a.gif","forced_short","","3","complex_dissimilar","images/stimuli/spore_stims/complex_05_A_a.gif","","","","",""
"","null","html-keyboard-response","52","285878","0.0-15.0-0.4","SS1619739987589","","","null","","","","","","<p><img src= images/blank.png width =""600"" height = ""600"" style=""position:fixed;top:50%; left:50%; transform: translate(-50%, -50%); border:5px solid black"">","","","","","","","",""
"","635.3600000002189","sequential-stimulus-presentation-old","53","287015","0.0-15.0-1.4","SS1619739987589","trial","","40","500","1135.3600000002189","images/stimuli/spore_stims/complex_16_A_b.gif","images/stimuli/spore_stims/complex_05_A_a.gif","forced_short","","3","complex_dissimilar","images/stimuli/spore_stims/complex_05_A_a.gif","","","","",""
"","null","html-keyboard-response","54","288035","0.0-15.0-0.5","SS1619739987589","","","null","","","","","","<p><img src= images/blank.png width =""600"" height = ""600"" style=""position:fixed;top:50%; left:50%; transform: translate(-50%, -50%); border:5px solid black"">","","","","","","","",""
"","1509.694999999716","sequential-stimulus-presentation-old","55","290047","0.0-15.0-1.5","SS1619739987589","trial","","40","500","2009.694999999716","images/stimuli/spore_stims/complex_16_A_b.gif","images/stimuli/spore_stims/complex_05_A_a.gif","forced_short","","3","complex_dissimilar","images/stimuli/spore_stims/complex_05_A_a.gif","","","","",""
"","5796.369999999995","survey-multi-choice","56","295845","0.0-16.0","SS1619739987589","math_question","","","","","","","","","","","","{""Q0"":""15""}","[0]","15","",""
"","null","html-keyboard-response","57","296976","0.0-17.0-0.0","SS1619739987589","","","null","","","","","","<p><img src= images/blank.png width =""600"" height = ""600"" style=""position:fixed;top:50%; left:50%; transform: translate(-50%, -50%); border:5px solid black"">","","","","","","","",""
"","439.5899999999674","sequential-stimulus-presentation-old","58","312418","0.0-17.0-1.0","SS1619739987589","trial","","40","500","939.5899999999674","images/stimuli/spore_stims/complex_18_A_b.gif","images/stimuli/spore_stims/complex_13_A_a.gif","forced_long","","4","complex_dissimilar","images/stimuli/spore_stims/complex_13_A_a.gif","","","","",""
"","null","html-keyboard-response","59","313375","0.0-17.0-0.1","SS1619739987589","","","null","","","","","","<p><img src= images/blank.png width =""600"" height = ""600"" style=""position:fixed;top:50%; left:50%; transform: translate(-50%, -50%); border:5px solid black"">","","","","","","","",""
"","330.30000000057044","sequential-stimulus-presentation-old","60","314208","0.0-17.0-1.1","SS1619739987589","trial","","40","500","830.3000000005704","images/stimuli/spore_stims/complex_18_A_b.gif","images/stimuli/spore_stims/complex_13_A_a.gif","forced_long","","4","complex_dissimilar","images/stimuli/spore_stims/complex_13_A_a.gif","","","","",""
"","null","html-keyboard-response","61","315411","0.0-17.0-0.2","SS1619739987589","","","null","","","","","","<p><img src= images/blank.png width =""600"" height = ""600"" style=""position:fixed;top:50%; left:50%; transform: translate(-50%, -50%); border:5px solid black"">","","","","","","","",""
"","613.6399999996065","sequential-stimulus-presentation-old","62","316528","0.0-17.0-1.2","SS1619739987589","trial","","40","500","1113.6399999996065","images/stimuli/spore_stims/complex_18_A_b.gif","images/stimuli/spore_stims/complex_13_A_a.gif","forced_long","","4","complex_dissimilar","images/stimuli/spore_stims/complex_13_A_a.gif","","","","",""
"","null","html-keyboard-response","63","317490","0.0-17.0-0.3","SS1619739987589","","","null","","","","","","<p><img src= images/blank.png width =""600"" height = ""600"" style=""position:fixed;top:50%; left:50%; transform: translate(-50%, -50%); border:5px solid black"">","","","","","","","",""
"","711.4400000000605","sequential-stimulus-presentation-old","64","318703","0.0-17.0-1.3","SS1619739987589","trial","","40","500","1211.4400000000605","images/stimuli/spore_stims/complex_18_A_b.gif","images/stimuli/spore_stims/complex_13_A_a.gif","forced_long","","4","complex_dissimilar","images/stimuli/spore_stims/complex_13_A_a.gif","","","","",""
"","null","html-keyboard-response","65","319601","0.0-17.0-0.4","SS1619739987589","","","null","","","","","","<p><img src= images/blank.png width =""600"" height = ""600"" style=""position:fixed;top:50%; left:50%; transform: translate(-50%, -50%); border:5px solid black"">","","","","","","","",""
"","1066.3349999995553","sequential-stimulus-presentation-old","66","321168","0.0-17.0-1.4","SS1619739987589","trial","","40","500","1566.3349999995553","images/stimuli/spore_stims/complex_18_A_b.gif","images/stimuli/spore_stims/complex_13_A_a.gif","forced_long","","4","complex_dissimilar","images/stimuli/spore_stims/complex_13_A_a.gif","","","","",""
"","null","html-keyboard-response","67","322305","0.0-17.0-0.5","SS1619739987589","","","null","","","","","","<p><img src= images/blank.png width =""600"" height = ""600"" style=""position:fixed;top:50%; left:50%; transform: translate(-50%, -50%); border:5px solid black"">","","","","","","","",""
"","911.9700000000885","sequential-stimulus-presentation-old","68","323719","0.0-17.0-1.5","SS1619739987589","trial","","40","500","1411.9700000000885","images/stimuli/spore_stims/complex_18_A_b.gif","images/stimuli/spore_stims/complex_13_A_a.gif","forced_long","","4","complex_dissimilar","images/stimuli/spore_stims/complex_13_A_a.gif","","","","",""
"","2883.8999999998487","survey-multi-choice","69","326604","0.0-18.0","SS1619739987589","math_question","","","","","","","","","","","","{""Q0"":""16""}","[0]","16","",""
"","null","html-keyboard-response","70","327780","0.0-19.0-0.0","SS1619739987589","","","null","","","","","","<p><img src= images/blank.png width =""600"" height = ""600"" style=""position:fixed;top:50%; left:50%; transform: translate(-50%, -50%); border:5px solid black"">","","","","","","","",""
"","3962.010000000242","sequential-stimulus-presentation-old","71","332244","0.0-19.0-1.0","SS1619739987589","trial","","40","500","4462.010000000242","images/stimuli/spore_stims/simple_06_A_b.gif","images/stimuli/spore_stims/simple_03_A_a.gif","self_paced","","5","simple_dissimilar","images/stimuli/spore_stims/simple_03_A_a.gif","","","","",""
"","null","html-keyboard-response","72","333065","0.0-19.0-0.1","SS1619739987589","","","null","","","","","","<p><img src= images/blank.png width =""600"" height = ""600"" style=""position:fixed;top:50%; left:50%; transform: translate(-50%, -50%); border:5px solid black"">","","","","","","","",""
"","3076.2599999998347","sequential-stimulus-presentation-old","73","336644","0.0-19.0-1.1","SS1619739987589","trial","","40","500","3576.2599999998347","images/stimuli/spore_stims/simple_06_A_b.gif","images/stimuli/spore_stims/simple_03_A_a.gif","self_paced","","5","simple_dissimilar","images/stimuli/spore_stims/simple_03_A_a.gif","","","","",""
"","null","html-keyboard-response","74","337656","0.0-19.0-0.2","SS1619739987589","","","null","","","","","","<p><img src= images/blank.png width =""600"" height = ""600"" style=""position:fixed;top:50%; left:50%; transform: translate(-50%, -50%); border:5px solid black"">","","","","","","","",""
"","547.5550000001094","sequential-stimulus-presentation-old","75","338705","0.0-19.0-1.2","SS1619739987589","trial","","40","500","1047.5550000001094","images/stimuli/spore_stims/simple_06_A_b.gif","images/stimuli/spore_stims/simple_03_A_a.gif","self_paced","","5","simple_dissimilar","images/stimuli/spore_stims/simple_03_A_a.gif","","","","",""
"","null","html-keyboard-response","76","339543","0.0-19.0-0.3","SS1619739987589","","","null","","","","","","<p><img src= images/blank.png width =""600"" height = ""600"" style=""position:fixed;top:50%; left:50%; transform: translate(-50%, -50%); border:5px solid black"">","","","","","","","",""
"","294.58999999950174","sequential-stimulus-presentation-old","77","340339","0.0-19.0-1.3","SS1619739987589","trial","","40","500","794.5899999995017","images/stimuli/spore_stims/simple_06_A_b.gif","images/stimuli/spore_stims/simple_03_A_a.gif","self_paced","","5","simple_dissimilar","images/stimuli/spore_stims/simple_03_A_a.gif","","","","",""
"","2651.3150000000605","survey-multi-choice","78","342992","0.0-20.0","SS1619739987589","math_question","","","","","","","","","","","","{""Q0"":""8""}","[0]","8","",""
"","null","html-keyboard-response","79","344230","0.0-21.0-0.0","SS1619739987589","","","null","","","","","","<p><img src= images/blank.png width =""600"" height = ""600"" style=""position:fixed;top:50%; left:50%; transform: translate(-50%, -50%); border:5px solid black"">","","","","","","","",""
"","1356.4450000003562","sequential-stimulus-presentation-old","80","346088","0.0-21.0-1.0","SS1619739987589","trial","","40","500","1856.4450000003562","images/stimuli/spore_stims/complex_09_A_b.gif","images/stimuli/spore_stims/complex_16_A_a.gif","forced_short","","6","complex_dissimilar","images/stimuli/spore_stims/complex_16_A_a.gif","","","","",""
"","null","html-keyboard-response","81","347354","0.0-21.0-0.1","SS1619739987589","","","null","","","","","","<p><img src= images/blank.png width =""600"" height = ""600"" style=""position:fixed;top:50%; left:50%; transform: translate(-50%, -50%); border:5px solid black"">","","","","","","","",""
"","1432.1899999995367","sequential-stimulus-presentation-old","82","349289","0.0-21.0-1.1","SS1619739987589","trial","","40","500","1932.1899999995367","images/stimuli/spore_stims/complex_09_A_b.gif","images/stimuli/spore_stims/complex_16_A_a.gif","forced_short","","6","complex_dissimilar","images/stimuli/spore_stims/complex_16_A_a.gif","","","","",""
"","null","html-keyboard-response","83","350589","0.0-21.0-0.2","SS1619739987589","","","null","","","","","","<p><img src= images/blank.png width =""600"" height = ""600"" style=""position:fixed;top:50%; left:50%; transform: translate(-50%, -50%); border:5px solid black"">","","","","","","","",""
"","1275.549999999348","sequential-stimulus-presentation-old","84","352367","0.0-21.0-1.2","SS1619739987589","trial","","40","500","1775.549999999348","images/stimuli/spore_stims/complex_09_A_b.gif","images/stimuli/spore_stims/complex_16_A_a.gif","forced_short","","6","complex_dissimilar","images/stimuli/spore_stims/complex_16_A_a.gif","","","","",""
"","null","html-keyboard-response","85","353341","0.0-21.0-0.3","SS1619739987589","","","null","","","","","","<p><img src= images/blank.png width =""600"" height = ""600"" style=""position:fixed;top:50%; left:50%; transform: translate(-50%, -50%); border:5px solid black"">","","","","","","","",""
"","4080.414999999455","sequential-stimulus-presentation-old","86","357923","0.0-21.0-1.3","SS1619739987589","trial","","40","500","4580.414999999455","images/stimuli/spore_stims/complex_09_A_b.gif","images/stimuli/spore_stims/complex_16_A_a.gif","forced_short","","6","complex_dissimilar","images/stimuli/spore_stims/complex_09_A_b.gif","","","","",""
"","null","html-keyboard-response","87","359015","0.0-21.0-0.4","SS1619739987589","","","null","","","","","","<p><img src= images/blank.png width =""600"" height = ""600"" style=""position:fixed;top:50%; left:50%; transform: translate(-50%, -50%); border:5px solid black"">","","","","","","","",""
"","465.08499999984633","sequential-stimulus-presentation-old","88","359983","0.0-21.0-1.4","SS1619739987589","trial","","40","500","965.0849999998463","images/stimuli/spore_stims/complex_09_A_b.gif","images/stimuli/spore_stims/complex_16_A_a.gif","forced_short","","6","complex_dissimilar","images/stimuli/spore_stims/complex_16_A_a.gif","","","","",""
"","3211.139999999432","survey-multi-choice","89","363196","0.0-22.0","SS1619739987589","math_question","","","","","","","","","","","","{""Q0"":""10""}","[0]","10","",""
"","null","html-keyboard-response","90","364114","0.0-23.0-0.0","SS1619739987589","","","null","","","","","","<p><img src= images/blank.png width =""600"" height = ""600"" style=""position:fixed;top:50%; left:50%; transform: translate(-50%, -50%); border:5px solid black"">","","","","","","","",""
"","3509.380000000412","sequential-stimulus-presentation-old","91","368126","0.0-23.0-1.0","SS1619739987589","trial","","40","500","4009.380000000412","images/stimuli/spore_stims/complex_15_A_a.gif","images/stimuli/spore_stims/complex_06_A_b.gif","self_paced","","7","complex_dissimilar","images/stimuli/spore_stims/complex_06_A_b.gif","","","","",""
"","null","html-keyboard-response","92","369186","0.0-23.0-0.1","SS1619739987589","","","null","","","","","","<p><img src= images/blank.png width =""600"" height = ""600"" style=""position:fixed;top:50%; left:50%; transform: translate(-50%, -50%); border:5px solid black"">","","","","","","","",""
"","499.5150000004214","sequential-stimulus-presentation-old","93","370188","0.0-23.0-1.1","SS1619739987589","trial","","40","500","999.5150000004214","images/stimuli/spore_stims/complex_15_A_a.gif","images/stimuli/spore_stims/complex_06_A_b.gif","self_paced","","7","complex_dissimilar","images/stimuli/spore_stims/complex_06_A_b.gif","","","","",""
"","null","html-keyboard-response","94","371461","0.0-23.0-0.2","SS1619739987589","","","null","","","","","","<p><img src= images/blank.png width =""600"" height = ""600"" style=""position:fixed;top:50%; left:50%; transform: translate(-50%, -50%); border:5px solid black"">","","","","","","","",""
"","269.34999999956926","sequential-stimulus-presentation-old","95","372232","0.0-23.0-1.2","SS1619739987589","trial","","40","500","769.3499999995693","images/stimuli/spore_stims/complex_15_A_a.gif","images/stimuli/spore_stims/complex_06_A_b.gif","self_paced","","7","complex_dissimilar","images/stimuli/spore_stims/complex_06_A_b.gif","","","","",""
"","null","html-keyboard-response","96","373401","0.0-23.0-0.3","SS1619739987589","","","null","","","","","","<p><img src= images/blank.png width =""600"" height = ""600"" style=""position:fixed;top:50%; left:50%; transform: translate(-50%, -50%); border:5px solid black"">","","","","","","","",""
"","2024.4499999998952","sequential-stimulus-presentation-old","97","375928","0.0-23.0-1.3","SS1619739987589","trial","","40","500","2524.449999999895","images/stimuli/spore_stims/complex_15_A_a.gif","images/stimuli/spore_stims/complex_06_A_b.gif","self_paced","","7","complex_dissimilar","images/stimuli/spore_stims/complex_06_A_b.gif","","","","",""
"","null","html-keyboard-response","98","377147","0.0-23.0-0.4","SS1619739987589","","","null","","","","","","<p><img src= images/blank.png width =""600"" height = ""600"" style=""position:fixed;top:50%; left:50%; transform: translate(-50%, -50%); border:5px solid black"">","","","","","","","",""
"","11.239999999816064","sequential-stimulus-presentation-old","99","377660","0.0-23.0-1.4","SS1619739987589","trial","","40","500","511.23999999981606","images/stimuli/spore_stims/complex_15_A_a.gif","images/stimuli/spore_stims/complex_06_A_b.gif","self_paced","","7","complex_dissimilar","images/stimuli/spore_stims/complex_06_A_b.gif","","","","",""
"","null","html-keyboard-response","100","378808","0.0-23.0-0.5","SS1619739987589","","","null","","","","","","<p><img src= images/blank.png width =""600"" height = ""600"" style=""position:fixed;top:50%; left:50%; transform: translate(-50%, -50%); border:5px solid black"">","","","","","","","",""
"","908.5150000000722","sequential-stimulus-presentation-old","101","380219","0.0-23.0-1.5","SS1619739987589","trial","","40","500","1408.5150000000722","images/stimuli/spore_stims/complex_15_A_a.gif","images/stimuli/spore_stims/complex_06_A_b.gif","self_paced","","7","complex_dissimilar","images/stimuli/spore_stims/complex_06_A_b.gif","","","","",""
"","2569.150000000256","survey-multi-choice","102","382789","0.0-24.0","SS1619739987589","math_question","","","","","","","","","","","","{""Q0"":""10""}","[0]","10","",""
"","null","html-keyboard-response","103","383694","0.0-25.0-0.0","SS1619739987589","","","null","","","","","","<p><img src= images/blank.png width =""600"" height = ""600"" style=""position:fixed;top:50%; left:50%; transform: translate(-50%, -50%); border:5px solid black"">","","","","","","","",""
"","373.70999999984633","sequential-stimulus-presentation-old","104","399070","0.0-25.0-1.0","SS1619739987589","trial","","40","500","873.7099999998463","images/stimuli/spore_stims/complex_08_A_b.gif","images/stimuli/spore_stims/complex_03_A_a.gif","forced_long","","8","complex_dissimilar","images/stimuli/spore_stims/complex_03_A_a.gif","","","","",""
"","null","html-keyboard-response","105","400164","0.0-25.0-0.1","SS1619739987589","","","null","","","","","","<p><img src= images/blank.png width =""600"" height = ""600"" style=""position:fixed;top:50%; left:50%; transform: translate(-50%, -50%); border:5px solid black"">","","","","","","","",""
"","204.57999999966705","sequential-stimulus-presentation-old","106","400872","0.0-25.0-1.1","SS1619739987589","trial","","40","500","704.579999999667","images/stimuli/spore_stims/complex_08_A_b.gif","images/stimuli/spore_stims/complex_03_A_a.gif","forced_long","","8","complex_dissimilar","images/stimuli/spore_stims/complex_03_A_a.gif","","","","",""
"","null","html-keyboard-response","107","402126","0.0-25.0-0.2","SS1619739987589","","","null","","","","","","<p><img src= images/blank.png width =""600"" height = ""600"" style=""position:fixed;top:50%; left:50%; transform: translate(-50%, -50%); border:5px solid black"">","","","","","","","",""
"","2730.3099999999395","sequential-stimulus-presentation-old","108","405359","0.0-25.0-1.2","SS1619739987589","trial","","40","500","3230.3099999999395","images/stimuli/spore_stims/complex_08_A_b.gif","images/stimuli/spore_stims/complex_03_A_a.gif","forced_long","","8","complex_dissimilar","images/stimuli/spore_stims/complex_03_A_a.gif","","","","",""
"","null","html-keyboard-response","109","406316","0.0-25.0-0.3","SS1619739987589","","","null","","","","","","<p><img src= images/blank.png width =""600"" height = ""600"" style=""position:fixed;top:50%; left:50%; transform: translate(-50%, -50%); border:5px solid black"">","","","","","","","",""
"","2816.3400000003166","sequential-stimulus-presentation-old","110","409635","0.0-25.0-1.3","SS1619739987589","trial","","40","500","3316.3400000003166","images/stimuli/spore_stims/complex_08_A_b.gif","images/stimuli/spore_stims/complex_03_A_a.gif","forced_long","","8","complex_dissimilar","images/stimuli/spore_stims/complex_08_A_b.gif","","","","",""
"","7792.1900000000605","survey-multi-choice","111","417429","0.0-26.0","SS1619739987589","math_question","","","","","","","","","","","","{""Q0"":""7""}","[0]","7","",""
"","null","html-keyboard-response","112","418565","0.0-27.0-0.0","SS1619739987589","","","null","","","","","","<p><img src= images/blank.png width =""600"" height = ""600"" style=""position:fixed;top:50%; left:50%; transform: translate(-50%, -50%); border:5px solid black"">","","","","","","","",""
"","1063.8550000003306","sequential-stimulus-presentation-old","113","420131","0.0-27.0-1.0","SS1619739987589","trial","","40","500","1563.8550000003306","images/stimuli/spore_stims/simple_17_A_b.gif","images/stimuli/spore_stims/simple_14_A_a.gif","forced_short","","9","simple_dissimilar","images/stimuli/spore_stims/simple_14_A_a.gif","","","","",""
"","null","html-keyboard-response","114","421424","0.0-27.0-0.1","SS1619739987589","","","null","","","","","","<p><img src= images/blank.png width =""600"" height = ""600"" style=""position:fixed;top:50%; left:50%; transform: translate(-50%, -50%); border:5px solid black"">","","","","","","","",""
"","1457.2349999998696","sequential-stimulus-presentation-old","115","423384","0.0-27.0-1.1","SS1619739987589","trial","","40","500","1957.2349999998696","images/stimuli/spore_stims/simple_17_A_b.gif","images/stimuli/spore_stims/simple_14_A_a.gif","forced_short","","9","simple_dissimilar","images/stimuli/spore_stims/simple_17_A_b.gif","","","","",""
"","null","html-keyboard-response","116","424635","0.0-27.0-0.2","SS1619739987589","","","null","","","","","","<p><img src= images/blank.png width =""600"" height = ""600"" style=""position:fixed;top:50%; left:50%; transform: translate(-50%, -50%); border:5px solid black"">","","","","","","","",""
"","737.8199999993667","sequential-stimulus-presentation-old","117","425876","0.0-27.0-1.2","SS1619739987589","trial","","40","500","1237.8199999993667","images/stimuli/spore_stims/simple_17_A_b.gif","images/stimuli/spore_stims/simple_14_A_a.gif","forced_short","","9","simple_dissimilar","images/stimuli/spore_stims/simple_14_A_a.gif","","","","",""
"","null","html-keyboard-response","118","426746","0.0-27.0-0.3","SS1619739987589","","","null","","","","","","<p><img src= images/blank.png width =""600"" height = ""600"" style=""position:fixed;top:50%; left:50%; transform: translate(-50%, -50%); border:5px solid black"">","","","","","","","",""
"","1393.4149999995716","sequential-stimulus-presentation-old","119","428642","0.0-27.0-1.3","SS1619739987589","trial","","40","500","1893.4149999995716","images/stimuli/spore_stims/simple_17_A_b.gif","images/stimuli/spore_stims/simple_14_A_a.gif","forced_short","","9","simple_dissimilar","images/stimuli/spore_stims/simple_14_A_a.gif","","","","",""
"","null","html-keyboard-response","120","429493","0.0-27.0-0.4","SS1619739987589","","","null","","","","","","<p><img src= images/blank.png width =""600"" height = ""600"" style=""position:fixed;top:50%; left:50%; transform: translate(-50%, -50%); border:5px solid black"">","","","","","","","",""
"","1995.34499999939","sequential-stimulus-presentation-old","121","431991","0.0-27.0-1.4","SS1619739987589","trial","","40","500","2495.34499999939","images/stimuli/spore_stims/simple_17_A_b.gif","images/stimuli/spore_stims/simple_14_A_a.gif","forced_short","","9","simple_dissimilar","images/stimuli/spore_stims/simple_14_A_a.gif","","","","",""
"","null","html-keyboard-response","122","433113","0.0-27.0-0.5","SS1619739987589","","","null","","","","","","<p><img src= images/blank.png width =""600"" height = ""600"" style=""position:fixed;top:50%; left:50%; transform: translate(-50%, -50%); border:5px solid black"">","","","","","","","",""
"","591.1850000002305","sequential-stimulus-presentation-old","123","434206","0.0-27.0-1.5","SS1619739987589","trial","","40","500","1091.1850000002305","images/stimuli/spore_stims/simple_17_A_b.gif","images/stimuli/spore_stims/simple_14_A_a.gif","forced_short","","9","simple_dissimilar","images/stimuli/spore_stims/simple_17_A_b.gif","","","","",""
"","10179.674999999406","survey-multi-choice","124","444387","0.0-28.0","SS1619739987589","math_question","","","","","","","","","","","","{""Q0"":""16""}","[0]","16","",""
"","null","html-keyboard-response","125","445201","0.0-29.0-0.0","SS1619739987589","","","null","","","","","","<p><img src= images/blank.png width =""600"" height = ""600"" style=""position:fixed;top:50%; left:50%; transform: translate(-50%, -50%); border:5px solid black"">","","","","","","","",""
"","1059.1599999997998","sequential-stimulus-presentation-old","126","446764","0.0-29.0-1.0","SS1619739987589","trial","","40","500","1559.1599999997998","images/stimuli/spore_stims/simple_15_A_b.gif","images/stimuli/spore_stims/simple_12_A_a.gif","forced_short","","10","simple_dissimilar","images/stimuli/spore_stims/simple_12_A_a.gif","","","","",""
"","null","html-keyboard-response","127","447626","0.0-29.0-0.1","SS1619739987589","","","null","","","","","","<p><img src= images/blank.png width =""600"" height = ""600"" style=""position:fixed;top:50%; left:50%; transform: translate(-50%, -50%); border:5px solid black"">","","","","","","","",""
"","869.5250000000233","sequential-stimulus-presentation-old","128","448998","0.0-29.0-1.1","SS1619739987589","trial","","40","500","1369.5250000000233","images/stimuli/spore_stims/simple_15_A_b.gif","images/stimuli/spore_stims/simple_12_A_a.gif","forced_short","","10","simple_dissimilar","images/stimuli/spore_stims/simple_12_A_a.gif","","","","",""
"","null","html-keyboard-response","129","449928","0.0-29.0-0.2","SS1619739987589","","","null","","","","","","<p><img src= images/blank.png width =""600"" height = ""600"" style=""position:fixed;top:50%; left:50%; transform: translate(-50%, -50%); border:5px solid black"">","","","","","","","",""
"","778.5949999997974","sequential-stimulus-presentation-old","130","451209","0.0-29.0-1.2","SS1619739987589","trial","","40","500","1278.5949999997974","images/stimuli/spore_stims/simple_15_A_b.gif","images/stimuli/spore_stims/simple_12_A_a.gif","forced_short","","10","simple_dissimilar","images/stimuli/spore_stims/simple_12_A_a.gif","","","","",""
"","null","html-keyboard-response","131","452326","0.0-29.0-0.3","SS1619739987589","","","null","","","","","","<p><img src= images/blank.png width =""600"" height = ""600"" style=""position:fixed;top:50%; left:50%; transform: translate(-50%, -50%); border:5px solid black"">","","","","","","","",""
"","184.40499999996973","sequential-stimulus-presentation-old","132","453014","0.0-29.0-1.3","SS1619739987589","trial","","40","500","684.4049999999697","images/stimuli/spore_stims/simple_15_A_b.gif","images/stimuli/spore_stims/simple_12_A_a.gif","forced_short","","10","simple_dissimilar","images/stimuli/spore_stims/simple_12_A_a.gif","","","","",""
"","2686.7349999992875","survey-multi-choice","133","455702","0.0-30.0","SS1619739987589","math_question","","","","","","","","","","","","{""Q0"":""15""}","[0]","15","",""
"","null","html-keyboard-response","134","456605","0.0-31.0-0.0","SS1619739987589","","","null","","","","","","<p><img src= images/blank.png width =""600"" height = ""600"" style=""position:fixed;top:50%; left:50%; transform: translate(-50%, -50%); border:5px solid black"">","","","","","","","",""
"","3224.8300000000745","sequential-stimulus-presentation-old","135","460334","0.0-31.0-1.0","SS1619739987589","trial","","40","500","3724.8300000000745","images/stimuli/spore_stims/simple_07_A_b.gif","images/stimuli/spore_stims/simple_16_A_a.gif","self_paced","","11","simple_dissimilar","images/stimuli/spore_stims/simple_16_A_a.gif","","","","",""
"","null","html-keyboard-response","136","461466","0.0-31.0-0.1","SS1619739987589","","","null","","","","","","<p><img src= images/blank.png width =""600"" height = ""600"" style=""position:fixed;top:50%; left:50%; transform: translate(-50%, -50%); border:5px solid black"">","","","","","","","",""
"","1940.295000000333","sequential-stimulus-presentation-old","137","463908","0.0-31.0-1.1","SS1619739987589","trial","","40","500","2440.295000000333","images/stimuli/spore_stims/simple_07_A_b.gif","images/stimuli/spore_stims/simple_16_A_a.gif","self_paced","","11","simple_dissimilar","images/stimuli/spore_stims/simple_16_A_a.gif","","","","",""
"","null","html-keyboard-response","138","464932","0.0-31.0-0.2","SS1619739987589","","","null","","","","","","<p><img src= images/blank.png width =""600"" height = ""600"" style=""position:fixed;top:50%; left:50%; transform: translate(-50%, -50%); border:5px solid black"">","","","","","","","",""
"","1246.9049999999697","sequential-stimulus-presentation-old","139","466681","0.0-31.0-1.2","SS1619739987589","trial","","40","500","1746.9049999999697","images/stimuli/spore_stims/simple_07_A_b.gif","images/stimuli/spore_stims/simple_16_A_a.gif","self_paced","","11","simple_dissimilar","images/stimuli/spore_stims/simple_07_A_b.gif","","","","",""
"","null","html-keyboard-response","140","467891","0.0-31.0-0.3","SS1619739987589","","","null","","","","","","<p><img src= images/blank.png width =""600"" height = ""600"" style=""position:fixed;top:50%; left:50%; transform: translate(-50%, -50%); border:5px solid black"">","","","","","","","",""
"","390.46499999944353","sequential-stimulus-presentation-old","141","468785","0.0-31.0-1.3","SS1619739987589","trial","","40","500","890.4649999994435","images/stimuli/spore_stims/simple_07_A_b.gif","images/stimuli/spore_stims/simple_16_A_a.gif","self_paced","","11","simple_dissimilar","images/stimuli/spore_stims/simple_16_A_a.gif","","","","",""
"","null","html-keyboard-response","142","469622","0.0-31.0-0.4","SS1619739987589","","","null","","","","","","<p><img src= images/blank.png width =""600"" height = ""600"" style=""position:fixed;top:50%; left:50%; transform: translate(-50%, -50%); border:5px solid black"">","","","","","","","",""
"","1432.4499999993714","sequential-stimulus-presentation-old","143","471557","0.0-31.0-1.4","SS1619739987589","trial","","40","500","1932.4499999993714","images/stimuli/spore_stims/simple_07_A_b.gif","images/stimuli/spore_stims/simple_16_A_a.gif","self_paced","","11","simple_dissimilar","images/stimuli/spore_stims/simple_07_A_b.gif","","","","",""
"[{""page_index"":0,""viewing_time"":5971.934999999532}]","5972.334999999439","instructions","144","477530","0.0-32.0","SS1619739987589","instructions","","","","","","","","","","","","","","","",""
"","14075.534999999974","survey-likert","145","491608","0.0-33.0","SS1619739987589","similarity_question","","","","","","","","","","","","{""Q0"":4}","[0]","","images/stimuli/spore_stims/simple_06_A_b.gif","images/stimuli/spore_stims/simple_03_A_a.gif"
"","8195.999999999884","survey-likert","146","499808","0.0-34.0","SS1619739987589","similarity_question","","","","","","","","","","","","{""Q0"":0}","[0]","","images/stimuli/spore_stims/complex_05_A_a.gif","images/stimuli/spore_stims/complex_16_A_b.gif"
"","12668.569999999774","survey-likert","147","512481","0.0-35.0","SS1619739987589","similarity_question","","","","","","","","","","","","{""Q0"":4}","[0]","","images/stimuli/spore_stims/simple_17_A_b.gif","images/stimuli/spore_stims/simple_14_A_a.gif"
"","8490.899999999849","survey-likert","148","520977","0.0-36.0","SS1619739987589","similarity_question","","","","","","","","","","","","{""Q0"":0}","[0]","","images/stimuli/spore_stims/complex_13_A_a.gif","images/stimuli/spore_stims/complex_18_A_b.gif"
"","6426.079999999376","survey-likert","149","527407","0.0-37.0","SS1619739987589","similarity_question","","","","","","","","","","","","{""Q0"":0}","[0]","","images/stimuli/spore_stims/complex_09_A_b.gif","images/stimuli/spore_stims/complex_16_A_a.gif"
"","6827.0800000000745","survey-likert","150","534237","0.0-38.0","SS1619739987589","similarity_question","","","","","","","","","","","","{""Q0"":4}","[0]","","images/stimuli/spore_stims/simple_10_A_a.gif","images/stimuli/spore_stims/simple_20_A_b.gif"
"","3141.0749999994878","survey-likert","151","537383","0.0-39.0","SS1619739987589","similarity_question","","","","","","","","","","","","{""Q0"":5}","[0]","","images/stimuli/spore_stims/simple_15_A_b.gif","images/stimuli/spore_stims/simple_12_A_a.gif"
"","4580.895000000019","survey-likert","152","541967","0.0-40.0","SS1619739987589","similarity_question","","","","","","","","","","","","{""Q0"":4}","[0]","","images/stimuli/spore_stims/simple_09_A_b.gif","images/stimuli/spore_stims/simple_13_A_a.gif"
"","4702.519999999786","survey-likert","153","546674","0.0-41.0","SS1619739987589","similarity_question","","","","","","","","","","","","{""Q0"":0}","[0]","","images/stimuli/spore_stims/complex_08_A_b.gif","images/stimuli/spore_stims/complex_03_A_a.gif"
"","10674.885000000359","survey-likert","154","557353","0.0-42.0","SS1619739987589","similarity_question","","","","","","","","","","","","{""Q0"":3}","[0]","","images/stimuli/spore_stims/simple_16_A_a.gif","images/stimuli/spore_stims/simple_07_A_b.gif"
"","5288.959999999846","survey-likert","155","562646","0.0-43.0","SS1619739987589","similarity_question","","","","","","","","","","","","{""Q0"":1}","[0]","","images/stimuli/spore_stims/complex_19_A_b.gif","images/stimuli/spore_stims/complex_20_A_a.gif"
"","4819.02499999979","survey-likert","156","567469","0.0-44.0","SS1619739987589","similarity_question","","","","","","","","","","","","{""Q0"":1}","[0]","","images/stimuli/spore_stims/complex_06_A_b.gif","images/stimuli/spore_stims/complex_15_A_a.gif"
"[{""page_index"":0,""viewing_time"":5615.135000000009}]","5615.349999999977","instructions","157","573088","0.0-45.0","SS1619739987589","instructions","","","","","","","","","","","","","","","",""
"","7514.6549999999115","survey-likert","158","580605","0.0-46.0","SS1619739987589","","","","","","","","","images/stimuli/spore_stims/complex_03_A_a.gif","","","","{""Q0"":2}","[0]","","",""
"","2924.3299999998417","survey-likert","159","583533","0.0-47.0","SS1619739987589","","","","","","","","","images/stimuli/spore_stims/complex_13_A_a.gif","","","","{""Q0"":4}","[0]","","",""
"","2539.0050000004703","survey-likert","160","586076","0.0-48.0","SS1619739987589","","","","","","","","","images/stimuli/spore_stims/simple_06_A_b.gif","","","","{""Q0"":0}","[0]","","",""
"","9088.120000000345","survey-likert","161","595168","0.0-49.0","SS1619739987589","","","","","","","","","images/stimuli/spore_stims/complex_05_A_a.gif","","","","{""Q0"":4}","[0]","","",""
"","6559.564999999595","survey-likert","162","601731","0.0-50.0","SS1619739987589","","","","","","","","","images/stimuli/spore_stims/complex_16_A_a.gif","","","","{""Q0"":5}","[0]","","",""
"","2237.5700000001816","survey-likert","163","603973","0.0-51.0","SS1619739987589","","","","","","","","","images/stimuli/spore_stims/simple_17_A_b.gif","","","","{""Q0"":0}","[0]","","",""
"","4662.830000000191","survey-likert","164","608640","0.0-52.0","SS1619739987589","","","","","","","","","images/stimuli/spore_stims/complex_06_A_b.gif","","","","{""Q0"":4}","[0]","","",""
"","2807.7649999995483","survey-likert","165","611452","0.0-53.0","SS1619739987589","","","","","","","","","images/stimuli/spore_stims/simple_07_A_b.gif","","","","{""Q0"":1}","[0]","","",""
"","2613.895000000368","survey-likert","166","614070","0.0-54.0","SS1619739987589","","","","","","","","","images/stimuli/spore_stims/simple_15_A_b.gif","","","","{""Q0"":0}","[0]","","",""
"","1505.8099999997066","survey-likert","167","615580","0.0-55.0","SS1619739987589","","","","","","","","","images/stimuli/spore_stims/simple_13_A_a.gif","","","","{""Q0"":0}","[0]","","",""
"","3188.4499999997206","survey-likert","168","618773","0.0-56.0","SS1619739987589","","","","","","","","","images/stimuli/spore_stims/simple_20_A_b.gif","","","","{""Q0"":1}","[0]","","",""
"","5533.600000000675","survey-likert","169","624311","0.0-57.0","SS1619739987589","","","","","","","","","images/stimuli/spore_stims/complex_20_A_a.gif","","","","{""Q0"":5}","[0]","","",""
"[{""page_index"":0,""viewing_time"":1721.015000000014}]","1721.1399999996647","instructions","170","626036","0.0-58.0","SS1619739987589","instructions","","","","","","","","","","","","","","","",""
"","2049.474999999744","demog-age","171","628088","0.0-59.0","SS1619739987589","","","","","","","","","","","","","{""age"":""23""}","","","",""
"","2184.6749999994645","demog-ethnic-US","172","630276","0.0-60.0","SS1619739987589","","","","","","","","","","","","","{""ethnicity"":[""White""]}","[0]","","",""
"","8019.554999999818","demog-gender-and-education","173","638300","0.0-61.0","SS1619739987589","","","","","","","","","","","","","{""gender"":""Male"",""education"":""Some high school""}","[0,1]","","",""
"","38068.80000000005","survey-text","174","676374","0.0-62.0","SS1619739987589","feedback","","","","","","","","","","","","{""Q0"":""No issues. Spore was a fun little game.""}","","","",""
"[{""page_index"":0,""viewing_time"":2087.6600000000326}]","2087.805000000051","instructions","175","678464","0.0-63.0","SS1619739987589","instructions","","","","","","","","","","","","","","","",""
