"view_history","rt","trial_type","trial_index","time_elapsed","internal_node_id","subject","stimulus_type","trial_stimulus","key_press","minimum_viewing_duration","trial_looking_time","block_deviant","block_background","exposure_type","stimulus","block_number","block_type","stimulus_displayed","responses","question_order","math_correct_answer","stimulus_left","stimulus_right"
"[{""page_index"":0,""viewing_time"":2790.915000019595}]","2822.630000067875","instructions","0","2827","0.0-0.0","SS1619739971179","","","","","","","","","","","","","","","","",""
"[{""page_index"":0,""viewing_time"":14306.459999992512},{""page_index"":1,""viewing_time"":8472.414999967441}]","22779.12999992259","instructions","1","27619","0.0-1.0","SS1619739971179","instructions","","","","","","","","","","","","","","","",""
"","16056.280000018887","sequential-stimulus-presentation-old","2","44229","0.0-2.0","SS1619739971179","","","40","500","16556.280000018887","null","null","self_paced","","","","","","","","",""
"","10316.304999985732","sequential-stimulus-presentation-old","3","55056","0.0-3.0","SS1619739971179","","","40","500","10816.304999985732","null","null","self_paced","","","","","","","","",""
"[{""page_index"":0,""viewing_time"":30865.185000002384}]","30865.400000009686","instructions","4","85923","0.0-4.0","SS1619739971179","instructions","","","","","","","","","","","","","","","",""
"","532.4900000123307","sequential-stimulus-presentation-old","5","101459","0.0-5.0","SS1619739971179","","","40","500","1032.4900000123307","null","null","forced_long","","","","","","","","",""
"","790.2150000445545","sequential-stimulus-presentation-old","6","102753","0.0-6.0","SS1619739971179","","","40","500","1290.2150000445545","null","null","forced_long","","","","","","","","",""
"[{""page_index"":0,""viewing_time"":5447.80000008177}]","5447.980000055395","instructions","7","108202","0.0-7.0","SS1619739971179","instructions","","","","","","","","","","","","","","","",""
"[{""page_index"":0,""viewing_time"":1850.3650000784546},{""page_index"":1,""viewing_time"":8600.114999921061},{""page_index"":2,""viewing_time"":1633.7150000035763},{""page_index"":3,""viewing_time"":760.7900000875816},{""page_index"":4,""viewing_time"":946.1749999318272}]","13791.27500008326","instructions","8","121995","0.0-8.0","SS1619739971179","instructions","","","","","","","","","","","","","","","",""
"","null","html-keyboard-response","9","122881","0.0-9.0-0.0","SS1619739971179","","","null","","","","","","<p><img src= images/blank.png width =""600"" height = ""600"" style=""position:fixed;top:50%; left:50%; transform: translate(-50%, -50%); border:5px solid black"">","","","","","","","",""
"","654.5299999415874","sequential-stimulus-presentation-old","10","138541","0.0-9.0-1.0","SS1619739971179","trial","","40","500","1154.5299999415874","images/stimuli/spore_stims/simple_16_A_b.gif","images/stimuli/spore_stims/simple_18_A_a.gif","forced_long","","0","simple_dissimilar","images/stimuli/spore_stims/simple_18_A_a.gif","","","","",""
"","null","html-keyboard-response","11","139610","0.0-9.0-0.1","SS1619739971179","","","null","","","","","","<p><img src= images/blank.png width =""600"" height = ""600"" style=""position:fixed;top:50%; left:50%; transform: translate(-50%, -50%); border:5px solid black"">","","","","","","","",""
"","34483.59499999788","sequential-stimulus-presentation-old","12","174605","0.0-9.0-1.1","SS1619739971179","trial","","40","500","34983.59499999788","images/stimuli/spore_stims/simple_16_A_b.gif","images/stimuli/spore_stims/simple_18_A_a.gif","forced_long","","0","simple_dissimilar","images/stimuli/spore_stims/simple_18_A_a.gif","","","","",""
"","null","html-keyboard-response","13","175652","0.0-9.0-0.2","SS1619739971179","","","null","","","","","","<p><img src= images/blank.png width =""600"" height = ""600"" style=""position:fixed;top:50%; left:50%; transform: translate(-50%, -50%); border:5px solid black"">","","","","","","","",""
"","8105.480000027455","sequential-stimulus-presentation-old","14","184260","0.0-9.0-1.2","SS1619739971179","trial","","40","500","8605.480000027455","images/stimuli/spore_stims/simple_16_A_b.gif","images/stimuli/spore_stims/simple_18_A_a.gif","forced_long","","0","simple_dissimilar","images/stimuli/spore_stims/simple_18_A_a.gif","","","","",""
"","null","html-keyboard-response","15","185300","0.0-9.0-0.3","SS1619739971179","","","null","","","","","","<p><img src= images/blank.png width =""600"" height = ""600"" style=""position:fixed;top:50%; left:50%; transform: translate(-50%, -50%); border:5px solid black"">","","","","","","","",""
"","22137.509999913163","sequential-stimulus-presentation-old","16","207940","0.0-9.0-1.3","SS1619739971179","trial","","40","500","22637.509999913163","images/stimuli/spore_stims/simple_16_A_b.gif","images/stimuli/spore_stims/simple_18_A_a.gif","forced_long","","0","simple_dissimilar","images/stimuli/spore_stims/simple_16_A_b.gif","","","","",""
"","null","html-keyboard-response","17","208754","0.0-9.0-0.4","SS1619739971179","","","null","","","","","","<p><img src= images/blank.png width =""600"" height = ""600"" style=""position:fixed;top:50%; left:50%; transform: translate(-50%, -50%); border:5px solid black"">","","","","","","","",""
"","5117.629999993369","sequential-stimulus-presentation-old","18","214383","0.0-9.0-1.4","SS1619739971179","trial","","40","500","5617.629999993369","images/stimuli/spore_stims/simple_16_A_b.gif","images/stimuli/spore_stims/simple_18_A_a.gif","forced_long","","0","simple_dissimilar","images/stimuli/spore_stims/simple_18_A_a.gif","","","","",""
"","5177.649999968708","survey-multi-choice","19","219611","0.0-10.0","SS1619739971179","math_question","","","","","","","","","","","","{""Q0"":""6""}","[0]","6","",""
"","null","html-keyboard-response","20","220747","0.0-11.0-0.0","SS1619739971179","","","null","","","","","","<p><img src= images/blank.png width =""600"" height = ""600"" style=""position:fixed;top:50%; left:50%; transform: translate(-50%, -50%); border:5px solid black"">","","","","","","","",""
"","939.7849999368191","sequential-stimulus-presentation-old","21","222189","0.0-11.0-1.0","SS1619739971179","trial","","40","500","1439.784999936819","images/stimuli/spore_stims/simple_04_A_a.gif","images/stimuli/spore_stims/simple_11_A_b.gif","forced_short","","1","simple_dissimilar","images/stimuli/spore_stims/simple_11_A_b.gif","","","","",""
"","null","html-keyboard-response","22","223363","0.0-11.0-0.1","SS1619739971179","","","null","","","","","","<p><img src= images/blank.png width =""600"" height = ""600"" style=""position:fixed;top:50%; left:50%; transform: translate(-50%, -50%); border:5px solid black"">","","","","","","","",""
"","397.38500001840293","sequential-stimulus-presentation-old","23","224265","0.0-11.0-1.1","SS1619739971179","trial","","40","500","897.3850000184029","images/stimuli/spore_stims/simple_04_A_a.gif","images/stimuli/spore_stims/simple_11_A_b.gif","forced_short","","1","simple_dissimilar","images/stimuli/spore_stims/simple_11_A_b.gif","","","","",""
"","null","html-keyboard-response","24","225228","0.0-11.0-0.2","SS1619739971179","","","null","","","","","","<p><img src= images/blank.png width =""600"" height = ""600"" style=""position:fixed;top:50%; left:50%; transform: translate(-50%, -50%); border:5px solid black"">","","","","","","","",""
"","856.7099999636412","sequential-stimulus-presentation-old","25","226603","0.0-11.0-1.2","SS1619739971179","trial","","40","500","1356.7099999636412","images/stimuli/spore_stims/simple_04_A_a.gif","images/stimuli/spore_stims/simple_11_A_b.gif","forced_short","","1","simple_dissimilar","images/stimuli/spore_stims/simple_11_A_b.gif","","","","",""
"","null","html-keyboard-response","26","227888","0.0-11.0-0.3","SS1619739971179","","","null","","","","","","<p><img src= images/blank.png width =""600"" height = ""600"" style=""position:fixed;top:50%; left:50%; transform: translate(-50%, -50%); border:5px solid black"">","","","","","","","",""
"","483.44000009819865","sequential-stimulus-presentation-old","27","228874","0.0-11.0-1.3","SS1619739971179","trial","","40","500","983.4400000981987","images/stimuli/spore_stims/simple_04_A_a.gif","images/stimuli/spore_stims/simple_11_A_b.gif","forced_short","","1","simple_dissimilar","images/stimuli/spore_stims/simple_11_A_b.gif","","","","",""
"","null","html-keyboard-response","28","229978","0.0-11.0-0.4","SS1619739971179","","","null","","","","","","<p><img src= images/blank.png width =""600"" height = ""600"" style=""position:fixed;top:50%; left:50%; transform: translate(-50%, -50%); border:5px solid black"">","","","","","","","",""
"","113.37499995715916","sequential-stimulus-presentation-old","29","230607","0.0-11.0-1.4","SS1619739971179","trial","","40","500","613.3749999571592","images/stimuli/spore_stims/simple_04_A_a.gif","images/stimuli/spore_stims/simple_11_A_b.gif","forced_short","","1","simple_dissimilar","images/stimuli/spore_stims/simple_04_A_a.gif","","","","",""
"","null","html-keyboard-response","30","231498","0.0-11.0-0.5","SS1619739971179","","","null","","","","","","<p><img src= images/blank.png width =""600"" height = ""600"" style=""position:fixed;top:50%; left:50%; transform: translate(-50%, -50%); border:5px solid black"">","","","","","","","",""
"","185.36000000312924","sequential-stimulus-presentation-old","31","232200","0.0-11.0-1.5","SS1619739971179","trial","","40","500","685.3600000031292","images/stimuli/spore_stims/simple_04_A_a.gif","images/stimuli/spore_stims/simple_11_A_b.gif","forced_short","","1","simple_dissimilar","images/stimuli/spore_stims/simple_04_A_a.gif","","","","",""
"","3263.399999937974","survey-multi-choice","32","235466","0.0-12.0","SS1619739971179","math_question","","","","","","","","","","","","{""Q0"":""8""}","[0]","8","",""
"","null","html-keyboard-response","33","236723","0.0-13.0-0.0","SS1619739971179","","","null","","","","","","<p><img src= images/blank.png width =""600"" height = ""600"" style=""position:fixed;top:50%; left:50%; transform: translate(-50%, -50%); border:5px solid black"">","","","","","","","",""
"","264.6399999503046","sequential-stimulus-presentation-old","34","237490","0.0-13.0-1.0","SS1619739971179","trial","","40","500","764.6399999503046","images/stimuli/spore_stims/complex_09_A_a.gif","images/stimuli/spore_stims/complex_05_A_b.gif","forced_short","","2","complex_dissimilar","images/stimuli/spore_stims/complex_05_A_b.gif","","","","",""
"","null","html-keyboard-response","35","238775","0.0-13.0-0.1","SS1619739971179","","","null","","","","","","<p><img src= images/blank.png width =""600"" height = ""600"" style=""position:fixed;top:50%; left:50%; transform: translate(-50%, -50%); border:5px solid black"">","","","","","","","",""
"","53.459999966435134","sequential-stimulus-presentation-old","36","239343","0.0-13.0-1.1","SS1619739971179","trial","","40","500","553.4599999664351","images/stimuli/spore_stims/complex_09_A_a.gif","images/stimuli/spore_stims/complex_05_A_b.gif","forced_short","","2","complex_dissimilar","images/stimuli/spore_stims/complex_05_A_b.gif","","","","",""
"","null","html-keyboard-response","37","240617","0.0-13.0-0.2","SS1619739971179","","","null","","","","","","<p><img src= images/blank.png width =""600"" height = ""600"" style=""position:fixed;top:50%; left:50%; transform: translate(-50%, -50%); border:5px solid black"">","","","","","","","",""
"","109.95499999262393","sequential-stimulus-presentation-old","38","241232","0.0-13.0-1.2","SS1619739971179","trial","","40","500","609.9549999926239","images/stimuli/spore_stims/complex_09_A_a.gif","images/stimuli/spore_stims/complex_05_A_b.gif","forced_short","","2","complex_dissimilar","images/stimuli/spore_stims/complex_05_A_b.gif","","","","",""
"","null","html-keyboard-response","39","242437","0.0-13.0-0.3","SS1619739971179","","","null","","","","","","<p><img src= images/blank.png width =""600"" height = ""600"" style=""position:fixed;top:50%; left:50%; transform: translate(-50%, -50%); border:5px solid black"">","","","","","","","",""
"","146.42500004265457","sequential-stimulus-presentation-old","40","243085","0.0-13.0-1.3","SS1619739971179","trial","","40","500","646.4250000426546","images/stimuli/spore_stims/complex_09_A_a.gif","images/stimuli/spore_stims/complex_05_A_b.gif","forced_short","","2","complex_dissimilar","images/stimuli/spore_stims/complex_05_A_b.gif","","","","",""
"","3499.2050000000745","survey-multi-choice","41","246586","0.0-14.0","SS1619739971179","math_question","","","","","","","","","","","","{""Q0"":""4""}","[0]","4","",""
"","null","html-keyboard-response","42","247403","0.0-15.0-0.0","SS1619739971179","","","null","","","","","","<p><img src= images/blank.png width =""600"" height = ""600"" style=""position:fixed;top:50%; left:50%; transform: translate(-50%, -50%); border:5px solid black"">","","","","","","","",""
"","813.5749999200925","sequential-stimulus-presentation-old","43","248723","0.0-15.0-1.0","SS1619739971179","trial","","40","500","1313.5749999200925","images/stimuli/spore_stims/simple_05_A_a.gif","images/stimuli/spore_stims/simple_06_A_b.gif","self_paced","","3","simple_dissimilar","images/stimuli/spore_stims/simple_06_A_b.gif","","","","",""
"","null","html-keyboard-response","44","249682","0.0-15.0-0.1","SS1619739971179","","","null","","","","","","<p><img src= images/blank.png width =""600"" height = ""600"" style=""position:fixed;top:50%; left:50%; transform: translate(-50%, -50%); border:5px solid black"">","","","","","","","",""
"","105.29999993741512","sequential-stimulus-presentation-old","45","250302","0.0-15.0-1.1","SS1619739971179","trial","","40","500","605.2999999374151","images/stimuli/spore_stims/simple_05_A_a.gif","images/stimuli/spore_stims/simple_06_A_b.gif","self_paced","","3","simple_dissimilar","images/stimuli/spore_stims/simple_06_A_b.gif","","","","",""
"","null","html-keyboard-response","46","251431","0.0-15.0-0.2","SS1619739971179","","","null","","","","","","<p><img src= images/blank.png width =""600"" height = ""600"" style=""position:fixed;top:50%; left:50%; transform: translate(-50%, -50%); border:5px solid black"">","","","","","","","",""
"","153.35000003688037","sequential-stimulus-presentation-old","47","252094","0.0-15.0-1.2","SS1619739971179","trial","","40","500","653.3500000368804","images/stimuli/spore_stims/simple_05_A_a.gif","images/stimuli/spore_stims/simple_06_A_b.gif","self_paced","","3","simple_dissimilar","images/stimuli/spore_stims/simple_05_A_a.gif","","","","",""
"","null","html-keyboard-response","48","253241","0.0-15.0-0.3","SS1619739971179","","","null","","","","","","<p><img src= images/blank.png width =""600"" height = ""600"" style=""position:fixed;top:50%; left:50%; transform: translate(-50%, -50%); border:5px solid black"">","","","","","","","",""
"","276.1150000151247","sequential-stimulus-presentation-old","49","254023","0.0-15.0-1.3","SS1619739971179","trial","","40","500","776.1150000151247","images/stimuli/spore_stims/simple_05_A_a.gif","images/stimuli/spore_stims/simple_06_A_b.gif","self_paced","","3","simple_dissimilar","images/stimuli/spore_stims/simple_06_A_b.gif","","","","",""
"","null","html-keyboard-response","50","255065","0.0-15.0-0.4","SS1619739971179","","","null","","","","","","<p><img src= images/blank.png width =""600"" height = ""600"" style=""position:fixed;top:50%; left:50%; transform: translate(-50%, -50%); border:5px solid black"">","","","","","","","",""
"","103.57499995734543","sequential-stimulus-presentation-old","51","255679","0.0-15.0-1.4","SS1619739971179","trial","","40","500","603.5749999573454","images/stimuli/spore_stims/simple_05_A_a.gif","images/stimuli/spore_stims/simple_06_A_b.gif","self_paced","","3","simple_dissimilar","images/stimuli/spore_stims/simple_06_A_b.gif","","","","",""
"","null","html-keyboard-response","52","256900","0.0-15.0-0.5","SS1619739971179","","","null","","","","","","<p><img src= images/blank.png width =""600"" height = ""600"" style=""position:fixed;top:50%; left:50%; transform: translate(-50%, -50%); border:5px solid black"">","","","","","","","",""
"","75.06499998271465","sequential-stimulus-presentation-old","53","257479","0.0-15.0-1.5","SS1619739971179","trial","","40","500","575.0649999827147","images/stimuli/spore_stims/simple_05_A_a.gif","images/stimuli/spore_stims/simple_06_A_b.gif","self_paced","","3","simple_dissimilar","images/stimuli/spore_stims/simple_06_A_b.gif","","","","",""
"","3480.144999921322","survey-multi-choice","54","260962","0.0-16.0","SS1619739971179","math_question","","","","","","","","","","","","{""Q0"":""12""}","[0]","12","",""
"","null","html-keyboard-response","55","261938","0.0-17.0-0.0","SS1619739971179","","","null","","","","","","<p><img src= images/blank.png width =""600"" height = ""600"" style=""position:fixed;top:50%; left:50%; transform: translate(-50%, -50%); border:5px solid black"">","","","","","","","",""
"","653.0899999197572","sequential-stimulus-presentation-old","56","277607","0.0-17.0-1.0","SS1619739971179","trial","","40","500","1153.0899999197572","images/stimuli/spore_stims/simple_02_A_b.gif","images/stimuli/spore_stims/simple_11_A_a.gif","forced_long","","4","simple_dissimilar","images/stimuli/spore_stims/simple_11_A_a.gif","","","","",""
"","null","html-keyboard-response","57","278839","0.0-17.0-0.1","SS1619739971179","","","null","","","","","","<p><img src= images/blank.png width =""600"" height = ""600"" style=""position:fixed;top:50%; left:50%; transform: translate(-50%, -50%); border:5px solid black"">","","","","","","","",""
"","2863.774999976158","sequential-stimulus-presentation-old","58","282215","0.0-17.0-1.1","SS1619739971179","trial","","40","500","3363.774999976158","images/stimuli/spore_stims/simple_02_A_b.gif","images/stimuli/spore_stims/simple_11_A_a.gif","forced_long","","4","simple_dissimilar","images/stimuli/spore_stims/simple_11_A_a.gif","","","","",""
"","null","html-keyboard-response","59","283236","0.0-17.0-0.2","SS1619739971179","","","null","","","","","","<p><img src= images/blank.png width =""600"" height = ""600"" style=""position:fixed;top:50%; left:50%; transform: translate(-50%, -50%); border:5px solid black"">","","","","","","","",""
"","196.76500000059605","sequential-stimulus-presentation-old","60","283944","0.0-17.0-1.2","SS1619739971179","trial","","40","500","696.765000000596","images/stimuli/spore_stims/simple_02_A_b.gif","images/stimuli/spore_stims/simple_11_A_a.gif","forced_long","","4","simple_dissimilar","images/stimuli/spore_stims/simple_02_A_b.gif","","","","",""
"","null","html-keyboard-response","61","284903","0.0-17.0-0.3","SS1619739971179","","","null","","","","","","<p><img src= images/blank.png width =""600"" height = ""600"" style=""position:fixed;top:50%; left:50%; transform: translate(-50%, -50%); border:5px solid black"">","","","","","","","",""
"","155.12999997008592","sequential-stimulus-presentation-old","62","285562","0.0-17.0-1.3","SS1619739971179","trial","","40","500","655.1299999700859","images/stimuli/spore_stims/simple_02_A_b.gif","images/stimuli/spore_stims/simple_11_A_a.gif","forced_long","","4","simple_dissimilar","images/stimuli/spore_stims/simple_11_A_a.gif","","","","",""
"","null","html-keyboard-response","63","286393","0.0-17.0-0.4","SS1619739971179","","","null","","","","","","<p><img src= images/blank.png width =""600"" height = ""600"" style=""position:fixed;top:50%; left:50%; transform: translate(-50%, -50%); border:5px solid black"">","","","","","","","",""
"","50.77999993227422","sequential-stimulus-presentation-old","64","286950","0.0-17.0-1.4","SS1619739971179","trial","","40","500","550.7799999322742","images/stimuli/spore_stims/simple_02_A_b.gif","images/stimuli/spore_stims/simple_11_A_a.gif","forced_long","","4","simple_dissimilar","images/stimuli/spore_stims/simple_02_A_b.gif","","","","",""
"","3423.8000001059845","survey-multi-choice","65","290378","0.0-18.0","SS1619739971179","math_question","","","","","","","","","","","","{""Q0"":""16""}","[0]","16","",""
"","null","html-keyboard-response","66","291450","0.0-19.0-0.0","SS1619739971179","","","null","","","","","","<p><img src= images/blank.png width =""600"" height = ""600"" style=""position:fixed;top:50%; left:50%; transform: translate(-50%, -50%); border:5px solid black"">","","","","","","","",""
"","140.89500007685274","sequential-stimulus-presentation-old","67","306609","0.0-19.0-1.0","SS1619739971179","trial","","40","500","640.8950000768527","images/stimuli/spore_stims/complex_01_A_b.gif","images/stimuli/spore_stims/complex_07_A_a.gif","forced_long","","5","complex_dissimilar","images/stimuli/spore_stims/complex_07_A_a.gif","","","","",""
"","null","html-keyboard-response","68","307496","0.0-19.0-0.1","SS1619739971179","","","null","","","","","","<p><img src= images/blank.png width =""600"" height = ""600"" style=""position:fixed;top:50%; left:50%; transform: translate(-50%, -50%); border:5px solid black"">","","","","","","","",""
"","260.28500008396804","sequential-stimulus-presentation-old","69","308259","0.0-19.0-1.1","SS1619739971179","trial","","40","500","760.285000083968","images/stimuli/spore_stims/complex_01_A_b.gif","images/stimuli/spore_stims/complex_07_A_a.gif","forced_long","","5","complex_dissimilar","images/stimuli/spore_stims/complex_07_A_a.gif","","","","",""
"","null","html-keyboard-response","70","309337","0.0-19.0-0.2","SS1619739971179","","","null","","","","","","<p><img src= images/blank.png width =""600"" height = ""600"" style=""position:fixed;top:50%; left:50%; transform: translate(-50%, -50%); border:5px solid black"">","","","","","","","",""
"","217.9550000000745","sequential-stimulus-presentation-old","71","310061","0.0-19.0-1.2","SS1619739971179","trial","","40","500","717.9550000000745","images/stimuli/spore_stims/complex_01_A_b.gif","images/stimuli/spore_stims/complex_07_A_a.gif","forced_long","","5","complex_dissimilar","images/stimuli/spore_stims/complex_07_A_a.gif","","","","",""
"","null","html-keyboard-response","72","311244","0.0-19.0-0.3","SS1619739971179","","","null","","","","","","<p><img src= images/blank.png width =""600"" height = ""600"" style=""position:fixed;top:50%; left:50%; transform: translate(-50%, -50%); border:5px solid black"">","","","","","","","",""
"","182.76500003412366","sequential-stimulus-presentation-old","73","311934","0.0-19.0-1.3","SS1619739971179","trial","","40","500","682.7650000341237","images/stimuli/spore_stims/complex_01_A_b.gif","images/stimuli/spore_stims/complex_07_A_a.gif","forced_long","","5","complex_dissimilar","images/stimuli/spore_stims/complex_07_A_a.gif","","","","",""
"","null","html-keyboard-response","74","313159","0.0-19.0-0.4","SS1619739971179","","","null","","","","","","<p><img src= images/blank.png width =""600"" height = ""600"" style=""position:fixed;top:50%; left:50%; transform: translate(-50%, -50%); border:5px solid black"">","","","","","","","",""
"","63.479999895207584","sequential-stimulus-presentation-old","75","313726","0.0-19.0-1.4","SS1619739971179","trial","","40","500","563.4799998952076","images/stimuli/spore_stims/complex_01_A_b.gif","images/stimuli/spore_stims/complex_07_A_a.gif","forced_long","","5","complex_dissimilar","images/stimuli/spore_stims/complex_07_A_a.gif","","","","",""
"","3048.4850000357255","survey-multi-choice","76","316778","0.0-20.0","SS1619739971179","math_question","","","","","","","","","","","","{""Q0"":""6""}","[0]","6","",""
"","null","html-keyboard-response","77","317875","0.0-21.0-0.0","SS1619739971179","","","null","","","","","","<p><img src= images/blank.png width =""600"" height = ""600"" style=""position:fixed;top:50%; left:50%; transform: translate(-50%, -50%); border:5px solid black"">","","","","","","","",""
"","532.4649999383837","sequential-stimulus-presentation-old","78","333412","0.0-21.0-1.0","SS1619739971179","trial","","40","500","1032.4649999383837","images/stimuli/spore_stims/complex_17_A_a.gif","images/stimuli/spore_stims/complex_13_A_b.gif","forced_long","","6","complex_dissimilar","images/stimuli/spore_stims/complex_13_A_b.gif","","","","",""
"","null","html-keyboard-response","79","334580","0.0-21.0-0.1","SS1619739971179","","","null","","","","","","<p><img src= images/blank.png width =""600"" height = ""600"" style=""position:fixed;top:50%; left:50%; transform: translate(-50%, -50%); border:5px solid black"">","","","","","","","",""
"","49.80999999679625","sequential-stimulus-presentation-old","80","335133","0.0-21.0-1.1","SS1619739971179","trial","","40","500","549.8099999967963","images/stimuli/spore_stims/complex_17_A_a.gif","images/stimuli/spore_stims/complex_13_A_b.gif","forced_long","","6","complex_dissimilar","images/stimuli/spore_stims/complex_17_A_a.gif","","","","",""
"","null","html-keyboard-response","81","336042","0.0-21.0-0.2","SS1619739971179","","","null","","","","","","<p><img src= images/blank.png width =""600"" height = ""600"" style=""position:fixed;top:50%; left:50%; transform: translate(-50%, -50%); border:5px solid black"">","","","","","","","",""
"","115.8800000557676","sequential-stimulus-presentation-old","82","336660","0.0-21.0-1.2","SS1619739971179","trial","","40","500","615.8800000557676","images/stimuli/spore_stims/complex_17_A_a.gif","images/stimuli/spore_stims/complex_13_A_b.gif","forced_long","","6","complex_dissimilar","images/stimuli/spore_stims/complex_17_A_a.gif","","","","",""
"","null","html-keyboard-response","83","337921","0.0-21.0-0.3","SS1619739971179","","","null","","","","","","<p><img src= images/blank.png width =""600"" height = ""600"" style=""position:fixed;top:50%; left:50%; transform: translate(-50%, -50%); border:5px solid black"">","","","","","","","",""
"","99.06999999657273","sequential-stimulus-presentation-old","84","338547","0.0-21.0-1.3","SS1619739971179","trial","","40","500","599.0699999965727","images/stimuli/spore_stims/complex_17_A_a.gif","images/stimuli/spore_stims/complex_13_A_b.gif","forced_long","","6","complex_dissimilar","images/stimuli/spore_stims/complex_13_A_b.gif","","","","",""
"","3041.535000083968","survey-multi-choice","85","341594","0.0-22.0","SS1619739971179","math_question","","","","","","","","","","","","{""Q0"":""10""}","[0]","10","",""
"","null","html-keyboard-response","86","342661","0.0-23.0-0.0","SS1619739971179","","","null","","","","","","<p><img src= images/blank.png width =""600"" height = ""600"" style=""position:fixed;top:50%; left:50%; transform: translate(-50%, -50%); border:5px solid black"">","","","","","","","",""
"","2082.670000032522","sequential-stimulus-presentation-old","87","345260","0.0-23.0-1.0","SS1619739971179","trial","","40","500","2582.670000032522","images/stimuli/spore_stims/complex_11_A_a.gif","images/stimuli/spore_stims/complex_08_A_b.gif","self_paced","","7","complex_dissimilar","images/stimuli/spore_stims/complex_08_A_b.gif","","","","",""
"","null","html-keyboard-response","88","346368","0.0-23.0-0.1","SS1619739971179","","","null","","","","","","<p><img src= images/blank.png width =""600"" height = ""600"" style=""position:fixed;top:50%; left:50%; transform: translate(-50%, -50%); border:5px solid black"">","","","","","","","",""
"","90.15499998349696","sequential-stimulus-presentation-old","89","346968","0.0-23.0-1.1","SS1619739971179","trial","","40","500","590.154999983497","images/stimuli/spore_stims/complex_11_A_a.gif","images/stimuli/spore_stims/complex_08_A_b.gif","self_paced","","7","complex_dissimilar","images/stimuli/spore_stims/complex_08_A_b.gif","","","","",""
"","null","html-keyboard-response","90","348167","0.0-23.0-0.2","SS1619739971179","","","null","","","","","","<p><img src= images/blank.png width =""600"" height = ""600"" style=""position:fixed;top:50%; left:50%; transform: translate(-50%, -50%); border:5px solid black"">","","","","","","","",""
"","257.4850000673905","sequential-stimulus-presentation-old","91","348937","0.0-23.0-1.2","SS1619739971179","trial","","40","500","757.4850000673905","images/stimuli/spore_stims/complex_11_A_a.gif","images/stimuli/spore_stims/complex_08_A_b.gif","self_paced","","7","complex_dissimilar","images/stimuli/spore_stims/complex_08_A_b.gif","","","","",""
"","null","html-keyboard-response","92","349795","0.0-23.0-0.3","SS1619739971179","","","null","","","","","","<p><img src= images/blank.png width =""600"" height = ""600"" style=""position:fixed;top:50%; left:50%; transform: translate(-50%, -50%); border:5px solid black"">","","","","","","","",""
"","146.45999995991588","sequential-stimulus-presentation-old","93","350449","0.0-23.0-1.3","SS1619739971179","trial","","40","500","646.4599999599159","images/stimuli/spore_stims/complex_11_A_a.gif","images/stimuli/spore_stims/complex_08_A_b.gif","self_paced","","7","complex_dissimilar","images/stimuli/spore_stims/complex_08_A_b.gif","","","","",""
"","null","html-keyboard-response","94","351722","0.0-23.0-0.4","SS1619739971179","","","null","","","","","","<p><img src= images/blank.png width =""600"" height = ""600"" style=""position:fixed;top:50%; left:50%; transform: translate(-50%, -50%); border:5px solid black"">","","","","","","","",""
"","181.45000003278255","sequential-stimulus-presentation-old","95","352406","0.0-23.0-1.4","SS1619739971179","trial","","40","500","681.4500000327826","images/stimuli/spore_stims/complex_11_A_a.gif","images/stimuli/spore_stims/complex_08_A_b.gif","self_paced","","7","complex_dissimilar","images/stimuli/spore_stims/complex_08_A_b.gif","","","","",""
"","2966.3549999240786","survey-multi-choice","96","355378","0.0-24.0","SS1619739971179","math_question","","","","","","","","","","","","{""Q0"":""17""}","[0]","17","",""
"","null","html-keyboard-response","97","356412","0.0-25.0-0.0","SS1619739971179","","","null","","","","","","<p><img src= images/blank.png width =""600"" height = ""600"" style=""position:fixed;top:50%; left:50%; transform: translate(-50%, -50%); border:5px solid black"">","","","","","","","",""
"","16.814999980852008","sequential-stimulus-presentation-old","98","356934","0.0-25.0-1.0","SS1619739971179","trial","","40","500","516.814999980852","images/stimuli/spore_stims/simple_01_A_a.gif","images/stimuli/spore_stims/simple_18_A_b.gif","forced_short","","8","simple_dissimilar","images/stimuli/spore_stims/simple_18_A_b.gif","","","","",""
"","null","html-keyboard-response","99","357898","0.0-25.0-0.1","SS1619739971179","","","null","","","","","","<p><img src= images/blank.png width =""600"" height = ""600"" style=""position:fixed;top:50%; left:50%; transform: translate(-50%, -50%); border:5px solid black"">","","","","","","","",""
"","108.3700000308454","sequential-stimulus-presentation-old","100","358509","0.0-25.0-1.1","SS1619739971179","trial","","40","500","608.3700000308454","images/stimuli/spore_stims/simple_01_A_a.gif","images/stimuli/spore_stims/simple_18_A_b.gif","forced_short","","8","simple_dissimilar","images/stimuli/spore_stims/simple_18_A_b.gif","","","","",""
"","null","html-keyboard-response","101","359724","0.0-25.0-0.2","SS1619739971179","","","null","","","","","","<p><img src= images/blank.png width =""600"" height = ""600"" style=""position:fixed;top:50%; left:50%; transform: translate(-50%, -50%); border:5px solid black"">","","","","","","","",""
"","130.74999989476055","sequential-stimulus-presentation-old","102","360360","0.0-25.0-1.2","SS1619739971179","trial","","40","500","630.7499998947605","images/stimuli/spore_stims/simple_01_A_a.gif","images/stimuli/spore_stims/simple_18_A_b.gif","forced_short","","8","simple_dissimilar","images/stimuli/spore_stims/simple_18_A_b.gif","","","","",""
"","null","html-keyboard-response","103","361244","0.0-25.0-0.3","SS1619739971179","","","null","","","","","","<p><img src= images/blank.png width =""600"" height = ""600"" style=""position:fixed;top:50%; left:50%; transform: translate(-50%, -50%); border:5px solid black"">","","","","","","","",""
"","231.03999998420477","sequential-stimulus-presentation-old","104","361979","0.0-25.0-1.3","SS1619739971179","trial","","40","500","731.0399999842048","images/stimuli/spore_stims/simple_01_A_a.gif","images/stimuli/spore_stims/simple_18_A_b.gif","forced_short","","8","simple_dissimilar","images/stimuli/spore_stims/simple_18_A_b.gif","","","","",""
"","3225.34500004258","survey-multi-choice","105","365210","0.0-26.0","SS1619739971179","math_question","","","","","","","","","","","","{""Q0"":""7""}","[0]","7","",""
"","null","html-keyboard-response","106","366518","0.0-27.0-0.0","SS1619739971179","","","null","","","","","","<p><img src= images/blank.png width =""600"" height = ""600"" style=""position:fixed;top:50%; left:50%; transform: translate(-50%, -50%); border:5px solid black"">","","","","","","","",""
"","214.90999998059124","sequential-stimulus-presentation-old","107","367243","0.0-27.0-1.0","SS1619739971179","trial","","40","500","714.9099999805912","images/stimuli/spore_stims/complex_02_A_a.gif","images/stimuli/spore_stims/complex_04_A_b.gif","self_paced","","9","complex_dissimilar","images/stimuli/spore_stims/complex_04_A_b.gif","","","","",""
"","null","html-keyboard-response","108","368388","0.0-27.0-0.1","SS1619739971179","","","null","","","","","","<p><img src= images/blank.png width =""600"" height = ""600"" style=""position:fixed;top:50%; left:50%; transform: translate(-50%, -50%); border:5px solid black"">","","","","","","","",""
"","119.63000008836389","sequential-stimulus-presentation-old","109","369014","0.0-27.0-1.1","SS1619739971179","trial","","40","500","619.6300000883639","images/stimuli/spore_stims/complex_02_A_a.gif","images/stimuli/spore_stims/complex_04_A_b.gif","self_paced","","9","complex_dissimilar","images/stimuli/spore_stims/complex_02_A_a.gif","","","","",""
"","null","html-keyboard-response","110","369827","0.0-27.0-0.2","SS1619739971179","","","null","","","","","","<p><img src= images/blank.png width =""600"" height = ""600"" style=""position:fixed;top:50%; left:50%; transform: translate(-50%, -50%); border:5px solid black"">","","","","","","","",""
"","209.21000000089407","sequential-stimulus-presentation-old","111","370538","0.0-27.0-1.2","SS1619739971179","trial","","40","500","709.2100000008941","images/stimuli/spore_stims/complex_02_A_a.gif","images/stimuli/spore_stims/complex_04_A_b.gif","self_paced","","9","complex_dissimilar","images/stimuli/spore_stims/complex_04_A_b.gif","","","","",""
"","null","html-keyboard-response","112","371382","0.0-27.0-0.3","SS1619739971179","","","null","","","","","","<p><img src= images/blank.png width =""600"" height = ""600"" style=""position:fixed;top:50%; left:50%; transform: translate(-50%, -50%); border:5px solid black"">","","","","","","","",""
"","23.455000016838312","sequential-stimulus-presentation-old","113","371912","0.0-27.0-1.3","SS1619739971179","trial","","40","500","523.4550000168383","images/stimuli/spore_stims/complex_02_A_a.gif","images/stimuli/spore_stims/complex_04_A_b.gif","self_paced","","9","complex_dissimilar","images/stimuli/spore_stims/complex_04_A_b.gif","","","","",""
"","null","html-keyboard-response","114","372948","0.0-27.0-0.4","SS1619739971179","","","null","","","","","","<p><img src= images/blank.png width =""600"" height = ""600"" style=""position:fixed;top:50%; left:50%; transform: translate(-50%, -50%); border:5px solid black"">","","","","","","","",""
"","343.860000022687","sequential-stimulus-presentation-old","115","373797","0.0-27.0-1.4","SS1619739971179","trial","","40","500","843.860000022687","images/stimuli/spore_stims/complex_02_A_a.gif","images/stimuli/spore_stims/complex_04_A_b.gif","self_paced","","9","complex_dissimilar","images/stimuli/spore_stims/complex_04_A_b.gif","","","","",""
"","2646.864999900572","survey-multi-choice","116","376450","0.0-28.0","SS1619739971179","math_question","","","","","","","","","","","","{""Q0"":""10""}","[0]","10","",""
"","null","html-keyboard-response","117","377527","0.0-29.0-0.0","SS1619739971179","","","null","","","","","","<p><img src= images/blank.png width =""600"" height = ""600"" style=""position:fixed;top:50%; left:50%; transform: translate(-50%, -50%); border:5px solid black"">","","","","","","","",""
"","306.0849999310449","sequential-stimulus-presentation-old","118","378339","0.0-29.0-1.0","SS1619739971179","trial","","40","500","806.0849999310449","images/stimuli/spore_stims/simple_20_A_b.gif","images/stimuli/spore_stims/simple_09_A_a.gif","self_paced","","10","simple_dissimilar","images/stimuli/spore_stims/simple_09_A_a.gif","","","","",""
"","null","html-keyboard-response","119","379362","0.0-29.0-0.1","SS1619739971179","","","null","","","","","","<p><img src= images/blank.png width =""600"" height = ""600"" style=""position:fixed;top:50%; left:50%; transform: translate(-50%, -50%); border:5px solid black"">","","","","","","","",""
"","188.78500000573695","sequential-stimulus-presentation-old","120","380057","0.0-29.0-1.1","SS1619739971179","trial","","40","500","688.785000005737","images/stimuli/spore_stims/simple_20_A_b.gif","images/stimuli/spore_stims/simple_09_A_a.gif","self_paced","","10","simple_dissimilar","images/stimuli/spore_stims/simple_09_A_a.gif","","","","",""
"","null","html-keyboard-response","121","381204","0.0-29.0-0.2","SS1619739971179","","","null","","","","","","<p><img src= images/blank.png width =""600"" height = ""600"" style=""position:fixed;top:50%; left:50%; transform: translate(-50%, -50%); border:5px solid black"">","","","","","","","",""
"","2.9849999118596315","sequential-stimulus-presentation-old","122","381729","0.0-29.0-1.2","SS1619739971179","trial","","40","500","502.98499991185963","images/stimuli/spore_stims/simple_20_A_b.gif","images/stimuli/spore_stims/simple_09_A_a.gif","self_paced","","10","simple_dissimilar","images/stimuli/spore_stims/simple_09_A_a.gif","","","","",""
"","null","html-keyboard-response","123","382994","0.0-29.0-0.3","SS1619739971179","","","null","","","","","","<p><img src= images/blank.png width =""600"" height = ""600"" style=""position:fixed;top:50%; left:50%; transform: translate(-50%, -50%); border:5px solid black"">","","","","","","","",""
"","308.3900000201538","sequential-stimulus-presentation-old","124","383818","0.0-29.0-1.3","SS1619739971179","trial","","40","500","808.3900000201538","images/stimuli/spore_stims/simple_20_A_b.gif","images/stimuli/spore_stims/simple_09_A_a.gif","self_paced","","10","simple_dissimilar","images/stimuli/spore_stims/simple_09_A_a.gif","","","","",""
"","null","html-keyboard-response","125","384915","0.0-29.0-0.4","SS1619739971179","","","null","","","","","","<p><img src= images/blank.png width =""600"" height = ""600"" style=""position:fixed;top:50%; left:50%; transform: translate(-50%, -50%); border:5px solid black"">","","","","","","","",""
"","269.28000000771135","sequential-stimulus-presentation-old","126","385688","0.0-29.0-1.4","SS1619739971179","trial","","40","500","769.2800000077114","images/stimuli/spore_stims/simple_20_A_b.gif","images/stimuli/spore_stims/simple_09_A_a.gif","self_paced","","10","simple_dissimilar","images/stimuli/spore_stims/simple_20_A_b.gif","","","","",""
"","2987.955000018701","survey-multi-choice","127","388681","0.0-30.0","SS1619739971179","math_question","","","","","","","","","","","","{""Q0"":""16""}","[0]","16","",""
"","null","html-keyboard-response","128","389728","0.0-31.0-0.0","SS1619739971179","","","null","","","","","","<p><img src= images/blank.png width =""600"" height = ""600"" style=""position:fixed;top:50%; left:50%; transform: translate(-50%, -50%); border:5px solid black"">","","","","","","","",""
"","98.53499999735504","sequential-stimulus-presentation-old","129","390332","0.0-31.0-1.0","SS1619739971179","trial","","40","500","598.534999997355","images/stimuli/spore_stims/complex_04_A_a.gif","images/stimuli/spore_stims/complex_18_A_b.gif","forced_short","","11","complex_dissimilar","images/stimuli/spore_stims/complex_18_A_b.gif","","","","",""
"","null","html-keyboard-response","130","391496","0.0-31.0-0.1","SS1619739971179","","","null","","","","","","<p><img src= images/blank.png width =""600"" height = ""600"" style=""position:fixed;top:50%; left:50%; transform: translate(-50%, -50%); border:5px solid black"">","","","","","","","",""
"","312.5199999194592","sequential-stimulus-presentation-old","131","392314","0.0-31.0-1.1","SS1619739971179","trial","","40","500","812.5199999194592","images/stimuli/spore_stims/complex_04_A_a.gif","images/stimuli/spore_stims/complex_18_A_b.gif","forced_short","","11","complex_dissimilar","images/stimuli/spore_stims/complex_18_A_b.gif","","","","",""
"","null","html-keyboard-response","132","393522","0.0-31.0-0.2","SS1619739971179","","","null","","","","","","<p><img src= images/blank.png width =""600"" height = ""600"" style=""position:fixed;top:50%; left:50%; transform: translate(-50%, -50%); border:5px solid black"">","","","","","","","",""
"","212.78499998152256","sequential-stimulus-presentation-old","133","394237","0.0-31.0-1.2","SS1619739971179","trial","","40","500","712.7849999815226","images/stimuli/spore_stims/complex_04_A_a.gif","images/stimuli/spore_stims/complex_18_A_b.gif","forced_short","","11","complex_dissimilar","images/stimuli/spore_stims/complex_18_A_b.gif","","","","",""
"","null","html-keyboard-response","134","395429","0.0-31.0-0.3","SS1619739971179","","","null","","","","","","<p><img src= images/blank.png width =""600"" height = ""600"" style=""position:fixed;top:50%; left:50%; transform: translate(-50%, -50%); border:5px solid black"">","","","","","","","",""
"","80.39999997708946","sequential-stimulus-presentation-old","135","396024","0.0-31.0-1.3","SS1619739971179","trial","","40","500","580.3999999770895","images/stimuli/spore_stims/complex_04_A_a.gif","images/stimuli/spore_stims/complex_18_A_b.gif","forced_short","","11","complex_dissimilar","images/stimuli/spore_stims/complex_18_A_b.gif","","","","",""
"","null","html-keyboard-response","136","396896","0.0-31.0-0.4","SS1619739971179","","","null","","","","","","<p><img src= images/blank.png width =""600"" height = ""600"" style=""position:fixed;top:50%; left:50%; transform: translate(-50%, -50%); border:5px solid black"">","","","","","","","",""
"","26.309999986551702","sequential-stimulus-presentation-old","137","397445","0.0-31.0-1.4","SS1619739971179","trial","","40","500","526.3099999865517","images/stimuli/spore_stims/complex_04_A_a.gif","images/stimuli/spore_stims/complex_18_A_b.gif","forced_short","","11","complex_dissimilar","images/stimuli/spore_stims/complex_18_A_b.gif","","","","",""
"","null","html-keyboard-response","138","398291","0.0-31.0-0.5","SS1619739971179","","","null","","","","","","<p><img src= images/blank.png width =""600"" height = ""600"" style=""position:fixed;top:50%; left:50%; transform: translate(-50%, -50%); border:5px solid black"">","","","","","","","",""
"","201.59000006970018","sequential-stimulus-presentation-old","139","399008","0.0-31.0-1.5","SS1619739971179","trial","","40","500","701.5900000697002","images/stimuli/spore_stims/complex_04_A_a.gif","images/stimuli/spore_stims/complex_18_A_b.gif","forced_short","","11","complex_dissimilar","images/stimuli/spore_stims/complex_18_A_b.gif","","","","",""
"[{""page_index"":0,""viewing_time"":9268.31499999389}]","9268.544999998994","instructions","140","408282","0.0-32.0","SS1619739971179","instructions","","","","","","","","","","","","","","","",""
"","17461.155000026338","survey-likert","141","425746","0.0-33.0","SS1619739971179","similarity_question","","","","","","","","","","","","{""Q0"":0}","[0]","","images/stimuli/spore_stims/simple_02_A_b.gif","images/stimuli/spore_stims/simple_11_A_a.gif"
"","6001.850000000559","survey-likert","142","431754","0.0-34.0","SS1619739971179","similarity_question","","","","","","","","","","","","{""Q0"":0}","[0]","","images/stimuli/spore_stims/complex_08_A_b.gif","images/stimuli/spore_stims/complex_11_A_a.gif"
"","4169.914999976754","survey-likert","143","435930","0.0-35.0","SS1619739971179","similarity_question","","","","","","","","","","","","{""Q0"":0}","[0]","","images/stimuli/spore_stims/simple_04_A_a.gif","images/stimuli/spore_stims/simple_11_A_b.gif"
"","8306.345000048168","survey-likert","144","444242","0.0-36.0","SS1619739971179","similarity_question","","","","","","","","","","","","{""Q0"":1}","[0]","","images/stimuli/spore_stims/simple_06_A_b.gif","images/stimuli/spore_stims/simple_05_A_a.gif"
"","7970.694999909028","survey-likert","145","452219","0.0-37.0","SS1619739971179","similarity_question","","","","","","","","","","","","{""Q0"":1}","[0]","","images/stimuli/spore_stims/complex_04_A_a.gif","images/stimuli/spore_stims/complex_18_A_b.gif"
"","4321.864999947138","survey-likert","146","456546","0.0-38.0","SS1619739971179","similarity_question","","","","","","","","","","","","{""Q0"":0}","[0]","","images/stimuli/spore_stims/complex_09_A_a.gif","images/stimuli/spore_stims/complex_05_A_b.gif"
"","8049.524999922141","survey-likert","147","464602","0.0-39.0","SS1619739971179","similarity_question","","","","","","","","","","","","{""Q0"":0}","[0]","","images/stimuli/spore_stims/simple_18_A_a.gif","images/stimuli/spore_stims/simple_16_A_b.gif"
"","4177.954999962822","survey-likert","148","468787","0.0-40.0","SS1619739971179","similarity_question","","","","","","","","","","","","{""Q0"":0}","[0]","","images/stimuli/spore_stims/complex_02_A_a.gif","images/stimuli/spore_stims/complex_04_A_b.gif"
"","5081.854999996722","survey-likert","149","473874","0.0-41.0","SS1619739971179","similarity_question","","","","","","","","","","","","{""Q0"":0}","[0]","","images/stimuli/spore_stims/complex_07_A_a.gif","images/stimuli/spore_stims/complex_01_A_b.gif"
"","5754.185000085272","survey-likert","150","479634","0.0-42.0","SS1619739971179","similarity_question","","","","","","","","","","","","{""Q0"":0}","[0]","","images/stimuli/spore_stims/complex_17_A_a.gif","images/stimuli/spore_stims/complex_13_A_b.gif"
"","3315.3500000480562","survey-likert","151","482954","0.0-43.0","SS1619739971179","similarity_question","","","","","","","","","","","","{""Q0"":0}","[0]","","images/stimuli/spore_stims/simple_01_A_a.gif","images/stimuli/spore_stims/simple_18_A_b.gif"
"","4082.0700000040233","survey-likert","152","487042","0.0-44.0","SS1619739971179","similarity_question","","","","","","","","","","","","{""Q0"":1}","[0]","","images/stimuli/spore_stims/simple_09_A_a.gif","images/stimuli/spore_stims/simple_20_A_b.gif"
"[{""page_index"":0,""viewing_time"":2042.3200000077486}]","2042.7299999864772","instructions","153","489090","0.0-45.0","SS1619739971179","instructions","","","","","","","","","","","","","","","",""
"","5557.4199999682605","survey-likert","154","494650","0.0-46.0","SS1619739971179","","","","","","","","","images/stimuli/spore_stims/simple_11_A_b.gif","","","","{""Q0"":1}","[0]","","",""
"","3330.3450000239536","survey-likert","155","497986","0.0-47.0","SS1619739971179","","","","","","","","","images/stimuli/spore_stims/simple_11_A_a.gif","","","","{""Q0"":1}","[0]","","",""
"","5834.329999983311","survey-likert","156","503826","0.0-48.0","SS1619739971179","","","","","","","","","images/stimuli/spore_stims/complex_18_A_b.gif","","","","{""Q0"":5}","[0]","","",""
"","4714.009999996051","survey-likert","157","508546","0.0-49.0","SS1619739971179","","","","","","","","","images/stimuli/spore_stims/complex_02_A_a.gif","","","","{""Q0"":5}","[0]","","",""
"","2354.894999996759","survey-likert","158","510906","0.0-50.0","SS1619739971179","","","","","","","","","images/stimuli/spore_stims/complex_07_A_a.gif","","","","{""Q0"":5}","[0]","","",""
"","4057.9800000414252","survey-likert","159","514970","0.0-51.0","SS1619739971179","","","","","","","","","images/stimuli/spore_stims/simple_01_A_a.gif","","","","{""Q0"":1}","[0]","","",""
"","5068.695000023581","survey-likert","160","520045","0.0-52.0","SS1619739971179","","","","","","","","","images/stimuli/spore_stims/complex_09_A_a.gif","","","","{""Q0"":4}","[0]","","",""
"","4032.385000027716","survey-likert","161","524082","0.0-53.0","SS1619739971179","","","","","","","","","images/stimuli/spore_stims/simple_06_A_b.gif","","","","{""Q0"":0}","[0]","","",""
"","2209.930000011809","survey-likert","162","526298","0.0-54.0","SS1619739971179","","","","","","","","","images/stimuli/spore_stims/simple_16_A_b.gif","","","","{""Q0"":1}","[0]","","",""
"","2723.1849998934194","survey-likert","163","529026","0.0-55.0","SS1619739971179","","","","","","","","","images/stimuli/spore_stims/complex_13_A_b.gif","","","","{""Q0"":6}","[0]","","",""
"","3874.305000063032","survey-likert","164","532906","0.0-56.0","SS1619739971179","","","","","","","","","images/stimuli/spore_stims/complex_11_A_a.gif","","","","{""Q0"":6}","[0]","","",""
"","2953.5150000592694","survey-likert","165","535866","0.0-57.0","SS1619739971179","","","","","","","","","images/stimuli/spore_stims/simple_20_A_b.gif","","","","{""Q0"":1}","[0]","","",""
"[{""page_index"":0,""viewing_time"":1937.8100000321865}]","1938.0400000372902","instructions","166","537809","0.0-58.0","SS1619739971179","instructions","","","","","","","","","","","","","","","",""
"","3381.6749999532476","demog-age","167","541197","0.0-59.0","SS1619739971179","","","","","","","","","","","","","{""age"":""23""}","","","",""
"","6161.579999956302","demog-ethnic-US","168","547362","0.0-60.0","SS1619739971179","","","","","","","","","","","","","{""ethnicity"":[""Other""]}","[0]","","",""
"","8459.144999971613","demog-gender-and-education","169","555826","0.0-61.0","SS1619739971179","","","","","","","","","","","","","{""gender"":""Male"",""education"":""Bachelor's Degree""}","[0,1]","","",""
"","30802.849999978207","survey-text","170","586636","0.0-62.0","SS1619739971179","feedback","","","","","","","","","","","","{""Q0"":""the experiment was normal""}","","","",""
"[{""page_index"":0,""viewing_time"":1618.8399998936802}]","1619.0749999368563","instructions","171","588258","0.0-63.0","SS1619739971179","instructions","","","","","","","","","","","","","","","",""
