"view_history","rt","trial_type","trial_index","time_elapsed","internal_node_id","subject","stimulus_type","trial_stimulus","key_press","minimum_viewing_duration","trial_looking_time","block_deviant","block_background","exposure_type","stimulus","block_number","block_type","stimulus_displayed","responses","question_order","math_correct_answer","stimulus_left","stimulus_right"
"[{""page_index"":0,""viewing_time"":18436.115000396967}]","18437.52000015229","instructions","0","18441","0.0-0.0","SS1619739804274","","","","","","","","","","","","","","","","",""
"[{""page_index"":0,""viewing_time"":19043.23500022292},{""page_index"":1,""viewing_time"":7079.165000002831}]","26122.90000030771","instructions","1","46568","0.0-1.0","SS1619739804274","instructions","","","","","","","","","","","","","","","",""
"","6029.260000213981","sequential-stimulus-presentation-old","2","53104","0.0-2.0","SS1619739804274","","","40","500","6529.260000213981","null","null","self_paced","","","","","","","","",""
"","8534.59500009194","sequential-stimulus-presentation-old","3","62143","0.0-3.0","SS1619739804274","","","40","500","9034.59500009194","null","null","self_paced","","","","","","","","",""
"[{""page_index"":0,""viewing_time"":25139.659999869764}]","25140.339999925345","instructions","4","87285","0.0-4.0","SS1619739804274","instructions","","","","","","","","","","","","","","","",""
"","800.4450001753867","sequential-stimulus-presentation-old","5","103092","0.0-5.0","SS1619739804274","","","40","500","1300.4450001753867","null","null","forced_long","","","","","","","","",""
"","4695.400000084192","sequential-stimulus-presentation-old","6","108294","0.0-6.0","SS1619739804274","","","40","500","5195.400000084192","null","null","forced_long","","","","","","","","",""
"[{""page_index"":0,""viewing_time"":5496.489999815822}]","5497.169999871403","instructions","7","113793","0.0-7.0","SS1619739804274","instructions","","","","","","","","","","","","","","","",""
"[{""page_index"":0,""viewing_time"":17603.854999877512},{""page_index"":1,""viewing_time"":13918.794999830425},{""page_index"":2,""viewing_time"":9224.069999996573},{""page_index"":3,""viewing_time"":2560.310000088066},{""page_index"":4,""viewing_time"":1678.129999898374}]","44986.014999914914","instructions","8","158782","0.0-8.0","SS1619739804274","instructions","","","","","","","","","","","","","","","",""
"","null","html-keyboard-response","9","159630","0.0-9.0-0.0","SS1619739804274","","","null","","","","","","<p><img src= images/blank.png width =""600"" height = ""600"" style=""position:fixed;top:50%; left:50%; transform: translate(-50%, -50%); border:5px solid black"">","","","","","","","",""
"","4166.724999900907","sequential-stimulus-presentation-old","10","164306","0.0-9.0-1.0","SS1619739804274","trial","","40","500","4666.724999900907","images/stimuli/spore_stims/simple_06_A_b.gif","images/stimuli/spore_stims/simple_17_A_a.gif","forced_short","","0","simple_dissimilar","images/stimuli/spore_stims/simple_17_A_a.gif","","","","",""
"","null","html-keyboard-response","11","165144","0.0-9.0-0.1","SS1619739804274","","","null","","","","","","<p><img src= images/blank.png width =""600"" height = ""600"" style=""position:fixed;top:50%; left:50%; transform: translate(-50%, -50%); border:5px solid black"">","","","","","","","",""
"","13129.114999901503","sequential-stimulus-presentation-old","12","178779","0.0-9.0-1.1","SS1619739804274","trial","","40","500","13629.114999901503","images/stimuli/spore_stims/simple_06_A_b.gif","images/stimuli/spore_stims/simple_17_A_a.gif","forced_short","","0","simple_dissimilar","images/stimuli/spore_stims/simple_06_A_b.gif","","","","",""
"","null","html-keyboard-response","13","179856","0.0-9.0-0.2","SS1619739804274","","","null","","","","","","<p><img src= images/blank.png width =""600"" height = ""600"" style=""position:fixed;top:50%; left:50%; transform: translate(-50%, -50%); border:5px solid black"">","","","","","","","",""
"","6651.19000012055","sequential-stimulus-presentation-old","14","187016","0.0-9.0-1.2","SS1619739804274","trial","","40","500","7151.19000012055","images/stimuli/spore_stims/simple_06_A_b.gif","images/stimuli/spore_stims/simple_17_A_a.gif","forced_short","","0","simple_dissimilar","images/stimuli/spore_stims/simple_17_A_a.gif","","","","",""
"","null","html-keyboard-response","15","188001","0.0-9.0-0.3","SS1619739804274","","","null","","","","","","<p><img src= images/blank.png width =""600"" height = ""600"" style=""position:fixed;top:50%; left:50%; transform: translate(-50%, -50%); border:5px solid black"">","","","","","","","",""
"","7188.844999764115","sequential-stimulus-presentation-old","16","195700","0.0-9.0-1.3","SS1619739804274","trial","","40","500","7688.844999764115","images/stimuli/spore_stims/simple_06_A_b.gif","images/stimuli/spore_stims/simple_17_A_a.gif","forced_short","","0","simple_dissimilar","images/stimuli/spore_stims/simple_17_A_a.gif","","","","",""
"","null","html-keyboard-response","17","196519","0.0-9.0-0.4","SS1619739804274","","","null","","","","","","<p><img src= images/blank.png width =""600"" height = ""600"" style=""position:fixed;top:50%; left:50%; transform: translate(-50%, -50%); border:5px solid black"">","","","","","","","",""
"","6462.115000002086","sequential-stimulus-presentation-old","18","203488","0.0-9.0-1.4","SS1619739804274","trial","","40","500","6962.115000002086","images/stimuli/spore_stims/simple_06_A_b.gif","images/stimuli/spore_stims/simple_17_A_a.gif","forced_short","","0","simple_dissimilar","images/stimuli/spore_stims/simple_17_A_a.gif","","","","",""
"","6098.670000210404","survey-multi-choice","19","209601","0.0-10.0","SS1619739804274","math_question","","","","","","","","","","","","{""Q0"":""11""}","[0]","11","",""
"","null","html-keyboard-response","20","210551","0.0-11.0-0.0","SS1619739804274","","","null","","","","","","<p><img src= images/blank.png width =""600"" height = ""600"" style=""position:fixed;top:50%; left:50%; transform: translate(-50%, -50%); border:5px solid black"">","","","","","","","",""
"","5441.490000113845","sequential-stimulus-presentation-old","21","216500","0.0-11.0-1.0","SS1619739804274","trial","","40","500","5941.490000113845","images/stimuli/spore_stims/complex_10_A_b.gif","images/stimuli/spore_stims/complex_09_A_a.gif","self_paced","","1","complex_dissimilar","images/stimuli/spore_stims/complex_09_A_a.gif","","","","",""
"","null","html-keyboard-response","22","217614","0.0-11.0-0.1","SS1619739804274","","","null","","","","","","<p><img src= images/blank.png width =""600"" height = ""600"" style=""position:fixed;top:50%; left:50%; transform: translate(-50%, -50%); border:5px solid black"">","","","","","","","",""
"","1403.6500002257526","sequential-stimulus-presentation-old","23","219525","0.0-11.0-1.1","SS1619739804274","trial","","40","500","1903.6500002257526","images/stimuli/spore_stims/complex_10_A_b.gif","images/stimuli/spore_stims/complex_09_A_a.gif","self_paced","","1","complex_dissimilar","images/stimuli/spore_stims/complex_09_A_a.gif","","","","",""
"","null","html-keyboard-response","24","220361","0.0-11.0-0.2","SS1619739804274","","","null","","","","","","<p><img src= images/blank.png width =""600"" height = ""600"" style=""position:fixed;top:50%; left:50%; transform: translate(-50%, -50%); border:5px solid black"">","","","","","","","",""
"","3973.1200002133846","sequential-stimulus-presentation-old","25","224843","0.0-11.0-1.2","SS1619739804274","trial","","40","500","4473.120000213385","images/stimuli/spore_stims/complex_10_A_b.gif","images/stimuli/spore_stims/complex_09_A_a.gif","self_paced","","1","complex_dissimilar","images/stimuli/spore_stims/complex_09_A_a.gif","","","","",""
"","null","html-keyboard-response","26","225757","0.0-11.0-0.3","SS1619739804274","","","null","","","","","","<p><img src= images/blank.png width =""600"" height = ""600"" style=""position:fixed;top:50%; left:50%; transform: translate(-50%, -50%); border:5px solid black"">","","","","","","","",""
"","4534.620000049472","sequential-stimulus-presentation-old","27","230798","0.0-11.0-1.3","SS1619739804274","trial","","40","500","5034.620000049472","images/stimuli/spore_stims/complex_10_A_b.gif","images/stimuli/spore_stims/complex_09_A_a.gif","self_paced","","1","complex_dissimilar","images/stimuli/spore_stims/complex_10_A_b.gif","","","","",""
"","null","html-keyboard-response","28","231746","0.0-11.0-0.4","SS1619739804274","","","null","","","","","","<p><img src= images/blank.png width =""600"" height = ""600"" style=""position:fixed;top:50%; left:50%; transform: translate(-50%, -50%); border:5px solid black"">","","","","","","","",""
"","6704.159999731928","sequential-stimulus-presentation-old","29","238960","0.0-11.0-1.4","SS1619739804274","trial","","40","500","7204.159999731928","images/stimuli/spore_stims/complex_10_A_b.gif","images/stimuli/spore_stims/complex_09_A_a.gif","self_paced","","1","complex_dissimilar","images/stimuli/spore_stims/complex_10_A_b.gif","","","","",""
"","3173.050000332296","survey-multi-choice","30","242138","0.0-12.0","SS1619739804274","math_question","","","","","","","","","","","","{""Q0"":""9""}","[0]","9","",""
"","null","html-keyboard-response","31","242968","0.0-13.0-0.0","SS1619739804274","","","null","","","","","","<p><img src= images/blank.png width =""600"" height = ""600"" style=""position:fixed;top:50%; left:50%; transform: translate(-50%, -50%); border:5px solid black"">","","","","","","","",""
"","721.394999884069","sequential-stimulus-presentation-old","32","258699","0.0-13.0-1.0","SS1619739804274","trial","","40","500","1221.394999884069","images/stimuli/spore_stims/complex_11_A_a.gif","images/stimuli/spore_stims/complex_03_A_b.gif","forced_long","","2","complex_dissimilar","images/stimuli/spore_stims/complex_03_A_b.gif","","","","",""
"","null","html-keyboard-response","33","259777","0.0-13.0-0.1","SS1619739804274","","","null","","","","","","<p><img src= images/blank.png width =""600"" height = ""600"" style=""position:fixed;top:50%; left:50%; transform: translate(-50%, -50%); border:5px solid black"">","","","","","","","",""
"","476.84000013396144","sequential-stimulus-presentation-old","34","260762","0.0-13.0-1.1","SS1619739804274","trial","","40","500","976.8400001339614","images/stimuli/spore_stims/complex_11_A_a.gif","images/stimuli/spore_stims/complex_03_A_b.gif","forced_long","","2","complex_dissimilar","images/stimuli/spore_stims/complex_03_A_b.gif","","","","",""
"","null","html-keyboard-response","35","262041","0.0-13.0-0.2","SS1619739804274","","","null","","","","","","<p><img src= images/blank.png width =""600"" height = ""600"" style=""position:fixed;top:50%; left:50%; transform: translate(-50%, -50%); border:5px solid black"">","","","","","","","",""
"","2509.6800001338124","sequential-stimulus-presentation-old","36","265056","0.0-13.0-1.2","SS1619739804274","trial","","40","500","3009.6800001338124","images/stimuli/spore_stims/complex_11_A_a.gif","images/stimuli/spore_stims/complex_03_A_b.gif","forced_long","","2","complex_dissimilar","images/stimuli/spore_stims/complex_03_A_b.gif","","","","",""
"","null","html-keyboard-response","37","266226","0.0-13.0-0.3","SS1619739804274","","","null","","","","","","<p><img src= images/blank.png width =""600"" height = ""600"" style=""position:fixed;top:50%; left:50%; transform: translate(-50%, -50%); border:5px solid black"">","","","","","","","",""
"","4340.464999899268","sequential-stimulus-presentation-old","38","271073","0.0-13.0-1.3","SS1619739804274","trial","","40","500","4840.464999899268","images/stimuli/spore_stims/complex_11_A_a.gif","images/stimuli/spore_stims/complex_03_A_b.gif","forced_long","","2","complex_dissimilar","images/stimuli/spore_stims/complex_03_A_b.gif","","","","",""
"","null","html-keyboard-response","39","272122","0.0-13.0-0.4","SS1619739804274","","","null","","","","","","<p><img src= images/blank.png width =""600"" height = ""600"" style=""position:fixed;top:50%; left:50%; transform: translate(-50%, -50%); border:5px solid black"">","","","","","","","",""
"","2913.769999984652","sequential-stimulus-presentation-old","40","275543","0.0-13.0-1.4","SS1619739804274","trial","","40","500","3413.769999984652","images/stimuli/spore_stims/complex_11_A_a.gif","images/stimuli/spore_stims/complex_03_A_b.gif","forced_long","","2","complex_dissimilar","images/stimuli/spore_stims/complex_11_A_a.gif","","","","",""
"","null","html-keyboard-response","41","276668","0.0-13.0-0.5","SS1619739804274","","","null","","","","","","<p><img src= images/blank.png width =""600"" height = ""600"" style=""position:fixed;top:50%; left:50%; transform: translate(-50%, -50%); border:5px solid black"">","","","","","","","",""
"","835.55500023067","sequential-stimulus-presentation-old","42","278010","0.0-13.0-1.5","SS1619739804274","trial","","40","500","1335.55500023067","images/stimuli/spore_stims/complex_11_A_a.gif","images/stimuli/spore_stims/complex_03_A_b.gif","forced_long","","2","complex_dissimilar","images/stimuli/spore_stims/complex_11_A_a.gif","","","","",""
"","5622.955000028014","survey-multi-choice","43","283638","0.0-14.0","SS1619739804274","math_question","","","","","","","","","","","","{""Q0"":""17""}","[0]","17","",""
"","null","html-keyboard-response","44","284477","0.0-15.0-0.0","SS1619739804274","","","null","","","","","","<p><img src= images/blank.png width =""600"" height = ""600"" style=""position:fixed;top:50%; left:50%; transform: translate(-50%, -50%); border:5px solid black"">","","","","","","","",""
"","14117.80000012368","sequential-stimulus-presentation-old","45","299105","0.0-15.0-1.0","SS1619739804274","trial","","40","500","14617.80000012368","images/stimuli/spore_stims/simple_14_A_a.gif","images/stimuli/spore_stims/simple_20_A_b.gif","self_paced","","3","simple_dissimilar","images/stimuli/spore_stims/simple_20_A_b.gif","","","","",""
"","null","html-keyboard-response","46","300126","0.0-15.0-0.1","SS1619739804274","","","null","","","","","","<p><img src= images/blank.png width =""600"" height = ""600"" style=""position:fixed;top:50%; left:50%; transform: translate(-50%, -50%); border:5px solid black"">","","","","","","","",""
"","122.874999884516","sequential-stimulus-presentation-old","47","300759","0.0-15.0-1.1","SS1619739804274","trial","","40","500","622.874999884516","images/stimuli/spore_stims/simple_14_A_a.gif","images/stimuli/spore_stims/simple_20_A_b.gif","self_paced","","3","simple_dissimilar","images/stimuli/spore_stims/simple_14_A_a.gif","","","","",""
"","null","html-keyboard-response","48","301746","0.0-15.0-0.2","SS1619739804274","","","null","","","","","","<p><img src= images/blank.png width =""600"" height = ""600"" style=""position:fixed;top:50%; left:50%; transform: translate(-50%, -50%); border:5px solid black"">","","","","","","","",""
"","3455.970000009984","sequential-stimulus-presentation-old","49","305711","0.0-15.0-1.2","SS1619739804274","trial","","40","500","3955.970000009984","images/stimuli/spore_stims/simple_14_A_a.gif","images/stimuli/spore_stims/simple_20_A_b.gif","self_paced","","3","simple_dissimilar","images/stimuli/spore_stims/simple_20_A_b.gif","","","","",""
"","null","html-keyboard-response","50","306829","0.0-15.0-0.3","SS1619739804274","","","null","","","","","","<p><img src= images/blank.png width =""600"" height = ""600"" style=""position:fixed;top:50%; left:50%; transform: translate(-50%, -50%); border:5px solid black"">","","","","","","","",""
"","1638.329999987036","sequential-stimulus-presentation-old","51","308976","0.0-15.0-1.3","SS1619739804274","trial","","40","500","2138.329999987036","images/stimuli/spore_stims/simple_14_A_a.gif","images/stimuli/spore_stims/simple_20_A_b.gif","self_paced","","3","simple_dissimilar","images/stimuli/spore_stims/simple_14_A_a.gif","","","","",""
"","4009.4300000928342","survey-multi-choice","52","312990","0.0-16.0","SS1619739804274","math_question","","","","","","","","","","","","{""Q0"":""12""}","[0]","12","",""
"","null","html-keyboard-response","53","313900","0.0-17.0-0.0","SS1619739804274","","","null","","","","","","<p><img src= images/blank.png width =""600"" height = ""600"" style=""position:fixed;top:50%; left:50%; transform: translate(-50%, -50%); border:5px solid black"">","","","","","","","",""
"","1270.4199999570847","sequential-stimulus-presentation-old","54","315680","0.0-17.0-1.0","SS1619739804274","trial","","40","500","1770.4199999570847","images/stimuli/spore_stims/complex_01_A_b.gif","images/stimuli/spore_stims/complex_04_A_a.gif","forced_short","","4","complex_dissimilar","images/stimuli/spore_stims/complex_04_A_a.gif","","","","",""
"","null","html-keyboard-response","55","316822","0.0-17.0-0.1","SS1619739804274","","","null","","","","","","<p><img src= images/blank.png width =""600"" height = ""600"" style=""position:fixed;top:50%; left:50%; transform: translate(-50%, -50%); border:5px solid black"">","","","","","","","",""
"","1137.434999924153","sequential-stimulus-presentation-old","56","318467","0.0-17.0-1.1","SS1619739804274","trial","","40","500","1637.434999924153","images/stimuli/spore_stims/complex_01_A_b.gif","images/stimuli/spore_stims/complex_04_A_a.gif","forced_short","","4","complex_dissimilar","images/stimuli/spore_stims/complex_04_A_a.gif","","","","",""
"","null","html-keyboard-response","57","319408","0.0-17.0-0.2","SS1619739804274","","","null","","","","","","<p><img src= images/blank.png width =""600"" height = ""600"" style=""position:fixed;top:50%; left:50%; transform: translate(-50%, -50%); border:5px solid black"">","","","","","","","",""
"","760.2899996563792","sequential-stimulus-presentation-old","58","320673","0.0-17.0-1.2","SS1619739804274","trial","","40","500","1260.2899996563792","images/stimuli/spore_stims/complex_01_A_b.gif","images/stimuli/spore_stims/complex_04_A_a.gif","forced_short","","4","complex_dissimilar","images/stimuli/spore_stims/complex_01_A_b.gif","","","","",""
"","null","html-keyboard-response","59","321479","0.0-17.0-0.3","SS1619739804274","","","null","","","","","","<p><img src= images/blank.png width =""600"" height = ""600"" style=""position:fixed;top:50%; left:50%; transform: translate(-50%, -50%); border:5px solid black"">","","","","","","","",""
"","3454.3249998241663","sequential-stimulus-presentation-old","60","325440","0.0-17.0-1.3","SS1619739804274","trial","","40","500","3954.3249998241663","images/stimuli/spore_stims/complex_01_A_b.gif","images/stimuli/spore_stims/complex_04_A_a.gif","forced_short","","4","complex_dissimilar","images/stimuli/spore_stims/complex_01_A_b.gif","","","","",""
"","null","html-keyboard-response","61","326698","0.0-17.0-0.4","SS1619739804274","","","null","","","","","","<p><img src= images/blank.png width =""600"" height = ""600"" style=""position:fixed;top:50%; left:50%; transform: translate(-50%, -50%); border:5px solid black"">","","","","","","","",""
"","1390.0750000029802","sequential-stimulus-presentation-old","62","328596","0.0-17.0-1.4","SS1619739804274","trial","","40","500","1890.0750000029802","images/stimuli/spore_stims/complex_01_A_b.gif","images/stimuli/spore_stims/complex_04_A_a.gif","forced_short","","4","complex_dissimilar","images/stimuli/spore_stims/complex_04_A_a.gif","","","","",""
"","null","html-keyboard-response","63","329516","0.0-17.0-0.5","SS1619739804274","","","null","","","","","","<p><img src= images/blank.png width =""600"" height = ""600"" style=""position:fixed;top:50%; left:50%; transform: translate(-50%, -50%); border:5px solid black"">","","","","","","","",""
"","1132.955000270158","sequential-stimulus-presentation-old","64","331157","0.0-17.0-1.5","SS1619739804274","trial","","40","500","1632.955000270158","images/stimuli/spore_stims/complex_01_A_b.gif","images/stimuli/spore_stims/complex_04_A_a.gif","forced_short","","4","complex_dissimilar","images/stimuli/spore_stims/complex_04_A_a.gif","","","","",""
"","3508.5400003008544","survey-multi-choice","65","334674","0.0-18.0","SS1619739804274","math_question","","","","","","","","","","","","{""Q0"":""14""}","[0]","14","",""
"","null","html-keyboard-response","66","335723","0.0-19.0-0.0","SS1619739804274","","","null","","","","","","<p><img src= images/blank.png width =""600"" height = ""600"" style=""position:fixed;top:50%; left:50%; transform: translate(-50%, -50%); border:5px solid black"">","","","","","","","",""
"","7139.73500020802","sequential-stimulus-presentation-old","67","343373","0.0-19.0-1.0","SS1619739804274","trial","","40","500","7639.73500020802","images/stimuli/spore_stims/complex_14_A_b.gif","images/stimuli/spore_stims/complex_07_A_a.gif","self_paced","","5","complex_dissimilar","images/stimuli/spore_stims/complex_07_A_a.gif","","","","",""
"","null","html-keyboard-response","68","344421","0.0-19.0-0.1","SS1619739804274","","","null","","","","","","<p><img src= images/blank.png width =""600"" height = ""600"" style=""position:fixed;top:50%; left:50%; transform: translate(-50%, -50%); border:5px solid black"">","","","","","","","",""
"","11011.3499998115","sequential-stimulus-presentation-old","69","355941","0.0-19.0-1.1","SS1619739804274","trial","","40","500","11511.3499998115","images/stimuli/spore_stims/complex_14_A_b.gif","images/stimuli/spore_stims/complex_07_A_a.gif","self_paced","","5","complex_dissimilar","images/stimuli/spore_stims/complex_14_A_b.gif","","","","",""
"","null","html-keyboard-response","70","357153","0.0-19.0-0.2","SS1619739804274","","","null","","","","","","<p><img src= images/blank.png width =""600"" height = ""600"" style=""position:fixed;top:50%; left:50%; transform: translate(-50%, -50%); border:5px solid black"">","","","","","","","",""
"","1839.6149999462068","sequential-stimulus-presentation-old","71","359503","0.0-19.0-1.2","SS1619739804274","trial","","40","500","2339.614999946207","images/stimuli/spore_stims/complex_14_A_b.gif","images/stimuli/spore_stims/complex_07_A_a.gif","self_paced","","5","complex_dissimilar","images/stimuli/spore_stims/complex_07_A_a.gif","","","","",""
"","null","html-keyboard-response","72","360400","0.0-19.0-0.3","SS1619739804274","","","null","","","","","","<p><img src= images/blank.png width =""600"" height = ""600"" style=""position:fixed;top:50%; left:50%; transform: translate(-50%, -50%); border:5px solid black"">","","","","","","","",""
"","1516.5950004011393","sequential-stimulus-presentation-old","73","362425","0.0-19.0-1.3","SS1619739804274","trial","","40","500","2016.5950004011393","images/stimuli/spore_stims/complex_14_A_b.gif","images/stimuli/spore_stims/complex_07_A_a.gif","self_paced","","5","complex_dissimilar","images/stimuli/spore_stims/complex_07_A_a.gif","","","","",""
"","null","html-keyboard-response","74","363540","0.0-19.0-0.4","SS1619739804274","","","null","","","","","","<p><img src= images/blank.png width =""600"" height = ""600"" style=""position:fixed;top:50%; left:50%; transform: translate(-50%, -50%); border:5px solid black"">","","","","","","","",""
"","1163.4549996815622","sequential-stimulus-presentation-old","75","365212","0.0-19.0-1.4","SS1619739804274","trial","","40","500","1663.4549996815622","images/stimuli/spore_stims/complex_14_A_b.gif","images/stimuli/spore_stims/complex_07_A_a.gif","self_paced","","5","complex_dissimilar","images/stimuli/spore_stims/complex_14_A_b.gif","","","","",""
"","2859.2199999839067","survey-multi-choice","76","368077","0.0-20.0","SS1619739804274","math_question","","","","","","","","","","","","{""Q0"":""5""}","[0]","5","",""
"","null","html-keyboard-response","77","369015","0.0-21.0-0.0","SS1619739804274","","","null","","","","","","<p><img src= images/blank.png width =""600"" height = ""600"" style=""position:fixed;top:50%; left:50%; transform: translate(-50%, -50%); border:5px solid black"">","","","","","","","",""
"","2952.270000241697","sequential-stimulus-presentation-old","78","372479","0.0-21.0-1.0","SS1619739804274","trial","","40","500","3452.270000241697","images/stimuli/spore_stims/simple_08_A_b.gif","images/stimuli/spore_stims/simple_16_A_a.gif","forced_short","","6","simple_dissimilar","images/stimuli/spore_stims/simple_16_A_a.gif","","","","",""
"","null","html-keyboard-response","79","373444","0.0-21.0-0.1","SS1619739804274","","","null","","","","","","<p><img src= images/blank.png width =""600"" height = ""600"" style=""position:fixed;top:50%; left:50%; transform: translate(-50%, -50%); border:5px solid black"">","","","","","","","",""
"","907.7750002034009","sequential-stimulus-presentation-old","80","374870","0.0-21.0-1.1","SS1619739804274","trial","","40","500","1407.7750002034009","images/stimuli/spore_stims/simple_08_A_b.gif","images/stimuli/spore_stims/simple_16_A_a.gif","forced_short","","6","simple_dissimilar","images/stimuli/spore_stims/simple_16_A_a.gif","","","","",""
"","null","html-keyboard-response","81","375838","0.0-21.0-0.2","SS1619739804274","","","null","","","","","","<p><img src= images/blank.png width =""600"" height = ""600"" style=""position:fixed;top:50%; left:50%; transform: translate(-50%, -50%); border:5px solid black"">","","","","","","","",""
"","15053.844999987632","sequential-stimulus-presentation-old","82","391400","0.0-21.0-1.2","SS1619739804274","trial","","40","500","15553.844999987632","images/stimuli/spore_stims/simple_08_A_b.gif","images/stimuli/spore_stims/simple_16_A_a.gif","forced_short","","6","simple_dissimilar","images/stimuli/spore_stims/simple_16_A_a.gif","","","","",""
"","null","html-keyboard-response","83","392602","0.0-21.0-0.3","SS1619739804274","","","null","","","","","","<p><img src= images/blank.png width =""600"" height = ""600"" style=""position:fixed;top:50%; left:50%; transform: translate(-50%, -50%); border:5px solid black"">","","","","","","","",""
"","2195.1099997386336","sequential-stimulus-presentation-old","84","395307","0.0-21.0-1.3","SS1619739804274","trial","","40","500","2695.1099997386336","images/stimuli/spore_stims/simple_08_A_b.gif","images/stimuli/spore_stims/simple_16_A_a.gif","forced_short","","6","simple_dissimilar","images/stimuli/spore_stims/simple_08_A_b.gif","","","","",""
"","3128.465000074357","survey-multi-choice","85","398442","0.0-22.0","SS1619739804274","math_question","","","","","","","","","","","","{""Q0"":""10""}","[0]","10","",""
"","null","html-keyboard-response","86","399452","0.0-23.0-0.0","SS1619739804274","","","null","","","","","","<p><img src= images/blank.png width =""600"" height = ""600"" style=""position:fixed;top:50%; left:50%; transform: translate(-50%, -50%); border:5px solid black"">","","","","","","","",""
"","10517.055000178516","sequential-stimulus-presentation-old","87","424979","0.0-23.0-1.0","SS1619739804274","trial","","40","500","11017.055000178516","images/stimuli/spore_stims/complex_16_A_b.gif","images/stimuli/spore_stims/complex_06_A_a.gif","forced_long","","7","complex_dissimilar","images/stimuli/spore_stims/complex_06_A_a.gif","","","","",""
"","null","html-keyboard-response","88","426093","0.0-23.0-0.1","SS1619739804274","","","null","","","","","","<p><img src= images/blank.png width =""600"" height = ""600"" style=""position:fixed;top:50%; left:50%; transform: translate(-50%, -50%); border:5px solid black"">","","","","","","","",""
"","1327.2049999795854","sequential-stimulus-presentation-old","89","427933","0.0-23.0-1.1","SS1619739804274","trial","","40","500","1827.2049999795854","images/stimuli/spore_stims/complex_16_A_b.gif","images/stimuli/spore_stims/complex_06_A_a.gif","forced_long","","7","complex_dissimilar","images/stimuli/spore_stims/complex_16_A_b.gif","","","","",""
"","null","html-keyboard-response","90","428740","0.0-23.0-0.2","SS1619739804274","","","null","","","","","","<p><img src= images/blank.png width =""600"" height = ""600"" style=""position:fixed;top:50%; left:50%; transform: translate(-50%, -50%); border:5px solid black"">","","","","","","","",""
"","3964.7399997338653","sequential-stimulus-presentation-old","91","433212","0.0-23.0-1.2","SS1619739804274","trial","","40","500","4464.739999733865","images/stimuli/spore_stims/complex_16_A_b.gif","images/stimuli/spore_stims/complex_06_A_a.gif","forced_long","","7","complex_dissimilar","images/stimuli/spore_stims/complex_06_A_a.gif","","","","",""
"","null","html-keyboard-response","92","434481","0.0-23.0-0.3","SS1619739804274","","","null","","","","","","<p><img src= images/blank.png width =""600"" height = ""600"" style=""position:fixed;top:50%; left:50%; transform: translate(-50%, -50%); border:5px solid black"">","","","","","","","",""
"","546.1849998682737","sequential-stimulus-presentation-old","93","435537","0.0-23.0-1.3","SS1619739804274","trial","","40","500","1046.1849998682737","images/stimuli/spore_stims/complex_16_A_b.gif","images/stimuli/spore_stims/complex_06_A_a.gif","forced_long","","7","complex_dissimilar","images/stimuli/spore_stims/complex_06_A_a.gif","","","","",""
"","null","html-keyboard-response","94","436427","0.0-23.0-0.4","SS1619739804274","","","null","","","","","","<p><img src= images/blank.png width =""600"" height = ""600"" style=""position:fixed;top:50%; left:50%; transform: translate(-50%, -50%); border:5px solid black"">","","","","","","","",""
"","1763.3549999445677","sequential-stimulus-presentation-old","95","438702","0.0-23.0-1.4","SS1619739804274","trial","","40","500","2263.3549999445677","images/stimuli/spore_stims/complex_16_A_b.gif","images/stimuli/spore_stims/complex_06_A_a.gif","forced_long","","7","complex_dissimilar","images/stimuli/spore_stims/complex_06_A_a.gif","","","","",""
"","null","html-keyboard-response","96","439904","0.0-23.0-0.5","SS1619739804274","","","null","","","","","","<p><img src= images/blank.png width =""600"" height = ""600"" style=""position:fixed;top:50%; left:50%; transform: translate(-50%, -50%); border:5px solid black"">","","","","","","","",""
"","371.10000010579824","sequential-stimulus-presentation-old","97","440785","0.0-23.0-1.5","SS1619739804274","trial","","40","500","871.1000001057982","images/stimuli/spore_stims/complex_16_A_b.gif","images/stimuli/spore_stims/complex_06_A_a.gif","forced_long","","7","complex_dissimilar","images/stimuli/spore_stims/complex_06_A_a.gif","","","","",""
"","3271.385000087321","survey-multi-choice","98","444063","0.0-24.0","SS1619739804274","math_question","","","","","","","","","","","","{""Q0"":""12""}","[0]","12","",""
"","null","html-keyboard-response","99","444966","0.0-25.0-0.0","SS1619739804274","","","null","","","","","","<p><img src= images/blank.png width =""600"" height = ""600"" style=""position:fixed;top:50%; left:50%; transform: translate(-50%, -50%); border:5px solid black"">","","","","","","","",""
"","14478.564999997616","sequential-stimulus-presentation-old","100","474456","0.0-25.0-1.0","SS1619739804274","trial","","40","500","14978.564999997616","images/stimuli/spore_stims/simple_14_A_b.gif","images/stimuli/spore_stims/simple_15_A_a.gif","forced_long","","8","simple_dissimilar","images/stimuli/spore_stims/simple_15_A_a.gif","","","","",""
"","null","html-keyboard-response","101","475594","0.0-25.0-0.1","SS1619739804274","","","null","","","","","","<p><img src= images/blank.png width =""600"" height = ""600"" style=""position:fixed;top:50%; left:50%; transform: translate(-50%, -50%); border:5px solid black"">","","","","","","","",""
"","708.0849995836616","sequential-stimulus-presentation-old","102","476813","0.0-25.0-1.1","SS1619739804274","trial","","40","500","1208.0849995836616","images/stimuli/spore_stims/simple_14_A_b.gif","images/stimuli/spore_stims/simple_15_A_a.gif","forced_long","","8","simple_dissimilar","images/stimuli/spore_stims/simple_15_A_a.gif","","","","",""
"","null","html-keyboard-response","103","477631","0.0-25.0-0.2","SS1619739804274","","","null","","","","","","<p><img src= images/blank.png width =""600"" height = ""600"" style=""position:fixed;top:50%; left:50%; transform: translate(-50%, -50%); border:5px solid black"">","","","","","","","",""
"","2530.7000000029802","sequential-stimulus-presentation-old","104","480671","0.0-25.0-1.2","SS1619739804274","trial","","40","500","3030.7000000029802","images/stimuli/spore_stims/simple_14_A_b.gif","images/stimuli/spore_stims/simple_15_A_a.gif","forced_long","","8","simple_dissimilar","images/stimuli/spore_stims/simple_15_A_a.gif","","","","",""
"","null","html-keyboard-response","105","481575","0.0-25.0-0.3","SS1619739804274","","","null","","","","","","<p><img src= images/blank.png width =""600"" height = ""600"" style=""position:fixed;top:50%; left:50%; transform: translate(-50%, -50%); border:5px solid black"">","","","","","","","",""
"","1280.3949997760355","sequential-stimulus-presentation-old","106","483364","0.0-25.0-1.3","SS1619739804274","trial","","40","500","1780.3949997760355","images/stimuli/spore_stims/simple_14_A_b.gif","images/stimuli/spore_stims/simple_15_A_a.gif","forced_long","","8","simple_dissimilar","images/stimuli/spore_stims/simple_15_A_a.gif","","","","",""
"","4724.279999732971","survey-multi-choice","107","488094","0.0-26.0","SS1619739804274","math_question","","","","","","","","","","","","{""Q0"":""8""}","[0]","8","",""
"","null","html-keyboard-response","108","489216","0.0-27.0-0.0","SS1619739804274","","","null","","","","","","<p><img src= images/blank.png width =""600"" height = ""600"" style=""position:fixed;top:50%; left:50%; transform: translate(-50%, -50%); border:5px solid black"">","","","","","","","",""
"","1899.8650000430644","sequential-stimulus-presentation-old","109","506127","0.0-27.0-1.0","SS1619739804274","trial","","40","500","2399.8650000430644","images/stimuli/spore_stims/simple_05_A_b.gif","images/stimuli/spore_stims/simple_09_A_a.gif","forced_long","","9","simple_dissimilar","images/stimuli/spore_stims/simple_09_A_a.gif","","","","",""
"","null","html-keyboard-response","110","507073","0.0-27.0-0.1","SS1619739804274","","","null","","","","","","<p><img src= images/blank.png width =""600"" height = ""600"" style=""position:fixed;top:50%; left:50%; transform: translate(-50%, -50%); border:5px solid black"">","","","","","","","",""
"","619.2000000737607","sequential-stimulus-presentation-old","111","508206","0.0-27.0-1.1","SS1619739804274","trial","","40","500","1119.2000000737607","images/stimuli/spore_stims/simple_05_A_b.gif","images/stimuli/spore_stims/simple_09_A_a.gif","forced_long","","9","simple_dissimilar","images/stimuli/spore_stims/simple_05_A_b.gif","","","","",""
"","null","html-keyboard-response","112","509296","0.0-27.0-0.2","SS1619739804274","","","null","","","","","","<p><img src= images/blank.png width =""600"" height = ""600"" style=""position:fixed;top:50%; left:50%; transform: translate(-50%, -50%); border:5px solid black"">","","","","","","","",""
"","120.38999982178211","sequential-stimulus-presentation-old","113","509928","0.0-27.0-1.2","SS1619739804274","trial","","40","500","620.3899998217821","images/stimuli/spore_stims/simple_05_A_b.gif","images/stimuli/spore_stims/simple_09_A_a.gif","forced_long","","9","simple_dissimilar","images/stimuli/spore_stims/simple_09_A_a.gif","","","","",""
"","null","html-keyboard-response","114","510993","0.0-27.0-0.3","SS1619739804274","","","null","","","","","","<p><img src= images/blank.png width =""600"" height = ""600"" style=""position:fixed;top:50%; left:50%; transform: translate(-50%, -50%); border:5px solid black"">","","","","","","","",""
"","1141.2400002591312","sequential-stimulus-presentation-old","115","512641","0.0-27.0-1.3","SS1619739804274","trial","","40","500","1641.2400002591312","images/stimuli/spore_stims/simple_05_A_b.gif","images/stimuli/spore_stims/simple_09_A_a.gif","forced_long","","9","simple_dissimilar","images/stimuli/spore_stims/simple_09_A_a.gif","","","","",""
"","2788.9149999246","survey-multi-choice","116","515436","0.0-28.0","SS1619739804274","math_question","","","","","","","","","","","","{""Q0"":""7""}","[0]","7","",""
"","null","html-keyboard-response","117","516360","0.0-29.0-0.0","SS1619739804274","","","null","","","","","","<p><img src= images/blank.png width =""600"" height = ""600"" style=""position:fixed;top:50%; left:50%; transform: translate(-50%, -50%); border:5px solid black"">","","","","","","","",""
"","701.9249997101724","sequential-stimulus-presentation-old","118","517571","0.0-29.0-1.0","SS1619739804274","trial","","40","500","1201.9249997101724","images/stimuli/spore_stims/complex_08_A_a.gif","images/stimuli/spore_stims/complex_12_A_b.gif","forced_short","","10","complex_dissimilar","images/stimuli/spore_stims/complex_12_A_b.gif","","","","",""
"","null","html-keyboard-response","119","518780","0.0-29.0-0.1","SS1619739804274","","","null","","","","","","<p><img src= images/blank.png width =""600"" height = ""600"" style=""position:fixed;top:50%; left:50%; transform: translate(-50%, -50%); border:5px solid black"">","","","","","","","",""
"","53.9449998177588","sequential-stimulus-presentation-old","120","519344","0.0-29.0-1.1","SS1619739804274","trial","","40","500","553.9449998177588","images/stimuli/spore_stims/complex_08_A_a.gif","images/stimuli/spore_stims/complex_12_A_b.gif","forced_short","","10","complex_dissimilar","images/stimuli/spore_stims/complex_12_A_b.gif","","","","",""
"","null","html-keyboard-response","121","520208","0.0-29.0-0.2","SS1619739804274","","","null","","","","","","<p><img src= images/blank.png width =""600"" height = ""600"" style=""position:fixed;top:50%; left:50%; transform: translate(-50%, -50%); border:5px solid black"">","","","","","","","",""
"","220.55000020191073","sequential-stimulus-presentation-old","122","520935","0.0-29.0-1.2","SS1619739804274","trial","","40","500","720.5500002019107","images/stimuli/spore_stims/complex_08_A_a.gif","images/stimuli/spore_stims/complex_12_A_b.gif","forced_short","","10","complex_dissimilar","images/stimuli/spore_stims/complex_12_A_b.gif","","","","",""
"","null","html-keyboard-response","123","521906","0.0-29.0-0.3","SS1619739804274","","","null","","","","","","<p><img src= images/blank.png width =""600"" height = ""600"" style=""position:fixed;top:50%; left:50%; transform: translate(-50%, -50%); border:5px solid black"">","","","","","","","",""
"","859.1050002723932","sequential-stimulus-presentation-old","124","523273","0.0-29.0-1.3","SS1619739804274","trial","","40","500","1359.1050002723932","images/stimuli/spore_stims/complex_08_A_a.gif","images/stimuli/spore_stims/complex_12_A_b.gif","forced_short","","10","complex_dissimilar","images/stimuli/spore_stims/complex_12_A_b.gif","","","","",""
"","null","html-keyboard-response","125","524468","0.0-29.0-0.4","SS1619739804274","","","null","","","","","","<p><img src= images/blank.png width =""600"" height = ""600"" style=""position:fixed;top:50%; left:50%; transform: translate(-50%, -50%); border:5px solid black"">","","","","","","","",""
"","54.93499990552664","sequential-stimulus-presentation-old","126","525033","0.0-29.0-1.4","SS1619739804274","trial","","40","500","554.9349999055266","images/stimuli/spore_stims/complex_08_A_a.gif","images/stimuli/spore_stims/complex_12_A_b.gif","forced_short","","10","complex_dissimilar","images/stimuli/spore_stims/complex_12_A_b.gif","","","","",""
"","null","html-keyboard-response","127","526304","0.0-29.0-0.5","SS1619739804274","","","null","","","","","","<p><img src= images/blank.png width =""600"" height = ""600"" style=""position:fixed;top:50%; left:50%; transform: translate(-50%, -50%); border:5px solid black"">","","","","","","","",""
"","456.21500024572015","sequential-stimulus-presentation-old","128","527271","0.0-29.0-1.5","SS1619739804274","trial","","40","500","956.2150002457201","images/stimuli/spore_stims/complex_08_A_a.gif","images/stimuli/spore_stims/complex_12_A_b.gif","forced_short","","10","complex_dissimilar","images/stimuli/spore_stims/complex_08_A_a.gif","","","","",""
"","2773.104999680072","survey-multi-choice","129","530052","0.0-30.0","SS1619739804274","math_question","","","","","","","","","","","","{""Q0"":""11""}","[0]","11","",""
"","null","html-keyboard-response","130","530928","0.0-31.0-0.0","SS1619739804274","","","null","","","","","","<p><img src= images/blank.png width =""600"" height = ""600"" style=""position:fixed;top:50%; left:50%; transform: translate(-50%, -50%); border:5px solid black"">","","","","","","","",""
"","210.98999958485365","sequential-stimulus-presentation-old","131","531650","0.0-31.0-1.0","SS1619739804274","trial","","40","500","710.9899995848536","images/stimuli/spore_stims/simple_01_A_b.gif","images/stimuli/spore_stims/simple_03_A_a.gif","self_paced","","11","simple_dissimilar","images/stimuli/spore_stims/simple_03_A_a.gif","","","","",""
"","null","html-keyboard-response","132","532858","0.0-31.0-0.1","SS1619739804274","","","null","","","","","","<p><img src= images/blank.png width =""600"" height = ""600"" style=""position:fixed;top:50%; left:50%; transform: translate(-50%, -50%); border:5px solid black"">","","","","","","","",""
"","46.70500010251999","sequential-stimulus-presentation-old","133","533415","0.0-31.0-1.1","SS1619739804274","trial","","40","500","546.70500010252","images/stimuli/spore_stims/simple_01_A_b.gif","images/stimuli/spore_stims/simple_03_A_a.gif","self_paced","","11","simple_dissimilar","images/stimuli/spore_stims/simple_01_A_b.gif","","","","",""
"","null","html-keyboard-response","134","534395","0.0-31.0-0.2","SS1619739804274","","","null","","","","","","<p><img src= images/blank.png width =""600"" height = ""600"" style=""position:fixed;top:50%; left:50%; transform: translate(-50%, -50%); border:5px solid black"">","","","","","","","",""
"","2140.6000000424683","sequential-stimulus-presentation-old","135","537047","0.0-31.0-1.2","SS1619739804274","trial","","40","500","2640.6000000424683","images/stimuli/spore_stims/simple_01_A_b.gif","images/stimuli/spore_stims/simple_03_A_a.gif","self_paced","","11","simple_dissimilar","images/stimuli/spore_stims/simple_03_A_a.gif","","","","",""
"","null","html-keyboard-response","136","538194","0.0-31.0-0.3","SS1619739804274","","","null","","","","","","<p><img src= images/blank.png width =""600"" height = ""600"" style=""position:fixed;top:50%; left:50%; transform: translate(-50%, -50%); border:5px solid black"">","","","","","","","",""
"","30.7200001552701","sequential-stimulus-presentation-old","137","538734","0.0-31.0-1.3","SS1619739804274","trial","","40","500","530.7200001552701","images/stimuli/spore_stims/simple_01_A_b.gif","images/stimuli/spore_stims/simple_03_A_a.gif","self_paced","","11","simple_dissimilar","images/stimuli/spore_stims/simple_03_A_a.gif","","","","",""
"[{""page_index"":0,""viewing_time"":8636.849999893457}]","8637.635000050068","instructions","138","547378","0.0-32.0","SS1619739804274","instructions","","","","","","","","","","","","","","","",""
"","10695.610000286251","survey-likert","139","558087","0.0-33.0","SS1619739804274","similarity_question","","","","","","","","","","","","{""Q0"":4}","[0]","","images/stimuli/spore_stims/simple_20_A_b.gif","images/stimuli/spore_stims/simple_14_A_a.gif"
"","10905.840000137687","survey-likert","140","569022","0.0-34.0","SS1619739804274","similarity_question","","","","","","","","","","","","{""Q0"":1}","[0]","","images/stimuli/spore_stims/complex_12_A_b.gif","images/stimuli/spore_stims/complex_08_A_a.gif"
"","5185.97500026226","survey-likert","141","574239","0.0-35.0","SS1619739804274","similarity_question","","","","","","","","","","","","{""Q0"":1}","[0]","","images/stimuli/spore_stims/complex_14_A_b.gif","images/stimuli/spore_stims/complex_07_A_a.gif"
"","3581.484999973327","survey-likert","142","577850","0.0-36.0","SS1619739804274","similarity_question","","","","","","","","","","","","{""Q0"":0}","[0]","","images/stimuli/spore_stims/complex_11_A_a.gif","images/stimuli/spore_stims/complex_03_A_b.gif"
"","2909.3900001607835","survey-likert","143","580787","0.0-37.0","SS1619739804274","similarity_question","","","","","","","","","","","","{""Q0"":5}","[0]","","images/stimuli/spore_stims/simple_17_A_a.gif","images/stimuli/spore_stims/simple_06_A_b.gif"
"","2905.3500001318753","survey-likert","144","583725","0.0-38.0","SS1619739804274","similarity_question","","","","","","","","","","","","{""Q0"":6}","[0]","","images/stimuli/spore_stims/simple_05_A_b.gif","images/stimuli/spore_stims/simple_09_A_a.gif"
"","5289.605000056326","survey-likert","145","589041","0.0-39.0","SS1619739804274","similarity_question","","","","","","","","","","","","{""Q0"":3}","[0]","","images/stimuli/spore_stims/complex_10_A_b.gif","images/stimuli/spore_stims/complex_09_A_a.gif"
"","3981.475000269711","survey-likert","146","593050","0.0-40.0","SS1619739804274","similarity_question","","","","","","","","","","","","{""Q0"":5}","[0]","","images/stimuli/spore_stims/complex_04_A_a.gif","images/stimuli/spore_stims/complex_01_A_b.gif"
"","5329.460000153631","survey-likert","147","598407","0.0-41.0","SS1619739804274","similarity_question","","","","","","","","","","","","{""Q0"":2}","[0]","","images/stimuli/spore_stims/complex_06_A_a.gif","images/stimuli/spore_stims/complex_16_A_b.gif"
"","3546.2250001728535","survey-likert","148","601985","0.0-42.0","SS1619739804274","similarity_question","","","","","","","","","","","","{""Q0"":6}","[0]","","images/stimuli/spore_stims/simple_16_A_a.gif","images/stimuli/spore_stims/simple_08_A_b.gif"
"","4772.8650001809","survey-likert","149","606789","0.0-43.0","SS1619739804274","similarity_question","","","","","","","","","","","","{""Q0"":6}","[0]","","images/stimuli/spore_stims/simple_03_A_a.gif","images/stimuli/spore_stims/simple_01_A_b.gif"
"","3791.6399999521673","survey-likert","150","610609","0.0-44.0","SS1619739804274","similarity_question","","","","","","","","","","","","{""Q0"":5}","[0]","","images/stimuli/spore_stims/simple_15_A_a.gif","images/stimuli/spore_stims/simple_14_A_b.gif"
"[{""page_index"":0,""viewing_time"":6054.8350000754}]","6055.3899998776615","instructions","151","616693","0.0-45.0","SS1619739804274","instructions","","","","","","","","","","","","","","","",""
"","4086.6350000724196","survey-likert","152","620791","0.0-46.0","SS1619739804274","","","","","","","","","images/stimuli/spore_stims/complex_04_A_a.gif","","","","{""Q0"":5}","[0]","","",""
"","10335.699999704957","survey-likert","153","631153","0.0-47.0","SS1619739804274","","","","","","","","","images/stimuli/spore_stims/simple_08_A_b.gif","","","","{""Q0"":2}","[0]","","",""
"","4962.935000192374","survey-likert","154","636152","0.0-48.0","SS1619739804274","","","","","","","","","images/stimuli/spore_stims/complex_09_A_a.gif","","","","{""Q0"":5}","[0]","","",""
"","4437.959999777377","survey-likert","155","640620","0.0-49.0","SS1619739804274","","","","","","","","","images/stimuli/spore_stims/complex_12_A_b.gif","","","","{""Q0"":6}","[0]","","",""
"","4266.5399997495115","survey-likert","156","644917","0.0-50.0","SS1619739804274","","","","","","","","","images/stimuli/spore_stims/simple_05_A_b.gif","","","","{""Q0"":2}","[0]","","",""
"","4748.194999992847","survey-likert","157","649695","0.0-51.0","SS1619739804274","","","","","","","","","images/stimuli/spore_stims/complex_16_A_b.gif","","","","{""Q0"":6}","[0]","","",""
"","3391.419999767095","survey-likert","158","653115","0.0-52.0","SS1619739804274","","","","","","","","","images/stimuli/spore_stims/complex_07_A_a.gif","","","","{""Q0"":4}","[0]","","",""
"","4408.729999791831","survey-likert","159","657551","0.0-53.0","SS1619739804274","","","","","","","","","images/stimuli/spore_stims/simple_20_A_b.gif","","","","{""Q0"":1}","[0]","","",""
"","4381.080000195652","survey-likert","160","661964","0.0-54.0","SS1619739804274","","","","","","","","","images/stimuli/spore_stims/simple_17_A_a.gif","","","","{""Q0"":3}","[0]","","",""
"","3730.1649996079504","survey-likert","161","665724","0.0-55.0","SS1619739804274","","","","","","","","","images/stimuli/spore_stims/complex_11_A_a.gif","","","","{""Q0"":3}","[0]","","",""
"","2484.1649997979403","survey-likert","162","668237","0.0-56.0","SS1619739804274","","","","","","","","","images/stimuli/spore_stims/simple_03_A_a.gif","","","","{""Q0"":2}","[0]","","",""
"","2105.11999996379","survey-likert","163","670373","0.0-57.0","SS1619739804274","","","","","","","","","images/stimuli/spore_stims/simple_14_A_b.gif","","","","{""Q0"":2}","[0]","","",""
"[{""page_index"":0,""viewing_time"":2970.420000143349}]","2971.1700002662838","instructions","164","673370","0.0-58.0","SS1619739804274","instructions","","","","","","","","","","","","","","","",""
"","3364.13999972865","demog-age","165","676754","0.0-59.0","SS1619739804274","","","","","","","","","","","","","{""age"":""25""}","","","",""
"","5618.64999961108","demog-ethnic-US","166","682393","0.0-60.0","SS1619739804274","","","","","","","","","","","","","{""ethnicity"":[""White""]}","[0]","","",""
"","9908.709999639541","demog-gender-and-education","167","692336","0.0-61.0","SS1619739804274","","","","","","","","","","","","","{""gender"":""Male"",""education"":""Master's Degree""}","[0,1]","","",""
"","18247.58999980986","survey-text","168","710600","0.0-62.0","SS1619739804274","feedback","","","","","","","","","","","","{""Q0"":""No""}","","","",""
"[{""page_index"":0,""viewing_time"":4070.9849996492267}]","4071.6200000606477","instructions","169","714681","0.0-63.0","SS1619739804274","instructions","","","","","","","","","","","","","","","",""
