"view_history","rt","trial_type","trial_index","time_elapsed","internal_node_id","subject","stimulus_type","trial_stimulus","key_press","minimum_viewing_duration","trial_looking_time","block_deviant","block_background","exposure_type","stimulus","block_number","block_type","stimulus_displayed","responses","question_order","math_correct_answer","stimulus_left","stimulus_right"
"[{""page_index"":0,""viewing_time"":15974.415000062436}]","15975.785000016913","instructions","0","15978","0.0-0.0","SS1619739611736","","","","","","","","","","","","","","","","",""
"[{""page_index"":0,""viewing_time"":15162.144999951124},{""page_index"":1,""viewing_time"":8664.22999999486}]","23826.660000020638","instructions","1","41813","0.0-1.0","SS1619739611736","instructions","","","","","","","","","","","","","","","",""
"","8199.31500009261","sequential-stimulus-presentation-old","2","50526","0.0-2.0","SS1619739611736","","","40","500","8699.31500009261","null","null","self_paced","","","","","","","","",""
"","3786.2450000829995","sequential-stimulus-presentation-old","3","54815","0.0-3.0","SS1619739611736","","","40","500","4286.2450000829995","null","null","self_paced","","","","","","","","",""
"[{""page_index"":0,""viewing_time"":16353.00000011921}]","16353.340000147","instructions","4","71170","0.0-4.0","SS1619739611736","instructions","","","","","","","","","","","","","","","",""
"","7037.230000132695","sequential-stimulus-presentation-old","5","93211","0.0-5.0","SS1619739611736","","","40","500","7537.230000132695","null","null","forced_long","","","","","","","","",""
"","1574.3749998509884","sequential-stimulus-presentation-old","6","95289","0.0-6.0","SS1619739611736","","","40","500","2074.3749998509884","null","null","forced_long","","","","","","","","",""
"[{""page_index"":0,""viewing_time"":2769.3899997975677}]","2769.68999998644","instructions","7","98060","0.0-7.0","SS1619739611736","instructions","","","","","","","","","","","","","","","",""
"[{""page_index"":0,""viewing_time"":9865.11000012979},{""page_index"":1,""viewing_time"":9070.764999836683},{""page_index"":2,""viewing_time"":5717.059999937192},{""page_index"":3,""viewing_time"":2554.550000000745},{""page_index"":4,""viewing_time"":1637.685000197962}]","28845.475000096485","instructions","8","126907","0.0-8.0","SS1619739611736","instructions","","","","","","","","","","","","","","","",""
"","null","html-keyboard-response","9","127909","0.0-9.0-0.0","SS1619739611736","","","null","","","","","","<p><img src= images/blank.png width =""600"" height = ""600"" style=""position:fixed;top:50%; left:50%; transform: translate(-50%, -50%); border:5px solid black"">","","","","","","","",""
"","50314.29500016384","sequential-stimulus-presentation-old","10","178738","0.0-9.0-1.0","SS1619739611736","trial","","40","500","50814.29500016384","images/stimuli/spore_stims/simple_05_A_b.gif","images/stimuli/spore_stims/simple_18_A_a.gif","self_paced","","0","simple_dissimilar","images/stimuli/spore_stims/simple_18_A_a.gif","","","","",""
"","null","html-keyboard-response","11","179642","0.0-9.0-0.1","SS1619739611736","","","null","","","","","","<p><img src= images/blank.png width =""600"" height = ""600"" style=""position:fixed;top:50%; left:50%; transform: translate(-50%, -50%); border:5px solid black"">","","","","","","","",""
"","4230.599999893457","sequential-stimulus-presentation-old","12","184380","0.0-9.0-1.1","SS1619739611736","trial","","40","500","4730.599999893457","images/stimuli/spore_stims/simple_05_A_b.gif","images/stimuli/spore_stims/simple_18_A_a.gif","self_paced","","0","simple_dissimilar","images/stimuli/spore_stims/simple_18_A_a.gif","","","","",""
"","null","html-keyboard-response","13","185595","0.0-9.0-0.2","SS1619739611736","","","null","","","","","","<p><img src= images/blank.png width =""600"" height = ""600"" style=""position:fixed;top:50%; left:50%; transform: translate(-50%, -50%); border:5px solid black"">","","","","","","","",""
"","29574.48499999009","sequential-stimulus-presentation-old","14","215681","0.0-9.0-1.2","SS1619739611736","trial","","40","500","30074.48499999009","images/stimuli/spore_stims/simple_05_A_b.gif","images/stimuli/spore_stims/simple_18_A_a.gif","self_paced","","0","simple_dissimilar","images/stimuli/spore_stims/simple_18_A_a.gif","","","","",""
"","null","html-keyboard-response","15","216695","0.0-9.0-0.3","SS1619739611736","","","null","","","","","","<p><img src= images/blank.png width =""600"" height = ""600"" style=""position:fixed;top:50%; left:50%; transform: translate(-50%, -50%); border:5px solid black"">","","","","","","","",""
"","54474.985000211746","sequential-stimulus-presentation-old","16","271681","0.0-9.0-1.3","SS1619739611736","trial","","40","500","54974.985000211746","images/stimuli/spore_stims/simple_05_A_b.gif","images/stimuli/spore_stims/simple_18_A_a.gif","self_paced","","0","simple_dissimilar","images/stimuli/spore_stims/simple_18_A_a.gif","","","","",""
"","null","html-keyboard-response","17","272491","0.0-9.0-0.4","SS1619739611736","","","null","","","","","","<p><img src= images/blank.png width =""600"" height = ""600"" style=""position:fixed;top:50%; left:50%; transform: translate(-50%, -50%); border:5px solid black"">","","","","","","","",""
"","3925.425000023097","sequential-stimulus-presentation-old","18","276925","0.0-9.0-1.4","SS1619739611736","trial","","40","500","4425.425000023097","images/stimuli/spore_stims/simple_05_A_b.gif","images/stimuli/spore_stims/simple_18_A_a.gif","self_paced","","0","simple_dissimilar","images/stimuli/spore_stims/simple_18_A_a.gif","","","","",""
"","8091.59000008367","survey-multi-choice","19","285023","0.0-10.0","SS1619739611736","math_question","","","","","","","","","","","","{""Q0"":""11""}","[0]","11","",""
"","null","html-keyboard-response","20","285931","0.0-11.0-0.0","SS1619739611736","","","null","","","","","","<p><img src= images/blank.png width =""600"" height = ""600"" style=""position:fixed;top:50%; left:50%; transform: translate(-50%, -50%); border:5px solid black"">","","","","","","","",""
"","2447.484999895096","sequential-stimulus-presentation-old","21","288891","0.0-11.0-1.0","SS1619739611736","trial","","40","500","2947.484999895096","images/stimuli/spore_stims/simple_20_A_b.gif","images/stimuli/spore_stims/simple_01_A_a.gif","forced_short","","1","simple_dissimilar","images/stimuli/spore_stims/simple_01_A_a.gif","","","","",""
"","null","html-keyboard-response","22","290040","0.0-11.0-0.1","SS1619739611736","","","null","","","","","","<p><img src= images/blank.png width =""600"" height = ""600"" style=""position:fixed;top:50%; left:50%; transform: translate(-50%, -50%); border:5px solid black"">","","","","","","","",""
"","6451.594999991357","sequential-stimulus-presentation-old","23","297001","0.0-11.0-1.1","SS1619739611736","trial","","40","500","6951.594999991357","images/stimuli/spore_stims/simple_20_A_b.gif","images/stimuli/spore_stims/simple_01_A_a.gif","forced_short","","1","simple_dissimilar","images/stimuli/spore_stims/simple_01_A_a.gif","","","","",""
"","null","html-keyboard-response","24","297908","0.0-11.0-0.2","SS1619739611736","","","null","","","","","","<p><img src= images/blank.png width =""600"" height = ""600"" style=""position:fixed;top:50%; left:50%; transform: translate(-50%, -50%); border:5px solid black"">","","","","","","","",""
"","7869.865000015125","sequential-stimulus-presentation-old","25","306288","0.0-11.0-1.2","SS1619739611736","trial","","40","500","8369.865000015125","images/stimuli/spore_stims/simple_20_A_b.gif","images/stimuli/spore_stims/simple_01_A_a.gif","forced_short","","1","simple_dissimilar","images/stimuli/spore_stims/simple_01_A_a.gif","","","","",""
"","null","html-keyboard-response","26","307314","0.0-11.0-0.3","SS1619739611736","","","null","","","","","","<p><img src= images/blank.png width =""600"" height = ""600"" style=""position:fixed;top:50%; left:50%; transform: translate(-50%, -50%); border:5px solid black"">","","","","","","","",""
"","8545.165000017732","sequential-stimulus-presentation-old","27","316374","0.0-11.0-1.3","SS1619739611736","trial","","40","500","9045.165000017732","images/stimuli/spore_stims/simple_20_A_b.gif","images/stimuli/spore_stims/simple_01_A_a.gif","forced_short","","1","simple_dissimilar","images/stimuli/spore_stims/simple_01_A_a.gif","","","","",""
"","null","html-keyboard-response","28","317321","0.0-11.0-0.4","SS1619739611736","","","null","","","","","","<p><img src= images/blank.png width =""600"" height = ""600"" style=""position:fixed;top:50%; left:50%; transform: translate(-50%, -50%); border:5px solid black"">","","","","","","","",""
"","10314.630000153556","sequential-stimulus-presentation-old","29","328151","0.0-11.0-1.4","SS1619739611736","trial","","40","500","10814.630000153556","images/stimuli/spore_stims/simple_20_A_b.gif","images/stimuli/spore_stims/simple_01_A_a.gif","forced_short","","1","simple_dissimilar","images/stimuli/spore_stims/simple_01_A_a.gif","","","","",""
"","3354.9699999857694","survey-multi-choice","30","331509","0.0-12.0","SS1619739611736","math_question","","","","","","","","","","","","{""Q0"":""6""}","[0]","6","",""
"","null","html-keyboard-response","31","332532","0.0-13.0-0.0","SS1619739611736","","","null","","","","","","<p><img src= images/blank.png width =""600"" height = ""600"" style=""position:fixed;top:50%; left:50%; transform: translate(-50%, -50%); border:5px solid black"">","","","","","","","",""
"","2679.8099998850375","sequential-stimulus-presentation-old","32","335718","0.0-13.0-1.0","SS1619739611736","trial","","40","500","3179.8099998850375","images/stimuli/spore_stims/complex_19_A_a.gif","images/stimuli/spore_stims/complex_17_A_b.gif","forced_short","","2","complex_dissimilar","images/stimuli/spore_stims/complex_17_A_b.gif","","","","",""
"","null","html-keyboard-response","33","336625","0.0-13.0-0.1","SS1619739611736","","","null","","","","","","<p><img src= images/blank.png width =""600"" height = ""600"" style=""position:fixed;top:50%; left:50%; transform: translate(-50%, -50%); border:5px solid black"">","","","","","","","",""
"","7673.085000133142","sequential-stimulus-presentation-old","34","344806","0.0-13.0-1.1","SS1619739611736","trial","","40","500","8173.085000133142","images/stimuli/spore_stims/complex_19_A_a.gif","images/stimuli/spore_stims/complex_17_A_b.gif","forced_short","","2","complex_dissimilar","images/stimuli/spore_stims/complex_17_A_b.gif","","","","",""
"","null","html-keyboard-response","35","345720","0.0-13.0-0.2","SS1619739611736","","","null","","","","","","<p><img src= images/blank.png width =""600"" height = ""600"" style=""position:fixed;top:50%; left:50%; transform: translate(-50%, -50%); border:5px solid black"">","","","","","","","",""
"","4590.4399999417365","sequential-stimulus-presentation-old","36","350824","0.0-13.0-1.2","SS1619739611736","trial","","40","500","5090.4399999417365","images/stimuli/spore_stims/complex_19_A_a.gif","images/stimuli/spore_stims/complex_17_A_b.gif","forced_short","","2","complex_dissimilar","images/stimuli/spore_stims/complex_19_A_a.gif","","","","",""
"","null","html-keyboard-response","37","351720","0.0-13.0-0.3","SS1619739611736","","","null","","","","","","<p><img src= images/blank.png width =""600"" height = ""600"" style=""position:fixed;top:50%; left:50%; transform: translate(-50%, -50%); border:5px solid black"">","","","","","","","",""
"","10214.060000143945","sequential-stimulus-presentation-old","38","362441","0.0-13.0-1.3","SS1619739611736","trial","","40","500","10714.060000143945","images/stimuli/spore_stims/complex_19_A_a.gif","images/stimuli/spore_stims/complex_17_A_b.gif","forced_short","","2","complex_dissimilar","images/stimuli/spore_stims/complex_19_A_a.gif","","","","",""
"","null","html-keyboard-response","39","363483","0.0-13.0-0.4","SS1619739611736","","","null","","","","","","<p><img src= images/blank.png width =""600"" height = ""600"" style=""position:fixed;top:50%; left:50%; transform: translate(-50%, -50%); border:5px solid black"">","","","","","","","",""
"","12180.459999945015","sequential-stimulus-presentation-old","40","376178","0.0-13.0-1.4","SS1619739611736","trial","","40","500","12680.459999945015","images/stimuli/spore_stims/complex_19_A_a.gif","images/stimuli/spore_stims/complex_17_A_b.gif","forced_short","","2","complex_dissimilar","images/stimuli/spore_stims/complex_17_A_b.gif","","","","",""
"","null","html-keyboard-response","41","377450","0.0-13.0-0.5","SS1619739611736","","","null","","","","","","<p><img src= images/blank.png width =""600"" height = ""600"" style=""position:fixed;top:50%; left:50%; transform: translate(-50%, -50%); border:5px solid black"">","","","","","","","",""
"","7438.904999988154","sequential-stimulus-presentation-old","42","385401","0.0-13.0-1.5","SS1619739611736","trial","","40","500","7938.904999988154","images/stimuli/spore_stims/complex_19_A_a.gif","images/stimuli/spore_stims/complex_17_A_b.gif","forced_short","","2","complex_dissimilar","images/stimuli/spore_stims/complex_17_A_b.gif","","","","",""
"","2745.9900001995265","survey-multi-choice","43","388151","0.0-14.0","SS1619739611736","math_question","","","","","","","","","","","","{""Q0"":""9""}","[0]","9","",""
"","null","html-keyboard-response","44","389345","0.0-15.0-0.0","SS1619739611736","","","null","","","","","","<p><img src= images/blank.png width =""600"" height = ""600"" style=""position:fixed;top:50%; left:50%; transform: translate(-50%, -50%); border:5px solid black"">","","","","","","","",""
"","5313.224999932572","sequential-stimulus-presentation-old","45","395169","0.0-15.0-1.0","SS1619739611736","trial","","40","500","5813.224999932572","images/stimuli/spore_stims/complex_02_A_b.gif","images/stimuli/spore_stims/complex_11_A_a.gif","self_paced","","3","complex_dissimilar","images/stimuli/spore_stims/complex_11_A_a.gif","","","","",""
"","null","html-keyboard-response","46","396446","0.0-15.0-0.1","SS1619739611736","","","null","","","","","","<p><img src= images/blank.png width =""600"" height = ""600"" style=""position:fixed;top:50%; left:50%; transform: translate(-50%, -50%); border:5px solid black"">","","","","","","","",""
"","3169.8399998713285","sequential-stimulus-presentation-old","47","400128","0.0-15.0-1.1","SS1619739611736","trial","","40","500","3669.8399998713285","images/stimuli/spore_stims/complex_02_A_b.gif","images/stimuli/spore_stims/complex_11_A_a.gif","self_paced","","3","complex_dissimilar","images/stimuli/spore_stims/complex_11_A_a.gif","","","","",""
"","null","html-keyboard-response","48","400944","0.0-15.0-0.2","SS1619739611736","","","null","","","","","","<p><img src= images/blank.png width =""600"" height = ""600"" style=""position:fixed;top:50%; left:50%; transform: translate(-50%, -50%); border:5px solid black"">","","","","","","","",""
"","3976.310000056401","sequential-stimulus-presentation-old","49","405430","0.0-15.0-1.2","SS1619739611736","trial","","40","500","4476.310000056401","images/stimuli/spore_stims/complex_02_A_b.gif","images/stimuli/spore_stims/complex_11_A_a.gif","self_paced","","3","complex_dissimilar","images/stimuli/spore_stims/complex_11_A_a.gif","","","","",""
"","null","html-keyboard-response","50","406609","0.0-15.0-0.3","SS1619739611736","","","null","","","","","","<p><img src= images/blank.png width =""600"" height = ""600"" style=""position:fixed;top:50%; left:50%; transform: translate(-50%, -50%); border:5px solid black"">","","","","","","","",""
"","8135.185000021011","sequential-stimulus-presentation-old","51","415257","0.0-15.0-1.3","SS1619739611736","trial","","40","500","8635.18500002101","images/stimuli/spore_stims/complex_02_A_b.gif","images/stimuli/spore_stims/complex_11_A_a.gif","self_paced","","3","complex_dissimilar","images/stimuli/spore_stims/complex_11_A_a.gif","","","","",""
"","null","html-keyboard-response","52","416413","0.0-15.0-0.4","SS1619739611736","","","null","","","","","","<p><img src= images/blank.png width =""600"" height = ""600"" style=""position:fixed;top:50%; left:50%; transform: translate(-50%, -50%); border:5px solid black"">","","","","","","","",""
"","4470.264999894425","sequential-stimulus-presentation-old","53","421394","0.0-15.0-1.4","SS1619739611736","trial","","40","500","4970.264999894425","images/stimuli/spore_stims/complex_02_A_b.gif","images/stimuli/spore_stims/complex_11_A_a.gif","self_paced","","3","complex_dissimilar","images/stimuli/spore_stims/complex_11_A_a.gif","","","","",""
"","null","html-keyboard-response","54","422415","0.0-15.0-0.5","SS1619739611736","","","null","","","","","","<p><img src= images/blank.png width =""600"" height = ""600"" style=""position:fixed;top:50%; left:50%; transform: translate(-50%, -50%); border:5px solid black"">","","","","","","","",""
"","7778.70999998413","sequential-stimulus-presentation-old","55","430704","0.0-15.0-1.5","SS1619739611736","trial","","40","500","8278.70999998413","images/stimuli/spore_stims/complex_02_A_b.gif","images/stimuli/spore_stims/complex_11_A_a.gif","self_paced","","3","complex_dissimilar","images/stimuli/spore_stims/complex_11_A_a.gif","","","","",""
"","5921.209999825805","survey-multi-choice","56","436629","0.0-16.0","SS1619739611736","math_question","","","","","","","","","","","","{""Q0"":""14""}","[0]","14","",""
"","null","html-keyboard-response","57","437730","0.0-17.0-0.0","SS1619739611736","","","null","","","","","","<p><img src= images/blank.png width =""600"" height = ""600"" style=""position:fixed;top:50%; left:50%; transform: translate(-50%, -50%); border:5px solid black"">","","","","","","","",""
"","6473.585000028834","sequential-stimulus-presentation-old","58","459217","0.0-17.0-1.0","SS1619739611736","trial","","40","500","6973.585000028834","images/stimuli/spore_stims/simple_17_A_a.gif","images/stimuli/spore_stims/simple_07_A_b.gif","forced_long","","4","simple_dissimilar","images/stimuli/spore_stims/simple_07_A_b.gif","","","","",""
"","null","html-keyboard-response","59","460114","0.0-17.0-0.1","SS1619739611736","","","null","","","","","","<p><img src= images/blank.png width =""600"" height = ""600"" style=""position:fixed;top:50%; left:50%; transform: translate(-50%, -50%); border:5px solid black"">","","","","","","","",""
"","12812.494999961928","sequential-stimulus-presentation-old","60","473431","0.0-17.0-1.1","SS1619739611736","trial","","40","500","13312.494999961928","images/stimuli/spore_stims/simple_17_A_a.gif","images/stimuli/spore_stims/simple_07_A_b.gif","forced_long","","4","simple_dissimilar","images/stimuli/spore_stims/simple_07_A_b.gif","","","","",""
"","null","html-keyboard-response","61","474295","0.0-17.0-0.2","SS1619739611736","","","null","","","","","","<p><img src= images/blank.png width =""600"" height = ""600"" style=""position:fixed;top:50%; left:50%; transform: translate(-50%, -50%); border:5px solid black"">","","","","","","","",""
"","7595.410000067204","sequential-stimulus-presentation-old","62","482401","0.0-17.0-1.2","SS1619739611736","trial","","40","500","8095.410000067204","images/stimuli/spore_stims/simple_17_A_a.gif","images/stimuli/spore_stims/simple_07_A_b.gif","forced_long","","4","simple_dissimilar","images/stimuli/spore_stims/simple_07_A_b.gif","","","","",""
"","null","html-keyboard-response","63","483454","0.0-17.0-0.3","SS1619739611736","","","null","","","","","","<p><img src= images/blank.png width =""600"" height = ""600"" style=""position:fixed;top:50%; left:50%; transform: translate(-50%, -50%); border:5px solid black"">","","","","","","","",""
"","5132.845000131056","sequential-stimulus-presentation-old","64","489094","0.0-17.0-1.3","SS1619739611736","trial","","40","500","5632.845000131056","images/stimuli/spore_stims/simple_17_A_a.gif","images/stimuli/spore_stims/simple_07_A_b.gif","forced_long","","4","simple_dissimilar","images/stimuli/spore_stims/simple_17_A_a.gif","","","","",""
"","null","html-keyboard-response","65","490018","0.0-17.0-0.4","SS1619739611736","","","null","","","","","","<p><img src= images/blank.png width =""600"" height = ""600"" style=""position:fixed;top:50%; left:50%; transform: translate(-50%, -50%); border:5px solid black"">","","","","","","","",""
"","5191.025000065565","sequential-stimulus-presentation-old","66","495715","0.0-17.0-1.4","SS1619739611736","trial","","40","500","5691.025000065565","images/stimuli/spore_stims/simple_17_A_a.gif","images/stimuli/spore_stims/simple_07_A_b.gif","forced_long","","4","simple_dissimilar","images/stimuli/spore_stims/simple_17_A_a.gif","","","","",""
"","4075.389999896288","survey-multi-choice","67","499794","0.0-18.0","SS1619739611736","math_question","","","","","","","","","","","","{""Q0"":""13""}","[0]","13","",""
"","null","html-keyboard-response","68","501030","0.0-19.0-0.0","SS1619739611736","","","null","","","","","","<p><img src= images/blank.png width =""600"" height = ""600"" style=""position:fixed;top:50%; left:50%; transform: translate(-50%, -50%); border:5px solid black"">","","","","","","","",""
"","3754.1650000493973","sequential-stimulus-presentation-old","69","505296","0.0-19.0-1.0","SS1619739611736","trial","","40","500","4254.165000049397","images/stimuli/spore_stims/simple_11_A_a.gif","images/stimuli/spore_stims/simple_16_A_b.gif","self_paced","","5","simple_dissimilar","images/stimuli/spore_stims/simple_16_A_b.gif","","","","",""
"","null","html-keyboard-response","70","506348","0.0-19.0-0.1","SS1619739611736","","","null","","","","","","<p><img src= images/blank.png width =""600"" height = ""600"" style=""position:fixed;top:50%; left:50%; transform: translate(-50%, -50%); border:5px solid black"">","","","","","","","",""
"","5196.969999931753","sequential-stimulus-presentation-old","71","512054","0.0-19.0-1.1","SS1619739611736","trial","","40","500","5696.969999931753","images/stimuli/spore_stims/simple_11_A_a.gif","images/stimuli/spore_stims/simple_16_A_b.gif","self_paced","","5","simple_dissimilar","images/stimuli/spore_stims/simple_16_A_b.gif","","","","",""
"","null","html-keyboard-response","72","513292","0.0-19.0-0.2","SS1619739611736","","","null","","","","","","<p><img src= images/blank.png width =""600"" height = ""600"" style=""position:fixed;top:50%; left:50%; transform: translate(-50%, -50%); border:5px solid black"">","","","","","","","",""
"","4719.120000023395","sequential-stimulus-presentation-old","73","518520","0.0-19.0-1.2","SS1619739611736","trial","","40","500","5219.120000023395","images/stimuli/spore_stims/simple_11_A_a.gif","images/stimuli/spore_stims/simple_16_A_b.gif","self_paced","","5","simple_dissimilar","images/stimuli/spore_stims/simple_16_A_b.gif","","","","",""
"","null","html-keyboard-response","74","519733","0.0-19.0-0.3","SS1619739611736","","","null","","","","","","<p><img src= images/blank.png width =""600"" height = ""600"" style=""position:fixed;top:50%; left:50%; transform: translate(-50%, -50%); border:5px solid black"">","","","","","","","",""
"","3931.3349998556077","sequential-stimulus-presentation-old","75","524179","0.0-19.0-1.3","SS1619739611736","trial","","40","500","4431.334999855608","images/stimuli/spore_stims/simple_11_A_a.gif","images/stimuli/spore_stims/simple_16_A_b.gif","self_paced","","5","simple_dissimilar","images/stimuli/spore_stims/simple_16_A_b.gif","","","","",""
"","null","html-keyboard-response","76","525015","0.0-19.0-0.4","SS1619739611736","","","null","","","","","","<p><img src= images/blank.png width =""600"" height = ""600"" style=""position:fixed;top:50%; left:50%; transform: translate(-50%, -50%); border:5px solid black"">","","","","","","","",""
"","5800.139999948442","sequential-stimulus-presentation-old","77","531333","0.0-19.0-1.4","SS1619739611736","trial","","40","500","6300.139999948442","images/stimuli/spore_stims/simple_11_A_a.gif","images/stimuli/spore_stims/simple_16_A_b.gif","self_paced","","5","simple_dissimilar","images/stimuli/spore_stims/simple_11_A_a.gif","","","","",""
"","3180.960000026971","survey-multi-choice","78","534518","0.0-20.0","SS1619739611736","math_question","","","","","","","","","","","","{""Q0"":""8""}","[0]","8","",""
"","null","html-keyboard-response","79","535497","0.0-21.0-0.0","SS1619739611736","","","null","","","","","","<p><img src= images/blank.png width =""600"" height = ""600"" style=""position:fixed;top:50%; left:50%; transform: translate(-50%, -50%); border:5px solid black"">","","","","","","","",""
"","1235.4949999134988","sequential-stimulus-presentation-old","80","551751","0.0-21.0-1.0","SS1619739611736","trial","","40","500","1735.4949999134988","images/stimuli/spore_stims/complex_13_A_b.gif","images/stimuli/spore_stims/complex_14_A_a.gif","forced_long","","6","complex_dissimilar","images/stimuli/spore_stims/complex_14_A_a.gif","","","","",""
"","null","html-keyboard-response","81","552683","0.0-21.0-0.1","SS1619739611736","","","null","","","","","","<p><img src= images/blank.png width =""600"" height = ""600"" style=""position:fixed;top:50%; left:50%; transform: translate(-50%, -50%); border:5px solid black"">","","","","","","","",""
"","5529.924999922514","sequential-stimulus-presentation-old","82","558727","0.0-21.0-1.1","SS1619739611736","trial","","40","500","6029.924999922514","images/stimuli/spore_stims/complex_13_A_b.gif","images/stimuli/spore_stims/complex_14_A_a.gif","forced_long","","6","complex_dissimilar","images/stimuli/spore_stims/complex_14_A_a.gif","","","","",""
"","null","html-keyboard-response","83","559850","0.0-21.0-0.2","SS1619739611736","","","null","","","","","","<p><img src= images/blank.png width =""600"" height = ""600"" style=""position:fixed;top:50%; left:50%; transform: translate(-50%, -50%); border:5px solid black"">","","","","","","","",""
"","4639.5999998785555","sequential-stimulus-presentation-old","84","564997","0.0-21.0-1.2","SS1619739611736","trial","","40","500","5139.5999998785555","images/stimuli/spore_stims/complex_13_A_b.gif","images/stimuli/spore_stims/complex_14_A_a.gif","forced_long","","6","complex_dissimilar","images/stimuli/spore_stims/complex_14_A_a.gif","","","","",""
"","null","html-keyboard-response","85","565824","0.0-21.0-0.3","SS1619739611736","","","null","","","","","","<p><img src= images/blank.png width =""600"" height = ""600"" style=""position:fixed;top:50%; left:50%; transform: translate(-50%, -50%); border:5px solid black"">","","","","","","","",""
"","9214.945000130683","sequential-stimulus-presentation-old","86","575553","0.0-21.0-1.3","SS1619739611736","trial","","40","500","9714.945000130683","images/stimuli/spore_stims/complex_13_A_b.gif","images/stimuli/spore_stims/complex_14_A_a.gif","forced_long","","6","complex_dissimilar","images/stimuli/spore_stims/complex_14_A_a.gif","","","","",""
"","null","html-keyboard-response","87","576737","0.0-21.0-0.4","SS1619739611736","","","null","","","","","","<p><img src= images/blank.png width =""600"" height = ""600"" style=""position:fixed;top:50%; left:50%; transform: translate(-50%, -50%); border:5px solid black"">","","","","","","","",""
"","5452.270000008866","sequential-stimulus-presentation-old","88","582695","0.0-21.0-1.4","SS1619739611736","trial","","40","500","5952.270000008866","images/stimuli/spore_stims/complex_13_A_b.gif","images/stimuli/spore_stims/complex_14_A_a.gif","forced_long","","6","complex_dissimilar","images/stimuli/spore_stims/complex_14_A_a.gif","","","","",""
"","6296.06999992393","survey-multi-choice","89","588995","0.0-22.0","SS1619739611736","math_question","","","","","","","","","","","","{""Q0"":""13""}","[0]","13","",""
"","null","html-keyboard-response","90","590217","0.0-23.0-0.0","SS1619739611736","","","null","","","","","","<p><img src= images/blank.png width =""600"" height = ""600"" style=""position:fixed;top:50%; left:50%; transform: translate(-50%, -50%); border:5px solid black"">","","","","","","","",""
"","3494.870000053197","sequential-stimulus-presentation-old","91","608722","0.0-23.0-1.0","SS1619739611736","trial","","40","500","3994.870000053197","images/stimuli/spore_stims/complex_20_A_a.gif","images/stimuli/spore_stims/complex_05_A_b.gif","forced_long","","7","complex_dissimilar","images/stimuli/spore_stims/complex_05_A_b.gif","","","","",""
"","null","html-keyboard-response","92","609977","0.0-23.0-0.1","SS1619739611736","","","null","","","","","","<p><img src= images/blank.png width =""600"" height = ""600"" style=""position:fixed;top:50%; left:50%; transform: translate(-50%, -50%); border:5px solid black"">","","","","","","","",""
"","9572.935000061989","sequential-stimulus-presentation-old","93","620060","0.0-23.0-1.1","SS1619739611736","trial","","40","500","10072.935000061989","images/stimuli/spore_stims/complex_20_A_a.gif","images/stimuli/spore_stims/complex_05_A_b.gif","forced_long","","7","complex_dissimilar","images/stimuli/spore_stims/complex_05_A_b.gif","","","","",""
"","null","html-keyboard-response","94","621197","0.0-23.0-0.2","SS1619739611736","","","null","","","","","","<p><img src= images/blank.png width =""600"" height = ""600"" style=""position:fixed;top:50%; left:50%; transform: translate(-50%, -50%); border:5px solid black"">","","","","","","","",""
"","4812.069999985397","sequential-stimulus-presentation-old","95","626514","0.0-23.0-1.2","SS1619739611736","trial","","40","500","5312.069999985397","images/stimuli/spore_stims/complex_20_A_a.gif","images/stimuli/spore_stims/complex_05_A_b.gif","forced_long","","7","complex_dissimilar","images/stimuli/spore_stims/complex_05_A_b.gif","","","","",""
"","null","html-keyboard-response","96","627489","0.0-23.0-0.3","SS1619739611736","","","null","","","","","","<p><img src= images/blank.png width =""600"" height = ""600"" style=""position:fixed;top:50%; left:50%; transform: translate(-50%, -50%); border:5px solid black"">","","","","","","","",""
"","7894.500000169501","sequential-stimulus-presentation-old","97","635894","0.0-23.0-1.3","SS1619739611736","trial","","40","500","8394.5000001695","images/stimuli/spore_stims/complex_20_A_a.gif","images/stimuli/spore_stims/complex_05_A_b.gif","forced_long","","7","complex_dissimilar","images/stimuli/spore_stims/complex_05_A_b.gif","","","","",""
"","null","html-keyboard-response","98","637193","0.0-23.0-0.4","SS1619739611736","","","null","","","","","","<p><img src= images/blank.png width =""600"" height = ""600"" style=""position:fixed;top:50%; left:50%; transform: translate(-50%, -50%); border:5px solid black"">","","","","","","","",""
"","3488.6200001928955","sequential-stimulus-presentation-old","99","641199","0.0-23.0-1.4","SS1619739611736","trial","","40","500","3988.6200001928955","images/stimuli/spore_stims/complex_20_A_a.gif","images/stimuli/spore_stims/complex_05_A_b.gif","forced_long","","7","complex_dissimilar","images/stimuli/spore_stims/complex_05_A_b.gif","","","","",""
"","null","html-keyboard-response","100","642358","0.0-23.0-0.5","SS1619739611736","","","null","","","","","","<p><img src= images/blank.png width =""600"" height = ""600"" style=""position:fixed;top:50%; left:50%; transform: translate(-50%, -50%); border:5px solid black"">","","","","","","","",""
"","3103.15000009723","sequential-stimulus-presentation-old","101","645984","0.0-23.0-1.5","SS1619739611736","trial","","40","500","3603.15000009723","images/stimuli/spore_stims/complex_20_A_a.gif","images/stimuli/spore_stims/complex_05_A_b.gif","forced_long","","7","complex_dissimilar","images/stimuli/spore_stims/complex_05_A_b.gif","","","","",""
"","9455.130000133067","survey-multi-choice","102","655444","0.0-24.0","SS1619739611736","math_question","","","","","","","","","","","","{""Q0"":""15""}","[0]","15","",""
"","null","html-keyboard-response","103","656656","0.0-25.0-0.0","SS1619739611736","","","null","","","","","","<p><img src= images/blank.png width =""600"" height = ""600"" style=""position:fixed;top:50%; left:50%; transform: translate(-50%, -50%); border:5px solid black"">","","","","","","","",""
"","2909.7200001124293","sequential-stimulus-presentation-old","104","674576","0.0-25.0-1.0","SS1619739611736","trial","","40","500","3409.7200001124293","images/stimuli/spore_stims/simple_09_A_b.gif","images/stimuli/spore_stims/simple_05_A_a.gif","forced_long","","8","simple_dissimilar","images/stimuli/spore_stims/simple_05_A_a.gif","","","","",""
"","null","html-keyboard-response","105","675563","0.0-25.0-0.1","SS1619739611736","","","null","","","","","","<p><img src= images/blank.png width =""600"" height = ""600"" style=""position:fixed;top:50%; left:50%; transform: translate(-50%, -50%); border:5px solid black"">","","","","","","","",""
"","5947.854999918491","sequential-stimulus-presentation-old","106","682021","0.0-25.0-1.1","SS1619739611736","trial","","40","500","6447.854999918491","images/stimuli/spore_stims/simple_09_A_b.gif","images/stimuli/spore_stims/simple_05_A_a.gif","forced_long","","8","simple_dissimilar","images/stimuli/spore_stims/simple_05_A_a.gif","","","","",""
"","null","html-keyboard-response","107","683180","0.0-25.0-0.2","SS1619739611736","","","null","","","","","","<p><img src= images/blank.png width =""600"" height = ""600"" style=""position:fixed;top:50%; left:50%; transform: translate(-50%, -50%); border:5px solid black"">","","","","","","","",""
"","6897.055000066757","sequential-stimulus-presentation-old","108","690586","0.0-25.0-1.2","SS1619739611736","trial","","40","500","7397.055000066757","images/stimuli/spore_stims/simple_09_A_b.gif","images/stimuli/spore_stims/simple_05_A_a.gif","forced_long","","8","simple_dissimilar","images/stimuli/spore_stims/simple_05_A_a.gif","","","","",""
"","null","html-keyboard-response","109","691635","0.0-25.0-0.3","SS1619739611736","","","null","","","","","","<p><img src= images/blank.png width =""600"" height = ""600"" style=""position:fixed;top:50%; left:50%; transform: translate(-50%, -50%); border:5px solid black"">","","","","","","","",""
"","5688.809999963269","sequential-stimulus-presentation-old","110","697837","0.0-25.0-1.3","SS1619739611736","trial","","40","500","6188.809999963269","images/stimuli/spore_stims/simple_09_A_b.gif","images/stimuli/spore_stims/simple_05_A_a.gif","forced_long","","8","simple_dissimilar","images/stimuli/spore_stims/simple_05_A_a.gif","","","","",""
"","2513.200000161305","survey-multi-choice","111","700354","0.0-26.0","SS1619739611736","math_question","","","","","","","","","","","","{""Q0"":""10""}","[0]","10","",""
"","null","html-keyboard-response","112","701549","0.0-27.0-0.0","SS1619739611736","","","null","","","","","","<p><img src= images/blank.png width =""600"" height = ""600"" style=""position:fixed;top:50%; left:50%; transform: translate(-50%, -50%); border:5px solid black"">","","","","","","","",""
"","1242.6249999552965","sequential-stimulus-presentation-old","113","703294","0.0-27.0-1.0","SS1619739611736","trial","","40","500","1742.6249999552965","images/stimuli/spore_stims/complex_18_A_a.gif","images/stimuli/spore_stims/complex_03_A_b.gif","forced_short","","9","complex_dissimilar","images/stimuli/spore_stims/complex_03_A_b.gif","","","","",""
"","null","html-keyboard-response","114","704539","0.0-27.0-0.1","SS1619739611736","","","null","","","","","","<p><img src= images/blank.png width =""600"" height = ""600"" style=""position:fixed;top:50%; left:50%; transform: translate(-50%, -50%); border:5px solid black"">","","","","","","","",""
"","5818.029999965802","sequential-stimulus-presentation-old","115","710864","0.0-27.0-1.1","SS1619739611736","trial","","40","500","6318.029999965802","images/stimuli/spore_stims/complex_18_A_a.gif","images/stimuli/spore_stims/complex_03_A_b.gif","forced_short","","9","complex_dissimilar","images/stimuli/spore_stims/complex_03_A_b.gif","","","","",""
"","null","html-keyboard-response","116","711971","0.0-27.0-0.2","SS1619739611736","","","null","","","","","","<p><img src= images/blank.png width =""600"" height = ""600"" style=""position:fixed;top:50%; left:50%; transform: translate(-50%, -50%); border:5px solid black"">","","","","","","","",""
"","3429.759999969974","sequential-stimulus-presentation-old","117","715913","0.0-27.0-1.2","SS1619739611736","trial","","40","500","3929.759999969974","images/stimuli/spore_stims/complex_18_A_a.gif","images/stimuli/spore_stims/complex_03_A_b.gif","forced_short","","9","complex_dissimilar","images/stimuli/spore_stims/complex_03_A_b.gif","","","","",""
"","null","html-keyboard-response","118","716757","0.0-27.0-0.3","SS1619739611736","","","null","","","","","","<p><img src= images/blank.png width =""600"" height = ""600"" style=""position:fixed;top:50%; left:50%; transform: translate(-50%, -50%); border:5px solid black"">","","","","","","","",""
"","6471.589999971911","sequential-stimulus-presentation-old","119","723739","0.0-27.0-1.3","SS1619739611736","trial","","40","500","6971.589999971911","images/stimuli/spore_stims/complex_18_A_a.gif","images/stimuli/spore_stims/complex_03_A_b.gif","forced_short","","9","complex_dissimilar","images/stimuli/spore_stims/complex_03_A_b.gif","","","","",""
"","2664.525000145659","survey-multi-choice","120","726408","0.0-28.0","SS1619739611736","math_question","","","","","","","","","","","","{""Q0"":""9""}","[0]","9","",""
"","null","html-keyboard-response","121","727342","0.0-29.0-0.0","SS1619739611736","","","null","","","","","","<p><img src= images/blank.png width =""600"" height = ""600"" style=""position:fixed;top:50%; left:50%; transform: translate(-50%, -50%); border:5px solid black"">","","","","","","","",""
"","2790.305000031367","sequential-stimulus-presentation-old","122","730638","0.0-29.0-1.0","SS1619739611736","trial","","40","500","3290.305000031367","images/stimuli/spore_stims/complex_08_A_a.gif","images/stimuli/spore_stims/complex_09_A_b.gif","self_paced","","10","complex_dissimilar","images/stimuli/spore_stims/complex_09_A_b.gif","","","","",""
"","null","html-keyboard-response","123","731517","0.0-29.0-0.1","SS1619739611736","","","null","","","","","","<p><img src= images/blank.png width =""600"" height = ""600"" style=""position:fixed;top:50%; left:50%; transform: translate(-50%, -50%); border:5px solid black"">","","","","","","","",""
"","7329.09999997355","sequential-stimulus-presentation-old","124","739356","0.0-29.0-1.1","SS1619739611736","trial","","40","500","7829.09999997355","images/stimuli/spore_stims/complex_08_A_a.gif","images/stimuli/spore_stims/complex_09_A_b.gif","self_paced","","10","complex_dissimilar","images/stimuli/spore_stims/complex_09_A_b.gif","","","","",""
"","null","html-keyboard-response","125","740179","0.0-29.0-0.2","SS1619739611736","","","null","","","","","","<p><img src= images/blank.png width =""600"" height = ""600"" style=""position:fixed;top:50%; left:50%; transform: translate(-50%, -50%); border:5px solid black"">","","","","","","","",""
"","6102.779999841005","sequential-stimulus-presentation-old","126","746790","0.0-29.0-1.2","SS1619739611736","trial","","40","500","6602.779999841005","images/stimuli/spore_stims/complex_08_A_a.gif","images/stimuli/spore_stims/complex_09_A_b.gif","self_paced","","10","complex_dissimilar","images/stimuli/spore_stims/complex_09_A_b.gif","","","","",""
"","null","html-keyboard-response","127","747723","0.0-29.0-0.3","SS1619739611736","","","null","","","","","","<p><img src= images/blank.png width =""600"" height = ""600"" style=""position:fixed;top:50%; left:50%; transform: translate(-50%, -50%); border:5px solid black"">","","","","","","","",""
"","3714.5249999593943","sequential-stimulus-presentation-old","128","751953","0.0-29.0-1.3","SS1619739611736","trial","","40","500","4214.524999959394","images/stimuli/spore_stims/complex_08_A_a.gif","images/stimuli/spore_stims/complex_09_A_b.gif","self_paced","","10","complex_dissimilar","images/stimuli/spore_stims/complex_09_A_b.gif","","","","",""
"","3405.100000090897","survey-multi-choice","129","755363","0.0-30.0","SS1619739611736","math_question","","","","","","","","","","","","{""Q0"":""8""}","[0]","8","",""
"","null","html-keyboard-response","130","756455","0.0-31.0-0.0","SS1619739611736","","","null","","","","","","<p><img src= images/blank.png width =""600"" height = ""600"" style=""position:fixed;top:50%; left:50%; transform: translate(-50%, -50%); border:5px solid black"">","","","","","","","",""
"","1351.920000044629","sequential-stimulus-presentation-old","131","758320","0.0-31.0-1.0","SS1619739611736","trial","","40","500","1851.920000044629","images/stimuli/spore_stims/simple_03_A_b.gif","images/stimuli/spore_stims/simple_02_A_a.gif","forced_short","","11","simple_dissimilar","images/stimuli/spore_stims/simple_02_A_a.gif","","","","",""
"","null","html-keyboard-response","132","759567","0.0-31.0-0.1","SS1619739611736","","","null","","","","","","<p><img src= images/blank.png width =""600"" height = ""600"" style=""position:fixed;top:50%; left:50%; transform: translate(-50%, -50%); border:5px solid black"">","","","","","","","",""
"","5360.45500007458","sequential-stimulus-presentation-old","133","765444","0.0-31.0-1.1","SS1619739611736","trial","","40","500","5860.45500007458","images/stimuli/spore_stims/simple_03_A_b.gif","images/stimuli/spore_stims/simple_02_A_a.gif","forced_short","","11","simple_dissimilar","images/stimuli/spore_stims/simple_03_A_b.gif","","","","",""
"","null","html-keyboard-response","134","766268","0.0-31.0-0.2","SS1619739611736","","","null","","","","","","<p><img src= images/blank.png width =""600"" height = ""600"" style=""position:fixed;top:50%; left:50%; transform: translate(-50%, -50%); border:5px solid black"">","","","","","","","",""
"","5808.979999972507","sequential-stimulus-presentation-old","135","772586","0.0-31.0-1.2","SS1619739611736","trial","","40","500","6308.979999972507","images/stimuli/spore_stims/simple_03_A_b.gif","images/stimuli/spore_stims/simple_02_A_a.gif","forced_short","","11","simple_dissimilar","images/stimuli/spore_stims/simple_02_A_a.gif","","","","",""
"","null","html-keyboard-response","136","773512","0.0-31.0-0.3","SS1619739611736","","","null","","","","","","<p><img src= images/blank.png width =""600"" height = ""600"" style=""position:fixed;top:50%; left:50%; transform: translate(-50%, -50%); border:5px solid black"">","","","","","","","",""
"","4643.580000149086","sequential-stimulus-presentation-old","137","778672","0.0-31.0-1.3","SS1619739611736","trial","","40","500","5143.580000149086","images/stimuli/spore_stims/simple_03_A_b.gif","images/stimuli/spore_stims/simple_02_A_a.gif","forced_short","","11","simple_dissimilar","images/stimuli/spore_stims/simple_02_A_a.gif","","","","",""
"","null","html-keyboard-response","138","779658","0.0-31.0-0.4","SS1619739611736","","","null","","","","","","<p><img src= images/blank.png width =""600"" height = ""600"" style=""position:fixed;top:50%; left:50%; transform: translate(-50%, -50%); border:5px solid black"">","","","","","","","",""
"","3286.5299999248236","sequential-stimulus-presentation-old","139","783459","0.0-31.0-1.4","SS1619739611736","trial","","40","500","3786.5299999248236","images/stimuli/spore_stims/simple_03_A_b.gif","images/stimuli/spore_stims/simple_02_A_a.gif","forced_short","","11","simple_dissimilar","images/stimuli/spore_stims/simple_02_A_a.gif","","","","",""
"[{""page_index"":0,""viewing_time"":5755.524999927729}]","5755.855000112206","instructions","140","789219","0.0-32.0","SS1619739611736","instructions","","","","","","","","","","","","","","","",""
"","7273.129999870434","survey-likert","141","796499","0.0-33.0","SS1619739611736","similarity_question","","","","","","","","","","","","{""Q0"":4}","[0]","","images/stimuli/spore_stims/complex_13_A_b.gif","images/stimuli/spore_stims/complex_14_A_a.gif"
"","5722.675000084564","survey-likert","142","802234","0.0-34.0","SS1619739611736","similarity_question","","","","","","","","","","","","{""Q0"":5}","[0]","","images/stimuli/spore_stims/simple_09_A_b.gif","images/stimuli/spore_stims/simple_05_A_a.gif"
"","4302.4399999994785","survey-likert","143","806550","0.0-35.0","SS1619739611736","similarity_question","","","","","","","","","","","","{""Q0"":2}","[0]","","images/stimuli/spore_stims/complex_19_A_a.gif","images/stimuli/spore_stims/complex_17_A_b.gif"
"","3709.5500000286847","survey-likert","144","810269","0.0-36.0","SS1619739611736","similarity_question","","","","","","","","","","","","{""Q0"":5}","[0]","","images/stimuli/spore_stims/simple_07_A_b.gif","images/stimuli/spore_stims/simple_17_A_a.gif"
"","14913.995000068098","survey-likert","145","825197","0.0-37.0","SS1619739611736","similarity_question","","","","","","","","","","","","{""Q0"":2}","[0]","","images/stimuli/spore_stims/simple_03_A_b.gif","images/stimuli/spore_stims/simple_02_A_a.gif"
"","4320.689999964088","survey-likert","146","829532","0.0-38.0","SS1619739611736","similarity_question","","","","","","","","","","","","{""Q0"":1}","[0]","","images/stimuli/spore_stims/simple_05_A_b.gif","images/stimuli/spore_stims/simple_18_A_a.gif"
"","6459.880000213161","survey-likert","147","836007","0.0-39.0","SS1619739611736","similarity_question","","","","","","","","","","","","{""Q0"":2}","[0]","","images/stimuli/spore_stims/complex_08_A_a.gif","images/stimuli/spore_stims/complex_09_A_b.gif"
"","8156.184999970719","survey-likert","148","844178","0.0-40.0","SS1619739611736","similarity_question","","","","","","","","","","","","{""Q0"":0}","[0]","","images/stimuli/spore_stims/complex_05_A_b.gif","images/stimuli/spore_stims/complex_20_A_a.gif"
"","4469.760000007227","survey-likert","149","848661","0.0-41.0","SS1619739611736","similarity_question","","","","","","","","","","","","{""Q0"":5}","[0]","","images/stimuli/spore_stims/simple_16_A_b.gif","images/stimuli/spore_stims/simple_11_A_a.gif"
"","8426.265000132844","survey-likert","150","857102","0.0-42.0","SS1619739611736","similarity_question","","","","","","","","","","","","{""Q0"":2}","[0]","","images/stimuli/spore_stims/complex_03_A_b.gif","images/stimuli/spore_stims/complex_18_A_a.gif"
"","8255.309999920428","survey-likert","151","865373","0.0-43.0","SS1619739611736","similarity_question","","","","","","","","","","","","{""Q0"":0}","[0]","","images/stimuli/spore_stims/complex_11_A_a.gif","images/stimuli/spore_stims/complex_02_A_b.gif"
"","4398.829999845475","survey-likert","152","869783","0.0-44.0","SS1619739611736","similarity_question","","","","","","","","","","","","{""Q0"":4}","[0]","","images/stimuli/spore_stims/simple_20_A_b.gif","images/stimuli/spore_stims/simple_01_A_a.gif"
"[{""page_index"":0,""viewing_time"":5543.97500003688}]","5544.340000022203","instructions","153","875340","0.0-45.0","SS1619739611736","instructions","","","","","","","","","","","","","","","",""
"","9557.700000004843","survey-likert","154","884904","0.0-46.0","SS1619739611736","","","","","","","","","images/stimuli/spore_stims/simple_17_A_a.gif","","","","{""Q0"":2}","[0]","","",""
"","4843.269999837503","survey-likert","155","889760","0.0-47.0","SS1619739611736","","","","","","","","","images/stimuli/spore_stims/complex_20_A_a.gif","","","","{""Q0"":6}","[0]","","",""
"","2996.8149999622256","survey-likert","156","892771","0.0-48.0","SS1619739611736","","","","","","","","","images/stimuli/spore_stims/simple_16_A_b.gif","","","","{""Q0"":1}","[0]","","",""
"","4715.929999947548","survey-likert","157","897501","0.0-49.0","SS1619739611736","","","","","","","","","images/stimuli/spore_stims/simple_01_A_a.gif","","","","{""Q0"":1}","[0]","","",""
"","2964.9100000970066","survey-likert","158","900480","0.0-50.0","SS1619739611736","","","","","","","","","images/stimuli/spore_stims/simple_03_A_b.gif","","","","{""Q0"":2}","[0]","","",""
"","6659.125000005588","survey-likert","159","907154","0.0-51.0","SS1619739611736","","","","","","","","","images/stimuli/spore_stims/complex_14_A_a.gif","","","","{""Q0"":5}","[0]","","",""
"","6519.120000069961","survey-likert","160","913687","0.0-52.0","SS1619739611736","","","","","","","","","images/stimuli/spore_stims/simple_18_A_a.gif","","","","{""Q0"":1}","[0]","","",""
"","5223.38500013575","survey-likert","161","918925","0.0-53.0","SS1619739611736","","","","","","","","","images/stimuli/spore_stims/complex_02_A_b.gif","","","","{""Q0"":5}","[0]","","",""
"","3992.989999940619","survey-likert","162","922930","0.0-54.0","SS1619739611736","","","","","","","","","images/stimuli/spore_stims/simple_09_A_b.gif","","","","{""Q0"":1}","[0]","","",""
"","4633.200000040233","survey-likert","163","927576","0.0-55.0","SS1619739611736","","","","","","","","","images/stimuli/spore_stims/complex_03_A_b.gif","","","","{""Q0"":4}","[0]","","",""
"","5554.829999804497","survey-likert","164","933144","0.0-56.0","SS1619739611736","","","","","","","","","images/stimuli/spore_stims/complex_17_A_b.gif","","","","{""Q0"":5}","[0]","","",""
"","6241.959999781102","survey-likert","165","939399","0.0-57.0","SS1619739611736","","","","","","","","","images/stimuli/spore_stims/complex_08_A_a.gif","","","","{""Q0"":6}","[0]","","",""
"[{""page_index"":0,""viewing_time"":2768.9249999821186}]","2769.3050000816584","instructions","166","942180","0.0-58.0","SS1619739611736","instructions","","","","","","","","","","","","","","","",""
"","2951.3299998361617","demog-age","167","945141","0.0-59.0","SS1619739611736","","","","","","","","","","","","","{""age"":""19""}","","","",""
"","7020.994999911636","demog-ethnic-US","168","952171","0.0-60.0","SS1619739611736","","","","","","","","","","","","","{""ethnicity"":[""White""]}","[0]","","",""
"","13990.43000000529","demog-gender-and-education","169","966173","0.0-61.0","SS1619739611736","","","","","","","","","","","","","{""gender"":""Female"",""education"":""High school diploma""}","[0,1]","","",""
"","10152.669999981299","survey-text","170","976339","0.0-62.0","SS1619739611736","feedback","","","","","","","","","","","","{""Q0"":""No, everything was fine""}","","","",""
"[{""page_index"":0,""viewing_time"":2291.535000083968}]","2291.865000035614","instructions","171","978637","0.0-63.0","SS1619739611736","instructions","","","","","","","","","","","","","","","",""
